time,seconds_elapsed,z,y,x
1772480048289312300,0.078312255859375,1.0113775730133057,-1.5282377004623413,0.4823104441165924
1772480048299310000,0.08831005859375,1.0276134014129639,-1.543813943862915,0.5289559364318848
1772480048309308400,0.098308349609375,1.0397052764892578,-1.5701673030853271,0.5556650757789612
1772480048319306500,0.108306396484375,1.0252057313919067,-1.6072267293930054,0.5731723308563232
1772480048329304300,0.11830419921875,0.9895204901695251,-1.64788019657135,0.5822584629058838
1772480048339301400,0.12830126953125,0.9609536528587341,-1.695266842842102,0.5836195349693298
1772480048349299200,0.13829931640625,0.929728627204895,-1.7520869970321655,0.5644120573997498
1772480048359297300,0.14829736328125,0.8908142447471619,-1.8012639284133911,0.5324367880821228
1772480048369295400,0.15829541015625,0.8467914462089539,-1.8157445192337036,0.5001204013824463
1772480048379293200,0.168293212890625,0.8102734088897705,-1.7599945068359375,0.4859754145145416
1772480048389291300,0.178291259765625,0.7791162729263306,-1.7170891761779785,0.4601685702800751
1772480048399288000,0.1882880859375,0.7605867385864258,-1.6932330131530762,0.4235842823982239
1772480048409286100,0.1982861328125,0.7539488077163696,-1.6393506526947021,0.3956035375595093
1772480048419284200,0.2082841796875,0.7568650841712952,-1.5867220163345337,0.38446560502052307
1772480048429282300,0.2182822265625,0.7665699124336243,-1.5550421476364136,0.38531967997550964
1772480048439280400,0.2282802734375,0.7733174562454224,-1.5308513641357422,0.37276691198349
1772480048449278500,0.238278564453125,0.7856026291847229,-1.5186125040054321,0.3546513020992279
1772480048459275300,0.248275146484375,0.8021312952041626,-1.5207734107971191,0.3410724699497223
1772480048469273300,0.2582734375,0.7950576543807983,-1.5706030130386353,0.33309683203697205
1772480048479271200,0.268271240234375,0.7898290753364563,-1.5993390083312988,0.3232221305370331
1772480048489269200,0.278269287109375,0.7772552371025085,-1.6185400485992432,0.3184792995452881
1772480048499267300,0.288267333984375,0.7764787673950195,-1.6290539503097534,0.3153478503227234
1772480048509265200,0.29826513671875,0.7820024490356445,-1.6272293329238892,0.3323633372783661
1772480048519262200,0.30826220703125,0.7987721562385559,-1.6184378862380981,0.39330270886421204
1772480048529260000,0.318260009765625,0.8127180337905884,-1.610802173614502,0.4702869653701782
1772480048539258400,0.32825830078125,0.8259607553482056,-1.6114575862884521,0.48822206258773804
1772480048549256400,0.33825634765625,0.8201947808265686,-1.6443856954574585,0.46015259623527527
1772480048559254300,0.348254150390625,0.8252025246620178,-1.6521672010421753,0.4193526804447174
1772480048569252400,0.35825244140625,0.8273165225982666,-1.6426563262939453,0.36634084582328796
1772480048579249400,0.36824951171875,0.8321186900138855,-1.637060523033142,0.3249162435531616
1772480048589247200,0.378247314453125,0.8423672914505005,-1.6273876428604126,0.3135213851928711
1772480048599245300,0.388245361328125,0.8500679135322571,-1.6173505783081055,0.3200596570968628
1772480048609243100,0.3982431640625,0.8646958470344543,-1.6235568523406982,0.2985120117664337
1772480048619241200,0.4082412109375,0.8926621675491333,-1.6083546876907349,0.2773111164569855
1772480048629239300,0.4182392578125,0.9261327385902405,-1.5313539505004883,0.27301225066185
1772480048639236000,0.428236083984375,0.9558145403862,-1.447676658630371,0.29724442958831787
1772480048649234200,0.438234130859375,0.9576247334480286,-1.3335076570510864,0.3260297477245331
1772480048659232300,0.448232177734375,0.9424657821655273,-1.21403968334198,0.34959885478019714
1772480048669230300,0.458230224609375,0.9082921147346497,-1.147361397743225,0.39484357833862305
1772480048679228400,0.468228515625,0.8332669138908386,-1.1240917444229126,0.4409480690956116
1772480048689226200,0.478226318359375,0.7190157175064087,-1.1522077322006226,0.4774927794933319
1772480048699223300,0.488223388671875,0.6059629321098328,-1.2083085775375366,0.4686112701892853
1772480048709221400,0.498221435546875,0.4992908835411072,-1.316931128501892,0.4234461784362793
1772480048719219200,0.50821923828125,0.4000616669654846,-1.4032278060913086,0.4087999761104584
1772480048729217300,0.51821728515625,0.3516414165496826,-1.4539316892623901,0.4213618338108063
1772480048739215400,0.52821533203125,0.3545067310333252,-1.4392049312591553,0.41405388712882996
1772480048749212200,0.538212158203125,0.39271244406700134,-1.3572155237197876,0.35941168665885925
1772480048759210200,0.548210205078125,0.44902440905570984,-1.2224013805389404,0.28381478786468506
1772480048769208300,0.558208251953125,0.47396090626716614,-1.0171393156051636,0.19989672303199768
1772480048779206400,0.568206298828125,0.4456990659236908,-0.8366450071334839,0.09621323645114899
1772480048789204500,0.57820458984375,0.3757324814796448,-0.7909020185470581,-0.02568949945271015
1772480048799202300,0.588202392578125,0.3139370083808899,-0.9081789255142212,-0.15447790920734406
1772480048809199400,0.598199462890625,0.21704186499118805,-1.023390293121338,-0.26110899448394775
1772480048819197200,0.608197265625,0.1410389244556427,-1.0564008951187134,-0.3054278492927551
1772480048829195300,0.6181953125,0.14615991711616516,-1.0605895519256592,-0.281112402677536
1772480048839193300,0.628193359375,0.15768077969551086,-1.107488989830017,-0.18259109556674957
1772480048849191200,0.638191162109375,0.149510458111763,-1.1435716152191162,-0.048859402537345886
1772480048859189200,0.648189208984375,0.15703357756137848,-1.1053061485290527,0.07760339975357056
1772480048869186000,0.65818603515625,0.15384738147258759,-1.0637270212173462,0.17819258570671082
1772480048879184100,0.66818408203125,0.11114540696144104,-1.03086256980896,0.2628021836280823
1772480048889182200,0.67818212890625,0.11330176889896393,-1.0331203937530518,0.3018641173839569
1772480048899180300,0.68818017578125,0.1587546467781067,-0.9806397557258606,0.2998012900352478
1772480048909178400,0.698178466796875,0.2228555977344513,-0.8679182529449463,0.3048977851867676
1772480048919176400,0.708176513671875,0.30719682574272156,-0.7645608186721802,0.3158195912837982
1772480048929173200,0.71817333984375,0.3730895519256592,-0.7033395171165466,0.333766907453537
1772480048939171300,0.72817138671875,0.4157125949859619,-0.7155035734176636,0.3218124508857727
1772480048949169200,0.738169189453125,0.45862358808517456,-0.7874813675880432,0.27494001388549805
1772480048959167200,0.748167236328125,0.47901463508605957,-0.8821097016334534,0.21814414858818054
1772480048969165300,0.758165283203125,0.4836708903312683,-0.9845489859580994,0.16324575245380402
1772480048979163100,0.7681630859375,0.4908246099948883,-1.0717955827713013,0.0967022255063057
1772480048989160200,0.77816015625,0.5041398406028748,-1.1264891624450684,0.040561459958553314
1772480048999158300,0.788158203125,0.5310268998146057,-1.1706327199935913,0.018457546830177307
1772480049009156400,0.79815625,0.5677670836448669,-1.180666208267212,0.04249497503042221
1772480049019154400,0.808154541015625,0.6141558885574341,-1.1527503728866577,0.05642275884747505
1772480049029152300,0.81815234375,0.6542772054672241,-1.1218141317367554,0.06416217237710953
1772480049039150300,0.828150390625,0.6719383597373962,-1.1052560806274414,0.05876265838742256
1772480049049147400,0.8381474609375,0.6745138764381409,-1.0720767974853516,0.0565573014318943
1772480049059145200,0.848145263671875,0.6760731935501099,-1.0504255294799805,0.041811175644397736
1772480049069143300,0.858143310546875,0.6746396422386169,-1.0054476261138916,0.02558879554271698
1772480049079141400,0.868141357421875,0.6624427437782288,-0.9437814950942993,0.05202677100896835
1772480049089139200,0.87813916015625,0.7081937193870544,-0.8599672913551331,0.07472861558198929
1772480049099137300,0.88813720703125,0.6900367140769958,-0.7830845713615417,0.12654919922351837
1772480049109134000,0.898134033203125,0.6486642360687256,-0.7154125571250916,0.17400380969047546
1772480049119132200,0.908132080078125,0.6294691562652588,-0.6654095649719238,0.18729127943515778
1772480049129130200,0.918130126953125,0.6025882959365845,-0.6510545611381531,0.1940346658229828
1772480049139128000,0.928128173828125,0.5582754611968994,-0.6367926597595215,0.19076892733573914
1772480049149126100,0.938126220703125,0.5175743699073792,-0.6108079552650452,0.19142194092273712
1772480049159124200,0.948124267578125,0.4740717113018036,-0.5830771923065186,0.18861374258995056
1772480049169121000,0.95812109375,0.43665722012519836,-0.5653991103172302,0.17086350917816162
1772480049179119000,0.968119140625,0.39811402559280396,-0.5567638874053955,0.14094595611095428
1772480049189117000,0.978116943359375,0.3610481321811676,-0.549038290977478,0.10575947165489197
1772480049199115000,0.988114990234375,0.34154242277145386,-0.5453041791915894,0.07713884115219116
1772480049209113000,0.998113037109375,0.32176336646080017,-0.5443071126937866,0.06676316261291504
1772480049219110000,1.00810986328125,0.2878457307815552,-0.5633086562156677,0.06194068118929863
1772480049229108000,1.01810791015625,0.2509007751941681,-0.5796511173248291,0.04330707713961601
1772480049239106000,1.02810595703125,0.2193259447813034,-0.5689083337783813,0.027351314201951027
1772480049249104100,1.038104248046875,0.1861000806093216,-0.5568748116493225,0.03782099857926369
1772480049259102200,1.048102294921875,0.1610485166311264,-0.5694876313209534,0.07364610582590103
1772480049269100000,1.05810009765625,0.15062010288238525,-0.5925607681274414,0.12353349477052689
1772480049279097000,1.06809716796875,0.13363584876060486,-0.5951131582260132,0.16434015333652496
1772480049289095200,1.07809521484375,0.11495324224233627,-0.5867881178855896,0.19995087385177612
1772480049299093000,1.088093017578125,0.10199107974767685,-0.603823721408844,0.21529491245746613
1772480049309091000,1.098091064453125,0.08517482131719589,-0.6518372893333435,0.2013426125049591
1772480049319089000,1.1080888671875,0.07196476310491562,-0.705191969871521,0.1682930886745453
1772480049329087000,1.1180869140625,0.08393514156341553,-0.7755798697471619,0.10927717387676239
1772480049339084000,1.128083984375,0.1010250449180603,-0.7868204712867737,0.0072309598326683044
1772480049349082000,1.13808203125,0.11140550673007965,-0.6924018263816833,-0.11043255776166916
1772480049359080200,1.148080078125,0.10008392482995987,-0.5083796381950378,-0.20907087624073029
1772480049369078300,1.158078369140625,0.06545297801494598,-0.3537461459636688,-0.2397928386926651
1772480049379076000,1.168076171875,0.009088071063160896,-0.25055357813835144,-0.16989266872406006
1772480049389074200,1.17807421875,-0.024066686630249023,-0.1924833357334137,-0.03507068008184433
1772480049399071000,1.188071044921875,0.021645784378051758,-0.1477808654308319,0.09035111218690872
1772480049409069000,1.198069091796875,0.06596584618091583,-0.13385678827762604,0.17354533076286316
1772480049419067100,1.208067138671875,0.11191987246274948,-0.15169154107570648,0.22663596272468567
1772480049429065000,1.21806494140625,0.18303853273391724,-0.1597457379102707,0.24190998077392578
1772480049439063000,1.22806298828125,0.2532661259174347,-0.20368093252182007,0.1950347125530243
1772480049449059800,1.238059814453125,0.2870035767555237,-0.32682177424430847,0.12173280864953995
1772480049459058000,1.248057861328125,0.27752673625946045,-0.4888923466205597,0.03961290791630745
1772480049469056300,1.25805615234375,0.24545161426067352,-0.6369017958641052,-0.01627326011657715
1772480049479054000,1.26805419921875,0.16759678721427917,-0.7117760181427002,-0.029660910367965698
1772480049489052200,1.27805224609375,0.09130948036909103,-0.7560606598854065,0.019804909825325012
1772480049499050200,1.28805029296875,0.014498643577098846,-0.7884916663169861,0.12705665826797485
1772480049509047000,1.298047119140625,-0.05045851692557335,-0.8152053356170654,0.24622833728790283
1772480049519045000,1.308045166015625,-0.10770944505929947,-0.8469764590263367,0.32366713881492615
1772480049529043000,1.31804296875,-0.131232351064682,-0.8411526083946228,0.36547502875328064
1772480049539041000,1.328041015625,-0.10935717821121216,-0.7253962755203247,0.37714654207229614
1772480049549039000,1.3380390625,-0.04050620272755623,-0.5785485506057739,0.3803902864456177
1772480049559037000,1.348036865234375,0.044689781963825226,-0.44027310609817505,0.4004446566104889
1772480049569034000,1.358033935546875,0.15328310430049896,-0.307237833738327,0.4133591055870056
1772480049579032000,1.368031982421875,0.2723109722137451,-0.2174200564622879,0.4383644163608551
1772480049589030100,1.378030029296875,0.3736892640590668,-0.17417937517166138,0.4759727716445923
1772480049599028200,1.3880283203125,0.4618103504180908,-0.2099614292383194,0.5494576692581177
1772480049609026000,1.398026123046875,0.5233466625213623,-0.309763640165329,0.6400160789489746
1772480049619024100,1.408024169921875,0.5814157128334045,-0.4417676627635956,0.7121014595031738
1772480049629021200,1.418021240234375,0.5964359641075134,-0.5880846977233887,0.7349468469619751
1772480049639019000,1.42801904296875,0.564750075340271,-0.6928159594535828,0.7178034782409668
1772480049649017000,1.43801708984375,0.5331529974937439,-0.7424213290214539,0.6934638023376465
1772480049659015000,1.448014892578125,0.49151939153671265,-0.7367883920669556,0.6530423164367676
1772480049669013000,1.458012939453125,0.4637008011341095,-0.7378643155097961,0.6104536056518555
1772480049679011000,1.468010986328125,0.44856321811676025,-0.7662194967269897,0.5900356769561768
1772480049689007900,1.4780078125,0.4582912027835846,-0.7513931393623352,0.554526150226593
1772480049699006200,1.488006103515625,0.4670253396034241,-0.7021285891532898,0.4854389727115631
1772480049709004300,1.49800439453125,0.4641038775444031,-0.6709021925926208,0.40450364351272583
1772480049719002000,1.508002197265625,0.4761705994606018,-0.6289361715316772,0.32543089985847473
1772480049729000200,1.518000244140625,0.49659812450408936,-0.5243195295333862,0.2522975504398346
1772480049738997000,1.5279970703125,0.5037107467651367,-0.4261012375354767,0.20960727334022522
1772480049748995000,1.5379951171875,0.499733030796051,-0.38755518198013306,0.23727113008499146
1772480049758993200,1.5479931640625,0.46679985523223877,-0.3532049357891083,0.2137961983680725
1772480049768991000,1.557990966796875,0.4178712069988251,-0.34363219141960144,0.1332014799118042
1772480049778989000,1.567989013671875,0.38974741101264954,-0.38215142488479614,0.04962269216775894
1772480049788987100,1.577987060546875,0.37788301706314087,-0.4155280292034149,0.003406194970011711
1772480049798984000,1.58798388671875,0.36111339926719666,-0.4213123023509979,-0.004413341172039509
1772480049808982000,1.59798193359375,0.35095077753067017,-0.3929951786994934,0.00016090413555502892
1772480049818980000,1.60797998046875,0.3309870958328247,-0.3965042531490326,0.04239441081881523
1772480049828978200,1.617978271484375,0.2970203459262848,-0.4063640832901001,0.09842252731323242
1772480049838976300,1.627976318359375,0.26155683398246765,-0.3911559581756592,0.12046993523836136
1772480049848974000,1.63797412109375,0.22900207340717316,-0.36041080951690674,0.1387655884027481
1772480049858971100,1.64797119140625,0.1989256888628006,-0.33265507221221924,0.16095773875713348
1772480049868969000,1.657968994140625,0.1762336939573288,-0.3309203088283539,0.17726214230060577
1772480049878967000,1.667967041015625,0.14010706543922424,-0.31669557094573975,0.19065910577774048
1772480049888965000,1.677965087890625,0.11801162362098694,-0.3217656910419464,0.1989535391330719
1772480049898963000,1.687962890625,0.0951397642493248,-0.31781524419784546,0.19588616490364075
1772480049908961000,1.6979609375,0.062382616102695465,-0.31356802582740784,0.16903191804885864
1772480049918957800,1.707957763671875,0.03605099394917488,-0.284701406955719,0.11660196632146835
1772480049928956000,1.717955810546875,0.005843023769557476,-0.2818715274333954,0.06198772415518761
1772480049938954200,1.727954345703125,0.0005514854565262794,-0.24636341631412506,-0.0033608602825552225
1772480049948952000,1.7379521484375,0.010304247960448265,-0.21333807706832886,-0.08037175983190536
1772480049958950100,1.7479501953125,-0.018771372735500336,-0.23592916131019592,-0.14716069400310516
1772480049968947200,1.757947265625,-0.05997393652796745,-0.26412859559059143,-0.20114882290363312
1772480049978945000,1.767945068359375,-0.10342051833868027,-0.30502402782440186,-0.22962528467178345
1772480049988943000,1.777943115234375,-0.12989020347595215,-0.33332914113998413,-0.23828136920928955
1772480049998941000,1.78794091796875,-0.14126525819301605,-0.38266652822494507,-0.2289925515651703
1772480050008939000,1.79793896484375,-0.1526726335287094,-0.46543675661087036,-0.21361678838729858
1772480050018937000,1.80793701171875,-0.13773828744888306,-0.5238050222396851,-0.20253804326057434
1772480050028934000,1.817933837890625,-0.11712408810853958,-0.48910295963287354,-0.19820693135261536
1772480050038932000,1.827931884765625,-0.11648240685462952,-0.33768752217292786,-0.21356672048568726
1772480050048930000,1.837929931640625,-0.15127819776535034,-0.19125546514987946,-0.2470189481973648
1772480050058928000,1.84792822265625,-0.1963004171848297,-0.08793646097183228,-0.2537804841995239
1772480050068926200,1.85792626953125,-0.2399083524942398,0.013064458966255188,-0.21720117330551147
1772480050078924000,1.867924072265625,-0.2730214297771454,0.1237076073884964,-0.15423236787319183
1772480050088921000,1.877921142578125,-0.30996933579444885,0.16786041855812073,-0.08430761098861694
1772480050098919200,1.887919189453125,-0.3524736166000366,0.1583816558122635,-0.005777247250080109
1772480050108917000,1.8979169921875,-0.3830597400665283,0.059060923755168915,0.057676028460264206
1772480050118915000,1.9079150390625,-0.41470223665237427,-0.07174574583768845,0.10036300122737885
1772480050128913200,1.9179130859375,-0.46745413541793823,-0.15367230772972107,0.1443949043750763
1772480050138909700,1.92790966796875,-0.4973973333835602,-0.209279865026474,0.18847142159938812
1772480050148907800,1.93790771484375,-0.5157136917114258,-0.22137674689292908,0.22850166261196136
1772480050158905900,1.94790576171875,-0.540901780128479,-0.22106575965881348,0.265848845243454
1772480050168903700,1.957903564453125,-0.5353911519050598,-0.197230726480484,0.30391234159469604
1772480050178901800,1.96790185546875,-0.5001581311225891,-0.1300782710313797,0.31692972779273987
1772480050188899800,1.97789990234375,-0.4537203013896942,-0.03399594873189926,0.2876876890659332
1772480050198896600,1.987896728515625,-0.394509494304657,0.07633540779352188,0.24450764060020447
1772480050208894700,1.997894775390625,-0.2988431453704834,0.21420086920261383,0.18657375872135162
1772480050218892500,2.007892578125,-0.19009357690811157,0.3668464422225952,0.11479531228542328
1772480050228890600,2.017890625,-0.07467137277126312,0.4956587851047516,0.05968838185071945
1772480050238888700,2.027888671875,0.04705282673239708,0.5511376857757568,0.04725601151585579
1772480050248885500,2.037885498046875,0.167972594499588,0.5365790128707886,0.06936797499656677
1772480050258883800,2.0478837890625,0.2643413841724396,0.47970613837242126,0.0895228460431099
1772480050268882000,2.0578818359375,0.3451235890388489,0.390517920255661,0.1072738766670227
1772480050278879700,2.067879638671875,0.42688673734664917,0.3107773959636688,0.12441983819007874
1772480050288877800,2.0778779296875,0.48242831230163574,0.23476357758045197,0.11759842187166214
1772480050298875600,2.087875732421875,0.5222006440162659,0.14646649360656738,0.06606126576662064
1772480050308872700,2.097872802734375,0.5150631070137024,-0.0132020004093647,0.006185945123434067
1772480050318870800,2.107870849609375,0.453914612531662,-0.20189179480075836,-0.04863053187727928
1772480050328868600,2.11786865234375,0.35492703318595886,-0.3759956657886505,-0.09937547147274017
1772480050338866700,2.12786669921875,0.2716835141181946,-0.4804913103580475,-0.12298765778541565
1772480050348864800,2.13786474609375,0.21364793181419373,-0.4888285994529724,-0.1297837793827057
1772480050358862600,2.147862548828125,0.1204768568277359,-0.4586459696292877,-0.09964711964130402
1772480050368859600,2.157859619140625,0.063421830534935,-0.4599224328994751,-0.07360859215259552
1772480050378857700,2.167857666015625,-0.006485644727945328,-0.5244165062904358,0.010150960646569729
1772480050388855800,2.177855712890625,-0.06943904608488083,-0.5450056791305542,0.06409435719251633
1772480050398854000,2.18785400390625,-0.08314243704080582,-0.5124419331550598,0.05187290534377098
1772480050408851700,2.197851806640625,-0.06474026292562485,-0.4359623193740845,-0.007494281977415085
1772480050418849800,2.207849853515625,-0.03425343334674835,-0.4013178050518036,-0.07745173573493958
1772480050428846600,2.2178466796875,-0.012511387467384338,-0.39050403237342834,-0.17064586281776428
1772480050438844700,2.2278447265625,-0.005568908527493477,-0.4303306043148041,-0.2518216371536255
1772480050448842800,2.2378427734375,0.025621501728892326,-0.2921077311038971,-0.29677286744117737
1772480050458840600,2.247840576171875,0.09198366850614548,-0.06060010939836502,-0.3147195279598236
1772480050468838700,2.257838623046875,0.13645845651626587,0.0427987203001976,-0.29433223605155945
1772480050478835500,2.26783544921875,0.158203125,0.052453987300395966,-0.22650401294231415
1772480050488833800,2.277833740234375,0.19222873449325562,0.04955300688743591,-0.13090850412845612
1772480050498832000,2.287831787109375,0.2328720986843109,0.09310451149940491,-0.05994740128517151
1772480050508829700,2.29782958984375,0.22352680563926697,0.09362515807151794,-0.0011272295378148556
1772480050518827800,2.307827880859375,0.21429207921028137,-0.000668718945235014,0.05778149142861366
1772480050528825900,2.317825927734375,0.19723959267139435,-0.09183351695537567,0.09940669685602188
1772480050538822700,2.32782275390625,0.18087846040725708,-0.19603902101516724,0.10765238106250763
1772480050548820700,2.33782080078125,0.15375229716300964,-0.28774094581604004,0.10284856706857681
1772480050558818600,2.347818603515625,0.1258375644683838,-0.3214488923549652,0.12080779671669006
1772480050568816600,2.357816650390625,0.09591188281774521,-0.3546483814716339,0.1531265825033188
1772480050578814700,2.367814697265625,0.02911698818206787,-0.40919622778892517,0.18017442524433136
1772480050588811500,2.3778115234375,-0.03399380296468735,-0.47685757279396057,0.17061421275138855
1772480050598809600,2.3878095703125,-0.08084551990032196,-0.5530878305435181,0.12310197949409485
1772480050608807700,2.3978076171875,-0.12852434813976288,-0.6390741467475891,0.06548714637756348
1772480050618805800,2.4078056640625,-0.1792784184217453,-0.6847059726715088,0.01711016520857811
1772480050628803800,2.417803955078125,-0.22453057765960693,-0.7200412750244141,-0.017571914941072464
1772480050638801700,2.4278017578125,-0.27571505308151245,-0.7404276132583618,-0.034526094794273376
1772480050648798700,2.437798828125,-0.29129427671432495,-0.7259847521781921,-0.06485417485237122
1772480050658796800,2.447796875,-0.2633354961872101,-0.6390525698661804,-0.11411359161138535
1772480050668794600,2.457794677734375,-0.225858673453331,-0.49738362431526184,-0.2007659375667572
1772480050678792700,2.467792724609375,-0.1895667314529419,-0.3296506404876709,-0.3127489686012268
1772480050688790800,2.477790771484375,-0.1540052741765976,-0.19550001621246338,-0.4099620580673218
1772480050698787600,2.48778759765625,-0.11283398419618607,-0.09048756957054138,-0.44933608174324036
1772480050708785700,2.49778564453125,-0.04269218444824219,0.012156514450907707,-0.41857150197029114
1772480050718783700,2.50778369140625,0.03048994392156601,0.11327945441007614,-0.3396320641040802
1772480050728781800,2.51778173828125,0.086371049284935,0.1967644840478897,-0.22487381100654602
1772480050738780000,2.52777978515625,0.14505937695503235,0.18748576939105988,-0.08672129362821579
1772480050748777700,2.53777783203125,0.22277814149856567,0.09256350994110107,0.013629279099404812
1772480050758774800,2.54777490234375,0.23730026185512543,0.05521935224533081,0.07013843208551407
1772480050768772600,2.557772705078125,0.26339736580848694,0.006212132051587105,0.09356146305799484
1772480050778770700,2.567770751953125,0.29695287346839905,-0.1059192642569542,0.12258785963058472
1772480050788768800,2.577768798828125,0.3019036650657654,-0.23680616915225983,0.12981806695461273
1772480050798766600,2.5877666015625,0.2866891026496887,-0.40241187810897827,0.14951710402965546
1772480050808763600,2.597763671875,0.23182852566242218,-0.5010854601860046,0.17488797008991241
1772480050818761500,2.607761474609375,0.1802005171775818,-0.42575281858444214,0.10474760085344315
1772480050828759600,2.617759521484375,0.14132289588451385,-0.4358353018760681,0.12444886565208435
1772480050838757600,2.627757568359375,0.08331156522035599,-0.4865018129348755,0.19163942337036133
1772480050848755700,2.637755615234375,0.041724707931280136,-0.5060790181159973,0.22853031754493713
1772480050858753800,2.64775390625,0.06429513543844223,-0.4979865252971649,0.24729523062705994
1772480050868750600,2.65775048828125,0.10698933154344559,-0.47750309109687805,0.27051159739494324
1772480050878748700,2.667748779296875,0.16215579211711884,-0.460151344537735,0.2995786666870117
1772480050888746800,2.677746826171875,0.25931963324546814,-0.42553797364234924,0.3136904835700989
1772480050898744600,2.68774462890625,0.4098525643348694,-0.3385390043258667,0.3036794364452362
1772480050908742700,2.69774267578125,0.5735549330711365,-0.22936110198497772,0.2844311594963074
1772480050918740700,2.70774072265625,0.717552125453949,-0.16009336709976196,0.30131396651268005
1772480050928737500,2.717737548828125,0.8187642097473145,-0.1582496613264084,0.3810945451259613
1772480050938735600,2.727735595703125,0.8812867403030396,-0.16519786417484283,0.497641921043396
1772480050948733700,2.737733642578125,0.9072496294975281,-0.2025119513273239,0.5940962433815002
1772480050958731800,2.747731689453125,0.9198872447013855,-0.3222852647304535,0.6269730925559998
1772480050968729900,2.757729736328125,0.8927398324012756,-0.45662975311279297,0.6185606718063354
1772480050978726700,2.7677265625,0.8393988013267517,-0.5806490778923035,0.5848307609558105
1772480050988724700,2.777724853515625,0.7719166874885559,-0.6723605990409851,0.5365687012672424
1772480050998722800,2.787722900390625,0.7213468551635742,-0.7651166915893555,0.49172383546829224
1772480051008720600,2.797720703125,0.6869068741798401,-0.8265121579170227,0.4754122495651245
1772480051018718700,2.80771875,0.6947290301322937,-0.8072409629821777,0.4671725928783417
1772480051028716500,2.817716552734375,0.6736815571784973,-0.7764992713928223,0.4678359627723694
1772480051038713600,2.827713623046875,0.6584981083869934,-0.7558014988899231,0.4668104350566864
1772480051048711700,2.837711669921875,0.615124523639679,-0.7450401782989502,0.4699481725692749
1772480051058709500,2.84770947265625,0.6063873767852783,-0.7521644830703735,0.4416833519935608
1772480051068707600,2.85770751953125,0.6345407366752625,-0.7036736607551575,0.38455986976623535
1772480051078705700,2.86770556640625,0.6443912982940674,-0.6561470627784729,0.33066239953041077
1772480051088702700,2.87770263671875,0.6651709079742432,-0.6133303642272949,0.2812599539756775
1772480051098700800,2.88770068359375,0.6841511130332947,-0.5933308005332947,0.22384731471538544
1772480051108698600,2.89769873046875,0.6952067017555237,-0.6170478463172913,0.15807496011257172
1772480051118696700,2.90769677734375,0.7032210230827332,-0.6693931818008423,0.09036420285701752
1772480051128694800,2.91769482421875,0.7008864879608154,-0.7346097230911255,0.033493198454380035
1772480051138692900,2.92769287109375,0.6832786202430725,-0.760291337966919,0.0028421073220670223
1772480051148690000,2.93768994140625,0.6494498252868652,-0.7594742774963379,-0.008809755556285381
1772480051158687700,2.947687744140625,0.5940402150154114,-0.7708522081375122,-0.004976731259375811
1772480051168685800,2.957685791015625,0.5265000462532043,-0.7983222007751465,0.005274307914078236
1772480051178684000,2.967683837890625,0.4749833345413208,-0.7970766425132751,0.014362107962369919
1772480051188681700,2.977681640625,0.4139958620071411,-0.8134683966636658,0.03644717112183571
1772480051198679000,2.987678955078125,0.34061577916145325,-0.8474599719047546,0.0686463713645935
1772480051208676900,2.9976767578125,0.28405478596687317,-0.8915610909461975,0.06983280926942825
1772480051218675000,3.007675048828125,0.22844314575195312,-0.9087085723876953,0.0591939352452755
1772480051228673000,3.017673095703125,0.18786215782165527,-0.9120463132858276,0.017610006034374237
1772480051238670800,3.0276708984375,0.15579766035079956,-0.9516549110412598,-0.031514499336481094
1772480051248669000,3.0376689453125,0.128757506608963,-1.0296440124511719,-0.06057251989841461
1772480051258666000,3.047666015625,0.12656494975090027,-1.0989841222763062,-0.06663277000188828
1772480051268663800,3.057663818359375,0.14250397682189941,-1.1490988731384277,-0.05638093128800392
1772480051278662000,3.067661865234375,0.15664449334144592,-1.1938508749008179,-0.042083051055669785
1772480051288659700,3.07765966796875,0.18437734246253967,-1.1804192066192627,-0.049850959330797195
1772480051298657800,3.08765771484375,0.22782887518405914,-1.080560326576233,-0.07829311490058899
1772480051308655000,3.097655029296875,0.2775881886482239,-0.8922245502471924,-0.11482316255569458
1772480051318653000,3.10765283203125,0.31129297614097595,-0.6454778909683228,-0.11551885306835175
1772480051328651000,3.117651123046875,0.3422660827636719,-0.3610221743583679,-0.07718850672245026
1772480051338649000,3.127649169921875,0.3947354853153229,-0.08845486491918564,-0.034704260528087616
1772480051348647000,3.13764697265625,0.4370152950286865,0.07630772143602371,-0.003015309339389205
1772480051358645000,3.14764501953125,0.4519735872745514,0.01883491687476635,0.02698516473174095
1772480051368641800,3.157641845703125,0.4088490307331085,-0.21640422940254211,0.1336950957775116
1772480051378640000,3.167639892578125,0.3350192606449127,-0.5184838175773621,0.2514622211456299
1772480051388638000,3.177637939453125,0.2933993935585022,-0.7534294724464417,0.3352047801017761
1772480051398635800,3.1876357421875,0.2827914357185364,-0.9267114996910095,0.4043739140033722
1772480051408633900,3.1976337890625,0.27243494987487793,-1.1119637489318848,0.49294930696487427
1772480051418632000,3.2076318359375,0.2648543119430542,-1.2507411241531372,0.6002359986305237
1772480051428629000,3.21762890625,0.2668870985507965,-1.3060872554779053,0.7031128406524658
1772480051438627000,3.227626953125,0.2644740045070648,-1.2685253620147705,0.7770394086837769
1772480051448625000,3.237625,0.3015505373477936,-1.1869820356369019,0.8246245384216309
1772480051458623000,3.247623046875,0.3886542022228241,-1.024245023727417,0.8251655697822571
1772480051468621000,3.25762109375,0.47967013716697693,-0.8610970377922058,0.8073354363441467
1772480051478617900,3.267617919921875,0.589175820350647,-0.7500020861625671,0.7949623465538025
1772480051488616000,3.277615966796875,0.7018800377845764,-0.6938338875770569,0.7816084027290344
1772480051498613800,3.28761376953125,0.7825268507003784,-0.7233222723007202,0.7553375363349915
1772480051508611800,3.29761181640625,0.8397794365882874,-0.8116191029548645,0.7026569843292236
1772480051518610000,3.30760986328125,0.8547794818878174,-0.9809073209762573,0.5842044353485107
1772480051528607700,3.317607666015625,0.8609513640403748,-1.1747689247131348,0.3877190947532654
1772480051538605000,3.32760498046875,0.8730098605155945,-1.3311362266540527,0.16758912801742554
1772480051548603000,3.337602783203125,0.8747696876525879,-1.4502918720245361,-0.025960365310311317
1772480051558601000,3.34760107421875,0.8694626688957214,-1.6014004945755005,-0.14691080152988434
1772480051568599000,3.35759912109375,0.8567870855331421,-1.786010980606079,-0.20418208837509155
1772480051578596900,3.367596923828125,0.8279302716255188,-1.9207370281219482,-0.2250911295413971
1772480051588594000,3.377593994140625,0.7885801792144775,-1.9553840160369873,-0.2007082849740982
1772480051598592000,3.387592041015625,0.7358031272888184,-1.9713971614837646,-0.1393897980451584
1772480051608589800,3.39758984375,0.6600490212440491,-1.9696240425109863,-0.042443275451660156
1772480051618588000,3.407587890625,0.5960659384727478,-1.9098761081695557,0.06536887586116791
1772480051628585700,3.417585693359375,0.54099041223526,-1.8049101829528809,0.17318908870220184
1772480051638583000,3.4275830078125,0.48613765835762024,-1.7151492834091187,0.28057214617729187
1772480051648581000,3.4375810546875,0.41622090339660645,-1.6622264385223389,0.3306882977485657
1772480051658579000,3.447578857421875,0.37851881980895996,-1.6754555702209473,0.3287317156791687
1772480051668577000,3.457576904296875,0.377584308385849,-1.6997390985488892,0.30719390511512756
1772480051678575000,3.4675751953125,0.4082871377468109,-1.7225985527038574,0.2885678708553314
1772480051688573000,3.477572998046875,0.48769593238830566,-1.7092092037200928,0.2842508852481842
1772480051698570000,3.487570068359375,0.5825412273406982,-1.705244541168213,0.28709936141967773
1772480051708567800,3.49756787109375,0.6567800045013428,-1.7326651811599731,0.312261700630188
1772480051718566000,3.50756591796875,0.7099505066871643,-1.7472310066223145,0.3529275059700012
1772480051728564000,3.51756396484375,0.7691736221313477,-1.7098404169082642,0.40757423639297485
1772480051738561800,3.527561767578125,0.8080565333366394,-1.6858924627304077,0.46153154969215393
1772480051748559000,3.53755908203125,0.8333757519721985,-1.6839091777801514,0.5205416083335876
1772480051758557000,3.547556884765625,0.8495399951934814,-1.6948497295379639,0.5774815678596497
1772480051768555000,3.557554931640625,0.859136164188385,-1.7118011713027954,0.6297269463539124
1772480051778553000,3.567552978515625,0.8665068745613098,-1.7337368726730347,0.6952987313270569
1772480051788551000,3.577551025390625,0.8736199140548706,-1.7693582773208618,0.772922933101654
1772480051798549000,3.587549072265625,0.8956646919250488,-1.8102751970291138,0.8355127573013306
1772480051808545800,3.5975458984375,0.920087993144989,-1.863598108291626,0.8608508706092834
1772480051818543900,3.6075439453125,0.9151719212532043,-1.930349349975586,0.8565908670425415
1772480051828542000,3.6175419921875,0.9407539963722229,-2.0015814304351807,0.8089253306388855
1772480051838539800,3.627539794921875,0.9299023747444153,-2.0384483337402344,0.7269782423973083
1772480051848537900,3.637537841796875,0.9007615447044373,-2.084663152694702,0.6461473107337952
1772480051858535000,3.647534912109375,0.8752824664115906,-2.1122188568115234,0.6054058074951172
1772480051868533000,3.657532958984375,0.8570132255554199,-2.125326156616211,0.5937446355819702
1772480051878531000,3.667531005859375,0.82345050573349,-2.105069398880005,0.5826926827430725
1772480051888529000,3.67752880859375,0.8028727769851685,-2.011908531188965,0.5690658092498779
1772480051898527000,3.68752685546875,0.8285586833953857,-1.8295866250991821,0.5718174576759338
1772480051908525000,3.697525146484375,0.8795015811920166,-1.6984474658966064,0.5626412630081177
1772480051918521900,3.70752197265625,0.902516782283783,-1.6621339321136475,0.5510421395301819
1772480051928520000,3.71752001953125,0.9309481382369995,-1.6453887224197388,0.5553218722343445
1772480051938518000,3.72751806640625,0.9448397159576416,-1.634078025817871,0.5370246171951294
1772480051948515800,3.737515869140625,0.9277520775794983,-1.6623659133911133,0.4934942424297333
1772480051958514000,3.747513916015625,0.9213945865631104,-1.689867377281189,0.44851452112197876
1772480051968511000,3.757510986328125,0.9370028972625732,-1.6723685264587402,0.41192641854286194
1772480051978509000,3.767509033203125,0.9599263668060303,-1.6355252265930176,0.3974189758300781
1772480051988507100,3.777507080078125,0.9681222438812256,-1.618969202041626,0.417755663394928
1772480051998505000,3.7875048828125,0.9926684498786926,-1.5834269523620605,0.45923492312431335
1772480052008503000,3.7975029296875,1.0228174924850464,-1.5038282871246338,0.5539821982383728
1772480052018501000,3.807501220703125,1.0304908752441406,-1.435738444328308,0.6974307894706726
1772480052028498000,3.817497802734375,0.996880054473877,-1.4672809839248657,0.8304280042648315
1772480052038496000,3.82749609375,0.9574950933456421,-1.4940845966339111,0.9593753814697266
1772480052048493800,3.837493896484375,0.9322605729103088,-1.4621574878692627,1.0695048570632935
1772480052058492000,3.847491943359375,0.8912869691848755,-1.4274051189422607,1.1226619482040405
1772480052068490000,3.857489990234375,0.8518263697624207,-1.403187870979309,1.1091187000274658
1772480052078487000,3.867487060546875,0.8631568551063538,-1.3583290576934814,1.0666688680648804
1772480052088485000,3.877485107421875,0.9053373336791992,-1.291853904724121,1.0045104026794434
1772480052098483000,3.88748291015625,0.9855724573135376,-1.2881087064743042,0.9327136278152466
1772480052108481000,3.89748095703125,1.0626267194747925,-1.3293105363845825,0.8404768705368042
1772480052118479000,3.90747900390625,1.1123384237289429,-1.378326416015625,0.7573479413986206
1772480052128476000,3.917475830078125,1.1807318925857544,-1.5043048858642578,0.711890697479248
1772480052138474000,3.927473876953125,1.2114557027816772,-1.4903448820114136,0.7092224359512329
1772480052148472000,3.93747216796875,1.2387487888336182,-1.4335105419158936,0.6949936747550964
1772480052158470000,3.947469970703125,1.2398197650909424,-1.4025834798812866,0.6695137023925781
1772480052168468000,3.957468017578125,1.2324086427688599,-1.3858708143234253,0.6558465957641602
1772480052178466000,3.967466064453125,1.2098802328109741,-1.3754539489746094,0.6414539217948914
1772480052188462800,3.977462890625,1.19746994972229,-1.4024865627288818,0.590008020401001
1772480052198461000,3.9874609375,1.1629549264907837,-1.4794031381607056,0.5186485052108765
1772480052208459000,3.997458984375,1.1220927238464355,-1.565050721168518,0.42021995782852173
1772480052218456000,4.0074560546875,1.0787328481674194,-1.6285570859909058,0.3320203721523285
1772480052228454100,4.0174541015625,1.0330779552459717,-1.717219591140747,0.2607795000076294
1772480052238452000,4.027451904296875,0.9966679215431213,-1.7753690481185913,0.22137881815433502
1772480052248450000,4.037449951171875,0.9466657638549805,-1.799670934677124,0.20830883085727692
1772480052258446800,4.04744677734375,0.9045465588569641,-1.794472575187683,0.21274659037590027
1772480052268445000,4.05744482421875,0.8683355450630188,-1.7650254964828491,0.23497065901756287
1772480052278443000,4.067443115234375,0.873981237411499,-1.7109895944595337,0.2563658356666565
1772480052288440800,4.07744091796875,0.8550925254821777,-1.6491267681121826,0.2587011754512787
1772480052298439000,4.08743896484375,0.7998076677322388,-1.5890065431594849,0.2771303653717041
1772480052308436000,4.09743603515625,0.7526494264602661,-1.4925323724746704,0.31324440240859985
1772480052318434000,4.10743408203125,0.7293611764907837,-1.352713704109192,0.3131116032600403
1772480052328432000,4.11743212890625,0.7107459902763367,-1.2480127811431885,0.27333492040634155
1772480052338430000,4.127429931640625,0.6967436075210571,-1.1902798414230347,0.2235114872455597
1772480052348428000,4.137427978515625,0.6812626719474792,-1.153484582901001,0.20008845627307892
1772480052358424800,4.1474248046875,0.6847813725471497,-1.085667610168457,0.2033281773328781
1772480052368423000,4.1574228515625,0.7013105750083923,-1.0345860719680786,0.21571587026119232
1772480052378421000,4.1674208984375,0.7005250453948975,-0.9956330060958862,0.2146284580230713
1772480052388418800,4.177418701171875,0.6790757179260254,-0.9671459794044495,0.21065209805965424
1772480052398417000,4.1874169921875,0.6513416767120361,-0.9337851405143738,0.20766007900238037
1772480052408415000,4.1974150390625,0.6222418546676636,-0.9041391015052795,0.20181630551815033
1772480052418412000,4.207412109375,0.5765237808227539,-0.8978175520896912,0.18674130737781525
1772480052428410000,4.21741015625,0.5069572329521179,-0.9371103644371033,0.184853658080101
1772480052438408000,4.227407958984375,0.44343501329421997,-0.9817324280738831,0.18080836534500122
1772480052448406000,4.237406005859375,0.39512258768081665,-1.0395581722259521,0.16710638999938965
1772480052458404000,4.247404052734375,0.37084439396858215,-1.1565731763839722,0.16610023379325867
1772480052468401000,4.25740087890625,0.352776437997818,-1.2999314069747925,0.15187442302703857
1772480052478399000,4.26739892578125,0.318632572889328,-1.4485770463943481,0.12934060394763947
1772480052488397000,4.27739697265625,0.3209953308105469,-1.5308160781860352,0.07043547928333282
1772480052498395000,4.287394775390625,0.3481011986732483,-1.5200339555740356,0.0002991002984344959
1772480052508393000,4.29739306640625,0.36277174949645996,-1.3682931661605835,-0.07165179401636124
1772480052518390000,4.30739013671875,0.378115713596344,-1.1822830438613892,-0.11505056172609329
1772480052528388000,4.31738818359375,0.35715025663375854,-1.0410401821136475,-0.11280578374862671
1772480052538386200,4.32738623046875,0.30615177750587463,-0.9531497359275818,-0.08116263151168823
1772480052548384000,4.337384033203125,0.2695351839065552,-0.8821165561676025,-0.04906328767538071
1772480052558382000,4.347382080078125,0.2570042610168457,-0.770199179649353,-0.010511794127523899
1772480052568380200,4.357380126953125,0.21890854835510254,-0.7566807270050049,0.004216818138957024
1772480052578377000,4.367376953125,0.15644021332263947,-0.792023241519928,0.012803043238818645
1772480052588375000,4.377375,0.09629218280315399,-0.8438429832458496,0.04101976752281189
1772480052598372900,4.387372802734375,0.017169535160064697,-0.9305996894836426,0.11115969717502594
1772480052608371000,4.397370849609375,-0.04640278220176697,-1.0411628484725952,0.19847649335861206
1772480052618370000,4.4073701171875,-0.04874325171113014,-1.1665085554122925,0.29257431626319885
1772480052628368000,4.417367919921875,-0.05696922168135643,-1.2563984394073486,0.3809015154838562
1772480052638366000,4.427365966796875,-0.07193573564291,-1.2638614177703857,0.47823938727378845
1772480052648364000,4.437364013671875,-0.0881301537156105,-1.1794967651367188,0.5591470003128052
1772480052658360800,4.44736083984375,-0.0980711504817009,-1.0434426069259644,0.5993587374687195
1772480052668359200,4.457359130859375,-0.07730115950107574,-0.9481837749481201,0.6183068752288818
1772480052678357200,4.467357177734375,-0.037946928292512894,-0.7875357866287231,0.5855427980422974
1772480052688355000,4.47735498046875,0.03998355567455292,-0.584924042224884,0.5129895210266113
1772480052698353200,4.487353271484375,0.13605283200740814,-0.4195636212825775,0.42585039138793945
1772480052708350000,4.497349853515625,0.23175698518753052,-0.3738512694835663,0.3589078485965729
1772480052718348000,4.50734814453125,0.31574440002441406,-0.39453545212745667,0.3330537676811218
1772480052728346000,4.51734619140625,0.41042056679725647,-0.4444050192832947,0.3336404860019684
1772480052738344000,4.527343994140625,0.4832104742527008,-0.4852442145347595,0.34880638122558594
1772480052748342000,4.537342041015625,0.5311404466629028,-0.5288697481155396,0.348577082157135
1772480052758338800,4.5473388671875,0.5608751773834229,-0.566326916217804,0.30722397565841675
1772480052768337000,4.5573369140625,0.585451066493988,-0.5701591968536377,0.2491188645362854
1772480052778335000,4.5673349609375,0.5778483152389526,-0.5866628885269165,0.21841472387313843
1772480052788333000,4.5773330078125,0.530315101146698,-0.6776540279388428,0.20810829102993011
1772480052798331100,4.5873310546875,0.45686715841293335,-0.8389880657196045,0.20582282543182373
1772480052808329200,4.5973291015625,0.3998992145061493,-0.9589725136756897,0.20328669250011444
1772480052818326000,4.607325927734375,0.38938143849372864,-1.0128954648971558,0.19732648134231567
1772480052828324000,4.617323974609375,0.37935835123062134,-1.0771734714508057,0.21105161309242249
1772480052838322000,4.627322021484375,0.34919437766075134,-1.1266871690750122,0.20968209207057953
1772480052848320000,4.637320068359375,0.31090477108955383,-1.1350839138031006,0.1783667802810669
1772480052858318000,4.647318115234375,0.2812761664390564,-1.1086082458496094,0.127533957362175
1772480052868315000,4.65731494140625,0.2519281506538391,-1.0653587579727173,0.06098794564604759
1772480052878313000,4.66731298828125,0.24180515110492706,-1.0003669261932373,-0.014705575071275234
1772480052888310800,4.677310791015625,0.2534623444080353,-0.8928758502006531,-0.08177542686462402
1772480052898309000,4.68730908203125,0.28442254662513733,-0.7558664679527283,-0.1217435896396637
1772480052908307200,4.69730712890625,0.3182809054851532,-0.6063553094863892,-0.13489454984664917
1772480052918304000,4.707303955078125,0.3344407379627228,-0.4847002923488617,-0.13433943688869476
1772480052928302000,4.717302001953125,0.3361608684062958,-0.3822453022003174,-0.11498598009347916
1772480052938300000,4.7272998046875,0.3276180326938629,-0.2939380407333374,-0.0916350856423378
1772480052948298000,4.737298095703125,0.31129205226898193,-0.2579174339771271,-0.054062407463788986
1772480052958296000,4.747296142578125,0.302437424659729,-0.29354727268218994,-0.003922842908650637
1772480052968294000,4.7572939453125,0.29959264397621155,-0.3113451898097992,0.033463943749666214
1772480052978291000,4.767291015625,0.3048304617404938,-0.3452397584915161,0.052805520594120026
1772480052988289000,4.7772890625,0.31251099705696106,-0.4248317778110504,0.0413171760737896
1772480052998286800,4.787286865234375,0.312092661857605,-0.5006656646728516,-0.009647907689213753
1772480053008285000,4.797284912109375,0.29393309354782104,-0.5305753350257874,-0.0634397640824318
1772480053018283000,4.807282958984375,0.2552843689918518,-0.5569278001785278,-0.09399425238370895
1772480053028280000,4.817280029296875,0.1913866102695465,-0.5751315951347351,-0.0934634804725647
1772480053038278100,4.827278076171875,0.13251414895057678,-0.559708833694458,-0.07623378187417984
1772480053048276000,4.83727587890625,0.07986718416213989,-0.5403622984886169,-0.05209222808480263
1772480053058274000,4.847274169921875,0.02007439360022545,-0.5370657444000244,-0.023799413815140724
1772480053068272000,4.857272216796875,-0.011574611067771912,-0.5367528200149536,-0.009463351219892502
1772480053078269000,4.86726904296875,-0.013285708613693714,-0.533058762550354,-0.016428876668214798
1772480053088267000,4.87726708984375,0.002688996959477663,-0.5617876052856445,-0.029849879443645477
1772480053098264800,4.887264892578125,0.02709829807281494,-0.6096890568733215,-0.060850199311971664
1772480053108263000,4.897262939453125,0.04514680802822113,-0.6497642993927002,-0.11467774212360382
1772480053118261000,4.907260986328125,0.0428888276219368,-0.6530628800392151,-0.15444011986255646
1772480053128258000,4.917258056640625,0.013152506202459335,-0.6312918066978455,-0.16236861050128937
1772480053138256000,4.927255859375,-0.026030102744698524,-0.6084230542182922,-0.13984422385692596
1772480053148254000,4.93725390625,-0.06873016059398651,-0.5970383286476135,-0.09867014735937119
1772480053158252000,4.947251953125,-0.10997053980827332,-0.5969225764274597,-0.057055868208408356
1772480053168249900,4.957249755859375,-0.14878158271312714,-0.6205381155014038,-0.020594798028469086
1772480053178248000,4.967248046875,-0.20355740189552307,-0.6535159945487976,-0.01389384362846613
1772480053188244700,4.97724462890625,-0.2100515216588974,-0.7010912299156189,-0.012862401083111763
1772480053198242800,4.987242919921875,-0.17964968085289001,-0.740312397480011,-0.10057839751243591
1772480053208241000,4.997240966796875,-0.1382087618112564,-0.6920745968818665,-0.27706822752952576
1772480053218238700,5.00723876953125,-0.08038938045501709,-0.49643829464912415,-0.5215805172920227
1772480053228236800,5.01723681640625,-0.02731417678296566,-0.32412269711494446,-0.7070555686950684
1772480053238233900,5.02723388671875,-0.03200375288724899,-0.26868388056755066,-0.7996472120285034
1772480053248232000,5.03723193359375,-0.06684216111898422,-0.28931164741516113,-0.7922244668006897
1772480053258230000,5.04722998046875,-0.05425754562020302,-0.25638851523399353,-0.7456080317497253
1772480053268227800,5.057227783203125,-0.05173392966389656,-0.1812349110841751,-0.5959929823875427
1772480053278226000,5.067225830078125,-0.03575897961854935,-0.20877741277217865,-0.35344693064689636
1772480053288222700,5.07722265625,-0.10022745281457901,-0.2848511338233948,-0.09493283927440643
1772480053298220800,5.087220703125,-0.1903717815876007,-0.41811326146125793,0.1429363489151001
1772480053308219000,5.097218994140625,-0.25422796607017517,-0.5626440644264221,0.31922852993011475
1772480053318216700,5.107216796875,-0.2863023579120636,-0.7021539211273193,0.3927535116672516
1772480053328214800,5.11721484375,-0.3139347732067108,-0.82277911901474,0.3824002146720886
1772480053338212900,5.127212890625,-0.31163638830184937,-0.9294366240501404,0.32893580198287964
1772480053348210000,5.1372099609375,-0.2755526900291443,-0.976159930229187,0.2565065920352936
1772480053358208000,5.1472080078125,-0.20114630460739136,-0.9820679426193237,0.20283499360084534
1772480053368205800,5.157205810546875,-0.10245807468891144,-0.9504562020301819,0.15999086201190948
1772480053378204000,5.167203857421875,0.008591057732701302,-0.8991566896438599,0.12956981360912323
1772480053388202000,5.177201904296875,0.13312259316444397,-0.8195332288742065,0.10962805896997452
1772480053398198800,5.18719873046875,0.2517036199569702,-0.6929783821105957,0.09116712212562561
1772480053408196900,5.19719677734375,0.34846237301826477,-0.5210135579109192,0.06521142274141312
1772480053418194700,5.207194580078125,0.45220181345939636,-0.3386256694793701,0.05732840672135353
1772480053428192800,5.21719287109375,0.5714845061302185,-0.16769787669181824,0.07747255265712738
1772480053438190800,5.22719091796875,0.7008377313613892,-0.006718938704580069,0.1278720498085022
1772480053448188000,5.23718798828125,0.8315123319625854,0.1004226878285408,0.2196142077445984
1772480053458186000,5.24718603515625,0.9165856838226318,0.10413407534360886,0.35797980427742004
1772480053468184000,5.25718408203125,0.9681583642959595,0.07669153064489365,0.5099389553070068
1772480053478182000,5.267181884765625,1.0022200345993042,0.036297786980867386,0.6483789682388306
1772480053488180000,5.277179931640625,0.9816881418228149,-0.03825048357248306,0.7674797773361206
1772480053498176800,5.2871767578125,0.9222449064254761,-0.17004238069057465,0.8588388562202454
1772480053508174800,5.2971748046875,0.8474995493888855,-0.3059424161911011,0.9176403880119324
1772480053518173000,5.3071728515625,0.772281289100647,-0.46554020047187805,0.897157609462738
1772480053528170800,5.317170654296875,0.6593946814537048,-0.5872352123260498,0.8626987338066101
1772480053538168800,5.3271689453125,0.6131100058555603,-0.6622999906539917,0.8296282887458801
1772480053548167000,5.3371669921875,0.6060597896575928,-0.6801612973213196,0.7789618968963623
1772480053558164000,5.3471640625,0.5966122150421143,-0.689452588558197,0.6973252892494202
1772480053568162000,5.357162109375,0.5986284613609314,-0.6815145015716553,0.6032459139823914
1772480053578159900,5.367159912109375,0.6345254182815552,-0.6251923441886902,0.5086545944213867
1772480053588158000,5.377157958984375,0.6879356503486633,-0.5373005867004395,0.41537684202194214
1772480053598156000,5.387156005859375,0.7263258695602417,-0.46319815516471863,0.3373807966709137
1772480053608152800,5.39715283203125,0.7752577066421509,-0.42424118518829346,0.2789558470249176
1772480053618151000,5.40715087890625,0.8218104839324951,-0.42897287011146545,0.22067685425281525
1772480053628148700,5.417148681640625,0.8470942378044128,-0.4212401211261749,0.15101094543933868
1772480053638146800,5.427146728515625,0.844006359577179,-0.41550472378730774,0.08663308620452881
1772480053648145000,5.437144775390625,0.8063175678253174,-0.41287434101104736,0.038912173360586166
1772480053658142700,5.447142822265625,0.7547413110733032,-0.3952348530292511,0.013484352268278599
1772480053668140000,5.45714013671875,0.6840503811836243,-0.37483423948287964,-0.0087991151958704
1772480053678137900,5.467137939453125,0.5910958647727966,-0.3656679689884186,-0.023724975064396858
1772480053688136000,5.477135986328125,0.5070699453353882,-0.3799859285354614,-0.055726319551467896
1772480053698134000,5.487134033203125,0.4238908290863037,-0.3801043927669525,-0.07391267269849777
1772480053708131800,5.4971318359375,0.36006736755371094,-0.38381630182266235,-0.0780770555138588
1772480053718129000,5.50712890625,0.30027520656585693,-0.3949929475784302,-0.060880400240421295
1772480053728127000,5.517126953125,0.241249680519104,-0.3996652066707611,-0.03442349284887314
1772480053738124800,5.527124755859375,0.1922117918729782,-0.3711893856525421,-0.003188429633155465
1772480053748123000,5.537122802734375,0.14137017726898193,-0.35120636224746704,0.019125664606690407
1772480053758120700,5.54712060546875,0.10030931234359741,-0.31565821170806885,0.02022850699722767
1772480053768118000,5.557117919921875,0.06484213471412659,-0.2790549397468567,-0.01646772213280201
1772480053778116000,5.5671162109375,0.017214074730873108,-0.27571794390678406,-0.06142577528953552
1772480053788114000,5.577114013671875,-0.04715133085846901,-0.2982376217842102,-0.1004330962896347
1772480053798112000,5.587112060546875,-0.11595233529806137,-0.34713688492774963,-0.1390371471643448
1772480053808110000,5.597110107421875,-0.16526556015014648,-0.3989558815956116,-0.19227294623851776
1772480053818107000,5.60710693359375,-0.2275017648935318,-0.48991695046424866,-0.25618427991867065
1772480053828105000,5.61710498046875,-0.28633472323417664,-0.6260311007499695,-0.33312487602233887
1772480053838102800,5.627102783203125,-0.3218339681625366,-0.748627245426178,-0.41943466663360596
1772480053848100900,5.637100830078125,-0.3367559313774109,-0.8408594727516174,-0.5106505751609802
1772480053858099000,5.647098876953125,-0.30617555975914,-0.8678246736526489,-0.614182710647583
1772480053868096000,5.657095947265625,-0.22410999238491058,-0.7337835431098938,-0.6908372640609741
1772480053878094000,5.667093994140625,-0.139409139752388,-0.42027828097343445,-0.6950606107711792
1772480053888092000,5.677091796875,-0.0715150386095047,-0.10583537071943283,-0.6376814842224121
1772480053898090000,5.687090087890625,-0.03840729221701622,0.08710576593875885,-0.5922998785972595
1772480053908088000,5.697088134765625,-0.019969161599874496,0.2601928412914276,-0.5298423171043396
1772480053918086000,5.7070859375,0.00877758115530014,0.42157647013664246,-0.3626077175140381
1772480053928083000,5.7170830078125,-0.010361491702497005,0.461173415184021,-0.12593260407447815
1772480053938080800,5.727080810546875,-0.11094097793102264,0.3608968257904053,0.13598448038101196
1772480053948078800,5.737078857421875,-0.19182145595550537,0.25484469532966614,0.37227851152420044
1772480053958077000,5.747076904296875,-0.23454776406288147,0.1701900213956833,0.5038987994194031
1772480053968074800,5.75707470703125,-0.311913400888443,0.0301349014043808,0.6021361947059631
1772480053978071800,5.76707177734375,-0.38419851660728455,-0.13472968339920044,0.7135106325149536
1772480053988070000,5.77706982421875,-0.44450312852859497,-0.24102868139743805,0.8398962616920471
1772480053998068000,5.78706787109375,-0.48566734790802,-0.2588008642196655,0.9601020216941833
1772480054008066000,5.797066162109375,-0.5103508234024048,-0.18135720491409302,1.059443712234497
1772480054018064000,5.80706396484375,-0.48687320947647095,-0.026154108345508575,1.1090227365493774
1772480054028061000,5.81706103515625,-0.4236811697483063,0.17791113257408142,1.115319013595581
1772480054038059000,5.82705908203125,-0.3204619884490967,0.38291701674461365,1.0742249488830566
1772480054048056800,5.837056884765625,-0.1930454522371292,0.5663978457450867,0.9787222743034363
1772480054058055000,5.847054931640625,-0.08847333490848541,0.7097806334495544,0.8219450116157532
1772480054068053000,5.857052978515625,0.021578863263130188,0.8054376244544983,0.6569898724555969
1772480054078049800,5.8670498046875,0.11211968213319778,0.8464924097061157,0.512991726398468
1772480054088047900,5.8770478515625,0.2074400782585144,0.7520601749420166,0.35874143242836
1772480054098046000,5.8870458984375,0.2587096393108368,0.6152442693710327,0.19279584288597107
1772480054108044000,5.8970439453125,0.3202363848686218,0.5388602614402771,0.06302081048488617
1772480054118042000,5.9070419921875,0.3535917103290558,0.47103387117385864,-0.0485331192612648
1772480054128039000,5.917038818359375,0.33904018998146057,0.3058970868587494,-0.18048450350761414
1772480054138037200,5.927037353515625,0.2877811789512634,0.10554458200931549,-0.3164193630218506
1772480054148035300,5.937035400390625,0.23668496310710907,-0.09487320482730865,-0.3865198791027069
1772480054158033400,5.947033447265625,0.1789746880531311,-0.23731938004493713,-0.3611849248409271
1772480054168031200,5.95703125,0.11570702493190765,-0.33230021595954895,-0.2710622251033783
1772480054178029300,5.967029296875,0.0667242556810379,-0.42356356978416443,-0.1740708202123642
1772480054188026000,5.977026123046875,0.010361111722886562,-0.49962958693504333,-0.10754984617233276
1772480054198024200,5.987024169921875,-0.028458572924137115,-0.5275633931159973,-0.0785016268491745
1772480054208022300,5.997022216796875,-0.03524350747466087,-0.5064581036567688,-0.07677111029624939
1772480054218020000,6.00702001953125,-0.02136213332414627,-0.4871333837509155,-0.12684881687164307
1772480054228018200,6.01701806640625,-0.018911492079496384,-0.46303126215934753,-0.18846584856510162
1772480054238015200,6.02701513671875,-0.007078547030687332,-0.4449741244316101,-0.2649169862270355
1772480054248013300,6.037013427734375,0.029016606509685516,-0.4233154356479645,-0.35251688957214355
1772480054258011400,6.047011474609375,0.07908458262681961,-0.377932071685791,-0.43427878618240356
1772480054268009200,6.05700927734375,0.11009309440851212,-0.2891177833080292,-0.46970656514167786
1772480054278007300,6.06700732421875,0.10832930356264114,-0.20684976875782013,-0.43033143877983093
1772480054288004000,6.077004150390625,0.10451539605855942,-0.16141517460346222,-0.35148054361343384
1772480054298002200,6.087002197265625,0.13033278286457062,-0.12787237763404846,-0.2917947769165039
1772480054308000300,6.097000244140625,0.1549939215183258,-0.0822894349694252,-0.2635309100151062
1772480054317998000,6.106998046875,0.16321557760238647,-0.06286942213773727,-0.23368310928344727
1772480054327996200,6.11699609375,0.17607837915420532,-0.06815313547849655,-0.19510269165039062
1772480054337993200,6.1269931640625,0.17128479480743408,-0.063019759953022,-0.13924244046211243
1772480054347991300,6.1369912109375,0.15018829703330994,-0.0616849884390831,-0.09393381327390671
1772480054357989400,6.1469892578125,0.12757796049118042,-0.05720346421003342,-0.05037985369563103
1772480054367987200,6.1569873046875,0.09938840568065643,-0.02238556183874607,-0.0036946393083781004
1772480054377985300,6.1669853515625,0.07349172234535217,-0.006540804170072079,0.05677836388349533
1772480054387983400,6.1769833984375,0.03805863484740257,-0.01482589915394783,0.13615521788597107
1772480054397980200,6.186980224609375,-0.0016870591789484024,-0.031116720288991928,0.18718373775482178
1772480054407978200,6.196978271484375,-0.03030512109398842,-0.061433881521224976,0.20886851847171783
1772480054417976300,6.206976318359375,-0.04900035262107849,-0.14742964506149292,0.21618829667568207
1772480054427974100,6.21697412109375,-0.07061509788036346,-0.2715292274951935,0.19591711461544037
1772480054437972200,6.22697216796875,-0.0922274962067604,-0.41510745882987976,0.11967415362596512
1772480054447969300,6.23696923828125,-0.11927855014801025,-0.5403274297714233,0.017482012510299683
1772480054457967400,6.24696728515625,-0.17227932810783386,-0.651742696762085,-0.05758024379611015
1772480054467965400,6.25696533203125,-0.2561990022659302,-0.7675800919532776,-0.11924227327108383
1772480054477963300,6.26696337890625,-0.3518742322921753,-0.8823472261428833,-0.15658003091812134
1772480054487961300,6.27696142578125,-0.38147661089897156,-0.9199190735816956,-0.20426659286022186
1772480054497958100,6.286958251953125,-0.36232665181159973,-0.8367517590522766,-0.3198968768119812
1772480054507956200,6.296956298828125,-0.2962571084499359,-0.6086304187774658,-0.48701316118240356
1772480054517954300,6.306954345703125,-0.20824742317199707,-0.3117421865463257,-0.6424503326416016
1772480054527952100,6.3169521484375,-0.0941472202539444,-0.12949594855308533,-0.7426525354385376
1772480054537950200,6.3269501953125,0.027189727872610092,-0.027907520532608032,-0.7734286189079285
1772480054547947300,6.336947265625,0.15038223564624786,0.07227474451065063,-0.7455218434333801
1772480054557945300,6.3469453125,0.2646492123603821,0.1310804784297943,-0.6184775233268738
1772480054567943400,6.356943359375,0.3010844588279724,0.12241480499505997,-0.3910640776157379
1772480054577941200,6.366941162109375,0.24365362524986267,0.04124244675040245,-0.13126207888126373
1772480054587939300,6.376939208984375,0.13261152803897858,-0.19524411857128143,0.06497347354888916
1772480054597936000,6.38693603515625,-0.047546710819005966,-0.4848211109638214,0.1631939560174942
1772480054607934200,6.396934326171875,-0.218187153339386,-0.6788291931152344,0.16557587683200836
1772480054617932300,6.406932373046875,-0.34317973256111145,-0.7135209441184998,0.14191468060016632
1772480054627930000,6.41693017578125,-0.41812241077423096,-0.6866618990898132,0.11437947303056717
1772480054637928200,6.42692822265625,-0.4496573805809021,-0.6271914839744568,0.0986943319439888
1772480054647926300,6.43692626953125,-0.4498928189277649,-0.5321094393730164,0.11432228982448578
1772480054657923300,6.44692333984375,-0.3860090374946594,-0.4293486177921295,0.12604527175426483
1772480054667921400,6.45692138671875,-0.2969854176044464,-0.2733222544193268,0.10811714828014374
1772480054677919200,6.466919189453125,-0.19229650497436523,-0.08578944951295853,0.06056385114789009
1772480054687917300,6.476917236328125,-0.06580008566379547,0.0884031280875206,0.003310680389404297
1772480054697915400,6.486915283203125,0.07976464182138443,0.2098282426595688,-0.022794296965003014
1772480054707912200,6.496912109375,0.2326788306236267,0.2965056002140045,-0.0009731552563607693
1772480054717910300,6.50691015625,0.3770807683467865,0.35075119137763977,0.059176042675971985
1772480054727908400,6.516908447265625,0.49760666489601135,0.3782137334346771,0.12271107733249664
1772480054737906200,6.52690625,0.5836650133132935,0.31359946727752686,0.19723564386367798
1772480054747904300,6.536904296875,0.6336245536804199,0.1284557282924652,0.2786961495876312
1772480054757901300,6.5469013671875,0.6374844908714294,-0.08828025311231613,0.33509862422943115
1772480054767899400,6.5568994140625,0.6133820414543152,-0.21401579678058624,0.3511428236961365
1772480054777897500,6.5668974609375,0.5751683712005615,-0.2734707295894623,0.36637866497039795
1772480054787895300,6.576895263671875,0.5090034604072571,-0.3263067901134491,0.405004620552063
1772480054797893400,6.586893310546875,0.4367099404335022,-0.3322044312953949,0.44833239912986755
1772480054807890200,6.59689013671875,0.3815433382987976,-0.31891605257987976,0.47342896461486816
1772480054817888300,6.60688818359375,0.33687207102775574,-0.2953677475452423,0.48912549018859863
1772480054827886300,6.61688623046875,0.3104458153247833,-0.2840213477611542,0.4792614281177521
1772480054837884200,6.62688427734375,0.31625649333000183,-0.26118218898773193,0.44069233536720276
1772480054847882200,6.63688232421875,0.3346323072910309,-0.21468819677829742,0.4003180265426636
1772480054857879000,6.646879150390625,0.37406545877456665,-0.1795651912689209,0.3647668957710266
1772480054867877000,6.656877197265625,0.4203445613384247,-0.14772817492485046,0.33873769640922546
1772480054877875500,6.66687548828125,0.4594576954841614,-0.10534884035587311,0.30302417278289795
1772480054887873300,6.676873291015625,0.45727550983428955,-0.05301453173160553,0.2586873471736908
1772480054897871400,6.686871337890625,0.4257778525352478,0.005060880910605192,0.19693326950073242
1772480054907869400,6.696869384765625,0.3705878257751465,0.06580518931150436,0.1281219869852066
1772480054917866200,6.7068662109375,0.30225929617881775,0.12271086126565933,0.0647151842713356
1772480054927864300,6.7168642578125,0.25204458832740784,0.12562143802642822,-0.004668154753744602
1772480054937862100,6.726862060546875,0.21030566096305847,0.10176776349544525,-0.06522071361541748
1772480054947860200,6.736860107421875,0.20364883542060852,0.03366008400917053,-0.10167539119720459
1772480054957858300,6.7468583984375,0.2021935135126114,-0.01982712745666504,-0.1297726184129715
1772480054967855000,6.756855224609375,0.1952890008687973,-0.07639187574386597,-0.15769532322883606
1772480054977853200,6.766853271484375,0.1886109709739685,-0.14588458836078644,-0.17829014360904694
1772480054987851300,6.776851318359375,0.16353383660316467,-0.18397311866283417,-0.17117071151733398
1772480054997849300,6.786849365234375,0.12304925918579102,-0.20968008041381836,-0.13287845253944397
1772480055007847400,6.796847412109375,0.0723264068365097,-0.22004584968090057,-0.07434938102960587
1772480055017844200,6.80684423828125,0.011015585623681545,-0.21311055123806,-0.013170872814953327
1772480055027842300,6.81684228515625,-0.04315683990716934,-0.21877935528755188,0.02553337812423706
1772480055037840400,6.82684033203125,-0.0860101506114006,-0.24584107100963593,0.03699673339724541
1772480055047838200,6.836838134765625,-0.1180005669593811,-0.2551461458206177,0.019421735778450966
1772480055057836300,6.846836181640625,-0.14506861567497253,-0.26724645495414734,-0.029370956122875214
1772480055067833000,6.8568330078125,-0.17473091185092926,-0.3207048773765564,-0.09379362314939499
1772480055077831200,6.8668310546875,-0.216364786028862,-0.4039529263973236,-0.17175160348415375
1772480055087829200,6.876829345703125,-0.25651195645332336,-0.4726843237876892,-0.24590493738651276
1772480055097827000,6.8868271484375,-0.3046838641166687,-0.5812973380088806,-0.31205299496650696
1772480055107825200,6.8968251953125,-0.345948725938797,-0.6755160093307495,-0.3775097727775574
1772480055117822200,6.906822265625,-0.36011800169944763,-0.736709713935852,-0.43281471729278564
1772480055127820300,6.9168203125,-0.3315769135951996,-0.7390668392181396,-0.4783225655555725
1772480055137818400,6.926818359375,-0.2589854598045349,-0.5557970404624939,-0.5332117080688477
1772480055147816400,6.93681640625,-0.1695658266544342,-0.2875077724456787,-0.5305117964744568
1772480055157814500,6.946814453125,-0.09971354156732559,-0.07513190060853958,-0.4877399504184723
1772480055167811600,6.9568115234375,-0.044792238622903824,0.0904402881860733,-0.46256136894226074
1772480055177809400,6.966809326171875,0.033741533756256104,0.2815830409526825,-0.4390782117843628
1772480055187807500,6.976807373046875,0.10771909356117249,0.47455304861068726,-0.3574584722518921
1772480055197805300,6.986805419921875,0.12951989471912384,0.5376717448234558,-0.18670371174812317
1772480055207803400,6.996803466796875,0.08760493993759155,0.4007844924926758,0.043322041630744934
1772480055217800700,7.00680078125,0.03097110241651535,0.16200430691242218,0.2572239637374878
1772480055227798500,7.016798583984375,-0.04726298525929451,-0.0396832637488842,0.42136338353157043
1772480055237796600,7.026796630859375,-0.13836325705051422,-0.20494015514850616,0.5409432053565979
1772480055247794700,7.036794677734375,-0.20234009623527527,-0.36233964562416077,0.6150914430618286
1772480055257792500,7.04679248046875,-0.2428891360759735,-0.4603000283241272,0.6732737421989441
1772480055267790600,7.05679052734375,-0.2738018035888672,-0.49902957677841187,0.750304639339447
1772480055277787400,7.066787353515625,-0.23631592094898224,-0.5394325256347656,0.8365333676338196
1772480055287785500,7.076785400390625,-0.12711460888385773,-0.48941487073898315,0.9110962748527527
1772480055297783600,7.086783447265625,0.04966302216053009,-0.34103745222091675,0.9643446207046509
1772480055307781400,7.096781494140625,0.28684014081954956,-0.17924481630325317,0.9980636835098267
1772480055317779500,7.106779541015625,0.5273740291595459,-0.11772109568119049,1.0390704870224
1772480055327776500,7.116776611328125,0.6782426238059998,-0.2363494634628296,1.0547575950622559
1772480055337774600,7.126774658203125,0.7452881336212158,-0.38766348361968994,0.9912567138671875
1772480055347772700,7.136772705078125,0.8087936639785767,-0.46162933111190796,0.8299586772918701
1772480055357770500,7.1467705078125,0.839881181716919,-0.5109977722167969,0.6138312220573425
1772480055367768600,7.1567685546875,0.8095650672912598,-0.604751706123352,0.3853256106376648
1772480055377765400,7.166765380859375,0.7556880116462708,-0.7692709565162659,0.18267883360385895
1772480055387763500,7.176763427734375,0.6999637484550476,-0.9442723393440247,-0.007957424968481064
1772480055397761500,7.186761474609375,0.6515962481498718,-1.0903844833374023,-0.1689435839653015
1772480055407759400,7.19675927734375,0.59172523021698,-1.1861966848373413,-0.23088312149047852
1772480055417757400,7.20675732421875,0.5367915034294128,-1.2833117246627808,-0.17620587348937988
1772480055427754500,7.21675439453125,0.47939956188201904,-1.3772296905517578,-0.05201335996389389
1772480055437752600,7.226752685546875,0.43718937039375305,-1.4173789024353027,0.08645603805780411
1772480055447750700,7.236750732421875,0.42495638132095337,-1.4103190898895264,0.21742762625217438
1772480055457748500,7.24674853515625,0.42401987314224243,-1.4041228294372559,0.31959471106529236
1772480055467746600,7.25674658203125,0.41832470893859863,-1.4590822458267212,0.3942316472530365
1772480055477743600,7.26674365234375,0.3587438464164734,-1.4843018054962158,0.4194822907447815
1772480055487741400,7.276741455078125,0.3098636567592621,-1.4351824522018433,0.39504778385162354
1772480055497739500,7.286739501953125,0.30814626812934875,-1.39627206325531,0.35635411739349365
1772480055507737300,7.2967373046875,0.3276187777519226,-1.3824782371520996,0.29932838678359985
1772480055517735400,7.3067353515625,0.3682335615158081,-1.3861403465270996,0.256658673286438
1772480055527732700,7.316732666015625,0.4280886650085449,-1.3895877599716187,0.22717908024787903
1772480055537730600,7.32673046875,0.4807964563369751,-1.3987776041030884,0.20911340415477753
1772480055547728600,7.336728759765625,0.5333762764930725,-1.4454166889190674,0.21236032247543335
1772480055557726700,7.346726806640625,0.5920523405075073,-1.4711756706237793,0.23196111619472504
1772480055567724500,7.356724609375,0.6743106842041016,-1.49907386302948,0.2785762846469879
1772480055577721600,7.3667216796875,0.748902440071106,-1.5342259407043457,0.3525650203227997
1772480055587719400,7.376719482421875,0.8112070560455322,-1.5796070098876953,0.43957021832466125
1772480055597717500,7.386717529296875,0.8665845394134521,-1.6478379964828491,0.5302393436431885
1772480055607715600,7.396715576171875,0.9107975363731384,-1.7392381429672241,0.6080094575881958
1772480055617713400,7.40671337890625,0.9226561784744263,-1.859785556793213,0.6574193835258484
1772480055627710500,7.41671044921875,0.9276463985443115,-2.0346410274505615,0.6830115914344788
1772480055637708500,7.42670849609375,0.9337046146392822,-2.2412683963775635,0.6894402503967285
1772480055647706600,7.43670654296875,0.9513919949531555,-2.4518678188323975,0.6610549688339233
1772480055657704700,7.44670458984375,0.9469012022018433,-2.640644073486328,0.6340762376785278
1772480055667702500,7.45670263671875,0.9749578833580017,-2.8025221824645996,0.606110692024231
1772480055677699600,7.466699462890625,1.0295006036758423,-2.826906204223633,0.577551007270813
1772480055687697400,7.476697509765625,1.0918211936950684,-2.7790610790252686,0.5593874454498291
1772480055697695500,7.486695556640625,1.1419636011123657,-2.6253554821014404,0.5655009746551514
1772480055707693600,7.496693603515625,1.2837201356887817,-2.351472854614258,0.5719165802001953
1772480055717691400,7.50669140625,1.41100013256073,-2.076280355453491,0.5934298038482666
1772480055727688400,7.5166884765625,1.4831383228302002,-1.9331653118133545,0.6390119194984436
1772480055737686300,7.526686279296875,1.5538827180862427,-1.8913997411727905,0.6977694630622864
1772480055747684400,7.536684326171875,1.6464797258377075,-1.8487929105758667,0.7515509724617004
1772480055757682700,7.5466826171875,1.7319890260696411,-1.8682090044021606,0.8076295256614685
1772480055767680500,7.556680419921875,1.7751820087432861,-1.9579567909240723,0.857568085193634
1772480055777677600,7.566677490234375,1.7725868225097656,-2.056208848953247,0.9194722175598145
1772480055787675600,7.576675537109375,1.7449536323547363,-2.1148533821105957,0.9984394907951355
1772480055797673500,7.586673583984375,1.719104290008545,-2.0740773677825928,1.0817556381225586
1772480055807671600,7.596671630859375,1.6920673847198486,-2.0399160385131836,1.1362875699996948
1772480055817669600,7.606669677734375,1.666175365447998,-2.068758726119995,1.1631178855895996
1772480055827666400,7.61666650390625,1.6525764465332031,-2.132427215576172,1.1487525701522827
1772480055837664500,7.62666455078125,1.612250804901123,-2.2341620922088623,1.1269627809524536
1772480055847662300,7.636662353515625,1.5783365964889526,-2.2824275493621826,1.1068540811538696
1772480055857660400,7.646660400390625,1.556700348854065,-2.2442829608917236,1.064495325088501
1772480055867658500,7.656658447265625,1.529269814491272,-2.1664836406707764,1.0231540203094482
1772480055877655600,7.666655517578125,1.5403852462768555,-2.0680012702941895,0.9998892545700073
1772480055887653600,7.676653564453125,1.5690313577651978,-1.9374397993087769,1.0012482404708862
1772480055897651500,7.6866513671875,1.5967073440551758,-1.815925121307373,1.014755129814148
1772480055907649500,7.6966494140625,1.6103333234786987,-1.6951321363449097,1.0153332948684692
1772480055917647600,7.706647705078125,1.593884825706482,-1.7095608711242676,0.9854903221130371
1772480055927644400,7.71664453125,1.5523607730865479,-1.842447280883789,0.9490665197372437
1772480055937642500,7.726642578125,1.4842842817306519,-1.8971143960952759,0.9201979637145996
1772480055947640300,7.736640380859375,1.3907098770141602,-1.8667657375335693,0.8876000642776489
1772480055957638400,7.746638427734375,1.2855074405670166,-1.8318467140197754,0.8409327864646912
1772480055967636500,7.756636474609375,1.1828413009643555,-1.8011653423309326,0.7880160212516785
1772480055977633500,7.766633544921875,1.146430492401123,-1.8455029726028442,0.7211798429489136
1772480055987631600,7.776631591796875,1.1369616985321045,-1.8454822301864624,0.6001825928688049
1772480055997629400,7.78662939453125,1.1279312372207642,-1.8682044744491577,0.4666944742202759
1772480056007627500,7.79662744140625,1.1162513494491577,-1.9276041984558105,0.3414311110973358
1772480056017625600,7.80662548828125,1.1003639698028564,-1.9563862085342407,0.2386075258255005
1772480056027622400,7.816622314453125,1.0868291854858398,-1.964830994606018,0.17658384144306183
1772480056037620500,7.826620361328125,1.0690406560897827,-1.9239110946655273,0.1421748548746109
1772480056047618600,7.83661865234375,1.0459028482437134,-1.909749150276184,0.0917779952287674
1772480056057616400,7.846616455078125,1.014825463294983,-1.8917169570922852,0.07253216207027435
1772480056067614500,7.856614501953125,0.9840337634086609,-1.901971459388733,0.08101487159729004
1772480056077611500,7.866611572265625,0.9589835405349731,-1.8894673585891724,0.10555535554885864
1772480056087609600,7.876609619140625,0.933435320854187,-1.8600140810012817,0.16066256165504456
1772480056097607700,7.886607666015625,0.9237642884254456,-1.8412261009216309,0.2235613316297531
1772480056107605500,7.89660546875,0.9113166332244873,-1.8308626413345337,0.28732937574386597
1772480056117603600,7.906603515625,0.9105919003486633,-1.804107666015625,0.3371848165988922
1772480056127600400,7.916600341796875,0.9314023852348328,-1.7735657691955566,0.37943506240844727
1772480056137598500,7.926598388671875,0.9512234330177307,-1.7473725080490112,0.41815364360809326
1772480056147595800,7.936595703125,0.9546498656272888,-1.745818853378296,0.4300510585308075
1772480056157593900,7.94659375,0.9474472403526306,-1.7632629871368408,0.40342265367507935
1772480056167592000,7.956592041015625,0.9134964346885681,-1.775372862815857,0.3581835627555847
1772480056177589000,7.966589111328125,0.8633455634117126,-1.806230902671814,0.312252938747406
1772480056187586800,7.9765869140625,0.7938666343688965,-1.8507202863693237,0.25272753834724426
1772480056197585000,7.9865849609375,0.7396295070648193,-1.8616050481796265,0.20743097364902496
1772480056207583000,7.9965830078125,0.6863993406295776,-1.8981298208236694,0.175153449177742
1772480056217579000,8.0065791015625,0.6284551024436951,-1.9312379360198975,0.1396184265613556
1772480056227577000,8.0165771484375,0.579372227191925,-1.9772722721099854,0.11157587170600891
1772480056237575000,8.026574951171876,0.5313640236854553,-1.9959555864334106,0.09024999290704727
1772480056247573000,8.036572998046875,0.4893966317176819,-2.009779691696167,0.06393636018037796
1772480056257569800,8.04656982421875,0.4503796398639679,-2.0202486515045166,0.03782657906413078
1772480056267567900,8.05656787109375,0.4454581141471863,-1.9541380405426025,0.022203944623470306
1772480056277566000,8.06656591796875,0.4580506980419159,-1.8329167366027832,0.01708149164915085
1772480056287563800,8.076563720703126,0.466257244348526,-1.6876295804977417,0.022834450006484985
1772480056297561900,8.086561767578125,0.46861451864242554,-1.552304744720459,0.06739424169063568
1772480056307558700,8.09655859375,0.46234679222106934,-1.4377994537353516,0.14520381391048431
1772480056317556700,8.106556640625,0.4375797510147095,-1.3353776931762695,0.25839582085609436
1772480056327554800,8.116554931640625,0.43605509400367737,-1.3095812797546387,0.35773545503616333
1772480056337553000,8.126552978515624,0.4360347092151642,-1.3377184867858887,0.4013386070728302
1772480056347551000,8.136551025390625,0.4205569326877594,-1.3725745677947998,0.40183261036872864
1772480056357548000,8.146548095703125,0.4099813997745514,-1.440545678138733,0.3898683488368988
1772480056367545900,8.1565458984375,0.4068641662597656,-1.5078476667404175,0.37003687024116516
1772480056377544000,8.1665439453125,0.42573845386505127,-1.5503525733947754,0.3680264949798584
1772480056387541800,8.176541748046875,0.44727596640586853,-1.5750337839126587,0.40037432312965393
1772480056397539800,8.186539794921876,0.4631873667240143,-1.5851681232452393,0.44231265783309937
1772480056407537000,8.196536865234375,0.48504847288131714,-1.5638619661331177,0.48002275824546814
1772480056417534700,8.20653466796875,0.5240071415901184,-1.5216951370239258,0.5324320793151855
1772480056427532800,8.21653271484375,0.584178626537323,-1.4653501510620117,0.5443393588066101
1772480056437531000,8.22653076171875,0.5372117161750793,-1.4096719026565552,0.5805779099464417
1772480056447529000,8.236529052734374,0.49173957109451294,-1.3752503395080566,0.6503793597221375
1772480056457526000,8.246526123046875,0.46322837471961975,-1.266610860824585,0.6882308125495911
1772480056467523800,8.25652392578125,0.43649715185165405,-1.10621976852417,0.7118862867355347
1772480056477522000,8.26652197265625,0.4072153568267822,-0.978108823299408,0.7432616353034973
1772480056487520000,8.27652001953125,0.39374908804893494,-0.8857192397117615,0.7379422187805176
1772480056497517800,8.286517822265624,0.39032304286956787,-0.8143838047981262,0.6518661379814148
1772480056507515000,8.296514892578125,0.38426220417022705,-0.7209218144416809,0.5043224692344666
1772480056517512700,8.3065126953125,0.38594919443130493,-0.6410978436470032,0.3317214548587799
1772480056527510800,8.3165107421875,0.4103195071220398,-0.6329813003540039,0.18098895251750946
1772480056537508900,8.3265087890625,0.45592156052589417,-0.581296980381012,0.0916416123509407
1772480056547506700,8.336506591796875,0.4999726414680481,-0.533760130405426,0.07397899776697159
1772480056557504000,8.34650390625,0.5181438326835632,-0.5468936562538147,0.09855213016271591
1772480056567501800,8.356501708984375,0.510090172290802,-0.6033079028129578,0.1506587415933609
1772480056577500000,8.3665,0.5021669864654541,-0.6427782773971558,0.22864213585853577
1772480056587498000,8.376498046875,0.5160349011421204,-0.7024556994438171,0.30761417746543884
1772480056597495800,8.386495849609375,0.5084770917892456,-0.7850733399391174,0.3446425497531891
1772480056607492900,8.396492919921876,0.5037465691566467,-0.8814342617988586,0.32735970616340637
1772480056617492000,8.406491943359375,0.46020233631134033,-0.9849796891212463,0.2949596643447876
1772480056627489800,8.41648974609375,0.4485670030117035,-1.0625834465026855,0.256233811378479
1772480056637487900,8.42648779296875,0.45068103075027466,-1.1044903993606567,0.18716716766357422
1772480056647484700,8.436484619140625,0.4447038173675537,-1.0832306146621704,0.11043857038021088
1772480056657482800,8.446482666015624,0.4362426996231079,-1.0452808141708374,0.034531816840171814
1772480056667480800,8.456480712890626,0.42059236764907837,-1.0526684522628784,-0.07005131244659424
1772480056677479000,8.46647900390625,0.39785391092300415,-1.0756622552871704,-0.16200360655784607
1772480056687477000,8.47647705078125,0.3749520480632782,-1.0580267906188965,-0.23052062094211578
1772480056697474000,8.48647412109375,0.38312870264053345,-0.9924895167350769,-0.2698391377925873
1772480056707472000,8.496471923828125,0.4075711965560913,-0.9155585169792175,-0.2689781188964844
1772480056717470000,8.506469970703124,0.4314553439617157,-0.8385793566703796,-0.2434745877981186
1772480056727467800,8.5164677734375,0.4584677815437317,-0.7492899894714355,-0.2168951779603958
1772480056737465900,8.5264658203125,0.4784410893917084,-0.6748830676078796,-0.2003852128982544
1772480056747463000,8.536462890625,0.493971049785614,-0.5741876363754272,-0.1480003148317337
1772480056757460700,8.546460693359375,0.49830853939056396,-0.5059550404548645,-0.05680861324071884
1772480056767458800,8.556458740234374,0.4752969741821289,-0.4642014801502228,0.04067692905664444
1772480056777457000,8.566456787109376,0.42986607551574707,-0.4343928396701813,0.11380060762166977
1772480056787454700,8.576454833984375,0.39941495656967163,-0.41550835967063904,0.1541730761528015
1772480056797452000,8.5864521484375,0.3681042194366455,-0.38452085852622986,0.1644199937582016
1772480056807449900,8.596449951171875,0.34446707367897034,-0.42045941948890686,0.165923073887825
1772480056817448000,8.606447998046875,0.30893436074256897,-0.5046604871749878,0.16060146689414978
1772480056827446000,8.616446044921876,0.2684662938117981,-0.6012075543403625,0.12610554695129395
1772480056837443800,8.62644384765625,0.21385939419269562,-0.654666006565094,0.053499288856983185
1772480056847441000,8.63644091796875,0.12658333778381348,-0.6707792282104492,-0.0365656241774559
1772480056857438700,8.646438720703125,0.03517475351691246,-0.6748533248901367,-0.11343929171562195
1772480056867436800,8.656436767578125,-0.02090848609805107,-0.673926591873169,-0.16288328170776367
1772480056877435000,8.666434814453124,-0.048433564603328705,-0.6767536997795105,-0.14670294523239136
1772480056887432000,8.676431884765625,-0.08016912639141083,-0.6938953995704651,-0.09224741905927658
1772480056897430000,8.686429931640625,-0.10085037350654602,-0.7100401520729065,-0.034352030605077744
1772480056907427800,8.696427734375,-0.1052352711558342,-0.7315496802330017,-0.004838348366320133
1772480056917426000,8.706426025390625,-0.11174856126308441,-0.7402219176292419,0.012778145261108875
1772480056927424000,8.716424072265625,-0.13635696470737457,-0.7174225449562073,0.03823849931359291
1772480056937420800,8.7264208984375,-0.16833683848381042,-0.6661704778671265,0.07457344233989716
1772480056947419000,8.7364189453125,-0.17393958568572998,-0.5542159676551819,0.07690717279911041
1772480056957416700,8.746416748046874,-0.12788912653923035,-0.3708740770816803,0.006776897702366114
1772480056967414800,8.756414794921875,-0.06592267751693726,-0.16640377044677734,-0.09825071692466736
1772480056977412900,8.766412841796875,0.001870124600827694,0.040565166622400284,-0.20688894391059875
1772480056987410000,8.776409912109376,0.06475241482257843,0.18304800987243652,-0.28010112047195435
1772480056997408000,8.786407958984375,0.12634173035621643,0.3013599216938019,-0.29713284969329834
1772480057007406000,8.796406005859374,0.17638546228408813,0.39122721552848816,-0.2524775266647339
1772480057017404000,8.80640380859375,0.1859230101108551,0.4303724765777588,-0.14258991181850433
1772480057027402000,8.816402099609375,0.1395896077156067,0.3878718912601471,-0.0028312201611697674
1772480057037398800,8.826398681640624,0.058893609791994095,0.2553233206272125,0.1351216435432434
1772480057047396900,8.83639697265625,-0.035090941935777664,0.10461261123418808,0.24030399322509766
1772480057057395000,8.84639501953125,-0.13323715329170227,-0.007446326315402985,0.30662932991981506
1772480057067392800,8.856392822265626,-0.21835842728614807,-0.09749206155538559,0.3565486967563629
1772480057077390800,8.866390869140625,-0.3046800494194031,-0.18098273873329163,0.40419766306877136
1772480057087388000,8.876387939453124,-0.43707165122032166,-0.30614519119262695,0.43391934037208557
1772480057097386000,8.886385986328126,-0.5823113918304443,-0.4732917845249176,0.4654991030693054
1772480057107384000,8.896384033203125,-0.7112240791320801,-0.5975871682167053,0.5449675917625427
1772480057117382000,8.9063818359375,-0.7323564887046814,-0.6978414058685303,0.6197047829627991
1772480057127380000,8.9163798828125,-0.7289218306541443,-0.6657149195671082,0.620012640953064
1772480057137376800,8.926376708984375,-0.6450402736663818,-0.5642277598381042,0.5223345160484314
1772480057147374800,8.936374755859376,-0.47268712520599365,-0.39125117659568787,0.32344722747802734
1772480057157372700,8.94637255859375,-0.2754635214805603,-0.1292065680027008,0.13721132278442383
1772480057167370800,8.956370849609375,-0.09471690654754639,-0.0011591194197535515,-0.01670847088098526
1772480057177368800,8.966368896484376,0.09492156654596329,0.10700523108243942,-0.12399903684854507
1772480057187366000,8.976365966796875,0.331421434879303,0.2024689018726349,-0.19999021291732788
1772480057197364000,8.986364013671874,0.5416829586029053,0.25459009408950806,-0.2689191997051239
1772480057207361800,8.99636181640625,0.6442573070526123,0.2232646495103836,-0.2119821161031723
1772480057217360000,9.00635986328125,0.6648439168930054,0.15466046333312988,-0.03380225971341133
1772480057227358000,9.01635791015625,0.6710094213485718,0.06930694729089737,0.18145225942134857
1772480057237354800,9.026354736328125,0.6681743860244751,0.03490087017416954,0.3511021137237549
1772480057247352800,9.036352783203125,0.6371275186538696,-0.025910016149282455,0.4699592590332031
1772480057257350700,9.0463505859375,0.5698938369750977,-0.08548568189144135,0.5586637258529663
1772480057267348700,9.0563486328125,0.47343969345092773,-0.14280222356319427,0.6204277276992798
1772480057277346800,9.066346923828124,0.35416707396507263,-0.17320719361305237,0.6271356344223022
1772480057287343600,9.076343505859375,0.2303663194179535,-0.16432900726795197,0.5468083024024963
1772480057297341700,9.086341796875,0.12952187657356262,-0.1881587952375412,0.4248829483985901
1772480057307339800,9.09633984375,0.05067659169435501,-0.2565178871154785,0.2984624207019806
1772480057317337900,9.106337890625,-0.0065221479162573814,-0.3311963677406311,0.18155358731746674
1772480057327336000,9.1163359375,-0.034189194440841675,-0.3792469799518585,0.06410631537437439
1772480057337332700,9.126332763671876,-0.032638851553201675,-0.3757404386997223,-0.05405944958329201
1772480057347330800,9.136330810546875,-0.009809968061745167,-0.3316321074962616,-0.15508967638015747
1772480057357328600,9.14632861328125,0.023709658533334732,-0.2605205178260803,-0.23814836144447327
1772480057367326700,9.15632666015625,0.05995980650186539,-0.2048647254705429,-0.2772446274757385
1772480057377324800,9.16632470703125,0.0940997302532196,-0.17783626914024353,-0.2722558379173279
1772480057387321600,9.176321533203126,0.12278597056865692,-0.16108711063861847,-0.24290834367275238
1772480057397319700,9.186319580078125,0.13730736076831818,-0.1581428349018097,-0.21683314442634583
1772480057407317800,9.19631787109375,0.14442305266857147,-0.1626156121492386,-0.19137251377105713
1772480057417315800,9.20631591796875,0.1364494264125824,-0.17343805730342865,-0.15271833539009094
1772480057427313000,9.21631298828125,0.1318914294242859,-0.19361017644405365,-0.08820299059152603
1772480057437310700,9.226310791015624,0.14274515211582184,-0.18814875185489655,-0.026066875085234642
1772480057447308800,9.236308837890626,0.15840613842010498,-0.1748819500207901,0.008823197335004807
1772480057457307000,9.246306884765625,0.15981349349021912,-0.16056273877620697,0.010648827999830246
1772480057467304700,9.2563046875,0.1705273985862732,-0.15391415357589722,-0.005180202424526215
1772480057477301800,9.2663017578125,0.16997328400611877,-0.16768619418144226,-0.0409550815820694
1772480057487299600,9.276299560546875,0.158020481467247,-0.19070787727832794,-0.07519534230232239
1772480057497297700,9.286297607421876,0.13780058920383453,-0.2001889944076538,-0.0951995998620987
1772480057507295700,9.296295654296875,0.10383515805006027,-0.2189706712961197,-0.11113835126161575
1772480057517293600,9.30629345703125,0.0559123195707798,-0.24734455347061157,-0.12489878386259079
1772480057527291000,9.316290771484375,0.0005840817466378212,-0.2708408236503601,-0.1319361925125122
1772480057537288700,9.326288818359375,-0.05317046865820885,-0.2931919991970062,-0.1591285914182663
1772480057547286800,9.336286865234374,-0.11793268471956253,-0.33661964535713196,-0.21895650029182434
1772480057557284900,9.346284912109375,-0.18689903616905212,-0.37919092178344727,-0.30762892961502075
1772480057567282700,9.35628271484375,-0.25118666887283325,-0.4519426226615906,-0.4003719091415405
1772480057577279700,9.36627978515625,-0.3105406165122986,-0.5279824733734131,-0.5113433003425598
1772480057587277600,9.376277587890625,-0.37137359380722046,-0.5971280336380005,-0.5970968008041382
1772480057597275600,9.386275634765624,-0.43707379698753357,-0.6230597496032715,-0.6294345259666443
1772480057607273700,9.396273681640626,-0.4657118320465088,-0.6800628304481506,-0.6348434090614319
1772480057617271600,9.406271484375,-0.47064340114593506,-0.7055867910385132,-0.6390620470046997
1772480057627268900,9.416268798828124,-0.4207613468170166,-0.5763028264045715,-0.6912069916725159
1772480057637267000,9.426266845703125,-0.30655375123023987,-0.37604156136512756,-0.765034556388855
1772480057647264800,9.4362646484375,-0.18373358249664307,-0.23425139486789703,-0.8299885392189026
1772480057657262800,9.446262939453124,-0.15246912837028503,-0.11889622360467911,-0.7861651182174683
1772480057667260700,9.4562607421875,-0.14756172895431519,-0.02550528571009636,-0.6734796166419983
1772480057677257700,9.4662578125,-0.17882545292377472,0.06801164150238037,-0.51214599609375
1772480057687255800,9.476255859375,-0.2329709678888321,0.13905838131904602,-0.33993643522262573
1772480057697253600,9.486253662109375,-0.29643386602401733,0.1862012892961502,-0.18746519088745117
1772480057707251700,9.496251708984374,-0.3306509554386139,0.1876753568649292,-0.047089166939258575
1772480057717249800,9.506249755859375,-0.32869479060173035,0.1631161868572235,0.07103977352380753
1772480057727246800,9.516246826171875,-0.3051646947860718,0.12615257501602173,0.1711282879114151
1772480057737245000,9.526244873046876,-0.26630035042762756,0.0781557708978653,0.2841275930404663
1772480057747242800,9.53624267578125,-0.25650283694267273,0.06877052038908005,0.3940029442310333
1772480057757240800,9.54624072265625,-0.29382750391960144,0.09834632277488708,0.4866933822631836
1772480057767239000,9.556239013671876,-0.35718995332717896,0.18833106756210327,0.561387836933136
1772480057777235700,9.566235595703125,-0.4109887480735779,0.3238513469696045,0.6023589968681335
1772480057787233800,9.57623388671875,-0.42514318227767944,0.4481911361217499,0.6223564147949219
1772480057797231600,9.586231689453125,-0.38897648453712463,0.5843369960784912,0.6246688961982727
1772480057807229700,9.596229736328125,-0.31687086820602417,0.674229621887207,0.6114470958709717
1772480057817227800,9.606227783203124,-0.21630693972110748,0.7010559439659119,0.5849287509918213
1772480057827224800,9.616224853515625,-0.09027417004108429,0.6970798373222351,0.5258010029792786
1772480057837223000,9.626222900390625,0.022610995918512344,0.6647107005119324,0.451934278011322
1772480057847220700,9.636220703125,0.155123770236969,0.5917156338691711,0.33004191517829895
1772480057857218800,9.64621875,0.2887934744358063,0.5579701066017151,0.16183017194271088
1772480057867217000,9.656216796875,0.3717307150363922,0.5258057713508606,-0.0070078554563224316
1772480057877213700,9.666213623046875,0.4091600775718689,0.4892439544200897,-0.15243487060070038
1772480057887211800,9.676211669921875,0.4045291244983673,0.42465803027153015,-0.24917392432689667
1772480057897209600,9.686209716796874,0.36016160249710083,0.31852686405181885,-0.311445951461792
1772480057907207700,9.696207763671875,0.29178306460380554,0.17142236232757568,-0.3458031415939331
1772480057917205800,9.706205810546875,0.207039013504982,0.07381874322891235,-0.3366357386112213
1772480057927202800,9.716202880859376,0.1402360200881958,0.016426026821136475,-0.2692721486091614
1772480057937201000,9.726200927734375,0.09948810935020447,-0.04779961705207825,-0.16983461380004883
1772480057947199000,9.736198974609374,0.08615925908088684,-0.099067322909832,-0.04513450339436531
1772480057957196800,9.74619677734375,0.08036257326602936,-0.1412525326013565,0.06842124462127686
1772480057967193900,9.75619384765625,0.06335429847240448,-0.17946358025074005,0.14454077184200287
1772480057977191700,9.766191650390626,0.024143580347299576,-0.20355883240699768,0.1817183792591095
1772480057987189800,9.776189697265625,-0.026544630527496338,-0.1616784930229187,0.1701325625181198
1772480057997187800,9.786187744140625,-0.05713920295238495,-0.15158382058143616,0.11603034287691116
1772480058007185700,9.796185546875,-0.052179865539073944,-0.1595570594072342,0.04290340468287468
1772480058017182700,9.8061826171875,-0.057030435651540756,-0.14490745961666107,0.03494717553257942
1772480058027180500,9.8161806640625,-0.10171107947826385,-0.008461728692054749,-0.05352995917201042
1772480058037179000,9.826178955078126,-0.10413466393947601,0.09752339124679565,-0.16186563670635223
1772480058047177000,9.836177001953125,-0.07263851910829544,0.07343190908432007,-0.2297070026397705
1772480058057174800,9.8461748046875,-0.03670872002840042,0.043673496693372726,-0.233505979180336
1772480058067171800,9.856171875,0.006530892103910446,0.06042291969060898,-0.20903125405311584
1772480058077169700,9.866169677734375,0.02176707051694393,0.059349555522203445,-0.16556668281555176
1772480058087167700,9.876167724609376,0.02229597419500351,0.047731250524520874,-0.11079210788011551
1772480058097165800,9.886165771484375,0.01567375846207142,0.06169180944561958,-0.05172426253557205
1772480058107163600,9.89616357421875,0.007969233207404613,0.07428748905658722,0.008213639259338379
1772480058117160700,9.90616064453125,-0.024985849857330322,0.05431143566966057,0.06202160567045212
1772480058127158800,9.91615869140625,-0.07666555792093277,0.04222600907087326,0.10587561130523682
1772480058137156600,9.926156494140624,-0.13231974840164185,-0.028823575004935265,0.1249028667807579
1772480058147155500,9.936155517578126,-0.18266575038433075,-0.11159728467464447,0.13469691574573517
1772480058157153500,9.946153564453125,-0.23683680593967438,-0.08417851477861404,0.14883148670196533
1772480058167150600,9.956150634765624,-0.27843964099884033,-0.036527369171381,0.15042538940906525
1772480058177148700,9.966148681640625,-0.23931695520877838,-0.11034916341304779,0.10871793329715729
1772480058187146500,9.976146484375,-0.1851184219121933,-0.21139322221279144,0.09504526853561401
1772480058197144600,9.98614453125,-0.05814402550458908,-0.2940759062767029,0.09243208914995193
1772480058207142700,9.996142578125,0.013022293336689472,-0.33706679940223694,0.07219099998474121
1772480058217139500,10.006139404296874,0.038338493555784225,-0.3846018314361572,0.039750587195158005
1772480058227137500,10.016137451171875,0.019575726240873337,-0.4285202920436859,0.0149688096717
1772480058237135400,10.02613525390625,-0.028819721192121506,-0.4066948890686035,0.03307152912020683
1772480058247133400,10.036133544921874,-0.11377722024917603,-0.3601340353488922,0.06507234275341034
1772480058257131500,10.046131591796875,-0.21001356840133667,-0.3542207181453705,0.15277805924415588
1772480058267128600,10.056128662109375,-0.23183684051036835,-0.2987973988056183,0.2614382207393646
1772480058277126700,10.066126708984376,-0.21615935862064362,-0.26112106442451477,0.22852493822574615
1772480058287124500,10.07612451171875,-0.22943760454654694,0.023143161088228226,0.0698322281241417
1772480058297122600,10.08612255859375,-0.17836007475852966,0.24180082976818085,-0.00803440809249878
1772480058307120600,10.09612060546875,-0.1221412792801857,0.30469590425491333,0.04448073357343674
1772480058317117400,10.106117431640625,-0.07774590700864792,0.3324137032032013,0.07717200368642807
1772480058327115500,10.116115478515624,-0.039751119911670685,0.4149826169013977,0.06296244263648987
1772480058337113600,10.126113525390625,-0.025984887033700943,0.47870293259620667,0.05450839921832085
1772480058347111400,10.136111328125,0.004563700873404741,0.5047071576118469,0.05843523144721985
1772480058357108500,10.1461083984375,0.04343040660023689,0.4695533812046051,0.06131863594055176
1772480058367106600,10.1561064453125,0.07969275116920471,0.4452367424964905,0.059213846921920776
1772480058377104600,10.166104736328125,0.07468360662460327,0.4064970016479492,0.08518867939710617
1772480058387102700,10.176102783203126,0.05576930195093155,0.2898843586444855,0.12749779224395752
1772480058397100500,10.1861005859375,0.013419188559055328,0.09013218432664871,0.16976937651634216
1772480058407097600,10.19609765625,-0.026497069746255875,-0.06325843930244446,0.2193976491689682
1772480058417095400,10.206095458984375,-0.059536270797252655,-0.14079727232456207,0.20782428979873657
