time,seconds_elapsed,z,y,x
1772522033781977600,0.1079775390625,0.05821311951577663,-0.0035664237773045896,-0.0023751133671961722
1772522033791973600,0.1179736328125,0.05926292082965374,0.0010050305903889238,0.0009846088568679987
1772522033801970700,0.127970703125,0.036519758623838425,0.0042648726365529,0.002102927096001804
1772522033811967500,0.137967529296875,0.04609598074257373,0.0025462138840928674,0.003630072731198743
1772522033821963800,0.1479638671875,0.06225391933917999,-0.0012709332512691616,0.0033572106065694243
1772522033831960600,0.157960693359375,0.06150456227660179,-0.005229954809043556,0.004904138654470444
1772522033841957600,0.16795751953125,0.051474751171469685,-0.0021283903308212757,-0.005579836825793608
1772522033851954700,0.17795458984375,0.04444353736042976,0.0008669007613323628,-0.0008716591348405927
1772522033861950700,0.18795068359375,0.04907938046753406,0.005571553054638206,-0.005311696542054415
1772522033871947800,0.19794775390625,0.06868132203817368,0.002094488061219454,-0.002840127929905429
1772522033881944600,0.207944580078125,0.05685819777548313,-0.004604187593515962,-0.0023475860394537446
1772522033891942000,0.21794189453125,0.055659343379735944,0.002613141640461981,0.0013157039747573435
1772522033901937700,0.227937744140625,0.05206570280194282,-0.0018265395737253128,-0.0007022939173039048
1772522033911934700,0.237934814453125,0.03366027753949165,-0.0076299651554785665,-0.004857249039132148
1772522033921931800,0.247931884765625,0.0537093783557415,0.0012966522144153714,-0.00009071962391026317
1772522033931927800,0.257927734375,0.06882452990114689,0.00485942272990942,-0.007029889503633603
1772522033941924900,0.2679248046875,0.054012745216488835,-0.0034640411150641736,-0.0006921287163160741
1772522033951921700,0.277921630859375,0.03525894490778446,-0.0027626696463674306,-0.001104088784381747
1772522033961918700,0.287918701171875,0.051956981730461115,-0.00009310337724164128,0.0012280987565405667
1772522033971914800,0.297914794921875,0.06496668542921542,-0.0017393544806167483,-0.0011776380777824668
1772522033981911800,0.307911865234375,0.06853752965331077,0.0019772366234101354,-0.0007387352038640528
1772522033991908900,0.317908935546875,0.05804594625532627,-0.0033353001688607034,-0.002288375798659399
1772522034001904600,0.327904541015625,0.04951894092857837,0.005278196131251752,-0.002791384284198284
1772522034011902000,0.33790185546875,0.054177580389380454,0.00460329254437238,0.004172709974227473
1772522034021898800,0.347898681640625,0.04849602762162685,0.00010930559337139129,0.0031821371674537655
1772522034031895800,0.357895751953125,0.06361117916703224,0.006851911721378564,-0.0025265502023976293
1772522034041891800,0.367891845703125,0.053882396835088726,-0.0020933190174400804,-0.0025163484687916932
1772522034051888600,0.377888671875,0.04893967973589897,-0.000459890863019973,0.004668348004063591
1772522034061886000,0.387885986328125,0.05327917024493217,0.01159822946563363,-0.0005439524172805249
1772522034071882800,0.3978828125,0.06389701037108898,0.0037666407908312975,0.005248677775822579
1772522034081878800,0.407878662109375,0.04400280785560608,0.004819145518448203,0.004761725375941023
1772522034091875800,0.417875732421875,0.05253156674802303,-0.0003252498989924788,-0.0005156761708669364
1772522034101872600,0.42787255859375,0.041752983102202414,0.005331278025358915,0.0015803371271584181
1772522034111869000,0.437868896484375,0.04071311866044998,-0.00582527208738029,0.0012764222771394996
1772522034121865700,0.44786572265625,0.05672258869707584,0.0044972383540123695,0.0003131484692450613
1772522034131862800,0.45786279296875,0.06270166310667992,0.002087692994251847,0.0032030977570917454
1772522034141859800,0.46785986328125,0.03936871831417083,-0.00028765783496201037,0.006448335889168083
1772522034151855600,0.477855712890625,0.04161094428300857,0.006145663148164749,0.011946476647723466
1772522034161853000,0.48785302734375,0.0559749852001667,0.009541643995698542,0.0010408964882139115
1772522034171849700,0.497849609375,0.04879238021969795,0.008886120962724089,-0.003933677053963765
1772522034181846800,0.5078466796875,0.04624912547767162,0.002050155729148537,0.003020799992745742
1772522034191842800,0.5178427734375,0.0430997215360403,-0.004974062085524201,0.00008644530759193003
1772522034201839600,0.527839599609375,0.055821840465068814,0.004844718351121991,-0.000561086215171963
1772522034211837000,0.5378369140625,0.06868833630084992,0.00728252169098705,-0.005904173409333452
1772522034221832700,0.547832763671875,0.04833411505818367,0.001826028117071837,-0.011143507968075573
1772522034231829800,0.557829833984375,0.03411912722289562,0.0005908420326188207,-0.010318985043745487
1772522034241826800,0.567826904296875,0.04175707475543022,-0.006742350399680435,-0.008326523451739922
1772522034251823900,0.577823974609375,0.054931613627076145,-0.006867712078709155,-0.010323277626372872
1772522034261820000,0.58781982421875,0.06076806469559669,0.00013955460116267204,-0.011062670417362823
1772522034271816700,0.597816650390625,0.050292263388633726,0.007028163337428122,-0.010822970776818692
1772522034281813800,0.607813720703125,0.04341010265946388,0.002286850561853498,-0.0012793540197424589
1772522034291810800,0.617810791015625,0.053142976644635194,0.001637812068592757,-0.005001909073675051
1772522034301806600,0.627806640625,0.0535959811091423,-0.00030937647642567754,-0.0018658121381886301
1772522034311804000,0.637803955078125,0.06347381652295589,-0.00180052834963426,-0.0024460323120933025
1772522034321800700,0.64780078125,0.04476677796542644,0.004633888612035662,-0.002634513222053647
1772522034331797000,0.657796875,0.029054245048761366,0.004768858369626105,0.008595047327969223
1772522034341793800,0.667793701171875,0.048663200882077214,-0.004654620872810483,-0.007914198057493195
1772522034351790800,0.677790771484375,0.061840077841281885,0.00017630641497671604,0.0038737635602708906
1772522034361788000,0.687787841796875,0.05570318252146244,0.005855612426716834,0.0026921068944968283
1772522034371783700,0.69778369140625,0.05076455707550048,0.00590007262295112,0.00015340959657914936
1772522034381780700,0.70778076171875,0.038943770900368685,-0.0041155820926651356,0.008440276891365646
1772522034391777800,0.71777783203125,0.042830841466784474,-0.0012912271206267176,0.00914468056736514
1772522034401774800,0.72777490234375,0.06468202326893806,-0.00037034941604360935,0.00731387581047602
1772522034411771000,0.73777099609375,0.05091711728870869,-0.00442088518217206,0.006301502163847908
1772522034421767700,0.747767578125,0.04926642747223377,-0.009691354664694517,0.004393430919665843
1772522034431764700,0.7577646484375,0.04327741619050503,0.00417346802605316,0.00339002603078261
1772522034441761800,0.76776171875,0.05405073913931846,-0.001478694250434637,0.00023146153516136108
1772522034451757800,0.7777578125,0.04522504312694072,0.0007890862847678363,0.0011895933770574628
1772522034461755000,0.7877548828125,0.062432198515534394,-0.002599935099016875,0.013276245680451392
1772522034471751700,0.797751708984375,0.05300386043488979,0.0007521883404813706,0.0026018165288493036
1772522034481748000,0.807748046875,0.05359890371859073,-0.0024796514539048072,-0.0005683470730204135
1772522034491744800,0.817744873046875,0.04940554368197918,0.0006285071618855,0.008022873463202268
1772522034501741800,0.827741943359375,0.05254208814203739,-0.0030787315919063984,0.0011522844408173114
1772522034511739000,0.83773876953125,0.05688274769484997,0.004933784874062985,0.008297662683436647
1772522034521734700,0.847734619140625,0.04460778801143169,0.0016717143381945788,0.009575738061545417
1772522034531732000,0.85773193359375,0.04116495408117771,-0.0054669419026933605,0.008363430529180914
1772522034541728800,0.867728759765625,0.04849602762162685,0.006235679519176483,-0.007011632327735423
1772522034551725800,0.877725830078125,0.05313362429440021,0.00949289121683687,-0.0005317596559878438
1772522034561721900,0.887721923828125,0.049689621320366854,0.0076483958613127465,0.002260656674671918
1772522034571718700,0.89771875,0.048341129320859905,0.0004812624446116388,-0.004884392774384468
1772522034581715700,0.9077158203125,0.04968552966713905,-0.0013138225449249147,-0.011130794616974889
1772522034591711700,0.917711669921875,0.03936287309527397,0.003383632822614163,-0.011074963643355295
1772522034601708800,0.927708740234375,0.05313011716306209,0.003104651484452188,-0.005227972914511337
1772522034611705900,0.937705810546875,0.038463878428936005,0.008431271601002663,-0.0132195835897699
1772522034621703000,0.947702880859375,0.04624678739011288,0.0025283311675302683,-0.0048954164918977765
1772522034631699000,0.957698974609375,0.05238309818804264,0.000050159284658730024,0.006157883308921009
1772522034641695700,0.96769580078125,0.05043780933916568,-0.0010049757914617657,0.005558593108365312
1772522034651692800,0.97769287109375,0.05372808305621147,0.0074917987938039,-0.008347484041377902
1772522034661689900,0.98768994140625,0.058816346105933184,0.004609338692668825,-0.0017055618088692426
1772522034671685600,0.997685546875,0.037570144459605215,-0.004264379446208477,0.0012116134126204997
1772522034681683000,1.007682861328125,0.04879354926347732,-0.0027019159024581313,0.001294834716664627
1772522034691679700,1.0176796875,0.061519175323843954,-0.0026571269126608966,-0.0014159677451476454
1772522034701676800,1.0276767578125,0.057930210921168325,-0.001824548546038568,-0.0058239386468194425
1772522034711672800,1.0376728515625,0.04805179098546505,0.008687931509502232,-0.005346868320135399
1772522034721670000,1.047669921875,0.035035073024034497,0.0029469949710182845,-0.0020628599470946937
1772522034731666700,1.057666748046875,0.042675358644127845,0.007380556971672922,-0.0004544931686948985
1772522034741662700,1.067662841796875,0.04252864364981651,0.004973952487669885,-0.0011982333412393926
1772522034751659800,1.07765966796875,0.05464578242301941,-0.004437635387573391,0.002356445199344307
1772522034761656800,1.08765673828125,0.0546416907697916,0.001815360592585057,0.00463890271387063
1772522034771654000,1.09765380859375,0.06032850423455238,-0.0029957112172618507,-0.0058419766270089895
1772522034781650000,1.10764990234375,0.034441783306002616,-0.00547044903403148,-0.0029826873389072715
1772522034791646700,1.117646728515625,0.05569383017122745,0.004845302873011678,-0.004626627754187211
1772522034801643800,1.127643798828125,0.058984688410162925,0.011270659745391457,-0.001853436713805422
1772522034811640800,1.137640869140625,0.03639116380810738,-0.004498772723972797,-0.0013578717492055148
1772522034821636600,1.14763671875,0.041182489737868304,-0.0060863341763615604,-0.0033671657450031487
1772522034831634000,1.157634033203125,0.04925765964388847,0.0042748277749866245,0.006077858608961105
1772522034841630700,1.167630615234375,0.05718962168693542,0.001889174747467041,0.0030196035495027897
1772522034851627800,1.177627685546875,0.04746376196444034,-0.0021251023951917884,0.0050522966871969395
1772522034861623800,1.187623779296875,0.036541385933756824,-0.009281769216805695,0.009206530289817601
1772522034871620900,1.197620849609375,0.05240472549796104,-0.0016145042582415042,0.0075899710718076675
1772522034881617700,1.20761767578125,0.05525076257884502,0.0025902174226008355,0.003256691107852384
1772522034891614700,1.21761474609375,0.04686930320262909,0.0026377463587559757,0.0027701588330790398
1772522034901610800,1.22761083984375,0.052554363101720805,0.004445142840594053,-0.004000668742414564
1772522034911607800,1.23760791015625,0.07006196274161339,0.0053135779718868435,0.0012225823312066494
1772522034921604900,1.24760498046875,0.056146250113844866,-0.001609736751578748,-0.001199585048109293
1772522034931601000,1.257600830078125,0.0360936421662569,0.005818933678139001,-0.003284921688493341
1772522034941598000,1.267597900390625,0.04252689008414745,0.0023871143322438,-0.0071262899496592575
1772522034951595000,1.277594970703125,0.042377252480387685,-0.007925130443461239,-0.002148127077752724
1772522034961592000,1.287592041015625,0.051503392744064326,-0.004002075248211622,-0.005398269713809713
1772522034971588000,1.297588134765625,0.05374678775668144,0.00035770913017913695,-0.006029051031172275
1772522034981585200,1.307585205078125,0.04895721539258956,0.004885653149709106,0.0014598160200286656
1772522034991582200,1.317582275390625,0.05000526314079761,0.0003717741881497204,-0.003771910620993003
1772522035001579000,1.3275791015625,0.04236848465204238,0.003251165549363941,-0.005056607536133378
1772522035011575000,1.337574951171875,0.05224339745640754,-0.00021985329575836658,0.00026385683426633476
1772522035021572000,1.347572021484375,0.06136953772008419,0.00021177958715707062,0.001066916845459491
1772522035031569000,1.35756884765625,0.05852642324864864,-0.004874346304405481,-0.0008783628702629357
1772522035041566200,1.367566162109375,0.049850364840030664,0.0029236506280489265,-0.003277852626889944
1772522035051562000,1.37756201171875,0.04267068246901035,0.0037248474757187065,-0.00453740596761927
1772522035061559000,1.38755908203125,0.04596504783928394,0.0072490395464934404,-0.007154210003046319
1772522035071556000,1.39755615234375,0.03848024504184722,-0.0031093459258787334,-0.004224851153418421
1772522035081552100,1.40755224609375,0.0489554618269205,-0.0023083682739175855,-0.010281621308578178
1772522035091549200,1.417549072265625,0.05628653536736965,0.00205578175233677,0.008222186294430866
1772522035101546000,1.4275458984375,0.04057517149448395,0.006538242662325501,0.003615587548119947
1772522035111543000,1.43754296875,0.04640928447544575,-0.0013416421336121856,-0.004533661374263465
1772522035121539000,1.4475390625,0.040725978142023084,-0.00588657382056117,-0.0021597718497738242
1772522035131536100,1.4575361328125,0.06691314332187176,0.0033048867642879484,0.0048326443208381534
1772522035141533200,1.467533203125,0.04612403779327869,0.009006477673072368,0.008400008813058957
1772522035151530000,1.477530029296875,0.04822422494292259,0.007062595329992473,-0.0023503716515842826
1772522035161526000,1.487526123046875,0.0314665668874979,0.0032676417601294814,0.00009995324313640594
1772522035171523000,1.497523193359375,0.046729602470993996,0.005092665230203419,-0.000902903656475246
1772522035181520000,1.507519775390625,0.053910453885793685,0.0010832286594435572,0.009495622030040249
1772522035191517200,1.51751708984375,0.039844519132375716,0.0006313749724067748,-0.005190892307134345
1772522035201513000,1.527512939453125,0.0335579862087965,-0.0029623021380044516,0.00790296427742578
1772522035211510000,1.537510009765625,0.05630290198028087,-0.006134849493205547,0.006374448669049889
1772522035221507000,1.547507080078125,0.0563017329365015,0.0012258885331451893,0.0023026417860295624
1772522035231503000,1.557503173828125,0.050615503993630406,-0.0034081279430538416,-0.0014389741613995283
1772522035241500200,1.567500244140625,0.04268412647247314,-0.0018021175185218453,0.004453408345440403
1772522035251497000,1.5774970703125,0.05719838951528072,0.0021980580335482953,-0.0001436736538540572
1772522035261494300,1.587494384765625,0.036252632120251656,0.005978763882350176,-0.003831961112003773
1772522035271490000,1.597489990234375,0.044783729100227355,0.002291307541262358,-0.001907377124438062
1772522035281487000,1.607487060546875,0.05540624540150165,-0.00005653422651812434,0.0016112437220755964
1772522035291484200,1.617484130859375,0.06258534325063228,-0.001133351411484182,-0.003841231263848021
1772522035301481000,1.62748095703125,0.05286006805002689,0.0026858415504917503,0.005266770554939284
1772522035311477000,1.63747705078125,0.03640051615834236,-0.0011754004549235104,-0.0004923683605156839
1772522035321474000,1.64747412109375,0.041187750434875485,-0.0006294752762652933,-0.01333627790515311
1772522035331470800,1.657470947265625,0.05974573591053486,0.0026807817828841504,-0.0015067147685214877
1772522035341468200,1.66746826171875,0.056603346231579775,-0.005253920206520706,0.0015027783789206294
1772522035351464000,1.6774638671875,0.04747779048979282,0.005015252612438053,-0.0008156454981304705
1772522035361461000,1.6874609375,0.050769817772507664,0.0023718071652576327,-0.006598530615353956
1772522035371458000,1.6974580078125,0.04164075489938259,-0.0039814160526730116,0.0034692013473715633
1772522035381454800,1.707454833984375,0.044783729100227355,-0.004514335619285702,0.003078128803707659
1772522035391451100,1.717451171875,0.03984744174182415,0.00030528482319787143,0.00605190218379721
1772522035401448000,1.727447998046875,0.0407470209300518,-0.0008923274635337292,-0.0032740623677615073
1772522035411445200,1.7374453125,0.05496200876533985,-0.0030778548090718686,0.00509178844736889
1772522035421441000,1.74744091796875,0.049423079338669774,0.0006857537744566798,0.003930480449879542
1772522035431438000,1.75743798828125,0.04822773207426071,0.006792363553866743,-0.005121827392606065
1772522035441435100,1.76743505859375,0.04523381095528602,0.004627842463739216,-0.005670903509575873
1772522035451432000,1.777431884765625,0.03909925372302532,0.00208703540712595,-0.0004080054121557623
1772522035461428000,1.787427978515625,0.040742929276824,0.0013877645639702677,0.0015769213273655622
1772522035471425000,1.797425048828125,0.056153848898410796,-0.003209993288759142,-0.0032687560049816963
1772522035481421800,1.807421875,0.0570510899990797,0.001893394264858216,-0.00014480616501532495
1772522035491419100,1.817419189453125,0.050316228786110875,-0.0025990400498732925,0.00037497079223394394
1772522035501415000,1.827414794921875,0.048072249251604075,0.0015504808450117705,-0.00022494046282954514
1772522035511412200,1.837412109375,0.05465630381703376,-0.0011071027253754437,-0.0016773768940009175
1772522035521409000,1.847408935546875,0.051963995993137356,0.006321385041251779,0.0008543883396312594
1772522035531405800,1.85740576171875,0.05016659118235111,0.0005290836417116225,-0.0018795301362872123
1772522035541402000,1.867402099609375,0.05061491947174072,0.00563577739726752,-0.0005566201026085763
1772522035551399000,1.87739892578125,0.03280921366810798,0.004073240788280964,0.0010607154335360973
1772522035561396200,1.887396240234375,0.03415419853627682,0.00640740109058097,0.0027113047853112218
1772522035571393000,1.89739306640625,0.03834054431021213,-0.0026454182085581123,-0.00010291238520294427
1772522035581389000,1.90738916015625,0.04821545711457729,-0.002973828179016709,0.0020364103315863758
1772522035591386000,1.91738623046875,0.04776537525951862,-0.0023256116696633395,-0.0015644271719735116
1772522035601383000,1.9273828125,0.03923369375765323,-0.0005661459827795625,0.001414351176796481
1772522035611379200,1.937379150390625,0.04417524181306362,-0.003571246082894504,0.005702485957928002
1772522035621376000,1.9473759765625,0.048667877057194706,0.0019759945143945513,-0.001142311036074534
1772522035631373000,1.957373046875,0.0546545502513647,0.0013063333582133054,0.00036513438480906187
1772522035641370000,1.9673701171875,0.04133446542918682,-0.0008075717895291746,-0.0036681031866464763
1772522035651366000,1.977365966796875,0.04791676642894745,0.003915712139010429,-0.005042021888354793
1772522035661363200,1.98736328125,0.048214872592687606,0.0020260807338170705,0.000788045105151832
1772522035671360000,1.997360107421875,0.05076221898794174,0.0034636209899559615,-0.006371635657455772
1772522035681357000,2.007357177734375,0.03969078987538814,-0.0011395071576349436,-0.00579384490265511
1772522035691353000,2.01735302734375,0.04717442362904548,-0.0014981296032667158,-0.0018452625405043362
1772522035701350000,2.027349853515625,0.04881985274851322,-0.0013199052258394657,0.0017480309774167834
1772522035711347200,2.03734716796875,0.04926701199412346,0.004090301520936191,-0.0010600304469466208
1772522035721344000,2.047343994140625,0.04073883762359619,0.002722794293705374,0.0021548399463295937
1772522035731340000,2.057340087890625,0.0393961908429861,0.0011133680693805217,0.0012459358073305337
1772522035741337000,2.067337158203125,0.048077509948611256,0.005789744116272777,0.0031673505902756003
1772522035751334000,2.077333984375,0.05585924986600876,0.002551072722300887,0.007029953435715288
1772522035761330200,2.087330078125,0.03850245687365532,0.006225724380742758,-0.00014951887275092303
1772522035771327000,2.097326904296875,0.03999941743314266,-0.003602591069228947,-0.004085260019637644
1772522035781324000,2.107323974609375,0.05017828162014484,-0.004482095583807677,0.008574671260220929
1772522035791321000,2.117321044921875,0.060354807719588274,-0.0024726919901557265,0.0009026935939211398
1772522035801316900,2.12731689453125,0.04404313986599445,-0.00044617286492139096,-0.0034204211690463124
1772522035811314200,2.137314208984375,0.03521569028794765,-0.005978690817113965,-0.005895140719506889
1772522035821311000,2.14731103515625,0.061703299719095224,-0.005219013289920985,0.005153345908876508
1772522035831308000,2.15730810546875,0.05961129587590694,0.0020471783207729457,0.0014981661358848214
1772522035841304000,2.167303955078125,0.03956219505965709,0.00001863163523375988,0.004089570868574082
1772522035851300900,2.17730078125,0.036568858462572094,-0.001764635052345693,-0.0018875399128068238
1772522035861298200,2.187298095703125,0.055120414197444914,0.0013570588984526692,-0.007048283676849678
1772522035871295000,2.197294921875,0.04195581219792366,0.003157842976413667,-0.006123962773010134
1772522035881291300,2.207291259765625,0.03806348093450069,-0.005210903048701584,-0.0014497421505860985
1772522035891288000,2.2172880859375,0.05632160668075084,-0.0035746618826873596,0.002000361770670861
1772522035901284900,2.227284912109375,0.05586801769435405,0.00571280642254278,-0.0005105890037957579
1772522035911281200,2.23728125,0.0486854127138853,0.006652717621158808,0.0091260215326678
1772522035921278000,2.24727783203125,0.047937224695086475,0.0045505759764462705,0.007173919350514188
1772522035931275000,2.25727490234375,0.05198036260604858,-0.005308207677025348,0.003914451763685793
1772522035941271800,2.267271728515625,0.04195873480737209,-0.0011985438684932886,0.0012691705524455754
1772522035951267800,2.277267822265625,0.04764613279402256,-0.006496997336484491,0.009790001866733655
1772522035961265000,2.287264892578125,0.04405599934756756,-0.004349135120213032,0.00585514663583599
1772522035971262000,2.297261962890625,0.05767126772403717,-0.0008021466957405209,-0.0020546309748664497
1772522035981258800,2.3072587890625,0.03911678937971592,-0.0058188240802846845,-0.001334198612673208
1772522035991254800,2.3172548828125,0.039115620335936546,-0.003518383384495973,0.0031314481598325073
1772522036001251800,2.327251953125,0.050339609661698335,-0.004721932221669703,0.003501477915467694
1772522036011249000,2.337248779296875,0.0543757333099842,0.0006884389218874275,0.0018079810037277637
1772522036021246000,2.347245849609375,0.05168284096419811,0.0022350838419981298,0.00013040318032726646
1772522036031242000,2.357241943359375,0.0467377857774496,-0.0017382950346916913,0.001423000274132937
1772522036041238800,2.36723876953125,0.04703355385363102,-0.00013201061552390456,-0.0007809303777758031
1772522036051235800,2.37723583984375,0.05032558113634586,0.002148775531724095,-0.005647878827014938
1772522036061233000,2.38723291015625,0.03775602242052555,0.000269738585781306,-0.009461062173312529
1772522036071229000,2.39722900390625,0.049128480306267736,0.0009984547191299498,-0.011573624747339636
1772522036081226000,2.40722607421875,0.04927753338813781,-0.00280459082564339,-0.005072882817499339
1772522036091222800,2.417222900390625,0.03730769413113594,0.004505531258322299,-0.0064864850756246595
1772522036101219800,2.4272197265625,0.0483808768093586,-0.001457834125496447,-0.0033347339132800695
1772522036111215900,2.4372158203125,0.05122282223701477,-0.0025899068953469393,0.002079820215050131
1772522036121213000,2.447212890625,0.04643208082914352,0.003959496481809765,-0.005719811552064493
1772522036131209700,2.457209716796875,0.042841362860798836,0.0008787007969804108,-0.006953874258510768
1772522036141205800,2.467205810546875,0.051370121753215786,-0.004585227164719254,-0.016463196020340545
1772522036151202800,2.477202880859375,0.05241466237008571,-0.004079926257394254,-0.0034167496409267186
1772522036161199900,2.487199951171875,0.04508183526396751,-0.0005400982260704041,0.01059852350433357
1772522036171197000,2.497197021484375,0.03850011878609657,0.0018503953733481466,0.007725982009014114
1772522036181193000,2.50719287109375,0.04238894291818142,-0.006543466826714575,0.003177999848453328
1772522036191189800,2.517189697265625,0.04867489131987095,-0.0023804471294395623,0.007547702832659706
1772522036201186800,2.527186767578125,0.048373862546682356,-0.001905121235270053,0.009698524190997704
1772522036211183900,2.537183837890625,0.05211538716256618,-0.0023519334210082886,0.0033305600616615263
1772522036221180000,2.547179931640625,0.05017185187935829,0.0008388802432455122,0.005023481584666297
1772522036231177000,2.557177001953125,0.060199909418821335,-0.0004236139732412994,0.00929272900223732
1772522036241174000,2.567174072265625,0.04927753338813781,0.002504822427779436,0.0016198928194120525
1772522036251170800,2.5771708984375,0.04224690409898758,0.006256649241968989,0.002682224821299314
1772522036261166800,2.587166748046875,0.046585225564241405,-0.0034708727146498856,0.014246013161214068
1772522036271164000,2.597163818359375,0.04089782757759094,-0.008089892551116645,-0.0018379651500377804
1772522036281160700,2.60716064453125,0.04344166684150696,-0.004992328394576907,-0.004118796963058412
1772522036291158000,2.617157958984375,0.05570785869657993,-0.00197895365646109,0.0033068047267384823
1772522036301153800,2.62715380859375,0.055852235603332516,0.0015372012383304534,0.007120545195462182
1772522036311150800,2.63715087890625,0.051962242427468296,-0.0054402548251673575,0.011656142798485234
1772522036321148000,2.64714794921875,0.046724341773986815,0.0031777349869720637,-0.0019096695462241767
1772522036331144000,2.65714404296875,0.047021278893947596,0.004112659483216703,0.001409510604897514
1772522036341141000,2.66714111328125,0.042830841466784474,0.00790744865629822,-0.0011555997759103774
1772522036351137800,2.6771376953125,0.04657061251699924,-0.0027639117553830144,0.0027865893780719487
1772522036361134800,2.687134765625,0.05599836607575416,-0.003204531662352383,0.004769990880787373
1772522036371131000,2.697130859375,0.04537117359936237,0.0009120368110015987,-0.010109634875692426
1772522036381128000,2.7071279296875,0.04507189839184284,0.002723835473321378,-0.003513250551652163
1772522036391125000,2.717125,0.04911211369335651,0.002405289309751242,-0.0023500611243303863
1772522036401121800,2.727121826171875,0.05629413415193557,-0.00002557283267378807,-0.0034922716957051306
1772522036411117800,2.737117919921875,0.048365094718337054,-0.001104728105198592,-0.003302548676729202
1772522036421115000,2.747114990234375,0.029214988568425176,-0.002643628110270947,0.0030992629232816397
1772522036431112000,2.75711181640625,0.03489946394562721,-0.009126852649729698,-0.003924607831519097
1772522036441109000,2.76710888671875,0.05734218190014362,0.008684716639108955,-0.002732548502739519
1772522036451104800,2.777104736328125,0.053149990907311435,0.008816635923087596,-0.0017929295650683343
1772522036461101800,2.787101806640625,0.04297755646109581,0.003068959116563201,-0.004824698476400226
1772522036471099000,2.797098876953125,0.04552724094390869,-0.00160414726100862,-0.013941943047568201
1772522036481095700,2.807095703125,0.05151449865996837,-0.005508625619951636,-0.0014294026154559104
1772522036491092000,2.817092041015625,0.056150341767072676,0.005062745015975088,-0.005667186315683648
1772522036501088800,2.8270888671875,0.05210895742177963,-0.002618913794122636,0.0029027539704926312
1772522036511086000,2.837086181640625,0.03998655795156956,-0.00020215324228629468,-0.0010599117159377782
1772522036521081900,2.847081787109375,0.043729836133122445,0.0010761961304582655,0.0016763631138484924
1772522036531079000,2.857078857421875,0.04776654430329799,0.0006649849810637533,-0.0029782851584255693
1772522036541076000,2.867075927734375,0.0498620552778244,-0.0007209346856921911,-0.0016517492623999714
1772522036551072800,2.87707275390625,0.04582476258575916,0.0036477088525891303,0.0005152377794496715
1772522036561068800,2.88706884765625,0.048069326642155644,-0.0005758088602684437,-0.003691465795924887
1772522036571065900,2.89706591796875,0.05181202030181885,0.0036514899785630404,0.005460375164588913
1772522036581063000,2.90706298828125,0.047474867880344385,0.002430935207661241,0.006498193779727443
1772522036591060000,2.91706005859375,0.038946108987927434,0.0017805450075305998,0.0015103040982503443
1772522036601055700,2.9270556640625,0.057204819256067276,-0.0010199541648849844,0.007843224313668906
1772522036611053000,2.937052978515625,0.049123219609260554,-0.001540525706578046,-0.0009604516631457954
1772522036621049900,2.9470498046875,0.04223755174875259,0.001577898574899882,0.0005698083777446299
1772522036631046700,2.957046630859375,0.04687514842152595,-0.0037508586998097598,0.005327067641122266
1772522036641043000,2.96704296875,0.05270750783681869,-0.00731309949234128,0.007423510197410359
1772522036651039700,2.977039794921875,0.055552375873923296,-0.004281367113627493,0.010265391692984849
1772522036661037000,2.987037109375,0.06094225221872329,0.004462185306940227,0.0027182825153693555
1772522036671033900,2.997033935546875,0.037001989182829854,-0.0029599457841366526,0.005092418635031208
1772522036681030000,3.00702978515625,0.0449339512258768,-0.0017260566076263784,-0.005130850949278101
1772522036691027000,3.01702685546875,0.04268880264759063,-0.004576258406974375,0.003345903761265799
1772522036701023700,3.027023681640625,0.05809972226917744,0.002477002839092165,0.003973114015208557
1772522036711021000,3.03702099609375,0.05675123026967048,0.0004655534188263118,-0.0014196210069581864
1772522036721016800,3.047016845703125,0.05016834474802017,0.007337832074798643,0.0039049532829783856
1772522036731014000,3.057013916015625,0.04044190050363541,-0.00038741014869883653,0.004379420660622418
1772522036741011000,3.067010986328125,0.045532501640915865,-0.005845328494720161,-0.003466589265177026
1772522036751006700,3.0770068359375,0.05361176320016384,-0.004464066736772656,0.005485427407454699
1772522036761004000,3.087004150390625,0.05227028546333313,-0.0022538616077043116,-0.0024527999795973298
1772522036771000800,3.097000732421875,0.04822831659615039,-0.0011748159330338239,-0.005684411445120349
1772522036780998000,3.106997802734375,0.050175359010696405,0.0038654067238792773,-0.004757533258013427
1772522036790994000,3.116993896484375,0.06034896250069141,-0.0011710713396780193,-0.003163724727928638
1772522036800990700,3.12699072265625,0.03491232342720031,0.0006953801193274557,0.004947292809607461
1772522036810988000,3.136988037109375,0.040597383326292036,-0.0034500856549479065,-0.005850205599237233
1772522036820984800,3.14698486328125,0.04837853872179985,-0.007102890807762742,-0.003036426820140332
1772522036830980900,3.15698095703125,0.06064765318632125,0.0012104900346137583,-0.009741778810834512
1772522036840978000,3.16697802734375,0.05795476084053516,0.0025515476463362574,-0.000891313683381304
1772522036850974700,3.176974609375,0.04927519530057907,0.0018572452392429113,0.0009653196345083414
1772522036860972000,3.186971923828125,0.043588381835818285,-0.007380392574891447,0.0030686759887728838
1772522036870967800,3.1969677734375,0.04104512709379196,-0.007338708857633173,-0.0035784156091976907
1772522036880965000,3.206965087890625,0.05286649779081344,-0.002816153399273753,0.003351493251835927
1772522036890962000,3.2169619140625,0.0554085834890604,0.006429539857152849,0.0007038465535733849
1772522036900958700,3.226958740234375,0.04837503159046173,0.002477879621926695,0.010822011795593426
1772522036910955000,3.236955078125,0.0449339512258768,0.00016832403792068363,0.0030554694473277776
1772522036920951800,3.246951904296875,0.051370121753215786,0.0024919994788244366,0.00919373474032618
1772522036930948900,3.256948974609375,0.05840367365181446,0.0013211656011641025,0.0008891217262949794
1772522036940945700,3.266945556640625,0.051069677501916884,0.0012237513749860226,-0.0001850377107039094
1772522036950942500,3.2769423828125,0.05270926140248775,-0.004535013081133366,0.0038520083861891177
1772522036960939500,3.286939453125,0.05675006122589111,0.004761186519823968,-0.00013398337690159677
1772522036970936600,3.2969365234375,0.045075405523180956,-0.007809815234411507,0.005538801562506706
1772522036980932600,3.3069326171875,0.04387772017121315,-0.009328256973344832,0.003831961112003773
1772522036990929700,3.3169296875,0.0465682744294405,-0.00479238537568599,0.0023528376033063974
1772522037000926700,3.3269267578125,0.06661679072380065,-0.0015495309969410299,-0.0014530118199065326
1772522037010923500,3.336923583984375,0.04851180971264839,-0.0038165626134723423,-0.0018545874912757425
1772522037020919600,3.34691943359375,0.031901451173424716,-0.0004812989772297442,0.0004186455371789634
1772522037030916600,3.35691650390625,0.05240355645418167,-0.0020612251124344765,0.0014524546974804251
1772522037040913700,3.36691357421875,0.06527355942130088,0.007571586031746119,-0.0041108419854659585
1772522037050910700,3.37691064453125,0.056442602711915965,0.009691318132076411,0.005456457041297108
1772522037060906800,3.38690673828125,0.028308395117521284,0.0005482084672898054,0.005143911360250786
1772522037070903600,3.396903564453125,0.03369476433098316,0.0005246266623027623,0.002863417473947629
1772522037080900600,3.406900634765625,0.04940671272575855,-0.005163063585292548,-0.00624683110085316
1772522037090897700,3.416897705078125,0.053446343505382535,0.0017760332291945815,-0.0009839238702785223
1772522037100893700,3.426893798828125,0.05030453834831714,0.0002836757795885205,-0.002585806108964607
1772522037110890800,3.436890869140625,0.04551496598422527,0.006882763517368585,-0.007875811409018933
1772522037120887600,3.446887451171875,0.048511225190758706,0.001370484635606408,-0.003040134880878031
1772522037130883600,3.456883544921875,0.04387421303987503,0.00889976589558646,-0.004686075456999242
1772522037140880600,3.466880615234375,0.04267594316601753,0.0023775427863001824,-0.005204400242678821
1772522037150877700,3.476877685546875,0.057940147793293,0.00196457807123661,-0.00841379987639375
1772522037160874500,3.48687451171875,0.062279053780436515,-0.0036283282986842094,-0.007462344370456412
1772522037170870500,3.49687060546875,0.040131519380211825,-0.007243358724378049,-0.007844256360130385
1772522037180867600,3.50686767578125,0.03893500307202339,-0.007005914973001927,-0.00411652280758135
1772522037190864600,3.51686474609375,0.052852469265460965,0.0032123131100088354,-0.0017690737654455005
1772522037200861700,3.52686181640625,0.04357318426668644,-0.00039095381265506144,0.003955395695427432
1772522037210857700,3.536857666015625,0.03534253153800964,-0.005921389405615627,-0.00011318718404509126
1772522037220854500,3.5468544921875,0.03998421986401081,0.0009585976327769458,0.0025432273425627498
1772522037230851600,3.5568515625,0.052552609536051745,0.0017691833632998168,0.005871184455184266
1772522037240848600,3.5668486328125,0.05045651403963566,0.0014399879415519534,-0.003203472216427326
1772522037250844700,3.5768447265625,0.04716273319125175,0.007565594682376831,0.004457317335577682
1772522037260841700,3.586841796875,0.047912090253829955,0.005189421869255602,0.000950012467522174
1772522037270838800,3.5968388671875,0.05224924267530441,0.0004519632848910987,0.005678968085022643
1772522037280835600,3.606835693359375,0.04671557394564151,-0.005423066228348762,0.005496432858658955
1772522037290831600,3.61683154296875,0.04327741619050503,-0.007338197400979698,0.011007250435696914
1772522037300828700,3.62682861328125,0.048664954447746274,-0.003443363653216511,0.004266544003831222
1772522037310825500,3.636825439453125,0.042973464807868005,0.0016462328370660544,0.003618016967223957
1772522037320822800,3.64682275390625,0.048211365461349485,-0.0033621881757862865,0.013158099193498491
1772522037330818600,3.656818603515625,0.04955518128573894,-0.0038855909953825173,-0.004736874062474816
1772522037340815600,3.666815673828125,0.058982350322604175,0.001757803452759981,0.0016362320328596979
1772522037350812700,3.676812744140625,0.03788227914869785,-0.0014890877802856265,-0.00034214623486623165
1772522037360808700,3.68680859375,0.030998364853858946,-0.002098543181829154,-0.009083872024528681
1772522037370805800,3.6968056640625,0.04835515784621239,0.0015471198441460727,-0.006099020127998665
1772522037380802600,3.706802490234375,0.06047755731642246,-0.011580091020744292,0.008706517478963359
1772522037390799600,3.716799560546875,0.05374152705967426,0.00036691534994170066,0.0024244506679475305
1772522037400795600,3.726795654296875,0.023068740898370743,-0.0013774075667373836,-0.00799757462516427
1772522037410792700,3.736792724609375,0.04760813887119293,-0.002729717224836349,-0.005371573503129184
1772522037420789800,3.746789794921875,0.05883212819695472,0.0022312113844789564,0.0012995656907092779
1772522037430786600,3.75678662109375,0.05568915399610996,0.0034315453512594103,-0.009204868055693805
1772522037440782600,3.766782470703125,0.03982639895379543,0.0019808168199844656,-0.0015968498705420642
1772522037450779600,3.776779541015625,0.0312964710175991,0.004519157924875616,-0.0019212503861635922
1772522037460776400,3.7867763671875,0.04236439299881458,-0.001250292322039604,0.004740289862267673
1772522037470773800,3.796773681640625,0.052390112450718875,-0.00038554698517546054,-0.017459467915538696
1772522037480769500,3.80676953125,0.047003743237257,0.007085556080471724,-0.0037826877433340994
1772522037490766600,3.8167666015625,0.04939443776607513,0.0029467940416187046,-0.0042485425562597805
1772522037500763600,3.826763671875,0.034579145950078966,-0.0031865758805535733,-0.0008970127718057483
1772522037510760400,3.836760498046875,0.06465630430579185,0.0046208282010629775,-0.0031115287498105315
1772522037520756700,3.8467568359375,0.05612579184770584,0.008395414836332202,-0.0014755250458139925
1772522037530753500,3.85675341796875,0.03832067056596279,-0.0007994798146188258,-0.004289660017937421
1772522037540750800,3.866750732421875,0.048047699332237244,-0.007709770659729838,0.007510503494273871
1772522037550746600,3.87674658203125,0.049694882017374035,0.0050008952935226255,-0.006063409958500415
1772522037560743700,3.88674365234375,0.052988078343868254,-0.005027911164611577,0.005060644390434027
1772522037570740700,3.89674072265625,0.04864975687861442,0.0010062909657135605,0.003515214179875329
1772522037580737500,3.906737548828125,0.03922434140741825,0.004233947775326669,0.0035669443671125915
1772522037590733600,3.916733642578125,0.054337154865264886,0.0012937844038940966,-0.0050691930230706925
1772522037600730600,3.926730712890625,0.05867839893996715,0.001780088349804282,-0.0010643778285011648
1772522037610727400,3.9367275390625,0.05284370143711566,0.00560141846993938,0.0019025365525390952
1772522037620724700,3.946724853515625,0.054337739387154575,0.001515939254593104,0.0036960141068790105
1772522037630720500,3.956720458984375,0.05942658695876598,0.0011344291237182914,0.005299805174861103
1772522037640717800,3.9667177734375,0.040271220111846924,0.004324968793336301,0.0017744623266160487
1772522037650714600,3.976714599609375,0.04490764774084091,0.002743891880661249,-0.0008055076966062188
1772522037660711400,3.98671142578125,0.03308569252192974,-0.002131842663232237,-0.0062291310473810875
1772522037670707700,3.996707763671875,0.043563831916451454,0.008187799967639148,0.005173813308170065
1772522037680704500,4.00670458984375,0.057331075984239574,0.002340078586433083,0.0055140598468948155
1772522037690701800,4.016701904296875,0.04266366820633411,0.004206566578056663,0.007191244944650679
1772522037700698600,4.02669873046875,0.04430909732580185,-0.0068081456448882815,-0.004450531401764601
1772522037710694700,4.036694580078125,0.052687634092569345,-0.01056406411230564,-0.004095754014188424
1772522037720691700,4.046691650390625,0.06001929215490818,0.005596596164349466,-0.00294537840266712
1772522037730688500,4.0566884765625,0.05597966137528419,0.002427026217523962,0.001417328585172072
1772522037740685800,4.066685791015625,0.04789747720658779,-0.00486192521424964,-0.003581420417036861
1772522037750681600,4.076681640625,0.039967268729209894,0.0038021322293207045,-0.009269220262486487
1772522037760678700,4.0866787109375,0.05373275923132896,0.004324950527027249,0.0021234675605315712
1772522037770675700,4.09667578125,0.04490238704383373,0.007393854844663292,-0.0020893734946846963
1772522037780671500,4.10667138671875,0.049240123987197876,0.0026115159389562903,-0.007418240367248654
1772522037790668800,4.116668701171875,0.046994975408911704,-0.0005323167784139514,0.0013451675312593579
1772522037800665600,4.12666552734375,0.045349546289443966,-0.0036668154118582605,0.0022373488643206655
1772522037810662400,4.136662353515625,0.050285833647847174,-0.0035635194341652092,-0.00910063136308454
1772522037820658700,4.14665869140625,0.05013327343463898,-0.00422558180578053,-0.00560512653067708
1772522037830655500,4.156655517578125,0.04639116429686546,-0.004508837460260838,0.0021314956033602356
1772522037840652800,4.16665283203125,0.04848784431517124,0.00243572098063305,-0.00027211320595815774
1772522037850649600,4.176649658203125,0.051933600854873654,0.004977843211498112,-0.0018523407352622598
1772522037860645600,4.186645751953125,0.040113399201631546,-0.0073710950235836206,-0.00756737564750947
1772522037870642700,4.196642578125,0.04654840068519115,0.003809749280195683,-0.003830938198696822
1772522037880639500,4.206639404296875,0.063604164904356,0.003901555749494582,-0.0004590780122671276
1772522037890636800,4.21663671875,0.046693362113833424,0.0016443331409245728,0.002145889454893768
1772522037900632600,4.226632568359375,0.03861293151080608,0.004467172009311616,0.0011083722338546067
1772522037910629600,4.236629638671875,0.04714227492511272,0.001496211640816182,-0.003331646907050162
1772522037920626700,4.246626708984375,0.059411389389634126,-0.0033906653515994546,0.004582715547224506
1772522037930623500,4.25662353515625,0.05567161833941936,0.0013880933575332163,-0.0030142332546412944
1772522037940618500,4.266618408203125,0.046693362113833424,-0.008866466414183378,0.0038899383769370613
1772522037950615600,4.276615478515625,0.04265256229043007,0.001563376859202981,-0.00019101079376414418
1772522037960612600,4.286612548828125,0.04190320522785187,0.003973287545144558,0.0012206917682196943
1772522037970608400,4.2966083984375,0.04639174881875515,0.008410648938082159,-0.0011287026358302683
1772522037980605700,4.306605712890625,0.039055999103188514,0.0025359482184052467,0.0014684742505196482
1772522037990602500,4.3166025390625,0.04085106582641601,0.00044295799452811476,-0.0027503764203749594
1772522038000599600,4.326599609375,0.0474351203918457,0.006535046058241277,-0.0047691140979528425
1772522038010595600,4.336595703125,0.05387129091918468,0.0050016990111209445,0.00355835920185782
1772522038020592400,4.34659228515625,0.05656242969930172,0.0025560046257451174,-0.0018470252393279222
1772522038030589700,4.356589599609375,0.047884033203124995,0.00589170665340498,0.005850479593873023
1772522038040586500,4.36658642578125,0.042647301593422886,0.006463442126754671,-0.007894780970970168
1772522038050582500,4.37658251953125,0.053124271944165226,0.005093377616256475,-0.00615164536437951
1772522038060579600,4.38657958984375,0.04998363583087921,0.0022916180685162543,0.0015864563406910747
1772522038070576400,4.396576416015625,0.04594283600747585,0.0061738480630330736,-0.005200664782477543
1772522038080573400,4.406573486328125,0.051778118032217026,0.0010237535571679473,0.00007842639791779219
1772522038090569500,4.416569580078125,0.05237666844725609,-0.005416892215888947,-0.00982254329631105
1772522038100566500,4.42656640625,0.045344285592436785,0.003360909534152597,-0.007463522547390311
1772522038110563600,4.4365634765625,0.052825581258535384,0.002580737208202481,-0.005426354163978249
1772522038120560600,4.446560546875,0.056117608541250225,0.0011235789361409843,-0.0005916731496807187
1772522038130556700,4.456556640625,0.04414952284991741,0.0035482122671790417,-0.003847798001952469
1772522038140553500,4.466553466796875,0.04444996710121631,-0.0018060630412772296,0.0016591105849482117
1772522038150550500,4.476550537109375,0.05192950920164585,0.006062222648411989,-0.00931055691987276
1772522038160547600,4.486547607421875,0.03876373815834522,0.006322572351340204,-0.0072447378307115284
1772522038170543400,4.49654345703125,0.05671908156573772,-0.0014658347688615322,-0.002657108646351844
1772522038180540700,4.506540771484375,0.05327507859170436,0.007141103926301002,-0.004070802236022427
1772522038190537500,4.516537353515625,0.04549275415241718,-0.0009824716987088323,0.0019833467037882655
1772522038200534500,4.526534423828125,0.052523383441567414,0.004142323969118297,-0.0025967476280871777
1772522038210530600,4.536530517578125,0.052225861799716944,0.005405968963075429,0.00381681834179908
1772522038220527600,4.546527587890625,0.05013268891274929,-0.004589154421165585,-0.000412060532765463
1772522038230524400,4.5565244140625,0.049234278768301006,-0.005599445708561688,-0.006542005521990358
1772522038240520400,4.5665205078125,0.05356850858032703,0.0059008580742403866,-0.0008662705736700444
1772522038250517500,4.576517578125,0.037408231896162034,-0.0000022650223225355148,-0.004156535157561302
1772522038260514600,4.5865146484375,0.046237435039877886,-0.0004144808187149465,0.007258519760891795
1772522038270511600,4.59651171875,0.050727147674560547,0.001812127455882728,0.0015031437051016836
1772522038280507600,4.606507568359375,0.05910860705077648,-0.0008561601716093718,-0.00018422485995106398
1772522038290504400,4.61650439453125,0.04743336682617664,-0.000715290396194905,0.008308777732495219
1772522038300501500,4.62650146484375,0.050424365335702895,0.009078428664430975,-0.013893318132869899
1772522038310498600,4.63649853515625,0.05027706581950187,0.00035990108726546166,-0.0039011812901590015
1772522038320494600,4.64649462890625,0.04608721291422844,-0.0011744688731618225,-0.0013813348231837153
1772522038330491600,4.65649169921875,0.05776069957315921,0.004924761317390948,-0.0058113440267276014
1772522038340488400,4.666488525390625,0.039804771643877024,-0.005427139615267515,-0.0048953890924341974
1772522038350485500,4.676485595703125,0.04504208777546882,-0.000674940119497478,0.00041723903138190507
1772522038360481500,4.6864814453125,0.04594283600747585,0.005974617430195212,0.0025953411222901196
1772522038370478600,4.696478515625,0.044296237844228745,0.00535149882948026,0.005509520669095218
1772522038380475600,4.7064755859375,0.0513303742647171,-0.0028245741677470505,0.00026167401033453644
1772522038390472700,4.71647265625,0.05237783749103546,0.0008255275713279843,-0.005795333606842905
1772522038400468500,4.726468505859375,0.05746551601886749,0.0030503092150203884,-0.0037616449553053823
1772522038410465500,4.736465576171875,0.053875967094302174,0.00795612836992368,-0.006967153865192085
1772522038420462600,4.746462646484375,0.04325169722735882,-0.00029333865707740185,-0.00520169682893902
1772522038430459400,4.75645947265625,0.046691608548164364,-0.0040896804664283986,0.0031866306794807314
1772522038440455400,4.766455322265625,0.04998305130898952,0.0010740772386081516,0.0004256780661642551
1772522038450452500,4.776452392578125,0.048335868623852724,0.0007108699494041502,0.0009162745947018265
1772522038460449500,4.786449462890625,0.04294833036661148,-0.0029643662309274074,-0.0016612020773347465
1772522038470445600,4.796445556640625,0.04354804982542992,0.00242660609241575,-0.001456902543734759
1772522038480442600,4.806442626953125,0.05357727640867233,0.001801021539978683,0.004430054869316518
1772522038490439700,4.816439697265625,0.06076105043292045,-0.006535210455022752,0.003538777718553319
1772522038500436500,4.8264365234375,0.05806932713091373,-0.0004187003361061215,-0.0025100465921685097
1772522038510432500,4.8364326171875,0.04355038791298866,0.005741320130974054,-0.0007529646586161106
1772522038520429600,4.8464296875,0.04070668891966343,0.013897227123007177,0.0015294837227556853
1772522038530426600,4.856426513671875,0.03771510588824749,0.003718746528495103,0.0031185064798686653
1772522038540423700,4.866423583984375,0.0466898549824953,0.008047295518405734,-0.0023392383362166582
1772522038550419500,4.87641943359375,0.051477673780918116,0.0010810001697391272,0.000994554862147197
1772522038560416500,4.88641650390625,0.0469862075805664,-0.0010640125023201107,0.0018649992874357848
1772522038570413600,4.89641357421875,0.05446107350587844,0.002445091597177088,-0.008928891525371
1772522038580410400,4.906410400390625,0.05640343974530697,0.003003821458481252,-0.007192560118902474
1772522038590406700,4.91640673828125,0.04428396288454532,-0.0009172792416997253,-0.002376912598637864
1772522038600403500,4.926403564453125,0.042190789997577666,-0.007861015698686242,-0.0021854360139928757
1772522038610400500,4.936400390625,0.06343932973146438,0.0006692592973820865,-0.0071186454993207
1772522038620397600,4.9463974609375,0.06373685137331485,0.0026344766894355414,-0.004827173561276868
1772522038630393600,4.9563935546875,0.029618893194198605,0.001417228120472282,-0.005581380328908562
1772522038640390700,4.966390625,0.03485445576012134,0.0020073942996561528,-0.007605168640939518
1772522038650387500,4.976387451171875,0.04952127901613712,0.0024569829643703994,0.00688164927251637
1772522038660384800,4.986384765625,0.053712885487079615,-0.002493131989985704,-0.006832896493654698
1772522038670380500,4.996380615234375,0.054611880153417586,0.0008728190454654395,-0.002069499750435352
1772522038680377600,5.006377685546875,0.0339589682251215,0.0024284144570119676,-0.00431175311873667
1772522038690374700,5.016374755859375,0.040841128954291345,-0.0009455372218042611,-0.000558291469886899
1772522038700371500,5.026371337890625,0.0575999560534954,-0.004562978800293058,-0.007360966355213895
1772522038710367500,5.036367431640625,0.04727671495974064,-0.006022657823003828,-0.0027368958842940625
1772522038720364500,5.046364501953125,0.04772855038046837,-0.0025394370834343136,-0.0019395988936070352
1772522038730361300,5.056361328125,0.04503215090334415,-0.005034761030506343,0.0007686371517833322
1772522038740357600,5.066357666015625,0.038594811332225795,0.0032210078731179236,0.0007946209764108062
1772522038750354400,5.0763544921875,0.03455459603071213,0.0018082732646726072,0.011816301796259358
1772522038760351700,5.086351806640625,0.048920975035429,0.005859722346253693,0.004710899371001869
1772522038770348500,5.0963486328125,0.05280863012373447,-0.0007725552750751375,-0.0012164813839830458
1772522038780344600,5.106344482421875,0.04158522531986236,0.005259911555889994,-0.007636349230492487
1772522038790341600,5.116341552734375,0.0370960972070694,-0.0036197613997384906,0.002798325481638312
1772522038800338400,5.12633837890625,0.04428337836265564,0.006270805631484836,0.003068064067419618
1772522038810335700,5.136335693359375,0.0574520720154047,0.0024691117935813963,-0.0017457750882487744
1772522038820331500,5.14633154296875,0.05221417136192322,0.0026566337223164734,0.0036399548043962566
1772522038830328600,5.15632861328125,0.04757189851403236,-0.0021873539764434096,-0.0018466507799923418
1772522038840325600,5.16632568359375,0.032009003201127054,-0.0011931553073227404,0.006098225543554872
1772522038850322400,5.176322509765625,0.03934183030724525,0.0037505481725558635,0.004961522264359519
1772522038860318700,5.186318603515625,0.06148878018558025,0.004195643325243145,-0.008026955983275547
1772522038870315500,5.1963154296875,0.05804536173343658,0.0006439239267259836,-0.004274279785715043
1772522038880312300,5.206312255859375,0.04322890087366104,-0.004081551958899945,-0.0010315989369060843
1772522038890309600,5.2163095703125,0.0360457113713026,-0.0017211429704912006,-0.0033583887835033238
1772522038900305400,5.226305419921875,0.050858665099740026,0.000966963602323085,-0.00030114750419743357
1772522038910302700,5.236302734375,0.06821779617965221,0.00355069648521021,-0.006922136546531692
1772522038920299500,5.246299560546875,0.053552141967415805,0.00422868707831949,-0.005279282976640388
1772522038930296600,5.256296630859375,0.03364975614547729,0.001854395695030689,-0.006968633436225355
1772522038940293600,5.266293701171875,0.04083119208216667,-0.00437363024065271,-0.00550798629913479
1772522038950290400,5.27629052734375,0.04128068941533565,-0.00013770970394834874,-0.011895641509629785
1772522038960287500,5.28628759765625,0.04516775998175144,-0.0011907076219096779,-0.003413032447034493
1772522038970284500,5.296284423828125,0.045321489238739014,0.0035162827589549123,-0.0044552806421183045
1772522038980280600,5.306280517578125,0.04023381071090698,0.0014281513732858002,-0.00878445068653673
1772522038990277600,5.316277587890625,0.05459902067184448,-0.00005406827479600906,-0.00830318824192509
1772522039000273400,5.3262734375,0.05399871669113636,0.0038149734445847567,-0.007344809804856777
1772522039010270700,5.336270751953125,0.03918634748458862,0.002803677510190755,-0.007845936860563233
1772522039020267500,5.346267578125,0.0340980844348669,0.0015146058140322566,-0.00554612635243684
1772522039030263600,5.356263671875,0.043075756138563154,-0.0030760099118575454,-0.0019441106719430535
1772522039040260600,5.366260498046875,0.059384501382708545,-0.0007740348461084067,-0.008263860878534614
1772522039050257400,5.37625732421875,0.04382219059169292,0.0027490795124322175,-0.003736866707075387
1772522039060254500,5.38625439453125,0.03963116864264011,0.0001930748866870999,-0.0051654382054694
1772522039070250500,5.39625048828125,0.04217442338466644,0.0029858474103733896,-0.008236287885019556
1772522039080247600,5.40624755859375,0.05025368494391441,0.0018637297789566218,-0.0061114594844635575
1772522039090244600,5.41624462890625,0.049205052673816675,0.008303425703942775,-0.004839594651432707
1772522039100241700,5.42624169921875,0.04007657432258129,-0.001270476593542844,-0.004862710665538907
1772522039110237700,5.43623779296875,0.040675124737620354,0.0033122846194542943,0.0011779120724182575
1772522039120234500,5.446234375,0.047858314239978786,0.004865815938077867,0.00005236037489958107
1772522039130231600,5.4562314453125,0.05413900194466114,0.004907846715208143,0.0013756905336864292
1772522039140228600,5.466228515625,0.051447278642654415,0.003360361544881016,-0.0030338330042548474
1772522039150224400,5.476224365234375,0.039326632738113404,0.0009445143084973097,-0.0029228743099141865
1772522039160221700,5.4862216796875,0.04830488896369934,0.0029060053735040126,-0.008432869903044775
1772522039170218500,5.496218505859375,0.045911271825432774,0.0030860381155274805,0.0023637334566563367
1772522039180215600,5.506215576171875,0.04052256452441215,-0.0022003413221798837,0.0063915550674777475
1772522039190211600,5.516211669921875,0.043214872348308564,-0.0006507555263116955,-0.0037659192716237157
1772522039200208400,5.52620849609375,0.05488660544157028,0.0036609153940342365,-0.006820201408863067
1772522039210205400,5.536205322265625,0.04471475551724434,-0.0018482216825708745,-0.0025544428563211113
1772522039220201500,5.546201416015625,0.04246902241706848,0.00010817308221012354,0.0011990735914558172
1772522039230198500,5.556198486328125,0.06161795952320098,0.0035372524817474183,-0.008061369709530844
1772522039240195600,5.566195556640625,0.049349429580569266,-0.007655775450170039,-0.013290785662457345
1772522039250192600,5.576192626953125,0.03857902924120426,0.004059741985891014,0.002798562943655997
1772522039260188700,5.586188720703125,0.04995148712694645,0.006661996906157583,0.0032968587214592844
1772522039270185500,5.596185546875,0.048155251359939574,0.0005129544908180833,-0.0038067627386655658
1772522039280182500,5.6061826171875,0.059976622056961054,0.009451865086704493,-0.008335565274721011
1772522039290179600,5.6161796875,0.034237785166502,0.0061953840414062135,-0.014961239625327288
1772522039300175400,5.62617529296875,0.0471083726555109,-0.00106927319932729,-0.0022246720458380877
1772522039310172700,5.636172607421875,0.05818213985562324,0.0004712342409417033,-0.002795393739035353
1772522039320169500,5.64616943359375,0.05054828397631645,-0.0024774777631275356,-0.0034883079066406935
1772522039330166500,5.65616650390625,0.04890051676928997,0.0034512181661091744,0.0005524462509900331
1772522039340162600,5.66616259765625,0.039623569858074185,0.006606869185436516,-0.004961284802341833
1772522039350159600,5.67615966796875,0.0486029951274395,0.006543996549677103,-0.0036197066008113324
1772522039360157400,5.686157470703125,0.04590893373787403,-0.0030042781162075696,-0.01127303436556831
1772522039370154500,5.696154541015625,0.0521972202271223,0.0026251608718186616,-0.006621400034287944
1772522039380151600,5.706151611328125,0.04576338778734207,0.0017463687432929872,-0.00338546858667396
1772522039390147300,5.716147216796875,0.03962941507697105,-0.00036974662784487007,-0.009763890177942812
1772522039400144600,5.72614453125,0.04830430444180965,0.0011023900176398455,-0.004200502163451165
1772522039410141400,5.736141357421875,0.059824646365642546,0.01081681503066793,-0.004646547164209187
1772522039420137700,5.7461376953125,0.029747488009929657,0.005109104908350855,-0.012138793482584878
1772522039430134500,5.756134521484375,0.023762568381428716,-0.004070975765958428,-0.005316902440134436
1772522039440131300,5.76613134765625,0.042318800291419024,-0.007060933095868677,-0.0016730021129827946
1772522039450128600,5.776128662109375,0.06371522406339646,0.0009147584910504519,-0.010435725024901329
1772522039460124400,5.78612451171875,0.06356792454719543,-0.0034969022050499914,-0.00991614899705164
1772522039470121700,5.796121826171875,0.04905307698249817,0.007852211337722837,-0.015756180262146518
1772522039480118500,5.806118408203125,0.04202069412767887,0.005229004960972816,-0.01014065106846392
1772522039490115600,5.816115478515625,0.05772971991300582,0.00869271728247404,0.00035271329465322196
1772522039500111600,5.826111572265625,0.04964928930997848,0.0036476175210438666,-0.0003499094162136316
1772522039510108400,5.8361083984375,0.04605740229785442,-0.0007712948997505008,-0.004309031438687816
1772522039520105700,5.846105712890625,0.053985857209563254,-0.0021137042183429003,0.004683609505277127
1772522039530102500,5.8561025390625,0.054878422135114666,-0.001251424833200872,0.005553085816185921
1772522039540098300,5.866098388671875,0.04111351615488529,0.0006538607988506555,-0.0029364187780767676
1772522039550095600,5.876095703125,0.0394704251229763,0.0035934944473206996,-0.002515124626085162
1772522039560092400,5.886092529296875,0.04096563211679458,0.00040695509938523173,0.002198715620674193
1772522039570089500,5.89608935546875,0.04620294824838638,-0.0005919928100891411,-0.0034040728224441407
1772522039580085500,5.90608544921875,0.04500760098397732,-0.006866378638148307,-0.006269846650259569
1772522039590082600,5.91608251953125,0.06625847880542278,0.00017033333191648125,-0.010614698320999741
1772522039600079600,5.92607958984375,0.053393152013421055,0.010581764165777713,-0.007297509197564795
1772522039610076400,5.936076416015625,0.036034020933508874,-0.0022409655935131012,-0.0032854240119922903
1772522039620072700,5.94607275390625,0.060274143698811525,-0.0005586933286860585,-0.004672138263192027
1772522039630069500,5.956069580078125,0.072095514395833,-0.0007033990290015935,-0.004957184015959501
1772522039640066600,5.966066650390625,0.0381242712110281,0.002734210736863315,-0.0112707784764003
1772522039650063600,5.976063720703125,0.030195816299319264,0.00998909550225362,-0.009716900097904727
1772522039660059400,5.986059326171875,0.04860416417121887,0.0019446860606782137,-0.0008662523073609918
1772522039670056700,5.996056640625,0.05997253040373325,0.002297097961232066,-0.011990827246103435
1772522039680053500,6.006053466796875,0.05189443788826465,0.0014878091386519372,-0.01371491109235212
1772522039690049500,6.016049560546875,0.03782850313484668,-0.003240461492259055,0.004484251008275896
1772522039700046600,6.026046630859375,0.05413666385710239,0.005868471908289939,-0.0010211780075915157
1772522039710043400,6.03604345703125,0.05518237351775169,0.002112352511473,-0.0035215708554256707
1772522039720040400,6.04604052734375,0.05383505056202411,-0.00038498072959482666,-0.008428769116662443
1772522039730036500,6.056036376953125,0.04829962826669216,-0.0008125036929734051,-0.0034016068707220255
1772522039740033500,6.066033447265625,0.04306348117887974,-0.009050097619090229,-0.0022566746192984283
1772522039750030600,6.076030517578125,0.03722819915413856,-0.006086407241597772,-0.0012160521257203072
1772522039760027600,6.086027587890625,0.04545885188281536,-0.0010738763092085718,0.0007106324873864651
1772522039770023700,6.096023681640625,0.0535392824858427,0.003720664490945637,-0.004530062911380082
1772522039780020500,6.1060205078125,0.06161854404509067,0.010112210425268858,-0.003139649732597172
1772522039790017500,6.116017578125,0.04605915586352348,0.0003501834108494222,-0.0029835641217418013
1772522039800014600,6.1260146484375,0.03529050908982754,-0.0013120324466377497,-0.0024106413383036852
1772522039810010400,6.13601025390625,0.039333062478899956,0.00282166982460767,0.002162977587012574
1772522039820007700,6.146007568359375,0.06267535962164401,0.005501757487747818,0.0009168225839734077
1772522039830004500,6.15600439453125,0.06371931571662426,-0.0015895890126936137,0.00396226382763125
1772522039840001500,6.16600146484375,0.03394260161221027,-0.00031228081956505776,-0.011631894273217766
1772522039849997600,6.17599755859375,0.040676878303289414,-0.0010599208490923047,-0.0008158738269936293
1772522039859994600,6.18599462890625,0.05189911406338214,0.0033256738239899274,-0.002873427411308512
1772522039869991400,6.195991455078125,0.037984570479393,0.004330192957725376,-0.0029618820128962395
1772522039879988500,6.205988525390625,0.04411854318976402,0.0020570055950433013,-0.0035262652968522158
1772522039889984500,6.215984619140625,0.06012918227016925,0.0007178476794622838,-0.012539620235282926
1772522039899981600,6.225981689453125,0.04561258113980293,-0.0025666356176137924,-0.0032190442448947576
1772522039909978600,6.235978515625,0.04441548030972481,-0.0006605828005820512,0.005704504385078325
1772522039919975400,6.245975341796875,0.044566286957263945,-0.004572842607181519,0.0030384635135997087
1772522039929971500,6.255971435546875,0.04560790496468544,-0.001380110980477184,-0.00008172346670180558
1772522039939968500,6.265968505859375,0.052335167393088335,0.0015646007019095123,-0.002269113975763321
1772522039949965800,6.2759658203125,0.05338204609751701,0.005351864155661314,-0.004937474668491632
1772522039959962600,6.285962646484375,0.04664776940643787,0.0032685733418911693,-0.0028644677867181597
1772522039969958700,6.295958740234375,0.052629766425490374,0.012377378878276795,-0.004879424338322133
1772522039979955700,6.305955810546875,0.04918459440767765,0.005882281237933784,-0.0024598964406643063
1772522039989952500,6.315952392578125,0.042001404905319215,-0.0014080766996368765,-0.00844134547044523
1772522039999948800,6.32594873046875,0.04633738828301429,-0.000505702766124159,-0.011189411202725022
1772522040009945600,6.335945556640625,0.05935469076633453,0.00019338541394099592,-0.007676087585836648
1772522040019942400,6.3459423828125,0.0593517681568861,-0.0030813802067190406,-0.004677499424898997
1772522040029939700,6.355939697265625,0.04169219282567501,0.007132390896882861,-0.006712293188134208
1772522040039935500,6.365935546875,0.03495850065648556,0.0016262129623442888,0.0007928765438962727
1772522040049932800,6.375932861328125,0.03256722160577774,-0.0071148735065013164,-0.0016076817918103188
1772522040059929600,6.3859296875,0.040648236730694766,0.0012481003649532794,-0.0005484185298439115
1772522040069926700,6.3959267578125,0.07117547694146632,0.002489113401994109,-0.008192960199946538
1772522040079922700,6.405922607421875,0.06863163767755032,0.008588507989328354,-0.01602111480864696
1772522040089919500,6.41591943359375,0.04274783935844898,0.008063899593334645,-0.00960064417393878
1772522040099916800,6.425916748046875,0.04842939212620258,0.005130622620414942,-0.0024700799079611898
1772522040109913600,6.43591357421875,0.056360769647359844,0.006266987972892821,-0.0020543935128487646
1772522040119909600,6.44590966796875,0.04349544285535812,0.007513627033121883,0.004198072744347155
1772522040129906700,6.45590673828125,0.034517186629772184,-0.003356306424271315,0.006014227921376005
1772522040139903500,6.465903564453125,0.05202887792289257,-0.004237034781556576,-0.0016690839896909891
1772522040149900800,6.47590087890625,0.0628027853935957,0.0009344861048273742,-0.00498738735797815
1772522040159896600,6.485896484375,0.048883565634489055,0.009598781010415405,-0.0036802776816301044
1772522040169893600,6.4958935546875,0.05621405465304851,0.0038493323719128963,0.0011283281764946876
1772522040179890700,6.505890625,0.06399404100477694,0.0070741213710047305,0.005770683222776279
1772522040189887500,6.515887451171875,0.03885375452935695,0.002359934064373374,-0.005708851766632869
1772522040199883800,6.5258837890625,0.04678396300673485,0.007440744460001587,0.0046972909707576034
1772522040209880600,6.535880615234375,0.055465282112359994,0.0036282004345208406,-0.004203991028480232
1772522040219877600,6.545877685546875,0.054416649842262264,0.002095912833325565,-0.004274133655242622
1772522040229874700,6.555874755859375,0.04244739510715007,0.008503642717469484,-0.004180043897312134
1772522040239870500,6.565870361328125,0.0466378325343132,0.0021609226272441447,-0.0021360439143143593
1772522040249867800,6.57586767578125,0.05411737463474273,0.006891056421678513,-0.004267594316601753
1772522040259864600,6.585864501953125,0.03377075217664242,-0.0018425043278373777,-0.0028780944532714784
1772522040269861600,6.595861572265625,0.04125204784274101,0.0025546894514933225,-0.009267676759371533
1772522040279857700,6.605857666015625,0.05921031385958194,0.005595828979369253,0.00119200452985242
1772522040289854500,6.6158544921875,0.055766895407438274,0.004843731970433146,-0.0050291898062452675
1772522040299851800,6.625851806640625,0.04304536100029945,0.0057792227222584185,-0.00528185852621682
1772522040309848600,6.6358486328125,0.041702129697799684,-0.003287643368542194,0.0033661245653871445
1772522040319844600,6.6458447265625,0.05607143131196499,-0.0037695086013525723,-0.005125179260317236
1772522040329841700,6.655841552734375,0.05173077175915241,0.0024604535630904137,-0.0052500477490015325
1772522040339838700,6.665838623046875,0.051127545168995855,0.007474098740331828,-0.007520029374444857
1772522040349835500,6.67583544921875,0.04843173021376133,0.0014650493175722657,0.005659861525753512
1772522040359831600,6.68583154296875,0.052772389766573904,0.007002480906900018,-0.011188744482444599
1772522040369828600,6.69582861328125,0.04678630109429359,0.0037195137134753164,-0.00791866417005658
1772522040379825700,6.70582568359375,0.038703532403707504,0.005721610783506185,-0.0023029340469744057
1772522040389821400,6.715821533203125,0.04109773406386375,0.00035701501043513417,-0.0022766396950930357
1772522040399818800,6.72581884765625,0.046481180667877195,0.005665661078877747,0.003895673997979611
1772522040409815600,6.735815673828125,0.05829904423356056,0.0038423729081638156,-0.003187690125405788
1772522040419812600,6.7458125,0.05291384406387806,0.000985339509230107,0.0033380127157550303
1772522040429808600,6.75580859375,0.04453238468766212,0.0007459777954034507,0.004199808043707162
1772522040439805400,6.765805419921875,0.040941082197427744,0.0026950660365633664,0.0003177515791263431
1772522040449802800,6.775802734375,0.061442018434405325,0.005359919597953558,-0.004781946180062368
1772522040459799600,6.785799560546875,0.06652618983089924,0.00400388361280784,-0.001084333771141246
1772522040469795600,6.795795654296875,0.0452741429656744,0.005981193301454186,-0.002588089397596195
1772522040479792600,6.805792724609375,0.04332885411679745,0.0019805245590396223,-0.004674028826178982
1772522040489789700,6.815789794921875,0.06068447806537151,-0.003157422851305455,-0.013697896025469525
1772522040499786500,6.825786376953125,0.05739361982643604,-0.00048409372251480813,-0.0042077630212996155
1772522040509782500,6.835782470703125,0.03898819456398487,0.005066014685295522,-0.005374669642513617
1772522040519779600,6.845779541015625,0.04063596177101135,0.0009549991698935628,-0.0008760521821677684
1772522040529776600,6.855776611328125,0.03794365394711494,0.008976685323007404,0.006156038411706686
1772522040539773700,6.865773681640625,0.04707213229835033,0.0010911562375724316,0.003860730548761785
1772522040549769700,6.875769775390625,0.06203472363054752,-0.0026320655366405842,-0.0009525880170986056
1772522040559766500,6.8857666015625,0.057847208812832826,0.0035110585945658385,-0.0072408562400378285
1772522040569763600,6.895763671875,0.06218669932186603,0.009425305873341857,-0.0036794648308772593
1772522040579760600,6.9057607421875,0.0602402414292097,0.0034390345379710194,-0.005853027743985876
1772522040589756700,6.915756591796875,0.05964052197039127,0.002238371777627617,-0.006376658892445266
1772522040599753700,6.925753662109375,0.042730303701758385,0.010165073123667389,-0.005276652628136798
1772522040609750500,6.93575048828125,0.04003624231219292,0.0076656392570585005,-0.013323235760489478
1772522040619747600,6.94574755859375,0.0430301634311676,-0.0030394224948249757,-0.004495512187806889
1772522040629743600,6.95574365234375,0.04452770851254463,-0.0008601787596009672,-0.0031292562027461827
1772522040639740700,6.96574072265625,0.05246259316504001,0.0016465068317018448,-0.008148381272703408
1772522040649737500,6.975737548828125,0.05829670614600181,0.011971519757434724,-0.0018506693679839373
1772522040659734800,6.98573486328125,0.048724575680494306,0.007127093667257577,0.0003129018740728497
1772522040669730600,6.99573046875,0.056658875811100004,0.003734327690117061,0.00041704723513685165
1772522040679727600,7.0057275390625,0.05710837314426899,0.006642287558689713,0.007876286333054304
1772522040689724700,7.015724609375,0.037655484655499456,0.0056258405251428485,0.001031251877034083
1772522040699721500,7.025721435546875,0.04468669846653938,0.0011778116077184677,0.0036589426326565444
1772522040709717500,7.035717529296875,0.04588146120905876,0.00277636937815696,-0.004018049135478213
1772522040719714600,7.045714599609375,0.04468260681331158,0.0034479667630977926,-0.015550008431868627
1772522040729711600,7.055711669921875,0.04468260681331158,-0.001979118053242564,-0.0022879739398602396
1772522040739708700,7.065708740234375,0.04693067800104618,-0.0031163236559368667,0.002583321890933439
1772522040749704700,7.07570458984375,0.05007072959244251,0.011807853628322481,-0.003862283185031265
1772522040759701800,7.08570166015625,0.043484336939454075,-0.0021503647006116807,0.002247687595244497
1772522040769698600,7.095698486328125,0.044531800165772434,0.0011621756471693514,0.0045372233045287425
1772522040779694600,7.105694580078125,0.06383388200700282,0.005334894754551351,0.0050499403333291405
1772522040789691600,7.115691650390625,0.0482715712159872,0.0069324844106100495,-0.0008423325756564736
1772522040799688700,7.125688720703125,0.030469957065582275,0.0052962980435229835,-0.0051496195818297565
1772522040809685800,7.135685791015625,0.04304010030329227,0.004517879283241927,-0.0034997060834895816
1772522040819681500,7.145681640625,0.06428630194962025,0.006458674620091915,-0.00019217983754351735
1772522040829678600,7.1556787109375,0.05650397751033306,0.00906988003179431,-0.003916881182789802
1772522040839675600,7.165675537109375,0.02852349917292595,0.002409764555469155,-0.005099241101462394
1772522040849672400,7.17567236328125,0.028522330129146574,0.004338047470618039,0.005438163332780823
1772522040859668700,7.185668701171875,0.055903089007735246,0.003006232611276209,0.0017117906202562152
1772522040869665500,7.19566552734375,0.05306055905818939,0.00966983695263043,-0.014780284434696658
1772522040879662600,7.20566259765625,0.045429041266441345,0.005949282059539109,-0.007455741099733858
1772522040889659600,7.21565966796875,0.0442325249582529,-0.00493004028070718,-0.008676688596280291
1772522040899655700,7.22565576171875,0.052316462692618367,0.008566807614173739,-0.004118605166813358
1772522040909652700,7.23565283203125,0.04797463409602642,0.016224775021430105,-0.002131011546170339
1772522040919649500,7.2456494140625,0.051414545416831964,0.006050879270490259,0.0013412768074311315
1772522040929646800,7.255646728515625,0.03839548936784267,0.005159318991936743,-0.001858788742357865
1772522040939642600,7.265642578125,0.056501639422774315,0.005807699898071587,0.003266308319568634
1772522040949639700,7.2756396484375,0.051262569725513456,0.003315773484483361,-0.0002391333849634975
1772522040959636700,7.28563671875,0.05634264946877956,0.006488375638611614,0.000870398759515956
1772522040969633500,7.295633544921875,0.05155015449523925,-0.00017411445789039133,-0.0007618968837428837
1772522040979629600,7.305629638671875,0.04167641073465347,0.008278437393158674,-0.005177311306353658
1772522040989626600,7.315626708984375,0.041080198407173155,0.006387710009422153,-0.0037983693696558474
1772522040999623400,7.32562353515625,0.06367956822812557,0.00040233372319489714,-0.0031377043706830587
1772522041009620700,7.335620849609375,0.052010173222422594,0.010034633410722017,0.00005328282350674271
1772522041019616500,7.345616455078125,0.04228197541236877,0.0004928615508601069,-0.005416015433054417
1772522041029613800,7.35561376953125,0.03510170851945877,0.0018027568393386899,-0.001895467490935698
1772522041039610600,7.365610595703125,0.056201779693365095,0.005660875305905938,-0.003508272982435301
1772522041049607400,7.375607421875,0.07280921562314033,0.0003073489161208272,-0.00930947920763865
1772522041059603700,7.385603759765625,0.045725978386402126,0.0008393551672808826,-0.002904197008907795
1772522041069600500,7.3956005859375,0.028516484910249707,0.002987856704369187,0.00008016169727779924
1772522041079597800,7.405597900390625,0.056200026127696034,-0.0041630196972750125,-0.0020943236644379794
1772522041089594600,7.4155947265625,0.05186053561866283,0.00402920071715489,-0.0001730915445834398
1772522041099590700,7.425590576171875,0.03779343182146549,-0.0015425532668828963,-0.003457675306359306
1772522041109587700,7.435587646484375,0.03076338705420494,-0.006744907682947814,0.0010675013673491775
1772522041119584500,7.44558447265625,0.04618073641657829,-0.009991141328867524,0.0003239803905133158
1772522041129581600,7.45558154296875,0.053664954692125316,0.004640592347458005,-0.004344687273958698
1772522041139577600,7.46557763671875,0.054714171484112735,0.017408760641608387,-0.0038848238104023038
1772522041149574400,7.475574462890625,0.06399053387343884,0.006175583362393081,-0.00426206875811331
1772522041159571700,7.48557177734375,0.06264028830826282,0.0018536833089776337,-0.001456336288154125
1772522041169568500,7.495568603515625,0.04273614892065525,0.0015956899599172175,0.005658655949356034
1772522041179564800,7.505564697265625,0.03779986156225204,-0.0021208280788734555,-0.0006971702176146209
1772522041189561600,7.5155615234375,0.05859831944108009,0.002259158837329596,-0.009394545408897101
1772522041199558700,7.52555859375,0.05440905105769634,-0.0002543218209408223,-0.0017382311026100069
1772522041209555700,7.5355556640625,0.03510755373835563,0.0010810001697391272,-0.007540560705820098
1772522041219551500,7.545551513671875,0.040347207957506175,0.0005574146870523691,-0.005869001631252467
1772522041229548800,7.555548828125,0.04035013056695461,0.0010243746116757391,0.0028149752223398535
1772522041239545600,7.565545654296875,0.03721124801933765,0.003991151995398104,-0.0031393026727251708
1772522041249542700,7.575542724609375,0.06145838504731655,0.0035119171110913157,0.007022098922822624
1772522041259538700,7.58553857421875,0.07522621363699436,0.00215339690791443,-0.0029225546495057642
1772522041269535500,7.595535400390625,0.05038227975964546,0.004346413440164178,-0.0035089945016428827
1772522041279532500,7.605532470703125,0.030628947019577024,0.0027899229794740676,-0.00273998289052397
1772522041289529600,7.615529541015625,0.05307224949598312,0.003380454484838992,-0.003024270591465756
1772522041299525600,7.625525634765625,0.06459551402926444,0.00597750350702554,-0.003059241440147161
1772522041309522700,7.635522705078125,0.059954410225152965,0.006142758805025368,-0.0003542293983045965
1772522041319519500,7.64551953125,0.050076574811339376,0.003016041619237512,-0.004957430611131713
1772522041329516500,7.6555166015625,0.04079962790012359,0.003987169940024614,0.003364553662808612
1772522041339512600,7.6655126953125,0.05800795233249664,0.008965013151522726,0.0025353910959791393
1772522041349509600,7.675509521484375,0.04468903655409813,0.006091156481951475,-0.004334586005052552
1772522041359506700,7.685506591796875,0.03631283787488937,0.009168755562696605,0.007331493665557355
1772522041369503700,7.695503662109375,0.055765141841769214,0.001126629409752786,-0.004025839716289192
1772522041379499800,7.705499755859375,0.0529208583265543,0.0010699125201441347,-0.0006565276799723505
1772522041389496600,7.71549658203125,0.04663607896864414,-0.001403272660356015,-0.005263062494201586
1772522041399493600,7.72549365234375,0.05367255347669124,0.0018650997521355748,-0.006320983182452619
1772522041409490700,7.73549072265625,0.05202770887911319,-0.005060297330562025,-0.0013431125714909284
1772522041419486500,7.745486572265625,0.0659434215068817,-0.0029576624955050647,-0.0024128515616990624
1772522041429483800,7.75548388671875,0.04679097726941108,0.011230163338221608,0.0025672658052761105
1772522041439480600,7.76548046875,0.034821722534298896,0.009073003570642321,-0.006228455193946138
1772522041449476600,7.7754765625,0.0448468574643135,0.009182510093413292,-0.007691065959259867
1772522041459473700,7.7854736328125,0.0695382311284542,-0.0005320062511600553,-0.0019102632012683897
1772522041469470700,7.795470703125,0.05338029253184795,0.002348937746323645,-0.0021254859876818953
1772522041479467500,7.805467529296875,0.03183364663422107,0.005138550198543816,-0.00974338624603115
1772522041489464600,7.815464599609375,0.03512742748260498,0.00005910977609455585,-0.009623924584826454
1772522041499460600,7.825460693359375,0.050690907317399975,0.000920530644711107,-0.0012313044937793164
1772522041509457700,7.835457763671875,0.056526189342141146,0.002102799231838435,-0.005479134663986042
1772522041519454700,7.845454833984375,0.053985272687673565,0.001467697932384908,-0.007991628941567614
1772522041529450800,7.85545068359375,0.05532908851206302,0.004410783913265913,-0.006589598390227183
1772522041539447600,7.865447509765625,0.04664835392832756,0.004525039676390588,-0.005713902401085943
1772522041549444600,7.875444580078125,0.04275952979624271,0.004891333971824497,0.0033311811161693184
1772522041559441700,7.885441650390625,0.046647184884548186,0.013224734688922763,-0.003769344204571098
1772522041569437700,7.895437744140625,0.04814005379080772,0.0003151486300863325,-0.012068906584149226
1772522041579434800,7.905434814453125,0.056821372896432874,-0.001725837411917746,-0.015188435977324843
1772522041589431600,7.915431640625,0.049939796689152716,0.005655779005680233,-0.0021955464160535484
1772522041599428600,7.9254287109375,0.04530336906015873,0.0023102314374409613,0.0010305212246719748
1772522041609424600,7.935424560546875,0.04006488388478756,0.0011985438684932886,-0.0041716413951478895
1772522041619421700,7.945421630859375,0.039916415324807164,0.0013184987200424074,0.00337051761271432
1772522041629418500,7.95541845703125,0.04096621663868427,-0.0003460917576216161,-0.0021796090614050623
1772522041639415800,7.965415771484375,0.04889993224740028,0.006304689634777605,-0.001781047331029549
1772522041649411600,7.97541162109375,0.049050154373049736,0.00865362738110125,0.0031211276952177285
1772522041659408600,7.98540869140625,0.051293549385666846,0.0010320281951688229,0.0047192470742389555
1772522041669405700,7.99540576171875,0.05084580561816692,0.0003200440009124577,-0.001955225721001625
1772522041679402500,8.005402587890625,0.05653086551725864,0.004087232781015336,-0.0059109867426101114
1772522041689398500,8.0153984375,0.05308803158700466,0.00009357830127701163,-0.0021650782125536353
1772522041699395600,8.0253955078125,0.033786534267663954,-0.0004254040715284645,0.0062507126915268595
1772522041709392600,8.035392578125,0.036033436411619185,0.000980261475313455,0.002829067679774016
1772522041719389700,8.0453896484375,0.039026188486814495,0.0037846879041753705,-0.007230280047096312
1772522041729385700,8.0553857421875,0.04800678279995918,0.006260631297342479,-0.011666636793036013
1772522041739382800,8.0653828125,0.05653612621426582,-0.000952935076970607,-0.001981830600136891
1772522041749379600,8.075379638671874,0.055333764687180514,0.0045266653778962785,0.0004823675563093275
1772522041759376600,8.085376708984375,0.04755319381356239,0.006719353116583079,-0.006605225217621773
1772522041769372700,8.09537255859375,0.05054653041064739,0.004335270991642028,-0.0033940628850832578
1772522041779369500,8.105369384765625,0.047105450046062466,-0.0006468830687925219,-0.001484000613214448
1772522041789366800,8.11536669921875,0.018827450066804884,0.0015677790396846829,-0.006640031669521704
1772522041799363600,8.125363525390625,0.02586567814052105,-0.0032858167376369238,-0.00088007990331389
1772522041809359600,8.135359619140624,0.06193009421229362,-0.007113467000704258,-0.0052378823871724305
1772522041819356700,8.145356689453125,0.0703098000228405,-0.004785389379318803,-0.006913268253486603
1772522041829353500,8.155353515625,0.0542974073767662,0.012116335055604577,-0.005489089802419767
1772522041839350800,8.165350830078125,0.047264440000057216,0.00521546962596476,-0.011672445479314774
1772522041849346600,8.1753466796875,0.036491701573133466,0.005475399203784763,-0.006554289614828303
1772522041859343600,8.185343505859375,0.05160334598720073,0.0035449425978586074,-0.011440709949517621
1772522041869340700,8.195340576171875,0.07150222467780112,0.0003381824458017945,-0.020934149155626074
1772522041879337500,8.20533740234375,0.05713701471686363,0.007354326551873237,-0.01194981938228011
1772522041889333800,8.215333740234374,0.03229658797085285,0.002749864963721484,-0.01180017264536582
1772522041899330600,8.22533056640625,0.03813011642992496,-0.002865326303243637,-0.012451147367386147
1772522041909328000,8.235327880859375,0.06147650522589683,-0.0037333778420463202,-0.002673758387053385
1772522041919324700,8.24532470703125,0.045613165661692615,-0.006371306863892823,-0.009146196671016514
1772522041929320400,8.255320556640624,0.0424725295484066,0.0025970855548046526,-0.003380061759194359
1772522041939316700,8.265316650390625,0.052498249000310894,0.010547752298321575,0.0011495170949958264
1772522041949313500,8.2753134765625,0.05803367129564285,0.008546184951253234,-0.0007351184746716171
1772522041959310800,8.285310791015625,0.05384323386847972,0.003919602862838656,-0.0019128478839993475
1772522041969306600,8.295306640625,0.048155835881829256,-0.001422507083788514,-0.001331970122968778
1772522041979303700,8.3053037109375,0.04292085783779621,-0.00020041794292628763,0.00868445177762769
1772522041989300700,8.31530078125,0.045915948000550266,0.009481182512734086,0.0022083145660813895
1772522041999297500,8.325297607421875,0.04876081603765487,0.0043430889719165856,0.010197185294982045
1772522042009293600,8.33529345703125,0.05923720186650753,0.002183006594888866,-0.0005571498255711048
1772522042019290600,8.34529052734375,0.049210897892713545,0.0022210370503365994,-0.0008256645686458796
1772522042029287700,8.35528759765625,0.040681554478406906,-0.004279741412121802,0.008959679389279334
1772522042039284700,8.36528466796875,0.05445055211186409,0.0014729403630830346,0.006453167327912524
1772522042049280800,8.37528076171875,0.053853170740604396,0.0009452266945503651,0.0013489577903877943
1772522042059277800,8.38527783203125,0.053252866759896274,0.004160699876025319,-0.0011040248523000627
1772522042069274600,8.395274658203125,0.04322656278610229,0.0011141717869788408,-0.002697458923049271
1772522042079271700,8.405271728515626,0.04516775998175144,0.0003275697202421725,0.002421920784143731
1772522042089267700,8.415267822265625,0.040678047347068785,0.0012544387741945683,-0.0010277630120050162
1772522042099264500,8.425264404296875,0.04546761971116066,0.0011130210095085203,-0.007240911038964987
1772522042109261800,8.43526171875,0.05399813216924667,-0.0032008966668508943,-0.00027719123987480994
1772522042119258600,8.445258544921876,0.057142859935760494,0.0034232524469494817,-0.011640013647591695
1772522042129254700,8.455254638671875,0.0415793801009655,0.0015285247415304183,-0.00792966048810631
1772522042139251700,8.465251708984376,0.04681377362310886,0.00014686112478375435,-0.006323248204775154
1772522042149248500,8.47524853515625,0.04711187978684902,0.0007889584206044674,-0.016820740753738208
1772522042159245800,8.485245849609376,0.044265842705965036,5.114566534757613e-7,-0.004151511922571808
1772522042169241600,8.49524169921875,0.04635609298348427,0.002414002339169383,-0.003481293643964454
1772522042179238700,8.50523876953125,0.0451607457190752,0.0056838543226942415,-0.015241417406732216
1772522042189235700,8.515235595703125,0.04216857816576958,-0.004442768220417202,-0.009940223992383108
1772522042199232500,8.525232421875,0.06177110425829887,0.0019037695284001529,-0.006925798941496759
1772522042209228800,8.535228759765625,0.06042378130257129,0.004172609509527683,-0.00885912335794419
1772522042219225600,8.5452255859375,0.049050154373049736,0.006192333567794412,-0.011703799598803744
1772522042229222700,8.55522265625,0.03902385039925575,0.005016421656217426,-0.0030034743986092505
1772522042239219700,8.5652197265625,0.0610159019768238,0.0002316533314064145,-0.011536863800371064
1772522042249215500,8.575215576171875,0.06265957753062248,0.006001889029610902,-0.007693020454328506
1772522042259212800,8.585212890625,0.04754501050710678,0.006470620786212384,-0.005186225265171379
1772522042269209600,8.595209716796875,0.04454933582246303,0.00309838614044711,-0.007381908678542822
1772522042279206700,8.60520654296875,0.0487380196839571,-0.006016849136725067,-0.004469619694724679
1772522042289202700,8.61520263671875,0.048289691394567485,0.00026002090936526654,0.0027542123452760276
1772522042299199500,8.625199462890626,0.04724398173391819,0.005097341405320912,-0.0028030747219920157
1772522042309196800,8.63519677734375,0.05786532899141311,0.010570055461674928,0.008627323896065353
1772522042319193600,8.645193603515626,0.05472060122489929,0.010470431012101471,-0.0004213946166913956
1772522042329190000,8.65518994140625,0.0569639962375164,0.005903506689053028,-0.00013443090147338807
1772522042339186700,8.665186767578126,0.05127659825086593,0.0012059782562777398,0.004101717964094132
1772522042349183500,8.67518359375,0.05711246479749679,0.0046314043940044935,0.00530289218109101
1772522042359180800,8.685180908203124,0.05366846182346344,0.005016421656217426,0.0059973041860386725
1772522042369176600,8.695176513671875,0.04513853388726711,-0.00012048457451164722,-0.0008028682149481028
1772522042379173600,8.705173583984376,0.030927053183317184,0.004200027239415795,0.008386683540605008
1772522042389170700,8.715170654296875,0.03332476197481155,0.002129285379964858,0.0008316741843242198
1772522042399167700,8.725167724609374,0.05352583848237991,0.0025787096478976307,0.0036522388972342014
1772522042409163800,8.735163818359375,0.05621989987194538,0.004796586626768112,-0.0030679727358743545
1772522042419160600,8.74516064453125,0.06160568456351757,0.00577626358019188,-0.001216463117673993
1772522042429157600,8.75515771484375,0.04409983848929405,0.008634940946940332,0.004601100587286055
1772522042439154700,8.76515478515625,0.04020575366020202,0.005568922706134617,0.002351239301264286
1772522042449150500,8.775150390625,0.05022971954643726,0.000705170860979706,-0.008151587009942158
1772522042459147800,8.785147705078124,0.056664136508107185,0.002400759265106171,-0.0025454192996490744
1772522042469144600,8.79514453125,0.04079904337823391,-0.0025565708813257513,0.003847880200343206
1772522042479141600,8.8051416015625,0.044540567994117736,-0.0014841376105323434,-0.0034364315889310088
1772522042489137700,8.8151376953125,0.04079962790012359,0.0014970701573416589,-0.010760865326039492
1772522042499134700,8.825134765625,0.05291852023899555,-0.006971921371854841,-0.014555709298048168
1772522042509131800,8.8351318359375,0.049478024396300314,0.0020739567298442125,-0.013534321227902546
1772522042519128600,8.845128662109374,0.052472530037164684,0.006305402020830661,-0.007569421474123373
1772522042529124900,8.855124755859375,0.039459903728961944,0.0001311703653074801,-0.010875258086482062
1772522042539121700,8.86512158203125,0.06639876405894755,0.002376994797028601,-0.009282445070240647
1772522042549118700,8.87511865234375,0.04889233346283436,0.008332213407009839,-0.006410214102175086
1772522042559115800,8.88511572265625,0.042756022664904594,0.006828275117464363,0.0033953415267169475
1772522042569111600,8.895111572265625,0.03243511965870857,0.005488094288576394,-0.00022101320638321338
1772522042579108600,8.905108642578124,0.04680032961964607,0.0030567572221159934,0.0015366897816769779
1772522042589105700,8.915105712890625,0.05338087705373764,-0.002188048096187413,0.001330627549253404
1772522042599102700,8.925102783203124,0.040813656425476075,0.0046737639646977185,-0.0037624030071310697
1772522042609098800,8.9350986328125,0.038871290186047555,0.007013860817439854,0.004720306520164013
1772522042619095600,8.945095458984374,0.052339843568205834,-0.0002079436622560024,0.0011835106961429118
1772522042629092600,8.955092529296875,0.05593406866788864,0.0033285416345112022,0.0009829648890532553
1772522042639089700,8.965089599609374,0.03528524839282036,0.006732943250518292,-0.0002936035185586661
1772522042649085700,8.975085693359375,0.03947510129809379,0.003969506419170647,-0.0024610015523619947
1772522042659082800,8.985082763671874,0.058629299101233476,0.007641363332327455,-0.005510954574355856
1772522042669079800,8.995079833984375,0.05324176084399223,0.0020716369085945186,-0.006190981860924512
1772522042679076600,9.00507666015625,0.04246668432950973,0.0021451588025316595,0.003547308084880933
1772522042689072600,9.01507275390625,0.04455868817269802,0.00031144056934863325,-0.0036667880123946815
1772522042699069700,9.025069580078124,0.05383446604013443,0.00649043973153457,-0.0025247875035740433
1772522042709066800,9.035066650390625,0.04814999066293239,0.006373791081923991,-0.004346340374927968
1772522042719063800,9.045063720703125,0.04007131362557411,0.004525441535189747,0.00045518728843890125
1772522042729059600,9.0550595703125,0.03348959714770317,-0.0009677855862304567,-0.006396560036158189
1772522042739056600,9.065056640625,0.050396892806887625,0.01046226597195491,-0.0009027666591573506
1772522042749053700,9.0750537109375,0.05324176084399223,0.008882741695549338,-0.0025333635356742886
1772522042759050500,9.085050537109375,0.043968321064114566,-0.0009720416362397372,-0.0042242118326015765
1772522042769046800,9.095046875,0.03528817100226879,0.0025944552063010633,0.0005815627476200462
1772522042779043600,9.105043701171875,0.04935702836513519,0.001641465330403298,-0.0020273685086052862
1772522042789040600,9.11504052734375,0.0605804331690073,0.0020534801973961293,-0.00007572298417799174
1772522042799037700,9.12503759765625,0.060576341515779494,0.005322217936068773,0.0005623739899601787
1772522042809033700,9.13503369140625,0.051748307415843006,0.0007756057486869394,0.00007470007087104022
1772522042819030800,9.14503076171875,0.045914194434881206,-0.0027095877522602674,-0.0022831881668884304
1772522042829027600,9.155027587890626,0.04890227033495903,0.008241868242435156,-0.011178369218902662
1772522042839025000,9.16502490234375,0.05219371309578418,-0.002658478619530797,-0.010754846577206626
1772522042849020700,9.175020751953125,0.05158873293995857,-0.0003584945814684033,-0.012098123545479029
1772522042859017700,9.185017822265625,0.05233458287119865,0.0009058627985417842,-0.00021931443964131174
1772522042869014800,9.195014892578126,0.05248363595306873,0.003295424816198647,-0.002206506201485172
1772522042879011600,9.205011474609375,0.05008651168346405,0.005695508227869868,-0.0013373404178302734
1772522042889007600,9.215007568359376,0.037516368445754046,0.0075354187398217615,-0.0016042294593993573
1772522042899004700,9.225004638671875,0.0461935958981514,0.005512041419744491,-0.0015009700143244116
1772522042909001500,9.23500146484375,0.05996025544404983,0.006261891672667116,-0.0007391918615903705
1772522042918998800,9.244998779296875,0.06519932514131069,0.001560454249754548,0.00226050141104497
1772522042928994600,9.25499462890625,0.04724398173391819,-0.0032265790973789988,-0.005559634287981316
1772522042938992400,9.264992431640625,0.04724222816824913,0.007127404194511472,-0.002949369591195136
1772522042948989400,9.274989501953126,0.058467971059679984,0.004962663908675313,0.004633925144653767
1772522042958986200,9.284986328125,0.06340542746186256,0.0036591800946742296,-0.0052407136650756
1772522042968982500,9.294982421875,0.03078326079845428,0.003966583809722215,-0.01172895230636932
1772522042978979300,9.304979248046875,0.033927988564968106,-0.009276983443833887,0.0028493889485951512
1772522042988976400,9.314976318359374,0.06056523559987545,0.0005626023188233376,0.0036853191829286512
1772522042998972400,9.324972412109375,0.06849602859914303,0.007927084938529878,0.0072878737195394925
1772522043008968400,9.334968505859376,0.04859364277720451,0.006479187685158103,-0.004176801627455279
1772522043018965500,9.344965576171875,0.03887012114226818,0.005152542191278189,0.007667091428628191
1772522043028962300,9.35496240234375,0.03587912263274193,0.00481885325750336,0.00473639000528492
1772522043038959400,9.36495947265625,0.05996960779428482,0.003224149678274989,0.00441747851553373
1772522043048955400,9.374955322265626,0.06954582991302014,0.007427702315337956,-0.0008151888404041528
1772522043058952400,9.384952392578125,0.03049450698494911,0.004013126365188509,0.00315523089421913
1772522043068949500,9.394949462890626,0.024063012632727622,0.008572506702598183,0.008522520947875454
1772522043078946300,9.4049462890625,0.07299509358406066,0.011404971915856004,0.00031875622612424195
1772522043088942300,9.4149423828125,0.049804187610745426,0.01002528106048703,0.00045183542072772977
1772522043098939400,9.424939453125,0.023915713116526603,-0.006541494065336883,-0.0031522443526890128
1772522043108936200,9.434936279296876,0.052798693251609796,0.0004156681288033724,-0.0063515609838068485
1772522043118933500,9.44493359375,0.06387246045172214,0.007541793681681156,-0.0020264003942254928
1772522043128929300,9.45492919921875,0.05354278961718082,0.006386084307916462,-0.00613952566832304
1772522043138926300,9.46492626953125,0.03948211556077003,0.004924651719536632,0.005123946284456178
1772522043148923400,9.47492333984375,0.053099137502908705,0.012534925793856382,-0.0026890290214214474
1772522043158920200,9.484920166015625,0.07389584181606769,0.00962440864201635,-0.010702230473980306
1772522043168916500,9.49491650390625,0.057436874446272844,0.002500968236569315,-0.004911335580237209
1772522043178913300,9.504913330078125,0.03169862207770347,0.0010005370783619581,-0.003150308123929426
1772522043188910600,9.51491064453125,0.051449616730213164,0.0025365875392220913,0.006551851062569767
1772522043198907400,9.524907470703125,0.06461655681729317,0.007694901884160935,-0.0023989326342009005
1772522043208903400,9.5349033203125,0.0502495932906866,0.006948796224594116,-0.007336434702156111
1772522043218900500,9.544900390625,0.03169511494636536,0.003630940380878746,0.006880041837319732
1772522043228897300,9.554897216796874,0.05399111790657043,-0.0013407653507776557,-0.007027323087211698
1772522043238894300,9.564894287109375,0.06536123770475387,0.005746946154162287,-0.008759343644743785
1772522043248890400,9.574890380859374,0.04336509447395801,0.007471559723373502,-0.001545987332984805
1772522043258887200,9.58488720703125,0.030796704801917076,0.002839735204260796,0.0028792178312782198
1772522043268884500,9.594884521484374,0.044863808599114416,0.006056085168570279,0.003593841507192701
1772522043278881300,9.60488134765625,0.07120353399217129,0.006729271722398698,-0.0011924794538877904
1772522043288877600,9.614877685546874,0.06147650522589683,0.008107026349008083,-0.008224140789499505
1772522043298874400,9.624874267578125,0.030502690291404722,0.0028188020140863953,0.007485396452480927
1772522043308871200,9.63487109375,0.042024201259016986,-0.004926277421042323,-0.0034147038143128154
1772522043318868500,9.644868408203125,0.06297346578538418,0.007775328442919999,-0.014214220650307833
1772522043328864300,9.6548642578125,0.05294774633347988,0.006885558262653649,-0.007020162694063037
1772522043338861600,9.664861572265625,0.04995382521450519,0.009940762848500161,0.0051056617090944195
1772522043348858400,9.6748583984375,0.04471650908291339,0.0023408457714132963,0.0042338199111633
1772522043358855400,9.68485546875,0.04292261140346527,0.006510295209474861,-0.000007069061603397131
1772522043368852500,9.6948525390625,0.046215807729959486,0.004040909421257674,0.003881691138399765
1772522043378849300,9.704849365234375,0.056090720534324644,-0.001012282315082848,-0.0033566169515252113
1772522043388845600,9.714845458984374,0.04307049544155597,0.0017007395032793283,0.0019563582321628927
1772522043398842400,9.72484228515625,0.040081250497698784,0.0025605346703901884,0.0029943595103919503
1772522043408839400,9.73483935546875,0.04546878875494003,0.0028479002444073555,-0.0007360683227423578
1772522043418836500,9.74483642578125,0.061631403526663776,0.0036735008809715506,-0.002772414722247049
1772522043428832300,9.754832275390624,0.05953413898646831,0.0032428361124359067,0.0032275472117587922
1772522043438829300,9.764829345703125,0.03948211556077003,-0.002655537743773311,-0.00241864198166877
1772522043448826400,9.774826416015625,0.04801379706263542,0.006635638622194528,0.0035529432412236927
1772522043458823400,9.784823486328126,0.05893734213709831,-0.004011263201665133,-0.006354026935528964
1772522043468819500,9.7948193359375,0.05564706842005253,0.008029832926951348,-0.007111275043617933
1772522043478816300,9.804816162109375,0.050856911534070966,0.005894355268217623,-0.007954904527217149
1772522043488813300,9.814813232421875,0.04307283352911472,0.0009213526286184787,-0.011763859222969039
1772522043498810400,9.824810302734376,0.04905716863572597,0.002394110328610986,-0.005215743620600551
1772522043508807400,9.834807373046875,0.050852235358953474,0.0018569347119890152,-0.0009874218684621154
1772522043518803500,9.844803466796876,0.0610246698051691,0.008209153282921761,0.001876132602803409
1772522043528800500,9.854800537109375,0.0616214666545391,0.008789017263799905,-0.01008012565341778
1772522043538797300,9.86479736328125,0.04590834921598434,0.003948774158395826,-0.007512503655115142
1772522043548793300,9.87479345703125,0.034984219619631766,-0.0022422442351467905,-0.008745698711881413
1772522043558790400,9.884790283203126,0.045755204480886456,0.005109378902986645,-0.005867659057537093
1772522043568787500,9.894787353515625,0.05129413390755653,0.009251684605795889,-0.004290235406672582
1772522043578784500,9.904784423828126,0.05742986018359661,0.0040327991800382735,-0.015014915174478664
1772522043588781300,9.91478125,0.02944704375863075,-0.0032440599551424383,-0.007180513488082215
1772522043598777300,9.92477734375,0.03393792543709278,0.003971460914239287,-0.00047159043396823106
1772522043608774400,9.9347744140625,0.04770633854866028,-0.0020574987853877245,0.0021325002503581342
1772522043618771200,9.944771240234376,0.06162380474209785,0.0018454452035948632,-0.007363888964662328
1772522043628768500,9.9547685546875,0.05294190111458301,0.011401154257263988,-0.0020035949073731896
1772522043638764300,9.964764404296876,0.054739890447258945,0.007394749893806874,-0.0009552366319112479
1772522043648761300,9.97476123046875,0.05129881008267402,-0.003141476363502443,-0.005647568299761042
1772522043658758400,9.98475830078125,0.05369710339605808,-0.003959094623010606,0.006467214119574054
1772522043668755200,9.994755126953125,0.06372282284796238,0.003925082755554467,-0.005116822423925623
1772522043678751500,10.00475146484375,0.05160100789964199,-0.002447027825936675,-0.002305664860177785
1772522043688748300,10.014748291015625,0.038729835888743396,-0.0039582909054122865,0.003093344639148563
1772522043698745600,10.02474560546875,0.03603752806484699,0.0065241410717368125,0.0010818130204919725
1772522043708741400,10.034741455078125,0.04681085101366043,0.004350432028155773,0.00010772555763833224
1772522043718738400,10.044738525390626,0.049203883630037304,0.0010449242093600332,0.005276862690690905
1772522043728735500,10.054735595703125,0.05219780474901199,0.003273998435679823,-0.004663671828946099
1772522043738732300,10.064732177734374,0.0551905568242073,0.0016544526761397718,-0.001035243065562099
1772522043748729300,10.074729248046875,0.049803018566966055,0.00783252025656402,0.004789727627718821
1772522043758725400,10.084725341796876,0.04725684121549129,0.006634597442578524,-0.008065662292158231
1772522043768722200,10.09472216796875,0.04905307698249817,0.003970785060804337,0.0057705553586129095
1772522043778719500,10.104719482421874,0.05548574037849903,0.0050401313253678375,0.009278526946948841
1772522043788716300,10.11471630859375,0.04007423623502254,0.009112002140469849,0.002614712543040514
1772522043798712600,10.124712646484374,0.03259235604703426,0.0024645452163182197,-0.0016522789853624998
1772522043808709400,10.13470947265625,0.040222704795002936,-0.0014890877802856265,-0.007476829553535208
1772522043818706200,10.1447060546875,0.05129588747322559,0.006839015707187354,-0.007524020562972873
1772522043828703500,10.154703369140625,0.05354278961718082,-0.001379234197642654,-0.0065257302406243976
1772522043838699300,10.16469921875,0.04441197317838669,-0.0011598923585377633,-0.0018376089570112525
1772522043848696600,10.174696533203125,0.04261573741137981,0.008461392744630574,-0.005244732253067195
1772522043858693400,10.184693359375,0.053389644882082934,0.004165576980542391,-0.007148766642948612
1772522043868690400,10.1946904296875,0.051589901983737946,0.00845730109140277,-0.00925641557984054
1772522043878686500,10.2046865234375,0.04066577238738536,0.006328947293199599,-0.005573334019770846
1772522043888683300,10.214683349609375,0.04725158051848411,0.0023471111154183743,-0.0007977993141859769
1772522043898680600,10.2246806640625,0.05682780263721943,0.008349803862627595,-0.006942804875224829
1772522043908677400,10.234677490234375,0.05338496870696544,0.0008762531115673481,-0.009119774454971774
1772522043918673200,10.244673095703124,0.06116320149302482,0.006963774598017334,-0.006329257820453495
1772522043928670500,10.25467041015625,0.04769172550141811,0.007372720725089311,-0.0049828299138695
1772522043938667300,10.264667236328124,0.05562018041312694,0.0038549949277192352,-0.008345054622273891
1772522043948664300,10.274664306640625,0.05113046777844429,0.0013350662623532116,-0.009100795759866014
1772522043958660600,10.28466064453125,0.05816460419893264,0.0036763869578018784,0.00006116473586298525
1772522043968657400,10.294657470703125,0.039161213043332095,0.004223280250839889,-0.0029892906096298244
1772522043978654500,10.304654541015625,0.032575404912233354,0.0011021525556221604,-0.008153833765955642
1772522043988651500,10.314651611328125,0.05277881950736046,0.0030227088220417496,-0.007406495130527764
1772522043998647600,10.3246474609375,0.06399988622367382,-0.00022111367108300326,-0.006267499429546296
1772522044008644600,10.33464453125,0.04604395829439163,0.009291925284639001,-0.006467387649510056
1772522044018641400,10.344641357421875,0.038863691401481625,0.005322345800232142,-0.00043422669880092144
1772522044028638700,10.354638671875,0.03646948974132538,-0.0003341090588830411,-0.005341580223664641
1772522044038634500,10.364634521484374,0.04155950635671615,0.0030603008860722184,-0.000916521189874038
1772522044048631600,10.374631591796875,0.05188683910369873,-0.0006420059642754495,0.002253386683668941
1772522044058628600,10.384628662109375,0.07043956388235091,-0.0001498933320865035,0.0033327611519023775
1772522044068625400,10.39462548828125,0.059064183387160296,-0.0017160649365745484,0.001165938506834209
1772522044078621400,10.404621337890624,0.04185410538911819,0.004413852653186768,0.008733305021189153
1772522044088618500,10.414618408203125,0.03512158226370811,0.003955788421072065,0.00564809802272357
1772522044098615300,10.424615234375,0.049338908186554904,0.006158869689609855,0.003924288171110675
1772522044108612600,10.434612548828126,0.051882747450470924,0.005789890246745199,-0.000039537425944581626
1772522044118608400,10.4446083984375,0.05038286428153515,0.0007588007443584501,0.002947880887007341
1772522044128605700,10.454605712890626,0.052929041633009904,0.0003145823745056987,-0.007269598277332261
1772522044138602500,10.4646025390625,0.058015551117062567,0.000930832843016833,0.004065705935796722
1772522044148599300,10.474599365234376,0.0604103372991085,0.005511822224035859,-0.000753622245742008
1772522044158595600,10.484595703125,0.04559796809256077,0.006657686057221144,-0.002048484361870214
1772522044168592400,10.49459228515625,0.03811725694835186,0.0030028533441014585,-0.003874375481624156
1772522044178589700,10.504589599609375,0.04350421068370342,0.004313515817560255,-0.006148183898814022
1772522044188586500,10.51458642578125,0.05443009384572506,0.004730937512032687,-0.006940284124575555
1772522044198582500,10.52458251953125,0.04500292480885982,0.008195526616368442,-0.0006012172961607575
1772522044208579600,10.53457958984375,0.03707622346282005,0.0031448556306771934,-0.0049880632114131
1772522044218576400,10.544576416015625,0.04890051676928997,0.0013699366463348268,-0.008988403160264715
1772522044228573400,10.554573486328126,0.04725274956226349,-0.0044576552622951566,-0.004020725149754435
1772522044238570500,10.564570556640625,0.0505459458887577,-0.0006442527202889323,-0.015101077354280278
1772522044248566300,10.574566162109376,0.04979834239184856,0.006179875945020467,-0.007981865599378943
1772522044258563600,10.5845634765625,0.050098202121257776,0.007051525946706533,-0.008271541861491278
1772522044268560400,10.594560302734376,0.04501110811531543,-0.0014466916769742964,-0.005319888981664553
1772522044278557400,10.604557373046875,0.05353635987639427,-0.003305946210213005,-0.006405948919011279
1772522044288553500,10.614553466796876,0.06371054788827896,0.01138254088833928,-0.007656816629786044
1772522044298550500,10.624550537109375,0.0478489618897438,0.0033256920902989804,-0.010318208725610747
1772522044308547600,10.634547607421876,0.03916822730600834,-0.0001835581396706402,-0.0018308504226617515
1772522044318544400,10.64454443359375,0.05892331361174583,0.0004056216588243842,0.004597346860775724
1772522044328540700,10.654540771484376,0.059223173341155046,0.003774294374324381,-0.0020210940314456818
1772522044338537500,10.664537353515625,0.04979483526051044,0.0024943010337650775,-0.004821529271779581
1772522044348534500,10.674534423828124,0.03902209683358669,0.0020859759612008926,-0.007079866125201806
1772522044358531600,10.684531494140625,0.04575812709033489,-0.0006302607275545597,0.002899849627353251
1772522044368527400,10.69452734375,0.06101940910816192,0.000043309418763965366,-0.0015931783424224704
1772522044378524400,10.7045244140625,0.05548457133471965,0.003105016810633242,-0.0029425562579184768
1772522044388521500,10.714521484375,0.03827800046801567,0.011425777241867035,0.004580852383701131
1772522044398518500,10.7245185546875,0.03648001113533973,0.0047887503801845015,0.004849467591475695
1772522044408514600,10.7345146484375,0.07357727738618851,0.008976338263135403,-0.009038142319815232
1772522044418511400,10.744511474609375,0.06518763470351696,-0.0001590264866128564,0.0003856200504116714
1772522044428508400,10.75450830078125,0.036004210317134855,0.005068955561053008,0.002370939515577629
1772522044438505500,10.76450537109375,0.011166121658682823,-0.00544608177775517,-0.0020499913323670624
1772522044448501500,10.77450146484375,0.04528524888157844,-0.003696388566214591,0.0035664968425408003
1772522044458498600,10.78449853515625,0.060551791596412656,-0.0010139262828975915,0.000059648632211610675
1772522044468495600,10.79449560546875,0.055470542809367175,0.001576583400648087,0.005731995180202648
1772522044478492400,10.804492431640625,0.04978899004161358,0.0056269913026131685,-0.002930948018515482
