time,seconds_elapsed,z,y,x
1772609006514113800,0.07311376953125,-0.2391495323807001,-0.16855740828514099,0.08097279446497559
1772609006524112000,0.08311181640625,-0.11871756483912467,-0.15526611116603015,0.11197919649481773
1772609006534110000,0.09310986328125,-0.1366501118928194,-0.35436245009973644,0.27586853990368543
1772609006544108000,0.10310791015625,-0.09402268404364586,-0.44952728991582985,0.37818924282379446
1772609006554106000,0.113106201171875,0.08403203590512275,-0.37901115366593,0.3867299113497138
1772609006564104000,0.12310400390625,0.028473814812302586,-0.4313432523190975,0.39501024843901394
1772609006574102000,0.13310205078125,-0.15058978991806507,-0.4508344269916415,0.3999162867896259
1772609006584100000,0.14310009765625,-0.1276052201718092,-0.4089757915578782,0.3848862562444061
1772609006594098000,0.153097900390625,-0.07487959215641021,-0.38254268879294395,0.4048566658012569
1772609006604096000,0.163095947265625,0.0376928940564394,-0.23077494113668798,0.3361144804213196
1772609006614094000,0.173093994140625,0.13181143968999384,-0.01873378043398261,0.31556860906407236
1772609006624092000,0.183091796875,0.14016542653739453,0.23830811312049627,0.27952019427902997
1772609006634089000,0.1930888671875,0.308287366014719,0.2579987558878958,0.25176168812923133
1772609006644086800,0.203086669921875,0.48262628031075,0.23154957877099513,0.22028248095586894
1772609006654084000,0.213083984375,0.6107312666982412,0.151989573713392,0.18775800251327454
1772609006664082200,0.223082275390625,0.8110410730749368,0.055657005292177195,0.16732808568589388
1772609006674080300,0.233080322265625,1.0350888979136943,-0.07626695486158132,0.18858714681379496
1772609006684078300,0.243078369140625,1.155889698767662,-0.215539670342952,0.2079333600576967
1772609006694076400,0.253076416015625,1.2164847449839113,-0.32961028615906834,0.23529585262723265
1772609006704074500,0.263074462890625,1.283146543893218,-0.36934929909035563,0.23031053849533198
1772609006714072300,0.273072265625,1.3366975168168544,-0.36243615870103235,0.21129479931481182
1772609006724070400,0.2830703125,1.339803666138649,-0.3062261957012117,0.21269838250242173
1772609006734068500,0.293068359375,1.3257073362469671,-0.2712543971717358,0.228364884320274
1772609006744066300,0.30306640625,1.2793500742197037,-0.2756561392620206,0.26260102551896125
1772609006754064400,0.313064453125,1.0758762508541344,-0.314758900116384,0.3732850311040878
1772609006764062200,0.323062255859375,-0.014752163451910019,-1.2181477097600697,1.318045569447428
1772609006774060300,0.333060302734375,0.12482581858634947,-3.100508685559034,3.3526515550255773
1772609006784057300,0.343057373046875,1.1983376783967017,-2.6995114716649056,2.4641040484219787
1772609006794055200,0.35305517578125,1.8333447236955165,-1.6143645575098693,1.4458010117448865
1772609006804053200,0.36305322265625,1.9071219075679777,-1.4651090849354862,1.2013035424649714
1772609006814051300,0.37305126953125,1.9364076232850551,-0.9302635186962783,0.7199671558342874
1772609006824049200,0.383049072265625,2.2478666050732135,-0.32548677648827434,0.26972324208170173
1772609006834047200,0.393047119140625,2.673905321243405,0.09772972186803817,-0.13666790327783673
1772609006844045000,0.403045166015625,3.116598235094547,0.42803442003205416,-0.5043219427576289
1772609006854043100,0.413043212890625,3.1328608031094074,0.6897923823229968,-0.7565033541362732
1772609006864041200,0.423041259765625,2.633580909639597,0.7637285561494529,-0.9151623226109892
1772609006874039300,0.433039306640625,2.234903663125634,0.826394271159917,-1.2347462317310274
1772609006884037400,0.443037353515625,2.04180861043334,0.5507547907717526,-1.3927194098986684
1772609006894035500,0.453035400390625,1.7778209893941879,0.1172001460134983,-1.3940595724612475
1772609006904033300,0.463033203125,0.8376929331570864,-0.5938352230854332,-0.9585733020532876
1772609006914031400,0.47303125,-2.609674548873305,-1.2943157342918217,0.2896663983054459
1772609006924029400,0.483029541015625,-5.012194540041685,-1.9688851207807658,0.2767783116923645
1772609006934026200,0.493026123046875,-4.572660382482409,-1.9767938480786977,-0.7763176232833415
1772609006944024300,0.5030244140625,-4.414280669340491,-0.8525441730692982,-0.1853315060187131
1772609006954022100,0.513022216796875,-5.804135191327333,-0.5011923029623926,0.05639565829765051
1772609006964020200,0.523020263671875,-6.974011914393305,-0.02345028756186366,0.3309973566032946
1772609006974018300,0.533018310546875,-8.40856657885015,-0.37414880832657216,0.27232149668028577
1772609006984016100,0.54301611328125,-8.985837474495172,-0.4265571870863437,0.165036942541413
1772609006994014200,0.55301416015625,-9.507810261288284,0.051145226956158876,0.3521757537104189
1772609007004012300,0.56301220703125,-9.746955702015757,0.5044231015771627,0.49405605787429957
1772609007014010000,0.573010009765625,-9.405440604659914,0.712104021243751,-0.07566866017486899
1772609007024008200,0.58300830078125,-8.349404780307411,1.0278355657845735,-0.12870034933160057
1772609007034006300,0.59300634765625,-7.191767361089587,0.8215291493415832,0.3216433258678764
1772609007044004000,0.603004150390625,-5.8658525195717806,1.0543953636690973,0.05497700540507212
1772609007054002200,0.613002197265625,-4.514586963698267,0.9102803227230906,-0.6226479144632816
1772609007064000300,0.623000244140625,-3.545523904877901,1.0934329503327607,-0.6377389544807374
1772609007073998300,0.632998291015625,-2.929930000579357,0.9945558119952678,-0.7267357001211494
1772609007083995400,0.642995361328125,-2.7757781342655417,1.9380948457196354,-0.9769840610779821
1772609007093993200,0.6529931640625,-2.7854227454453704,-0.04781213701069355,-0.9051744509514421
1772609007103991300,0.6629912109375,-2.0852602141469716,-1.2333368033245204,-0.49362771292701363
1772609007113989400,0.6729892578125,-2.514790864086151,-0.21443565462380645,-0.901676160506904
1772609007123987200,0.6829873046875,-1.2573054156720638,0.618400486151874,-0.982729838188365
1772609007133985300,0.6929853515625,-0.2548702486038208,0.23781857603788376,-0.8547629450973123
1772609007143983400,0.7029833984375,1.380900815680623,0.1394739371418953,-0.9328577729731797
1772609007153981200,0.712981201171875,3.5373937899142502,0.24695056152045725,-0.4414908811176195
1772609007163979300,0.722979248046875,5.1247179264158005,0.12013766077011823,0.10816442397963255
1772609007173977300,0.732977294921875,5.665895179894566,0.2855199461504817,0.436145866827853
1772609007183975200,0.74297509765625,4.841475569808483,0.546983893930912,0.3965599620990455
1772609007193973200,0.75297314453125,3.69030646982193,1.0878633335068821,0.5725727278914302
1772609007203971300,0.762971435546875,3.0745997527986764,1.905929775173962,0.9971936862181872
1772609007213969200,0.77296923828125,2.5149060148984193,2.090499868366122,0.8127654126495123
1772609007223967200,0.78296728515625,2.744067237228155,1.9896072985529898,0.6851363001454621
1772609007233964300,0.79296435546875,3.606578385299444,1.7908841768458486,0.32343817339539527
1772609007243962400,0.80296240234375,4.605591761225462,1.5149226248964667,0.10472937149703503
1772609007253960400,0.81296044921875,5.704207082632184,1.5457380343988536,-0.41396698744129384
1772609007263958300,0.822958251953125,6.6786810605853795,2.0648858268991113,-0.9642714406296611
1772609007273956400,0.832956298828125,7.235040685626864,1.9155346388652918,-1.1997314708426594
1772609007283954400,0.842954345703125,7.669306547394394,1.6651894664704798,-1.0883281014744193
1772609007293952300,0.8529521484375,7.786758622342347,1.6652520103126762,-1.0979320883829147
1772609007303950300,0.862950439453125,7.292461193460226,1.4762410120636225,-0.8806336647391318
1772609007313948400,0.872948486328125,6.88392364718914,1.068045995619893,-0.8140309025406837
1772609007323946200,0.8829462890625,6.505445139095187,0.35294746873527766,-0.2786356482631527
1772609007333944300,0.8929443359375,6.531062395432591,-0.6646642246767878,0.3553450313962996
1772609007343942100,0.902942138671875,6.574028261455893,-1.0232157970294355,0.5604726863835007
1772609007353940200,0.912940185546875,6.407742889755964,-0.7204366730421781,0.6513705894701183
1772609007363938300,0.922938232421875,5.746980056431889,-0.2724652342662215,0.5083391425097361
1772609007373935000,0.93293505859375,4.7119192155689,0.3031897506147623,0.29375043448237703
1772609007383933200,0.94293310546875,3.570570667850971,0.962093219807744,-0.05809806003505364
1772609007393931300,0.95293115234375,2.867025508376956,1.13031482026726,0.06266773343761452
1772609007403929300,0.962929443359375,2.5567320632368324,0.8583952371850609,0.2188576723171398
1772609007413927400,0.972927490234375,2.329916527250409,0.7045140045061707,0.11958894084617495
1772609007423925200,0.98292529296875,1.7943635433942078,-0.21652911977171896,0.07722189923254773
1772609007433923300,0.99292333984375,1.4028420138537883,-0.6915420024693012,-0.21962635513469575
1772609007443921400,1.00292138671875,1.3655232138067483,-0.5299722611144185,0.09905856845215893
1772609007453919200,1.012919189453125,0.12285188816487788,-0.5338643001168966,0.025883227496943436
1772609007463917300,1.022917236328125,-1.5121119513899086,-0.4007672045305371,0.36973544886372983
1772609007473915400,1.032915283203125,-4.620651383191347,-0.9099483142897486,0.2696403678375296
1772609007483913200,1.042913330078125,-6.8527481722027055,-2.5272668992996214,0.8568382170014083
1772609007493911300,1.052911376953125,-7.679782348701357,-3.7907463274314996,0.8058991070766002
1772609007503909400,1.062909423828125,-7.387184719249606,-3.729041858668625,0.14332962618935852
1772609007513907200,1.0729072265625,-6.618413346627354,-2.925525043618679,0.07248553662672638
1772609007523904300,1.082904296875,-7.09289723701477,-2.755221960709989,-0.70163165400289
1772609007533902000,1.092902099609375,-8.535418350306152,-2.7204405701860783,-1.3373026431031525
1772609007543900200,1.102900146484375,-11.312843667256832,-3.372605963295698,-1.7729086674332617
1772609007553898200,1.112898193359375,-12.652151658833025,-1.9998259102284908,-0.800169550448656
1772609007563896000,1.12289599609375,-12.064435941541195,-1.2115347213611005,-0.15888948929496108
1772609007573894100,1.13289404296875,-10.350459940069912,-1.372125680811703,0.12301875089807435
1772609007583892200,1.142892333984375,-8.1924869564116,-2.065186563411355,-0.08985187376555986
1772609007593890300,1.152890380859375,-6.148063779565692,-2.8844845927000042,-0.6715143097672611
1772609007603888400,1.162888427734375,-4.542345323717594,-3.577562426434457,-1.0514512730412184
1772609007613886500,1.172886474609375,-3.5238165154606103,-3.86283745791316,-0.7108404310487211
1772609007623884300,1.18288427734375,-2.9442145465195178,-3.695590839965641,-0.0066327525453642
1772609007633882400,1.19288232421875,-2.8551100296556946,-3.3026232032701373,0.5902945182712749
1772609007643880400,1.20288037109375,-2.8978794963240624,-2.7623376379340887,0.7084786703534424
1772609007653878800,1.212878662109375,-2.6315064414530993,-2.0894299010470507,0.5076302270554006
1772609007663876900,1.222876953125,-1.6983529004037379,-1.3816329293474554,0.09706879200758411
1772609007673873700,1.232873779296875,-0.09191256002187728,-0.7330883570834994,-0.3955336512586102
1772609007683871700,1.242871826171875,1.8660674281239509,-0.11414777270555496,-0.7153530131023377
1772609007693869600,1.25286962890625,3.865515737211704,0.5775462054550647,-0.9183311619054526
1772609007703867600,1.26286767578125,5.379725537663698,1.2744868520975112,-0.6959546312797814
1772609007713865700,1.27286572265625,6.150188516634702,2.0498101305812595,-0.2655666155925952
1772609007723863600,1.282863525390625,6.113529057279229,2.713965528953075,0.44060251744315027
1772609007733861600,1.292861572265625,5.483667558175325,3.208408503785729,1.2093921563744545
1772609007743859700,1.302859619140625,4.431671364602447,3.710528589117527,1.7312369328737258
1772609007753857500,1.312857421875,3.3143367296785113,3.8978821755483746,1.6327227826297281
1772609007763855600,1.322855712890625,2.6915204729110003,3.9268805987566706,1.3073437042996288
1772609007773853400,1.332853515625,2.67080034096539,3.927765564897656,1.0747877249650657
1772609007783851500,1.3428515625,3.2899346943497654,3.855985400061309,0.9642361501205712
1772609007793849600,1.352849609375,4.501330591762065,3.7738288026392457,0.9836850200213492
1772609007803847400,1.362847412109375,5.873884434857964,3.495276649674773,1.0185270546913145
1772609007813845800,1.372845703125,6.843879221570491,3.1839854256689546,0.9561293429672717
1772609007823842800,1.3828427734375,7.216468671625853,2.832466820693016,0.7669049942284822
1772609007833840600,1.392840576171875,6.958433236989379,2.6929537205845118,0.822793031797558
1772609007843838700,1.402838623046875,6.442496807751059,2.8346809896111487,0.7332483699508011
1772609007853836500,1.41283642578125,5.566484957593679,2.620883925151825,0.543345939287357
1772609007863834600,1.422834716796875,4.574261387938261,2.7664041567206383,0.26930702596362677
1772609007873832700,1.432832763671875,3.5459552820324896,2.8585061018347737,0.24057488900870083
1772609007883830500,1.44283056640625,2.7645044605791567,2.871518143621087,0.062473772634938356
1772609007893828600,1.45282861328125,2.4528940876215697,2.825150360199809,-0.29802323469705877
1772609007903826700,1.46282666015625,2.551258600261807,2.6736644982248543,-0.5382042290173471
1772609007913824500,1.472824462890625,2.930847115424275,2.599309806725383,-0.6535942568689584
1772609007923822600,1.482822509765625,3.1749276744663715,2.4180875626564022,-0.3897216770442202
1772609007933820700,1.492820556640625,3.29690161075294,2.14080265314877,-0.038126280505023896
1772609007943818500,1.502818603515625,3.2309745558589693,1.6102549302339553,0.33167485400605945
1772609007953816600,1.512816650390625,2.9857296292126176,0.8334738541573286,0.6398202907994389
1772609007963813600,1.522813720703125,2.684883226853609,0.07526186947226524,0.47713564700521527
1772609007973811700,1.532811767578125,2.0656874986708162,-0.5297428362727165,-0.385645221385546
1772609007983809800,1.542809814453125,0.565434327378869,-1.08026717928946,-1.7639011851131916
1772609007993807600,1.5528076171875,-2.529524322837591,-2.1758774736613034,-2.347691545654833
1772609008003805700,1.5628056640625,-6.49835255048573,-3.8701720385849474,-1.3632334954343734
1772609008013803800,1.5728037109375,-8.471731767815351,-4.234721390047669,-0.9411571070238948
1772609008023801600,1.582801513671875,-7.739259789064526,-2.3932231705129143,-2.6888135520398615
1772609008033799700,1.592799560546875,-7.5859963960230345,-2.5005583405941723,-2.2433789382651446
1772609008043797800,1.6027978515625,-8.866310346838832,-2.9071190338343382,-0.6888244871389121
1772609008053795600,1.612795654296875,-11.005277601253987,-2.2029215479314326,0.5052417244836688
1772609008063793700,1.622793701171875,-12.03963935393691,-1.3702280304968357,1.1276664977155626
1772609008073791700,1.632791748046875,-11.219411350321769,-1.0585329018652438,1.0244036916397512
1772609008083789600,1.64278955078125,-9.36803646441698,-1.6675275540292263,0.911668123819679
1772609008093787600,1.65278759765625,-7.564192560493946,-2.500461894482374,0.64232219061777
1772609008103785700,1.66278564453125,-6.224895090311765,-3.312396117004752,0.45968938563112166
1772609008113782500,1.672782470703125,-5.375969400000572,-3.974279478791356,0.7635029307000338
1772609008123780600,1.682780517578125,-4.468346021527052,-4.119405742606521,1.3549253935553132
1772609008133778700,1.69277880859375,-3.348697848963737,-3.9690117675215,1.945403561297804
1772609008143776800,1.70277685546875,-2.02451962198019,-3.537919859614968,2.1109698249429463
1772609008153774800,1.71277490234375,-0.8012479933351278,-3.0318501598745584,1.8176111479908228
1772609008163772700,1.722772705078125,0.12046528528928756,-2.4695827720940113,1.2105660224594175
1772609008173770800,1.732770751953125,0.9898626857429742,-1.8103174838513134,0.38000374489985406
1772609008183768800,1.742768798828125,1.783902355134487,-1.3264414957404136,-0.13917433314081282
1772609008193766700,1.7527666015625,2.4858342341929673,-0.7266226682007312,-0.14047825534623115
1772609008203764700,1.7627646484375,3.330105961218476,-0.09268120630681514,-0.07253690148778259
1772609008213762800,1.7727626953125,4.070255050468445,0.5699269626230001,-0.03150412241891026
1772609008223760600,1.7827607421875,4.420211812955141,1.2687959469795227,0.06318345527425408
1772609008233758700,1.7927587890625,4.310518681570887,1.8702648798137902,0.2060788912974298
1772609008243756800,1.8027568359375,3.7527486052095886,2.3247663048803804,0.3105249523410573
1772609008253754600,1.812754638671875,2.986463788706064,2.797711733654141,0.22792970777340232
1772609008263751700,1.822751708984375,2.2286457717746493,3.2026918797045942,0.03139306325986981
1772609008273749500,1.83274951171875,1.5161252786844968,3.3011294575810433,-0.1837386656030081
1772609008283747600,1.84274755859375,1.052668978267908,3.293182297968864,-0.28682958571063355
1772609008293745700,1.85274560546875,1.2236468916982413,3.3455765020728108,-0.3279378594348207
1772609008303743500,1.862743408203125,1.9971055453538893,3.6009593763738867,-0.35386922322269526
1772609008313741600,1.872741455078125,3.369119874745607,3.761602942794561,-0.16281550363227723
1772609008323739600,1.88273974609375,4.9679859804809094,3.7135914838194846,0.2449666576942429
1772609008333737700,1.89273779296875,6.273178351965546,3.5435084734022615,0.7818783992156386
1772609008343735800,1.90273583984375,6.994286056137085,3.5390140845924614,1.0894122434493154
1772609008353733600,1.912733642578125,7.151006311634182,3.5804134319514036,1.1199043392814696
1772609008363731700,1.922731689453125,6.74492551086545,3.4798972942352293,0.7597307186849415
1772609008373729800,1.932729736328125,5.761813468426466,3.3915696069627996,0.1915186702210456
1772609008383727600,1.9427275390625,4.639361928880215,3.3211680370032783,-0.4556762775322422
1772609008393725700,1.9527255859375,3.7757448653936385,3.2479718678891656,-1.1130121686149388
1772609008403722800,1.96272265625,3.262223680603504,3.306441007992625,-1.5601605275049806
1772609008413720600,1.972720458984375,3.133883131894469,3.3513124153763054,-1.5267549553789197
1772609008423718700,1.98271875,3.5037522170752284,3.2548522750526665,-1.1874465012218802
1772609008433716500,1.992716552734375,4.091409482178092,2.9945792906224726,-0.6879970233388245
1772609008443714600,2.002714599609375,4.314420365184545,2.509561731261015,0.0022467925461009145
1772609008453712600,2.012712646484375,4.15042222763896,1.8143921859443186,0.6446753296151757
1772609008463710500,2.02271044921875,4.177449350774288,1.17336865683496,0.7842784460946917
1772609008473708500,2.03270849609375,4.305755997213721,0.41694472461044785,0.6197983702510595
1772609008483706600,2.04270654296875,4.086636276426911,-0.4441577257066965,-0.17512177176941185
1772609008493704400,2.052704345703125,2.679915959835052,-1.4228028518646956,-1.497234846384078
1772609008503702500,2.06270263671875,-0.5176403105467557,-2.7859154973983764,-2.320240936410427
1772609008513700600,2.07270068359375,-4.444703864654898,-3.745508717083931,-2.245937098315358
1772609008523698700,2.08269873046875,-7.918975720223784,-3.924712607067823,-1.639145363023132
1772609008533696800,2.09269677734375,-9.368958255437017,-3.6090029820978637,-0.8349435613837093
1772609008543693600,2.102693603515625,-8.052313931089639,-2.953382187837362,-0.5857872334472835
1772609008553691600,2.112691650390625,-6.130646780818701,-2.8068419655710457,-0.49353155907616014
1772609008563689700,2.122689697265625,-5.635425222828984,-3.123319652304053,0.26678788274955
1772609008573687600,2.1326875,-7.322094699701666,-3.101495358508825,1.0608195514976977
1772609008583685600,2.142685546875,-9.599944939628243,-2.8012510136961937,1.1257021388400346
1772609008593683700,2.15268359375,-10.344791246783732,-3.039797319486737,1.1485774760581553
1772609008603681500,2.162681640625,-9.289646818313003,-3.400211763101816,0.7237447746768594
1772609008613679600,2.1726796875,-7.414319394412637,-4.096165736794472,0.37018114680461583
1772609008623677700,2.182677734375,-5.696124898463487,-4.657919914355873,0.16650274077765642
1772609008633675500,2.192675537109375,-4.451043589070439,-4.916708797708154,0.0716545656953007
1772609008643673600,2.202673583984375,-3.8582828633487223,-5.145162164029479,0.09021035921387374
1772609008653671700,2.212671630859375,-3.71559522485733,-5.163879139459133,0.3703895288582891
1772609008663669200,2.222669189453125,-3.5732501161932944,-4.913100544083118,0.7865279055219143
1772609008673667300,2.232667236328125,-3.197647455796599,-4.6772822019517415,1.3533021762676536
1772609008683664400,2.242664306640625,-2.6826754876762626,-4.543417921385169,1.5175576495751737
1772609008693662500,2.252662353515625,-2.049831757891178,-4.268824150657654,1.2195755506061017
1772609008703660500,2.26266064453125,-1.0931973880112171,-3.693543552047014,0.8547014241684228
1772609008713658400,2.272658447265625,0.21966975588500498,-3.04738207552731,0.632914895325154
1772609008723656400,2.282656494140625,1.6415660142987964,-2.282566162532568,0.4039319521717727
1772609008733654500,2.292654541015625,2.9557834037601944,-1.3486521585047244,0.1526005086859688
1772609008743652400,2.30265234375,3.9893998910337682,-0.33446985501945015,0.029132205655798313
1772609008753650400,2.312650390625,4.648949256914854,0.610392244002223,0.08074780833637342
1772609008763648500,2.3226484375,4.813064298838377,1.4159581005364656,0.006030475803278386
1772609008773646300,2.332646240234375,4.494594561505317,2.0288585279673335,-0.22795606605736538
1772609008783644400,2.34264453125,3.922765564653277,2.454009939908981,-0.44001993178222326
1772609008793642500,2.352642578125,3.2276842821419236,2.7834938232094046,-0.5250471162045374
1772609008803640300,2.362640380859375,2.5767729807466266,3.211006703585386,-0.6190292855747044
1772609008813638400,2.372638427734375,1.8615321227818726,3.520748944583535,-0.4583486385466531
1772609008823636200,2.38263623046875,1.183844458141923,3.6173832724303003,-0.08707196072344668
1772609008833633500,2.392633544921875,0.7037585099637508,3.665917293974757,0.16312142777629196
1772609008843631600,2.402631591796875,0.5422890141129494,3.7606139317572116,0.3865098388582468
1772609008853629400,2.41262939453125,0.9945464596450329,3.8387726917147633,0.5516631743209436
1772609008863627500,2.42262744140625,2.0909820989251138,3.848318518695235,0.5602967087620869
1772609008873625600,2.43262548828125,3.542890049242973,3.7527193791151046,0.4942692622335627
1772609008883623400,2.44262353515625,4.816106150752305,3.5765602636545895,0.5253652422429993
1772609008893621500,2.45262158203125,5.609297678881883,3.508760400626063,0.49437327059730884
1772609008903619300,2.462619384765625,5.883619646930694,3.578409106391668,0.2935829689609818
1772609008913617400,2.472617431640625,5.703160203927755,3.643441842794418,0.03038607817441225
1772609008923615500,2.482615478515625,5.055141701364517,3.6734675632238387,-0.24810499225258825
1772609008933613300,2.49261328125,4.1381788321375845,3.7842157566189765,-0.3871627863416448
1772609008943611400,2.502611328125,3.2849270953208207,3.9120892723381515,-0.39477074059471484
1772609008953609500,2.512609375,2.7420599890589714,4.010179059690237,-0.44956681820861993
1772609008963607300,2.522607177734375,2.6216356203019617,4.006041229233145,-0.4728171992842108
1772609008973604400,2.532604248046875,2.8842992992609737,3.778153095579147,-0.3298401493921876
1772609008983602200,2.542602294921875,3.2780314905881878,3.5197634406775236,-0.18114196364069357
1772609008993600300,2.552600341796875,3.2635283334612843,3.2310786007553336,-0.032072168097831304
1772609009003598300,2.562598388671875,2.9021196181118487,2.8426509455770255,0.06958758669551461
1772609009013596400,2.572596435546875,2.2491046224355697,2.2908868316322564,0.2525854073359631
1772609009023594500,2.582594482421875,1.6527672072708606,1.6573498588860034,0.4175063040159642
1772609009033592600,2.592592529296875,1.6629694523334502,0.932631563001871,0.4672370610643178
1772609009043590400,2.60259033203125,2.2796423840403555,0.09958557886779308,0.4761191634390503
1772609009053588500,2.61258837890625,2.6794752303302287,-0.45841830624938007,0.02913616944486275
1772609009063586600,2.622586669921875,1.5920470733702181,-1.2881179025650025,-0.6257286370828747
1772609009073584400,2.63258447265625,-0.8670558057636022,-2.3446757049649953,-1.1512984254546463
1772609009083582500,2.64258251953125,-3.301304814147949,-3.5446734255284067,-0.8875300001241266
1772609009093580500,2.65258056640625,-4.476827434146404,-3.7429397433787583,-0.486167898440361
1772609009103578400,2.662578369140625,-4.955352124357224,-2.2254607119977474,-1.8029150986403226
1772609009113575400,2.672575439453125,-5.321501312232018,-2.3334534692049025,-1.60859094254449
1772609009123573200,2.6825732421875,-5.303390486001968,-2.867361023941636,-0.3384801501067355
1772609009133571300,2.6925712890625,-5.2699990885317325,-2.8574492862582206,0.7303462918337434
1772609009143569400,2.7025693359375,-5.756069956338405,-2.8508336675107477,1.8303743295826016
1772609009153567200,2.712567138671875,-6.185915663576126,-2.829164272016287,2.4476354364410042
1772609009163565300,2.7225654296875,-6.134168525204062,-3.1228017659097906,2.4402708990223703
1772609009173563400,2.7325634765625,-5.473059654921293,-3.725888655334711,1.671294359216839
1772609009183561200,2.742561279296875,-4.4025329484015705,-4.169831276986002,0.8957919978391379
1772609009193559300,2.752559326171875,-3.2895728753000495,-4.740832590842246,0.9231882465478032
1772609009203557400,2.762557373046875,-2.449920040246844,-5.360197830373049,1.5476960365988313
1772609009213555500,2.772555419921875,-1.8740292007833719,-5.785048213541508,2.1019811934538186
1772609009223553500,2.782553466796875,-1.4455553664207457,-5.721201472052932,1.7504028211146592
1772609009233551600,2.792551513671875,-1.194333118930459,-5.049605110025405,0.7799094372302293
1772609009243549400,2.802549560546875,-1.006610991448164,-3.9686253985524176,-0.014283491060812956
1772609009253546500,2.81254638671875,-0.6983920144945382,-2.782508903825283,-0.15832816561777144
1772609009263544300,2.82254443359375,-0.13979834679067135,-1.7073393399357795,0.08828277041846885
1772609009273542400,2.83254248046875,0.5366951396286487,-1.0920774440705776,0.5324541410580277
1772609009283540500,2.84254052734375,1.025714335846901,-0.7748258503556251,0.5546425554579123
1772609009293538300,2.852538330078125,1.2416922514766453,-0.5319622658878564,-0.09927578226625919
1772609009303536400,2.862536376953125,1.34834353094697,-0.2620809106349945,-0.9343288684390485
1772609009313534500,2.872534423828125,1.2896452582627533,-0.031472996628284455,-1.653911408869922
1772609009323532300,2.8825322265625,1.1571055042982101,0.38331425768733024,-1.9441629135869443
1772609009333530400,2.8925302734375,0.9841302795708179,1.1195640014111996,-1.708685932239145
1772609009343528400,2.902528564453125,0.7758078471302986,1.8683973323762415,-0.856132845211029
1772609009353526300,2.9125263671875,0.42173371245265007,2.5773499038517476,0.2725077947663143
1772609009363524400,2.9225244140625,-0.027878771528601645,3.0147897194802757,1.2340046195834875
1772609009373522400,2.9325224609375,-0.43132337857484815,3.026500031018257,1.9084999179229138
1772609009383520300,2.942520263671875,-0.5331289715796709,2.939673395958543,2.0750851493522524
1772609009393517600,2.952517578125,-0.023436405166983604,2.9387603727668523,1.4955132832884788
1772609009403515400,2.962515380859375,1.038190955582261,2.8944512754410505,0.7142675559531897
1772609009413513500,2.972513427734375,2.29903039059937,2.721685894072056,0.18989174487264826
1772609009423511600,2.982511474609375,3.439194112446904,2.6612065831899643,-0.06216428656065836
1772609009433509400,2.99250927734375,4.211315964540839,2.7681565533459187,-0.20446018578810615
1772609009443507500,3.002507568359375,4.560742565673589,2.9155355645239354,-0.2806068204719573
1772609009453505500,3.012505615234375,4.449652426972985,3.0773645413368937,-0.3833149152744561
1772609009463503400,3.02250341796875,3.926517610663175,3.2310996435433625,-0.36115306008793413
1772609009473501400,3.03250146484375,3.2567677532851693,3.4099925678819414,-0.3443512706298381
1772609009483499300,3.042499267578125,2.568682613271475,3.4480122096747157,-0.3311933906320482
1772609009493497300,3.052497314453125,2.0429712244719265,3.429766943410039,-0.43048422433696687
1772609009503495400,3.062495361328125,1.9403075533330438,3.379631331887841,-0.6178507433146238
1772609009513493200,3.0724931640625,2.217104387062788,3.266677152881026,-0.41433056005667895
1772609009523491300,3.0824912109375,2.5606173802375793,3.119825380447507,-0.03565826468998566
1772609009533488600,3.092488525390625,2.715364289835095,2.9277877278536555,0.19186130964625625
1772609009543486500,3.102486572265625,2.7749060276061295,2.580488786399364,0.34400019216984506
1772609009553484500,3.112484619140625,2.7285411667943,1.7521651546120642,0.5463382895037532
1772609009563482600,3.122482666015625,2.6654876215100285,0.8617132756918668,0.29925160744823515
1772609009573480400,3.13248046875,2.5406962897151706,0.20152093573212623,-0.36253943641241637
1772609009583478500,3.142478515625,2.127518224161863,-0.06626490854620933,-1.2345841730371117
1772609009593476400,3.152476318359375,0.6834814456105232,-0.35446868695318695,-1.8204346809789538
1772609009603474400,3.162474365234375,-1.9787761079370974,-1.1337667142868042,-1.3774780016250907
1772609009613472500,3.172472412109375,-4.5785967867940665,-1.753797724249959,-0.5761582582280039
1772609009623470300,3.18247021484375,-5.7825195718467235,-2.293455805337429,0.17942160612149163
1772609009633468400,3.192468505859375,-4.7832794014275075,-2.3035089973181484,-0.28724417612720277
1772609009643466500,3.202466552734375,-2.7285657167136668,-2.3551357241809368,-1.2767524589419363
1772609009653464300,3.21246435546875,-1.2282517551451921,-3.3065053054004907,-1.1353855476602912
1772609009663463000,3.222462890625,-1.2401923683077096,-3.8854584550440308,-0.654568654859066
1772609009673460000,3.2324599609375,-3.1384277895867823,-3.721567869526148,0.12087408528588711
1772609009683457800,3.242457763671875,-5.449337418550253,-3.4126229163855313,1.162888033222407
1772609009693456000,3.252455810546875,-6.724891023096442,-3.3989930349618196,2.1148435976363715
1772609009703454000,3.262453857421875,-6.874893953037262,-3.7459909476429223,2.276868243151903
1772609009713451800,3.27245166015625,-5.856869002649188,-4.1174855881989,1.4474458563424646
1772609009723449900,3.282449951171875,-4.031675436705351,-4.590288393631577,0.6585624006703495
1772609009733447700,3.29244775390625,-2.1491870351344344,-5.25866520909071,0.7471927241511642
1772609009743445800,3.30244580078125,-0.9041922349810599,-6.103970370817184,1.6716358661308883
1772609009753443800,3.31244384765625,-0.83915949857831,-6.787623081341385,2.500439682650566
1772609009763442000,3.32244189453125,-1.610561219704151,-6.5134846531659365,2.130556861205399
1772609009773440000,3.33243994140625,-2.107709946364164,-5.433388154268265,1.179606674441695
1772609009783438000,3.34243798828125,-1.8360136506438254,-4.062833376035094,0.6870670490123331
1772609009793436000,3.352435791015625,-0.9164186793476342,-2.8116075725376604,0.5423556861409917
1772609009803434000,3.36243408203125,0.5221557421445846,-1.659411467590928,0.45573728700447824
1772609009813430800,3.3724306640625,2.134342517223954,-0.8457850541979074,0.19424645121712236
1772609009823428900,3.382428955078125,3.568289278915524,-0.33257892670631406,-0.35838286472223696
1772609009833427000,3.392427001953125,4.632039038646221,-0.09171616066694259,-1.077139694918692
1772609009843424800,3.4024248046875,5.09799417014122,0.18243220438063143,-1.7642809782110154
1772609009853422800,3.4124228515625,4.69319464135468,0.6769476599276065,-2.017478617427498
1772609009863421000,3.4224208984375,3.562129587242007,1.2237065129309892,-1.7005800749339162
1772609009873418800,3.432418701171875,2.3325416150569915,2.121744901457429,-1.203133607436344
1772609009883416800,3.442416748046875,1.0968927353978157,3.129388743084669,-0.6808902600735426
1772609009893415000,3.452414794921875,-0.05948503914773464,3.7383775500297545,0.08753626290010288
1772609009903412700,3.462412841796875,-0.7389525729417801,4.154734245619178,0.9138163878947496
1772609009913410800,3.472410888671875,-0.8538736681073904,4.439856424623727,1.4976973493292927
1772609009923409000,3.482408935546875,-0.3357698317021131,4.546460357820988,1.6790553486071527
1772609009933406700,3.49240673828125,0.8915928656488656,4.614413365584611,1.3570131596148014
1772609009943404800,3.50240478515625,2.3955156653642655,4.6557905011117455,0.9486734009381383
1772609009953401900,3.51240185546875,3.8131589425086974,4.643076565489173,0.562618064381741
1772609009963400000,3.52239990234375,4.825668344345688,4.60028021081388,0.276446814715676
1772609009973398000,3.53239794921875,5.393233838534355,4.534730172538757,0.22083547519613056
1772609009983395800,3.542395751953125,5.477815325015783,4.563285235893726,0.19528350264728067
1772609009993394000,3.552393798828125,5.021209621146321,4.6476177160501475,0.13592097563436253
1772609010003392000,3.56239208984375,4.188821224138141,4.763391628652811,-0.08248115320131182
1772609010013389800,3.572389892578125,3.3218285467386246,4.83454255567491,-0.4217504443917423
1772609010023388000,3.582387939453125,2.4865035117566583,4.770671848788857,-0.785188985068351
1772609010033386000,3.592385986328125,1.718643993282318,4.713820080754161,-1.0029721965543925
1772609010043383800,3.6023837890625,1.3145055587530134,4.657994733157754,-1.0549891648437828
1772609010053382000,3.6123818359375,1.3274316758215428,4.568011679893732,-0.8698104382339864
1772609010063380000,3.6223798828125,1.7303531357765196,4.388294579690695,-0.5196115375544875
1772609010073377800,3.632377685546875,2.313672079414129,4.047822853907943,-0.07242598845921457
1772609010083375900,3.6423759765625,2.710845935627818,3.706442196586728,0.3121238754376769
1772609010093373000,3.652373046875,2.79911283262372,3.134021663582325,0.5370020136207342
1772609010103371000,3.66237109375,2.6494249599814412,2.1371371163785455,0.4042485438402742
1772609010113369000,3.672369140625,2.3920517886459827,0.928345848506689,0.054695247587934134
1772609010123367000,3.682366943359375,2.0819594190359116,-0.23242869969308375,-0.35589101137388496
1772609010133365000,3.692364990234375,1.6509300549715757,-0.8347773379713297,-1.0191185908436775
1772609010143363000,3.702363037109375,0.4855693480253219,-1.3127350419491528,-1.577242156817764
1772609010153361000,3.71236083984375,-2.3360475773513314,-2.480948800238967,-1.1652781432293355
1772609010163359000,3.72235888671875,-5.78920357965529,-3.884814896443486,-0.2616864314246923
1772609010173357000,3.732357177734375,-8.130929202643037,-4.834964580479264,0.2375590483188629
1772609010183355000,3.74235498046875,-8.087686857765913,-4.086236463454365,-1.0663603806205093
1772609010193353000,3.75235302734375,-6.502739387267828,-3.6231419820874926,-2.152278279148042
1772609010203351000,3.76235107421875,-5.038979671114683,-4.592518344640731,-1.0658038427162915
1772609010213348900,3.772348876953125,-4.627873735660314,-5.059980958089232,0.48534715664200484
1772609010223347000,3.782346923828125,-5.553964498716592,-4.6958103768110275,1.190409223484993
1772609010233343700,3.79234375,-6.258484056180715,-4.119968637186289,1.129212704244256
1772609010243341800,3.802341796875,-5.553517923992872,-4.518058439201116,1.0473698489464818
1772609010253340000,3.81233984375,-3.839756442055106,-5.318030421251058,0.9760169696114956
1772609010263337700,3.822337646484375,-2.028209124147892,-5.880949550938606,1.0204641602337359
1772609010273335800,3.832335693359375,-0.4878028061658144,-6.187970258018374,1.3056864386118947
1772609010283334100,3.842334228515625,0.6554846006602049,-6.602042642062902,1.9000195282168686
1772609010293332000,3.85233203125,1.198577916893363,-7.254324062767624,2.725937121775746
1772609010303330000,3.862330078125,1.1497767688453198,-7.5761401879191395,3.238211521375179
1772609010313327900,3.872327880859375,0.6009212358236312,-7.221987727308273,2.740579395112395
1772609010323326000,3.882325927734375,-0.28575112455785273,-6.355217752748727,1.4451820030637084
1772609010333324000,3.892323974609375,-0.946734907156229,-5.229293568655848,0.17924436812475322
1772609010343321900,3.90232177734375,-1.065828904092312,-3.9408670385330913,-0.6562975244782865
1772609010353320000,3.91231982421875,-0.5599684631884098,-2.5441426307767627,-0.9669404406432062
1772609010363318000,3.922318115234375,0.4140367282092571,-1.407685946753621,-0.6929387175247073
1772609010373314800,3.932314697265625,1.6587854446470736,-0.6801163530915976,-0.0998301282133907
1772609010383313000,3.94231298828125,2.8630016596883534,-0.03837503110170364,0.31865722272917624
1772609010393310700,3.952310791015625,3.5844402032494544,0.586467763057351,0.2164273398976773
1772609010403308800,3.962308837890625,3.789158473718166,1.1043249312251806,-0.2602660432327539
1772609010413307000,3.972306884765625,3.6497283757179972,1.6442138984590768,-1.0107084898948668
1772609010423304700,3.9823046875,3.3416648815870285,2.1394763729810715,-1.7436339115016162
1772609010433302800,3.992302734375,3.037902884042263,2.8498773896992207,-2.0843039363354445
1772609010443300900,4.00230078125,2.7534453064262867,3.6884991281390187,-2.021421217573434
1772609010453298700,4.012298583984375,2.490141575998068,4.613009928527474,-1.418868435025215
1772609010463296800,4.022296875,2.32200677703917,5.209381830483674,-0.2960061957862228
1772609010473294800,4.032294921875,2.340420385608077,5.286654455256461,0.7495473975185304
1772609010483293000,4.04229296875,2.2505518986344337,5.181484354254603,1.24120373730734
1772609010493291000,4.052291015625,2.0990818187505007,4.9597366230517625,1.0858433719865976
1772609010503287800,4.062287841796875,2.2263076842159033,4.574176047742366,0.5114550460405648
1772609010513286000,4.072285888671875,2.651317057338357,4.216905162850022,0.009582213468104601
1772609010523284000,4.082283935546875,3.225475373920798,3.9165789849728343,-0.24126630533896384
1772609010533281800,4.09228173828125,3.7898534702450033,3.8487358673244714,-0.3250442203525454
1772609010543279900,4.10227978515625,4.1739620931804176,3.9674528476417064,-0.3344952086564153
1772609010553278000,4.11227783203125,4.276920947873593,4.065795148450136,-0.2484909228302538
1772609010563275800,4.12227587890625,3.9909529656946656,4.087991782689095,-0.057579497787356375
1772609010573273900,4.13227392578125,3.5845348957955836,4.103962674281001,-0.0560958351008594
1772609010583272000,4.14227197265625,3.204945211589336,3.9738171219766136,-0.15263210940063
1772609010593269800,4.152269775390625,2.938268789857626,3.76222136695385,-0.2590034028857946
1772609010603267800,4.162267822265625,2.828087582695484,3.6418981204837557,-0.3546376868445426
1772609010613266000,4.172265869140625,2.9070044675439592,3.695479488545656,-0.22451938787326214
1772609010623263700,4.182263671875,3.1233073773443696,3.8668613066017627,0.07442454186528921
1772609010633261800,4.19226171875,3.2356367024511097,3.959066712090373,0.3385684494446963
1772609010643260000,4.202260009765625,3.1063018820077177,3.900378376278281,0.5155458955507726
1772609010653257000,4.212257080078125,2.583307350951433,3.4977649593591686,0.7528804143987595
1772609010663254000,4.22225390625,1.7929302957206963,2.769945774850249,1.186373465162888
1772609010673252000,4.232252197265625,1.1571698017060756,1.6996891174435615,1.7105274684526026
1772609010683250200,4.242250244140625,1.0838713412612675,0.7015601231366395,1.8699962920054791
1772609010693248000,4.252248046875,1.5389724857866762,-0.028140052813291547,1.4742065836265683
1772609010703246000,4.26224609375,2.18630943582654,-0.44851767448186874,0.5987118161458522
1772609010713244000,4.272243896484375,2.2265736416757105,-0.9689379711359739,-0.26394685063734646
1772609010723242000,4.282241943359375,0.8426730596572161,-2.7788468741863963,-0.22294384565223008
1772609010733240000,4.292239990234375,-1.280991996207833,-5.477662764802575,0.44665009051170196
1772609010743238000,4.30223779296875,-2.749160760974884,-6.228779238268733,-0.8535317228019237
1772609010753236000,4.312236083984375,-3.858693782237172,-5.203248442295194,-3.234671656811237
1772609010763234000,4.322234130859375,-5.676024944242835,-4.992050162157416,-3.5244252950087187
1772609010773231900,4.33223193359375,-8.360905248486995,-5.0440731948614115,-1.658631715390086
1772609010783229200,4.342229248046875,-10.842195994031428,-4.691596558508277,0.8678264248099178
1772609010793227000,4.35222705078125,-11.92003565391302,-3.824394037750363,2.1125803288795053
1772609010803225000,4.36222509765625,-11.185258905351162,-3.299841171336174,2.0268872278943655
1772609010813223200,4.37222314453125,-9.220871388250588,-3.8865170241862534,1.5948010482534765
1772609010823221000,4.382220947265625,-6.965286171624064,-4.920827923464775,1.3319327866330741
1772609010833219000,4.392218994140625,-4.990899823078513,-6.234859434965252,1.7214163806051015
1772609010843217200,4.402217041015625,-3.122913409590721,-7.417252525255083,2.326140954234451
1772609010853215000,4.412215087890625,-1.5125976890802382,-8.168858243542909,2.7392671434700486
1772609010863213000,4.422213134765625,-0.8552502171576023,-8.28812642800212,2.802733945730328
1772609010873211100,4.432211181640625,-1.251488253825903,-7.349033560031652,2.0388304714053866
1772609010883209000,4.442208984375,-2.0157500400692223,-6.063164313176274,1.0932814130328594
1772609010893207000,4.45220703125,-2.308531793916225,-4.8421729044228785,0.6365671342223882
1772609010903205000,4.462205078125,-1.9376374573409556,-3.4386686272680755,0.3730021225094795
1772609010913203000,4.472202880859375,-1.169886659938097,-2.296197213000059,0.15400822005942463
1772609010923200300,4.4822001953125,-0.08253799795508385,-1.5529817219167947,-0.014991707828827201
1772609010933198000,4.492197998046875,1.1834966676175593,-1.0236515580981969,-0.1011006230732426
1772609010943196200,4.502196044921875,2.3861714984357354,-0.548630492094159,-0.19141831511911003
1772609010953194200,4.5121943359375,3.4980665726542473,0.1433119078695774,-0.4314541653476655
1772609010963192000,4.522192138671875,4.335657214480638,0.887718654564023,-0.5909036996781826
1772609010973190100,4.532190185546875,4.731816925215721,1.5043635292202233,-0.606021993028745
1772609010983188200,4.542188232421875,4.422316676279902,1.9348691616714,-0.6459311748951673
1772609010993186000,4.55218603515625,3.4042654224067923,2.312510049897432,-0.7617606901425867
1772609011003184000,4.56218408203125,2.051678262540698,2.6640479440957305,-0.9482079023182391
1772609011013182200,4.57218212890625,0.7838461921572685,3.0122488028258085,-1.0599359735962002
1772609011023180000,4.582179931640625,-0.11199147145450114,3.4744904667556282,-1.1904505784086883
1772609011033178000,4.59217822265625,-0.16282792472243307,3.756968853253126,-1.1211838576979936
1772609011043176200,4.60217626953125,0.7763076133459806,3.7309248959362504,-0.8099489669892936
1772609011053174000,4.612174072265625,2.182394892731309,3.8220173717468975,-0.5155865563547238
1772609011063171000,4.622171142578125,3.507456916812062,3.9287919853359456,-0.24471271946579218
1772609011073169000,4.6321689453125,4.514988530236482,4.088939877194166,0.02271492249201983
1772609011083167000,4.6421669921875,5.097260010647774,4.183714840909839,0.3302979030970484
1772609011093165000,4.6521650390625,5.113156667959689,4.128948062455654,0.4875012294033542
1772609011103163000,4.662162841796875,4.668365320524573,4.088972610419988,0.3311412585860118
1772609011113161000,4.672160888671875,4.152338290393352,4.029977985137701,0.0005238046783953904
1772609011123159300,4.6821591796875,3.793071263247728,3.957347048690915,-0.23120419939942657
1772609011133157000,4.6921572265625,3.6747576030343767,3.9986014346212144,-0.3959069780830294
1772609011143155200,4.7021552734375,3.874070799589157,4.052371018731594,-0.5216634285829961
1772609011153153300,4.7121533203125,4.207680822908878,3.996510599821806,-0.5465093717543408
1772609011163151000,4.722151123046875,4.487878989514709,3.862753871282935,-0.6253861072555184
1772609011173149200,4.732149169921875,4.575368472397328,3.7203339438170193,-0.5792642979519441
1772609011183147000,4.74214697265625,4.263867989555001,3.456557919701934,-0.3476923246860504
1772609011193145000,4.75214501953125,3.4460505542129276,3.13738792514503,-0.15741689599175004
1772609011203142100,4.76214208984375,2.174052596321702,2.454119830024242,0.10185597148519009
1772609011213140000,4.772139892578125,0.9539052371770143,1.2933710007876158,0.4867490227965638
1772609011223138000,4.782137939453125,0.2652712311089039,0.14455986210405825,0.6526093374848365
1772609011233136000,4.79213623046875,0.46510348310172556,-0.8502747668325901,0.6258937645167112
1772609011243134000,4.802134033203125,1.2895821298986672,-1.4536293672829865,0.0516361888108775
1772609011253132000,4.812132080078125,1.6011159304887055,-2.3059768487364054,-0.867035639758408
1772609011263130000,4.822130126953125,0.606733136972785,-4.94122189219594,-0.31101865414213387
1772609011273128000,4.8321279296875,-0.038792379730939866,-5.994779928258061,-0.9684683077976107
1772609011283126000,4.8421259765625,-0.679375179335475,-4.776341126596927,-3.2464094408780335
1772609011293123800,4.852123779296875,-3.8779993712097403,-4.590740229052305,-3.2379777126193043
1772609011303122000,4.862121826171875,-8.660561564278602,-4.010388318526744,-2.0073609819084406
1772609011313120000,4.8721201171875,-12.811226953023672,-3.312348186209798,-0.6179357912495732
1772609011323118000,4.8821181640625,-14.456664255797863,-2.6603479205340146,0.17544256468899547
1772609011333115100,4.892115234375,-12.438520598590372,-1.1691215207844972,-0.7936194712180644
1772609011343113200,4.90211328125,-8.833192505612969,-2.3483248751223087,-0.19843590226359664
1772609011353111000,4.912111083984375,-4.516733328077197,-4.085307658171653,0.6696624713554978
1772609011363109000,4.922109130859375,-0.9434452179610728,-5.159866981208324,0.6232149006962776
1772609011373107000,4.93210693359375,0.9821873288094997,-6.662617814534902,1.175253374603018
1772609011383105000,4.94210498046875,1.5030208824396132,-7.155645661872625,1.2629402066886424
1772609011393103000,4.95210302734375,1.0378092627882958,-7.166376314723491,1.4552005621224642
1772609011403101000,4.962100830078125,0.03310848887562751,-6.459568354061245,1.0666197622090579
1772609011413099000,4.97209912109375,-0.8862783926278353,-5.139642523825168,0.16081026475708932
1772609011423097000,4.98209716796875,-1.3941396519601343,-3.387825744259357,-0.532090312714316
1772609011433095000,4.992094970703125,-1.2847954801440238,-1.6365736128389834,-0.7255062313914299
1772609011443093000,5.002093017578125,-0.5064519770562649,-0.3279121039390564,-0.314933927889727
1772609011453091000,5.012091064453125,0.9635054246932268,0.5876812305003404,0.17256996839474886
1772609011463089000,5.0220888671875,2.828553446641564,1.114905946472287,0.46076556349527087
1772609011473086200,5.032086181640625,4.663994265833497,1.407145264005661,0.5351733368888497
1772609011483084000,5.042083984375,6.113924194076657,1.7072539997398852,0.45526517598070204
1772609011493082000,5.05208203125,6.64516515995264,2.1505320200026032,0.4449562556732446
1772609011503080200,5.062080078125,6.030350423333048,2.6915771715342998,0.4859484835360199
1772609011513078000,5.072078125,4.654930669412017,3.3692315184265373,0.6237114520415663
1772609011523076000,5.082076171875,3.177842100608349,4.296742669674754,0.7120278872676193
1772609011533074200,5.09207421875,1.9380705880612135,5.0320150927990674,0.8262070780247449
1772609011543072000,5.102072021484375,1.0754016190797089,5.40769607912898,1.1338044159486889
1772609011553070000,5.112070068359375,0.7834498863160609,5.407772651496529,1.382067375241965
1772609011563068200,5.122068115234375,1.2718038966238498,5.07106232407391,1.3820035162255166
1772609011573066000,5.13206591796875,2.2119664396524428,4.6364498408257955,1.2459811808422208
1772609011583064000,5.14206396484375,2.9485663119882344,4.2424049302875995,0.7548905121121555
1772609011593062100,5.152062255859375,3.209554166689515,3.8324388125181197,0.18755099043278023
1772609011603060000,5.16206005859375,3.0587954499453303,3.450975735655427,-0.2022488298815675
1772609011613057000,5.17205712890625,2.586274968585372,3.2091087610095737,-0.3400888274123892
1772609011623055000,5.18205517578125,2.142299029186368,2.9590397752076387,-0.5285598735658451
1772609011633053200,5.19205322265625,1.8945102632761,2.755345002567768,-0.7040860614176839
1772609011643051300,5.20205126953125,1.7231880664527415,2.6401860069930554,-0.8509032009292393
1772609011653049000,5.212049072265625,1.6256185035824775,2.5761428661495445,-1.0148338992618025
1772609011663047000,5.222046875,1.6842647538185118,2.527555068591237,-1.1901008881881832
1772609011673044700,5.232044677734375,1.7631109115183352,2.48383341576457,-1.352961984527856
1772609011683042800,5.242042724609375,1.7016279765516518,2.391103109619021,-1.4947195025622844
1772609011693041000,5.252041015625,1.245818391495943,1.9664695840716362,-1.371103936548531
1772609011703038700,5.262038818359375,0.5955944878429174,1.3908026164919136,-1.1267532553281634
1772609011713036800,5.272036865234375,0.15976503002047537,0.7541127326726913,-0.8445802084527909
1772609011723035000,5.282034912109375,-0.019332476979494095,-0.06634206543564795,-0.37177912005316466
1772609011733032700,5.29203271484375,-0.05695873554050922,-0.7135515897035598,-0.3862512609872967
1772609011743029800,5.30202978515625,-0.24717209531664847,-1.262763681077957,-0.9811473182372749
1772609011753027600,5.312027587890625,-1.223469781565666,-2.259254845049977,-1.3961715961791574
1772609011763025700,5.322025634765625,-3.1748078474789856,-3.4229157623410225,-1.445019359847903
1772609011773023700,5.332023681640625,-5.260218868273497,-4.468645881256461,-1.0570523079186678
1772609011783020800,5.342020751953125,-5.8331344913184635,-4.745799273338914,-0.6840963626384735
1772609011793019000,5.352018798828125,-4.638523139968514,-3.188567492762208,-1.8256269889250396
1772609011803016700,5.3620166015625,-4.323068366542458,-2.878798948279023,-1.4419170099183916
1772609011813014800,5.372014892578125,-5.62733836248517,-2.8991771349191664,-0.4227579044012353
1772609011823012900,5.382012939453125,-7.299117728739977,-2.9046394919782874,0.2724958120675757
1772609011833010700,5.3920107421875,-8.4528049490273,-2.6739164271593094,0.7644077705852687
1772609011843008800,5.4020087890625,-8.753616280072928,-2.1599743866086003,0.8695555136248468
1772609011853006800,5.4120068359375,-8.055451644593477,-2.1638895142257213,1.015381669337675
1772609011863004700,5.422004638671875,-6.505582501739263,-2.7192531139671803,1.101644313839078
1772609011873002800,5.432002685546875,-4.682683184212446,-3.2231945695072413,1.02429380152449
1772609011883000800,5.442000732421875,-3.2254221824288365,-3.745698686698079,1.2759081170722841
1772609011892998700,5.45199853515625,-2.2919722887814045,-4.18341439665854,1.8667456196464598
1772609011902996700,5.461996826171875,-1.7342869680941104,-4.418213332614302,2.5141353227868675
1772609011912993800,5.471993896484375,-1.458356395804882,-4.371043585160375,2.6401930212557314
1772609011922991900,5.481991943359375,-1.3345429691314696,-4.091970623192191,1.9803709759131072
1772609011932990000,5.491989990234375,-0.9533359128564596,-3.682894147738814,1.0766488426618277
1772609011942987800,5.50198779296875,-0.13417173908054827,-3.0482407381832597,0.49310295840054746
1772609011952985900,5.51198583984375,1.0878004974037407,-2.230002447080612,0.21167232739031314
1772609011962984000,5.52198388671875,2.6287024899482727,-1.4062784180432557,0.024589959116280077
1772609011972981800,5.531981689453125,4.347659202441573,-0.5886690724939108,-0.11980225480329244
1772609011982979800,5.541979736328125,5.888615555521845,0.31305121941566466,-0.3659759501997381
1772609011992978000,5.55197802734375,6.610446313270926,1.1285153696298598,-0.6175964762926102
1772609012002975700,5.561975830078125,6.190965932703018,1.8041349958240984,-0.8275270015168935
1772609012012973800,5.571973876953125,5.123529593414068,2.3583757290154694,-0.892782075433433
1772609012022972000,5.581971923828125,3.8476007258147,2.779461206692457,-0.8759663305152207
1772609012032969700,5.5919697265625,2.6055782194703814,3.2510493756383654,-0.7531312473546713
1772609012042967800,5.6019677734375,1.5266647928774355,3.752162914276123,-0.6921351460568607
1772609012052964600,5.611964599609375,0.6698340285301209,4.169031066519022,-0.5830979943633079
1772609012062962700,5.621962646484375,0.2565326288580894,4.452227830418944,-0.3872464825697243
1772609012072960800,5.631960693359375,0.29137597870230675,4.516841464626789,-0.11161865608673542
1772609012082958600,5.64195849609375,0.9245090468227862,4.485985138592124,0.22672851529009638
1772609012092956700,5.651956787109375,2.0184972929507494,4.546276233425736,0.532548833604157
1772609012102954800,5.661954833984375,3.111096715068817,4.557051309940219,0.8389098346661776
1772609012112952800,5.671952880859375,3.919461262410879,4.440641437521577,1.1281759816076606
1772609012122951000,5.681950927734375,4.487757408961653,4.368488639980554,1.3080959839716553
1772609012132949000,5.691948974609375,4.784895019930601,4.437034352940321,1.275283263172209
1772609012142947600,5.701947509765625,4.570077964773774,4.401403652110695,0.925016996344924
1772609012152945000,5.71194482421875,3.9141596488714216,4.313419079187512,0.3710505135176703
1772609012162943000,5.72194287109375,3.213285754433274,4.304852326372266,-0.0807074945922941
1772609012172940800,5.73194091796875,2.7136183229506012,4.325685855564474,-0.395363080464676
1772609012182939000,5.74193896484375,2.4377052863180637,4.332625299438834,-0.7352749073423445
1772609012192937000,5.75193701171875,2.4322066889017817,4.297034930619597,-0.9700861182577908
1772609012202934800,5.761934814453125,2.5377573136538265,4.129598050796985,-0.9926498322434723
1772609012212932900,5.771932861328125,2.6656203079789877,3.9207407808274026,-0.7882784024510532
1772609012222930700,5.7819306640625,2.8245214146465063,3.6046751820266243,-0.5342610808821395
1772609012232928800,5.7919287109375,2.826537430644035,2.88531344473958,-0.08249357429146766
1772609012242926800,5.8019267578125,2.425585809457302,1.9066151270896194,0.3952753656486049
1772609012252924700,5.811924560546875,1.751080281984806,0.7344716281354426,0.7098062656953931
1772609012262922800,5.8219228515625,1.2891378932625055,-0.38819852259755133,0.5933545634290203
1772609012272920800,5.8319208984375,1.1061842953562735,-2.630643687143922,1.4615667361535132
1772609012282918700,5.841918701171875,2.372587794241309,-5.32809881080091,3.037313685977459
1772609012292915700,5.851915771484375,5.411105010789632,-3.554471765965223,-0.9956436072319745
1772609012302913800,5.861913818359375,6.074703359800576,-4.303988403019309,-3.3841379956573245
1772609012312912000,5.871911865234375,1.157170970749855,-5.657739345967769,-3.622548107847571
1772609012322910000,5.881909912109375,-6.597375234773755,-5.518678081279993,-2.9698592753857374
1772609012332907800,5.89190771484375,-13.394834650474786,-4.1864480652660125,-1.139745058044046
1772609012342905900,5.90190576171875,-16.619972755265234,-2.9326766689389943,0.5035018220137805
1772609012352904000,5.911904052734375,-16.64838285719156,0.9309037162959575,-1.6305081753201782
1772609012362901800,5.92190185546875,-14.604813666826486,-1.2740642427712678,-0.3315496932564303
1772609012372899800,5.93189990234375,-9.766721309715509,-3.0467250729233024,0.20293335981331764
1772609012382898000,5.94189794921875,-5.116153511688113,-4.1785388995766635,0.12894384836442768
1772609012392895700,5.951895751953125,-2.067771903729439,-6.459461971077323,1.0017254844289272
1772609012402893800,5.961893798828125,-0.776888628104329,-7.856228464409709,1.229917350269854
1772609012412892000,5.971891845703125,-1.9571721788942813,-7.826226124855875,0.9963709716584533
1772609012422889700,5.9818896484375,-3.8621313554704186,-7.613984473145008,1.690360294214636
1772609012432886800,5.99188671875,-5.409161475506425,-7.171895370405912,1.964691614613682
1772609012442884600,6.001884521484375,-6.005278525918722,-5.664031724110245,0.7345085260797292
1772609012452882700,6.011882568359375,-5.667933407723903,-4.347579122942686,0.18679807143993674
1772609012462880800,6.021880859375,-4.524342049515247,-3.2069740870684385,0.4256279434122145
1772609012472878600,6.031878662109375,-2.774852836114168,-2.183795407178998,1.351853292633593
1772609012482876700,6.041876708984375,-0.5593295807629823,-1.3373346456766129,1.9903888043195008
1772609012492874800,6.051874755859375,1.8658230979740618,-0.7865554511159658,1.9625015572234987
1772609012502872800,6.061872802734375,4.029461852309107,-0.33845278717577454,1.459173265145719
1772609012512871000,6.071870849609375,5.556718181338906,0.034433599999547,0.7977036717917769
1772609012522869000,6.081868896484375,5.867652262470126,0.2271802776455879,0.23964107875730842
1772609012532866800,6.09186669921875,5.666875423103571,1.4944973842442035,-1.1596113496392966
1772609012542865000,6.101864990234375,5.0051802773654455,1.8910446329921482,-0.7850188891984522
1772609012552863000,6.111863037109375,4.248011079731583,3.1202707861274477,-0.8125362800687551
1772609012562859800,6.12185986328125,3.515288341090083,4.138227347454428,-0.6470167051095516
1772609012572857900,6.13185791015625,2.6150018813759086,4.539203518560528,-0.4167162130841985
1772609012582855700,6.141855712890625,1.568986515778303,4.493685045444965,-0.07544807622674853
1772609012592853800,6.151853759765625,0.951589361450076,4.263390435171127,0.2039591957297176
1772609012602851800,6.161851806640625,1.293968966680765,4.188994242617488,0.3495594702647999
1772609012612849700,6.171849609375,2.4356781644046306,4.2222745809286835,0.6607308307506143
1772609012622847700,6.18184765625,3.89086820513308,4.2370629847377534,1.0026399689253418
1772609012632845800,6.191845703125,5.317506105116009,4.248327306073904,1.2174311589885503
1772609012642843600,6.20184375,6.4513084752380845,4.2599043466210365,1.462083745764941
1772609012652841700,6.211841796875,6.609835487896204,4.37722607318759,1.360935886016488
1772609012662840800,6.2218408203125,5.847791962224245,4.35749378323555,0.8947389085896312
1772609012672838700,6.231838623046875,4.6659383856385945,4.213456483700871,0.20339662994351237
1772609012682836700,6.241836669921875,3.407802364361286,3.999250253918767,-0.30799174406901
1772609012692834800,6.251834716796875,2.388509585994482,4.013488622629643,-0.6196466868206858
1772609012702831900,6.261831787109375,1.8307295727610586,4.004433209514618,-0.6278104117929935
1772609012712830000,6.271829833984375,1.8909207143515347,3.917075244057178,-0.3088801077434793
1772609012722827800,6.281827880859375,2.348427166453004,3.7300738320648668,0.04431348123997449
1772609012732825900,6.291825927734375,2.631435714304447,3.3657769940584896,0.40720845309179277
1772609012742824000,6.301823974609375,2.6467449271172283,2.7367273958593605,0.6540784601893276
1772609012752821800,6.31182177734375,2.6058622971087693,1.679154278936982,1.0039956943832338
1772609012762819800,6.32181982421875,3.0141268716573713,0.5329910244137048,1.0929241240277885
1772609012772818000,6.33181787109375,3.8145202939897773,-0.4755623332738876,0.6354748089410365
1772609012782815700,6.341815673828125,4.199408669126034,-0.9754390235930681,-0.4427699611427262
1772609012792813800,6.351813720703125,2.9151357515513894,-1.3781383652299641,-1.5266536869615315
1772609012802812000,6.36181201171875,-0.2805424499988556,-2.137983504074812,-2.0647559169091285
1772609012812809700,6.371809814453125,-3.944701502129435,-2.659012288016081,-2.2478769803367555
1772609012822807800,6.381807861328125,-6.980005017328262,-2.788099855700135,-2.320691602787375
1772609012832806000,6.391805908203125,-8.684595350816846,-2.706289587497711,-1.795622019022703
1772609012842802700,6.401802734375,-8.585487910854816,-2.90832782510221,-0.4326422791536897
1772609012852800800,6.41180078125,-6.220194949796795,-2.5351743114233014,-0.056227973580546674
1772609012862798600,6.421798583984375,-2.942776622670889,-2.3019611833542584,-0.36630598587170243
1772609012872796700,6.431796630859375,-1.4696873526364564,-3.0764439193606377,-0.10886069914810359
1772609012882794800,6.441794677734375,-2.568116796082258,-3.760668876814842,0.09759498957246542
1772609012892792600,6.45179248046875,-5.043350141283869,-3.7760312811195846,-0.29087723539993166
1772609012902791000,6.461791015625,-6.888859934547543,-3.7746091393619774,-0.5566098004102706
1772609012912789000,6.4717890625,-7.496817644879221,-3.776858379593491,-0.5992396394122391
1772609012922786800,6.481786865234375,-7.114711009415983,-3.938882586717605,-0.3980321535434574
1772609012932785000,6.491784912109375,-5.567271139535308,-4.173582153952122,-0.1228161592643708
1772609012942783000,6.501782958984375,-3.6505636574983593,-4.4349148765683175,0.029812954461574552
1772609012952780800,6.51178076171875,-2.361267358803749,-4.737863219642639,0.4209807751934975
1772609012962779000,6.52177880859375,-1.758553394344449,-4.906294955721497,0.5507645815134048
1772609012972777000,6.53177685546875,-1.6904776369839907,-5.040154560112953,0.5105119199715554
1772609012982773800,6.541773681640625,-1.878044281643629,-4.943017543441057,0.6385914065916091
1772609012992771800,6.551771728515625,-1.9225339962333439,-4.655286643242836,1.0588650564290583
1772609013002769700,6.561769775390625,-1.674534802442789,-4.3443858798593284,1.343202514796704
1772609013012767700,6.571767822265625,-1.2966671197235584,-3.8844764582693574,1.2596768209785223
1772609013022765800,6.581765869140625,-0.6028209319651127,-3.1101988894462584,0.9163337044779211
1772609013032763600,6.591763671875,0.39851007325351234,-2.2742302958637475,0.6836191005155444
1772609013042761700,6.60176171875,1.5396055229932069,-1.3322756087213754,0.6697953770201653
1772609013052759800,6.611759765625,2.6652275092691182,-0.37909167155623436,0.6080514530297368
1772609013062757600,6.621757568359375,3.5628000338494776,0.5580278505146503,0.3070527096532285
1772609013072755700,6.631755615234375,3.99599914316833,1.3823258800476788,-0.04595763171780854
1772609013082753800,6.64175390625,3.8035242682009933,1.944339585328102,-0.2681008650442585
1772609013092751600,6.651751708984375,3.469702063435316,2.3024212020814416,-0.4671116445863619
1772609013102750000,6.66175,3.4270196905285117,2.646111889910698,-0.7854569883547723
1772609013112747800,6.671747802734375,3.7307238204061983,2.961510549235344,-1.0793481647484005
1772609013122744800,6.681744873046875,4.252451108005642,3.280597541683912,-1.1766838457975537
1772609013132743000,6.691742919921875,4.673093518090248,3.744549516662955,-1.111120655779913
1772609013142740700,6.70174072265625,4.681223633053898,4.224758798959851,-0.9059070030096917
1772609013152738800,6.71173876953125,4.001041813510656,4.678745844763517,-0.5455748308505862
1772609013162737000,6.72173681640625,2.885814964520931,5.01612077357471,-0.056062480820529156
1772609013172734700,6.731734619140625,1.9454443316996097,5.174352018156648,0.5599223590243607
1772609013182732800,6.74173291015625,1.3549252474248408,5.225905679783224,1.13450898402147
1772609013192730600,6.751730712890625,1.478487329685688,5.283274749690294,1.3284218559026717
1772609013202728700,6.761728759765625,2.296224685528874,5.20349627957642,1.328044547022879
1772609013212726800,6.771726806640625,3.3096704914331436,5.040043500953913,1.3052630986332892
1772609013222724600,6.781724609375,4.1396763772189615,4.90634522460401,1.118528959275037
1772609013232722700,6.79172265625,4.609398167771101,4.637030855584144,0.9242941619630902
1772609013242720800,6.801720703125,4.481181537702679,4.375865306228399,0.5997862404443324
1772609013252718600,6.811718505859375,3.883876738810539,4.136823325875401,0.11944186052568256
1772609013262716000,6.8217158203125,3.2301860358297825,3.935584129694104,-0.3482341034125537
1772609013272713700,6.831713623046875,2.6646190219819545,3.754141520872712,-0.6272350961230695
1772609013282711800,6.8417119140625,2.209506771540642,3.5353093848556276,-0.7757159310631454
1772609013292710000,6.8517099609375,1.7947931669831274,3.341863034507632,-0.6443996544789522
1772609013302707700,6.861707763671875,1.4132687153220176,3.027363369849324,-0.2586833771511912
1772609013312705800,6.871705810546875,1.543297947770357,2.4026731359034774,0.05600318838134408
1772609013322704000,6.881703857421875,2.2157903818547724,1.5005886868566274,0.3306085034161806
1772609013332701700,6.89170166015625,3.1801457013756034,0.5580196672081947,0.32638810924217104
1772609013342699800,6.90169970703125,3.984732483744621,-0.46391515009999273,-0.1687674708392471
1772609013352697900,6.91169775390625,3.8033015653610227,-1.1675783829957247,-0.9206531020469964
1772609013362695700,6.92169580078125,1.7670213629603384,-1.4551380182802676,-1.8724850400812922
1772609013372693800,6.93169384765625,-1.7417483900159596,-2.279958610382676,-2.03142048740983
1772609013382691800,6.94169189453125,-5.496160544523597,-3.104119277271628,-1.5021742024824023
1772609013392689700,6.951689697265625,-8.313646069183946,-3.033278731372952,-1.1220260076105595
1772609013402686700,6.961686767578125,-9.1980984154284,-2.6778105119884015,-0.6657291504945606
1772609013412684800,6.971684814453125,-7.857063746190071,-2.6495880415886637,0.07358714119307697
1772609013422683000,6.981682861328125,-5.511123135855794,-2.537448686096072,0.21027751203104852
1772609013432681000,6.991680908203125,-3.4345080004572868,-2.7355449080765246,-0.48512313862778245
1772609013442678800,7.0016787109375,-2.515223410284519,-3.5578619929254054,-0.9345959949426352
1772609013452676900,7.0116767578125,-2.942572624531388,-4.5214480816394085,-0.7249171794570982
1772609013462675000,7.021675048828125,-4.205525690701603,-4.781806990787387,-0.41885713410302994
1772609013472672800,7.0316728515625,-5.3966527070671315,-4.623641212657094,0.04551598889753222
1772609013482670800,7.0416708984375,-5.6357344349086285,-4.450995658275485,0.5928145748008042
1772609013492669000,7.0516689453125,-4.675771212866902,-4.437584388038516,1.008681075720489
1772609013502666800,7.061666748046875,-3.0133190624058246,-4.6298254542499775,1.3715053569562732
1772609013512664800,7.071664794921875,-1.6112556317090987,-5.008682732528448,1.7269342672437429
1772609013522663000,7.081662841796875,-0.898666165035963,-5.554401136568188,1.9876275229126215
1772609013532660700,7.09166064453125,-0.7662894926786422,-5.977689677247405,2.050629922531545
1772609013542657800,7.10165771484375,-0.9182821351319551,-5.820499466150999,1.499157192748785
1772609013552655600,7.111655517578125,-1.0010615406274794,-5.068197582292557,0.5517967010401189
1772609013562653700,7.12165380859375,-0.6166460436999798,-3.9997301463901995,0.0795794404104352
1772609013572651800,7.13165185546875,0.3875204772055149,-2.7150731979340312,0.3577422287311405
1772609013582649600,7.141649658203125,1.5823422564357519,-1.4476894558399915,0.8644080677337944
1772609013592647700,7.151647705078125,2.4393711737036705,-0.5042763865828513,1.1773530502960086
1772609013602645800,7.161645751953125,3.0039269646823406,0.13392974701821803,1.219080752826482
1772609013612643800,7.171643798828125,3.432152961763739,0.5873153197973966,1.041150682170689
1772609013622642000,7.181641845703125,3.6535862201899287,1.0095990673482418,0.5799919181067497
1772609013632640000,7.191639892578125,3.666865388479829,1.4158154771953821,-0.04045605689315125
1772609013642637800,7.201637939453125,3.621718671286106,1.825279490661621,-0.6792215962089598
1772609013652636000,7.211635986328125,3.694593353360891,2.272469131410122,-1.097665034944564
1772609013662634000,7.221634033203125,3.871463247439265,2.747200274556875,-1.2208904325969516
1772609013672630800,7.231630859375,4.004626686260104,3.235353209334612,-1.084859548581019
1772609013682628900,7.24162890625,3.9808500893533227,3.6480665799856182,-0.6534628855742514
1772609013692626700,7.251626708984375,3.8841894580215213,3.9609249071776866,-0.014388755233306436
1772609013702624800,7.261624755859375,3.7956630333065986,4.146787086006999,0.9042173694223165
1772609013712622800,7.271622802734375,3.693379885917902,4.260200699219108,1.8269196590840815
1772609013722620700,7.28162060546875,3.734852298513055,4.307970750653744,2.515928928205371
1772609013732618800,7.29161865234375,3.967193319922685,4.241779491865635,2.89614931153059
1772609013742616800,7.301616943359375,4.23483069564104,4.030720327937603,2.906180876201391
1772609013752614700,7.31161474609375,4.440488877308368,3.6750060248374936,2.6136773547738787
1772609013762612700,7.32161279296875,4.48994585891664,3.3502064999610184,2.0622931800574062
1772609013772610600,7.331610595703125,4.11134986192286,3.058081748718023,1.3855636929251254
1772609013782608600,7.341608642578125,3.4262276633679867,2.8029917198836802,0.6211123023938387
1772609013792606700,7.351606689453125,2.653476865720749,2.6720360202401876,0.05800446346746757
1772609013802604800,7.361604736328125,1.8139491183519363,2.527239426770806,-0.27817299918746574
1772609013812603000,7.371602783203125,1.0340671536505222,2.446167994236946,-0.47570254546217616
1772609013822600000,7.381599853515625,0.45471185294687744,2.334194642961025,-0.46444238884449
1772609013832597800,7.39159765625,0.1756944205582142,2.207040673688054,-0.3631505905807018
1772609013842595800,7.401595947265625,0.1427057586699724,1.8879852454215287,-0.34255580204781144
1772609013852593700,7.41159375,0.19955811122655867,1.480081905400753,-0.3892964008368551
1772609013862591700,7.421591796875,0.22925182322263715,1.021896238863468,-0.40797143682092424
1772609013872589800,7.43158984375,0.3202864313662052,0.2179167747378349,-0.3194695620253682
1772609013882587600,7.441587646484375,0.7818506344258784,-0.5193728334277868,-0.44614499053377654
1772609013892585700,7.451585693359375,1.5353478655487298,-1.095776883110404,-0.7824324529018253
1772609013902583800,7.461583740234375,1.6581939084947108,-1.4392986441135405,-1.457153157494962
1772609013912581600,7.47158154296875,-0.2916951276540756,-1.660592201808095,-2.204928357709199
1772609013922579700,7.481579833984375,-4.51001366443336,-2.2318571350365874,-2.127158450938761
1772609013932577800,7.491577880859375,-8.799707000118493,-3.708556412261724,-0.6253345231987536
1772609013942575600,7.50157568359375,-9.766101716512441,-3.9834786842912435,-0.07672008719025179
1772609013952573700,7.51157373046875,-6.657043813794851,-2.2335265295535325,-2.2738320903263984
1772609013962570800,7.52157080078125,-4.3512814845919605,-2.713762699857354,-3.3724382055133577
1772609013972568800,7.53156884765625,-5.298305145561695,-3.1412732421457767,-3.614468554027378
1772609013982567000,7.54156689453125,-8.40632902905643,-3.2223475972890854,-2.726068054679036
1772609013992564700,7.551564697265625,-10.705028580266237,-2.5261416946619746,-1.6618702589198946
1772609014002562800,7.561562744140625,-10.677108307683467,-1.5258756883263587,-0.8682418006777762
1772609014012561000,7.571560791015625,-8.264638584908843,-1.2562310644388197,-0.4445450445238501
1772609014022558700,7.581558837890625,-4.967203890192509,-1.9899206022858618,-0.5950792317971587
1772609014032556800,7.591556884765625,-2.3960090018391607,-2.9578046804547307,-1.1331224980991332
1772609014042555000,7.601554931640625,-0.9894985286056995,-4.25898430916667,-1.486925341554731
1772609014052552700,7.611552734375,-0.8877905507564544,-5.434079643663764,-1.4453995913371442
1772609014062550800,7.62155078125,-1.5550409925341606,-5.599776986342668,-0.9870849646579474
1772609014072548900,7.631548828125,-2.167428209745884,-5.3750961242973805,0.25073497542999684
1772609014082546700,7.641546630859375,-2.4839351225733757,-5.160186130160093,1.698214953237772
1772609014092544800,7.651544677734375,-2.514977911090851,-4.803357143816352,2.619436648952961
1772609014102542800,7.66154296875,-1.8600842620611189,-4.172376869815587,2.6115543712705374
1772609014112539600,7.67153955078125,-0.6205459737479686,-3.442560374009609,2.0617716404013335
1772609014122537700,7.681537841796875,0.7045476145148277,-2.9132448232382533,1.6190828182034194
1772609014132535800,7.691535888671875,1.899917090755701,-2.4568963090002534,1.3859901016436516
1772609014142534000,7.701533935546875,3.0025106681436298,-2.021266757664084,1.3299851596966386
1772609014152532000,7.711531982421875,3.9633506730198858,-1.4634586873799562,1.287660660316795
1772609014162529800,7.72152978515625,4.563511445865035,-0.7438473592460155,1.0766411708120256
1772609014172527900,7.73152783203125,4.631840301203727,-0.020030980637669563,0.5987810819897801
1772609014182526000,7.74152587890625,4.307986532744765,0.765786219331622,0.057932914334908124
1772609014192523800,7.751523681640625,3.820298877391219,1.588778426963091,-0.2786989410240203
1772609014202521900,7.76152197265625,3.4340900673061605,2.4254829336047172,-0.3031029856467619
1772609014212520000,7.77152001953125,3.299647110068798,3.2482910168409345,-0.11732954454682766
1772609014222517800,7.781517822265625,3.2625235403329134,3.9076960058152674,0.3647579527121037
1772609014232515800,7.791515869140625,3.0325860729336735,4.279245591428876,1.050549721091613
1772609014242514000,7.801513916015625,2.8452070598006247,4.570034710153937,1.5441469658151268
1772609014252510700,7.8115107421875,3.091219463688135,4.59429236857593,1.7302409075736997
1772609014262508800,7.8215087890625,3.9289813704282044,4.563070716360211,1.3903966660395264
1772609014272506600,7.831506591796875,4.998186472955346,4.436262784045934,0.9894880072116852
1772609014282504700,7.841504638671875,5.7732058000564574,4.269916037547588,0.779263686672598
1772609014292502800,7.851502685546875,6.217784966045618,4.074509200781583,0.6678450466699898
1772609014302500600,7.86150048828125,6.124108318960666,3.779990247878432,0.6398506859377027
1772609014312498700,7.871498779296875,5.6629538657456635,3.7328362825155255,0.2989511631969362
1772609014322496800,7.881496826171875,4.913309802919626,3.6748961347222324,-0.10005067562889307
1772609014332494800,7.891494873046875,3.99238095267117,3.663490943610668,-0.5317905991153791
1772609014342493000,7.901492919921875,3.1559996866345403,3.612214345359802,-0.9506947506979108
1772609014352490800,7.91149072265625,2.3456173697292804,3.4719355215758085,-1.3261872287184
1772609014362488800,7.92148876953125,1.6363292826890945,3.3881367099046704,-1.5798828805848955
1772609014372487000,7.93148681640625,1.3697089750587939,3.5107717404484746,-1.435985574042797
1772609014382484700,7.941484619140625,1.699861551401019,3.613182898131013,-0.8365854103066027
1772609014392481800,7.951481689453125,2.2275644062787294,3.582262859210372,-0.13288893272839486
1772609014402479900,7.96147998046875,2.5588334194302558,3.490361989626288,0.41022363619450475
1772609014412477700,7.971477783203125,2.572022571349144,3.091794048705697,0.7662950456365942
1772609014422475800,7.981475830078125,2.2993419407665727,2.4717618696987627,0.9468992308724671
1772609014432473900,7.991473876953125,2.1185341227173806,1.6387217307835817,1.0465645239129662
1772609014442471700,8.0014716796875,2.3509178142249585,0.5352653990864753,1.1918820725165307
1772609014452469800,8.0114697265625,2.9823259582489725,-0.21270283948183058,1.0799284488543868
1772609014462467600,8.021467529296874,3.4105075316667555,-0.4947743987441063,0.4440038868518546
1772609014472465700,8.031465576171875,2.619590962731838,-0.7808709757387637,-0.6661062401786446
1772609014482463700,8.041463623046875,0.2592149998098612,-1.375434366968274,-1.7555840231448412
1772609014492461600,8.051461669921874,-2.6597698283851146,-2.278657464656234,-2.396243395116925
1772609014502459600,8.061459716796875,-5.669051598098874,-3.3894255806714293,-2.2696700022108853
1772609014512457700,8.071457763671875,-7.712834138953685,-4.3209243402510875,-1.0731666996344924
1772609014522455800,8.081455810546874,-6.3168742858290665,-2.990543751496076,-1.0359644386392086
1772609014532452900,8.091452880859375,-3.3841011707782744,-1.8704104257643221,-1.2670615244023502
1772609014542450700,8.10145068359375,-2.986109568440914,-2.1415946803092956,-0.7484370251238346
1772609014552448800,8.11144873046875,-5.325778843420744,-2.4699141960054636,-0.5433360024152323
1772609014562446800,8.12144677734375,-8.34953805129826,-2.5582196714460848,-0.26920002192519604
1772609014572444700,8.131444580078124,-10.073769489324093,-2.261612806352973,0.1174938682630658
1772609014582442800,8.14144287109375,-10.117253241741656,-2.139395124438405,0.40937626211754974
1772609014592440800,8.15144091796875,-8.538101890301704,-2.6352508886784314,0.4151102757249027
1772609014602438700,8.161438720703124,-6.307863880899548,-3.462123737135529,-0.04266286448873579
1772609014612436700,8.171436767578125,-4.71837116818726,-4.3654216536253685,-0.5620657277286052
1772609014622434800,8.181434814453125,-4.020441510507464,-5.164824895876646,-0.8607545136623084
1772609014632432600,8.1914326171875,-4.024778078407049,-5.60108047015667,-0.801508032510802
1772609014642430700,8.2014306640625,-4.237538201034069,-5.625183230277895,-0.40389768457598985
1772609014652428800,8.2114287109375,-4.315003133508562,-5.436060588347911,0.4594317210756242
1772609014662426000,8.221426025390626,-4.034132182207704,-5.045401813116669,1.4304267708718776
1772609014672423200,8.231423095703125,-3.4788130061298608,-4.662451712566614,2.3501281251519917
1772609014682421200,8.241421142578124,-2.586623928153515,-4.31366574742496,2.7147692465513944
1772609014692419000,8.251419189453125,-1.580380016452074,-4.01947821843326,2.6878026214316484
1772609014702417200,8.261417236328125,-0.6319733766913413,-3.617240649089217,2.4203549230664967
1772609014712415200,8.271415283203124,0.3124281190812588,-3.1630121957451105,1.8789415227442978
1772609014722413000,8.2814130859375,1.2781038735508918,-2.7016443920403717,1.354976246959716
1772609014732411100,8.2914111328125,2.1151655230671165,-2.1685048990666864,1.021040206556022
1772609014742409200,8.3014091796875,2.7620886316090822,-1.4654197583198547,0.7893053343459964
1772609014752407000,8.311406982421875,3.2321254794597625,-0.5585130036830902,0.5505165250364691
1772609014762405000,8.321405029296875,3.5518449245929715,0.45081952168345446,0.26649653512015936
1772609014772403200,8.3314033203125,3.6664158911466598,1.3314122698903084,0.04213927900604903
1772609014782401000,8.341401123046875,3.5116987921655176,1.972268041217327,-0.25266448218785226
1772609014792399000,8.351399169921875,3.2670605992406605,2.4990508586406706,-0.6915338191628456
1772609014802397200,8.361397216796876,3.2438825527489183,3.0488007101535795,-1.0590519573032855
1772609014812395000,8.37139501953125,3.5708851406276225,3.6246377736032005,-1.152355021835491
1772609014822392300,8.381392333984374,4.156311285677552,4.046827413129806,-1.0538321768283843
1772609014832390100,8.39139013671875,4.808272388386726,4.414672299006581,-0.764218312427774
1772609014842388200,8.40138818359375,5.191293216085434,4.764638998365402,-0.22302001616097986
1772609014852386300,8.41138623046875,5.197982484591007,5.064458980286121,0.515790371831134
1772609014862384000,8.421384033203125,5.039531459778547,5.274097171500325,1.187646773034334
1772609014872382200,8.43138232421875,4.933958623194695,5.193161348044872,1.6387788677982984
1772609014882380300,8.44138037109375,4.995192551836372,5.024619721850753,1.6968983176812529
1772609014892378000,8.451378173828125,5.177065953290462,4.802957330843806,1.488528538967669
1772609014902376200,8.461376220703125,5.310513469749689,4.568795523747801,1.1342024022903292
1772609014912374300,8.471374267578126,5.280920295518636,4.347694858276844,0.6691191582590341
1772609014922372000,8.4813720703125,4.966618199259043,4.197254121440649,0.07975329913999885
1772609014932370200,8.4913701171875,4.2752860401481385,4.058055494108796,-0.3807120758322999
1772609014942368300,8.5013681640625,3.443580949229002,3.9183594386488196,-0.664835489590466
1772609014952366000,8.511365966796875,2.5571003120273352,3.701564945939183,-0.8959756107777357
1772609014962363100,8.521363037109374,1.664551168566942,3.4729122576534746,-1.0597929118636995
1772609014972361000,8.53136083984375,1.0014724595159292,3.333531844013929,-0.9618912674948572
1772609014982359300,8.541359375,0.7047147877752781,3.2451147248923777,-0.6139714176632464
1772609014992357400,8.551357421875,0.7375415371000766,3.183014534810185,-0.2178661039965227
1772609015002355200,8.561355224609375,0.8230155885070561,2.8857261171936988,0.1708792388288304
1772609015012353300,8.571353271484375,0.861261440271139,2.347180965784192,0.3050589785527438
1772609015022351400,8.581351318359374,0.9483902731478213,1.3486989202558994,0.5429375776821748
1772609015032349200,8.59134912109375,1.4338509001016615,0.3310661840558052,0.6594322423074394
1772609015042347300,8.60134716796875,2.488852705231309,-0.3206219469308853,0.26501729288045317
1772609015052345000,8.611344970703126,3.3594548052996394,-0.6863771670520306,-0.7197935528330505
1772609015062343200,8.62134326171875,2.797083372622728,-0.9977180754184722,-1.9309828217573464
1772609015072341200,8.63134130859375,0.2633493231356144,-1.656930756691098,-2.5388448166295885
1772609015082339000,8.641339111328126,-3.1610107927948237,-2.325623213970661,-2.274177396632731
1772609015092337200,8.651337158203125,-6.136676708632708,-2.6304431961357593,-1.2996402903154491
1772609015102334200,8.661334228515624,-7.173823708119988,-3.2995547556102274,0.32290070551782846
1772609015112332000,8.67133203125,-4.558029799583554,-2.9733301663666962,0.7770396539475768
1772609015122330000,8.681330078125,-0.518977112108469,-1.7944225801050662,-0.9943140391286462
1772609015132328200,8.691328125,1.3276912035405635,-2.7815269070506092,-1.6193813627585767
1772609015142326000,8.701325927734375,-1.3665017034500837,-3.792413091599941,-1.6117730797119438
1772609015152324000,8.711323974609375,-6.079876963046193,-3.9991725125074384,-1.7868373856730757
1772609015162322000,8.721322021484376,-9.306838191610574,-3.9046383718103166,-1.6237214377894997
1772609015172320000,8.731320068359375,-11.234315489464997,-3.5047207698464393,-1.5820131706118583
1772609015182318300,8.741318359375,-11.48955398685932,-3.368941595569253,-1.3137369124680758
1772609015192316200,8.751316162109376,-9.604409517821669,-3.657360478031635,-0.8331313243299722
1772609015202314200,8.761314208984375,-6.419768843114376,-4.220604601889849,-0.49254269416928287
1772609015212312300,8.771312255859375,-3.5445360628843305,-4.6984477395772934,-0.126756055996567
1772609015222310100,8.78131005859375,-1.9490292044490574,-5.340421116757392,0.12358575539737938
1772609015232308200,8.79130810546875,-1.8314719155609607,-5.9101002420991655,0.418900827114284
1772609015242306300,8.801306396484375,-2.8553566978931424,-5.912999470672011,0.7732030714593827
1772609015252303000,8.81130322265625,-4.204092443028092,-5.732372854408622,1.4240651268854736
1772609015262301200,8.82130126953125,-5.088523746484518,-5.1771524625301355,2.4188594238117336
1772609015272299000,8.831299072265624,-5.077240135926008,-4.485492971161007,3.138477181686461
1772609015282297000,8.841297119140625,-3.86474007666409,-3.8989842915713786,3.01172273312509
1772609015292295200,8.851295166015625,-1.8997259520977734,-3.307224267324805,2.281922311671078
1772609015302293000,8.86129296875,0.08686287541687487,-2.6522300805300474,1.6236372666373848
1772609015312291000,8.871291015625,1.983040195122361,-1.8762176507383583,1.2225338158898056
1772609015322289200,8.8812890625,3.728279349863529,-1.1193909829318522,0.8764289065256714
1772609015332287000,8.891286865234376,5.053534266167879,-0.4823685061573982,0.5895558652658015
1772609015342285000,8.90128515625,5.416054742151498,-0.02392272737920284,0.514570839973539
1772609015352283100,8.911283203125,4.923294605839252,0.19732406856417656,0.3776220373950898
1772609015362281000,8.921281005859376,4.188811287266016,0.46310324919521806,-0.16804945876300334
1772609015372279000,8.931279052734375,3.4955133810400962,0.9263736716508865,-0.5808639517009258
1772609015382277400,8.94127734375,2.9898294657468796,1.6692442948192356,-0.9284528160125016
1772609015392275200,8.951275146484376,2.826608157792687,2.521005500817299,-1.1554597829177975
1772609015402272300,8.961272216796875,2.837184496864676,3.4197055681228634,-0.8770052451089024
1772609015412270000,8.97127001953125,3.0059727912962435,4.162591388860345,-0.4680613830592483
1772609015422268200,8.98126806640625,3.4560680903583765,4.616328259295225,-0.005801818146556615
1772609015432266200,8.991266357421875,4.01698172544241,4.842359951427579,0.6080768431993201
1772609015442264000,9.00126416015625,4.540826735848188,5.097365224587917,1.2824579771071671
1772609015452262100,9.01126220703125,5.014313431891798,5.130999198642373,1.8187481891967354
1772609015462260200,9.02126025390625,5.283900772634149,4.9317456233203405,2.081764042594284
1772609015472258000,9.031258056640626,5.062516029524803,4.608191130068898,1.9946311180643737
1772609015482256100,9.041256103515625,4.525601109665632,4.419083101186156,1.3739450051933526
1772609015492254200,9.051254150390625,3.9495109482377764,4.227914048120379,0.6674635000064969
1772609015502252000,9.061251953125,3.2676088807731865,4.206794687724114,0.036124767956882714
1772609015512250000,9.07125,2.642722831994295,4.2606455203771585,-0.46528486755061893
1772609015522248200,9.081248291015624,2.158587900686264,4.299656511294842,-0.8006343914814293
1772609015532246000,9.09124609375,1.9461738150179384,4.314826607897878,-0.9617296471923589
1772609015542243300,9.101243408203125,2.055794465687871,4.284570001322031,-0.9708876438990235
1772609015552241200,9.1112412109375,2.4185049112856385,4.26944549742639,-0.8312995057929307
1772609015562239200,9.1212392578125,2.9219150364279747,4.315130559280514,-0.6917343101710081
1772609015572237300,9.1312373046875,3.2785435317635536,4.274913699704409,-0.6282412044256925
1772609015582235100,9.141235107421876,3.236929080349207,4.0838481070131065,-0.6035424146400764
1772609015592233200,9.151233154296875,2.8971330618709326,3.82990198751688,-0.8051030613280832
1772609015602231300,9.161231201171875,2.342853750234842,3.2374475512653587,-0.8745241688828915
1772609015612229000,9.17122900390625,1.6802479193925857,2.2922668878138066,-0.5589125974599272
1772609015622227200,9.181227294921875,1.2868331234514712,1.2697504712253809,-0.05296652409918606
1772609015632225000,9.19122509765625,1.4062737418681381,0.30232056656479833,0.5359971108945086
1772609015642223000,9.20122314453125,1.9873767630219459,-0.14082652079463004,0.40370884747300295
1772609015652221200,9.21122119140625,2.238876073887944,-0.6446510719567536,-0.33641923552155495
1772609015662219500,9.221219482421875,0.9603700492769479,-3.0144407599121332,0.8542405286584049
1772609015672217600,9.231217529296876,0.05073533098101616,-3.6205928821265694,0.8101359409287572
1772609015682214400,9.24121435546875,1.3948206199616193,-1.917811643886566,-2.2419798851221797
1772609015692212500,9.25121240234375,1.2891168504744768,-3.172063517206907,-2.4562945437148214
1772609015702210300,9.261210205078125,-2.4165537772178647,-3.680173198342323,-1.2079065939918159
1772609015712208400,9.27120849609375,-7.280504213684797,-3.642776656883955,1.1966289017174392
1772609015722206700,9.281206787109374,-10.800959143757819,-2.7833523689121007,2.8684260228246448
1772609015732204500,9.29120458984375,-11.951844166105985,-1.7151076358497142,2.495563016524911
1772609015742202600,9.30120263671875,-10.616856960338353,-2.381046995028853,1.4285434413433074
1772609015752200700,9.31120068359375,-8.526791976258158,-4.09633583266437,0.5138366804800928
1772609015762198500,9.321198486328125,-7.124835513067245,-5.507406745681166,-0.8235833053924143
1772609015772195600,9.331195556640624,-6.5921735744774335,-6.805638045981526,-1.713343841047585
1772609015782193400,9.341193359375,-6.337352425712346,-7.921549954625964,-2.0405032269231973
1772609015792191500,9.35119140625,-5.884777584794163,-8.446261810994148,-1.7047727043181657
1772609015802189600,9.361189453125,-5.58442451891005,-8.499804600611329,-0.2860539068967104
1772609015812187400,9.3711875,-5.57675851432681,-8.064206613457202,0.9357884195975958
1772609015822185500,9.381185546875,-5.472984836119413,-7.350491357624531,1.207332008974254
1772609015832183600,9.39118359375,-4.999162624511122,-6.443138028264046,0.7357058461055159
1772609015842181400,9.401181396484375,-4.05549236562252,-5.2050493542373175,0.28376912042777985
1772609015852179500,9.411179443359375,-2.699367094758153,-3.941507090002298,0.2857052761221304
1772609015862177500,9.421177490234374,-1.0857120006918906,-3.065201225334406,0.46569169478584077
1772609015872174600,9.431174560546875,0.621466595724225,-2.269062537837028,0.8688288798507302
1772609015882172700,9.441172607421874,2.042832108262181,-1.5826345173805951,1.241759033102542
1772609015892170500,9.45117041015625,2.983918195876479,-0.8909019607752561,1.3359073893524707
1772609015902168600,9.46116845703125,3.523264726796746,-0.004996493113040924,1.0801939679227768
1772609015912166700,9.471166748046874,3.7639620731413364,0.9153981041282415,0.715718412348628
1772609015922164500,9.48116455078125,3.7607647384047507,1.850839463853836,0.4793079130103811
1772609015932162600,9.49116259765625,3.7355508021712303,2.8910312378644942,0.35634460036028176
1772609015942160600,9.50116064453125,4.016196128022671,3.8364521398127076,0.37911337193138894
1772609015952158500,9.511158447265625,4.7115118038117885,4.4712224537462,0.40552495698425917
1772609015962156500,9.521156494140625,5.440111325043439,4.757667990309,0.4652274382749572
1772609015972154600,9.531154541015624,6.004623276880383,5.04558827559948,0.7763378623537719
1772609015982152400,9.54115234375,6.541252950057387,5.183599154451489,1.270727499563992
1772609015992150500,9.551150634765625,6.904403540638088,5.219342668005824,1.5608578621193765
1772609016002148600,9.561148681640624,6.960330010521411,5.081480257713794,1.6477388577148318
1772609016012146400,9.571146484375,6.704554337510467,4.689200603282451,1.5619384969629346
1772609016022143500,9.5811435546875,6.45540071298778,4.210782880577445,1.3003408398002385
1772609016032141600,9.5911416015625,6.279888078737258,3.729166654092073,1.1130711322605609
1772609016042139600,9.6011396484375,5.992689093458652,3.429234443968534,1.058637969674915
1772609016052137700,9.6111376953125,5.538696786957979,3.25025793299973,0.9827090876612812
1772609016062135600,9.621135498046876,4.976274500876665,3.180887459653616,0.8593610134772955
1772609016072133600,9.631133544921875,4.517353505802154,3.0670033063203093,0.7023388524241745
1772609016082131700,9.641131591796874,4.1371664402246475,2.801022465637326,0.48844318642858414
1772609016092129500,9.651129638671875,3.793112764301896,2.569961547166109,0.1886137425597757
1772609016102127600,9.661127685546875,3.587540507352352,2.385189501661062,-0.029175168014690278
1772609016112125700,9.671125732421874,3.4601346091449257,2.0747002416878937,-0.455772906307131
1772609016122123500,9.68112353515625,3.212314279052615,1.5975322267830372,-1.0581051049072294
1772609016132121600,9.69112158203125,2.4829952113747593,1.191710953733325,-1.2790554751873016
1772609016142120700,9.70112060546875,1.2732681239575148,1.0813298400849103,-0.8528216748364269
1772609016152118500,9.711118408203125,0.17933599193096159,1.0897025316327809,-0.09250584973990916
1772609016162116600,9.72111669921875,-0.5457219111710786,0.9734300218582153,0.5600126676563173
1772609016172114700,9.73111474609375,-0.5415379034847021,0.8026601982206105,0.742578069962561
1772609016182112500,9.741112548828125,-0.1076888058245182,0.7037199315190314,0.22041560581624506
1772609016192110600,9.751110595703125,1.0740560496896505,0.5048024562835693,-0.28151772477179765
1772609016202108700,9.761108642578124,1.7867139054238794,0.4500041136473417,-1.3220622577428818
1772609016212106500,9.7711064453125,1.981746063658595,-1.5244348418682814,-1.781006341432035
1772609016222104600,9.7811044921875,1.5133751031935214,-1.4673071795016526,-2.694527545772493
1772609016232102700,9.7911025390625,-1.1800538336873054,-1.9956033240973947,-1.7927952711641788
1772609016242099500,9.801099365234375,-4.071154045134783,-1.7971838615119455,-0.0316636968947947
1772609016252097500,9.81109765625,-5.68101325404942,-0.929959128922224,0.9807980664081871
1772609016262095400,9.821095458984376,-4.980301856696605,-0.20119594156146048,0.6661869041994214
1772609016272093400,9.831093505859375,-3.7481706297695636,0.0065963295251131055,-0.08634571967497467
1772609016282091500,9.841091552734374,-2.304318560135364,-0.5224632006585598,-2.126043475434184
1772609016292089300,9.85108935546875,-1.3441840731799601,-1.79075996594429,-3.0679297735154627
1772609016302087400,9.86108740234375,-1.8952789095610378,-3.129683342117071,-2.7558400926083326
1772609016312085500,9.87108544921875,-3.5742326974898573,-3.392518285989761,-1.2833498113803565
1772609016322083600,9.88108349609375,-5.400263883301616,-2.7264064928531644,0.5872270569920539
1772609016332081700,9.89108154296875,-6.703326257020235,-2.073976603588462,1.8808073166161774
1772609016342079700,9.901079833984374,-7.494394801646471,-1.969642368888855,2.5351664203777906
1772609016352077600,9.91107763671875,-8.056180543389916,-2.452566755363345,2.1044069592960177
1772609016362075600,9.92107568359375,-7.978679370558261,-3.1141637014240025,1.7434516868025063
1772609016372073500,9.931073486328126,-7.542258961105346,-3.54017260697782,1.4926279371105133
1772609016382070500,9.941070556640625,-7.011020917838811,-3.7376276084452864,1.2576099515765904
1772609016392068600,9.951068603515624,-6.344447936931252,-3.8680443789064882,1.03281247741431
1772609016402066400,9.96106640625,-5.786773137637972,-3.8449937581866975,0.9889571152053773
1772609016412064500,9.971064453125,-5.263931751316785,-3.532673775655031,1.0659214046813548
1772609016422062600,9.9810625,-4.365962920895218,-3.2444208974093196,1.1518795863434672
1772609016432060400,9.991060302734375,-3.365412836921215,-3.122396107718348,1.146903113105148
1772609016442058500,10.00105859375,-2.612595404756069,-2.84896378198564,1.117132974871993
1772609016452056600,10.011056640625,-2.197260453429818,-3.010218173781037,1.2225249019309878
1772609016462054400,10.021054443359375,-1.2090391051530838,-2.149464098510146,-0.0008358663022518157
1772609016472052500,10.031052490234375,-0.3513122687488794,-2.9617776757389307,0.5600120100691914
1772609016482050300,10.04105029296875,0.29374212331175803,-2.1789707635015247,0.22636932658888398
1772609016492048400,10.05104833984375,0.5153033920317888,-1.7037170577853917,0.17586663531996308
1772609016502046500,10.06104638671875,1.326120008701086,-0.42215749082267284,-0.9703574825450777
1772609016512044500,10.07104443359375,2.0250947915196416,-0.8473691085189581,-0.41955176530368626
1772609016522042600,10.081042724609375,2.166090823662281,0.033875966116786,-0.2806606695510447
1772609016532040700,10.091040771484375,2.558857384827733,1.185973871386051,0.07165069323778152
1772609016542037500,10.10103759765625,2.411473697474599,1.0177905571103096,1.4212186514131724
1772609016552035600,10.11103564453125,3.175425102594495,2.6966519905805586,0.6502054912135005
1772609016562033400,10.121033447265624,3.339091816228628,2.0841098750680684,1.4895982140257953
1772609016572031500,10.131031494140625,2.9738907228589055,2.5618103894144295,0.9227514625657349
1772609016582029600,10.141029541015625,2.596593533504009,2.303372219195962,0.5994624153174459
1772609016592027400,10.15102734375,2.4944857426822185,2.4462848986148833,0.3237096107479185
1772609016602025500,10.161025390625,2.5647271536439655,2.9175737923532723,0.22624650392681359
1772609016612023600,10.1710234375,2.9492408502489327,3.4069437017053366,0.019198402271047233
1772609016622021400,10.181021484375,3.644493982195854,3.4597119998186825,-0.6926230757042765
1772609016632019500,10.19101953125,4.135872308760881,3.209726016125083,-1.496578720562905
1772609016642017500,10.201017578125,4.423505009281635,2.9843051493674513,-2.1285646644748746
1772609016652015400,10.211015380859376,4.61786613638699,2.7406775947898625,-2.242203464744985
1772609016662013000,10.221012939453125,4.732521274092793,2.5513807653367517,-1.932908967514336
1772609016672011000,10.231010986328124,4.803456512537599,2.3574352332949635,-1.6491247591152787
1772609016682009000,10.241009033203126,4.750014260685443,2.225895596283674,-1.3756022708810864
1772609016692006000,10.251005859375,4.589229824489355,2.195643665882945,-1.1307141948483883
1772609016702004000,10.26100390625,4.116345185992121,2.2311405111998317,-0.6552499881867319
1772609016712001800,10.271001708984375,3.076874127471447,2.3642519275724885,0.019626893348805605
1772609016722000000,10.280999755859375,1.8753695094764231,2.364514377900958,0.4235101840732619
1772609016731998000,10.290998046875,0.9609469723820686,2.2018027730345726,0.5699310177436098
1772609016741995800,10.300995849609375,0.7905120797872542,1.9576953259855507,0.596243124477379
1772609016751993900,10.310993896484375,1.1673206088423729,1.6771633973807096,0.7196282792687415
1772609016761992000,10.320991943359376,1.8573159663915633,1.9537807828903198,0.36364155243542046
1772609016771989800,10.33098974609375,2.456720367911458,1.70416772416234,0.5161258143305778
1772609016781987800,10.34098779296875,2.3956956981062887,0.6947399217277764,1.5478317918077111
1772609016791986000,10.35098583984375,1.653124350145459,0.16518997767865656,1.804058569587022
1772609016801983700,10.360983642578125,0.9654512980639934,0.48460196429789065,1.3670116987988352
1772609016811981800,10.37098193359375,0.3864420343190431,0.7576999435096978,0.9867404620692133
1772609016821980000,10.38097998046875,-0.24739187554717063,1.0225538259893656,0.7969582602519542
1772609016831977700,10.390977783203125,-0.9684294370919465,1.4667682503193615,0.433697341164574
1772609016841975000,10.40097509765625,-1.4378987141877413,1.7447697836637497,-0.2771712565327063
1772609016851972900,10.410972900390625,-1.6098457649111746,1.5149854609996078,-0.9568342033009976
1772609016861971000,10.420970947265625,-1.7922382218033075,1.0565589714437722,-1.0613723630748688
1772609016871969000,10.430968994140626,-1.7614613907456398,1.11279289984107,-0.7439797534540296
1772609016881966800,10.440966796875,-1.6771955460846424,1.392182088151574,-0.615011355170235
1772609016891965000,10.45096484375,-1.6018857458174227,1.6044786849200725,-1.4289777411073445
1772609016901963000,10.460962890625,-1.198393207976222,0.8349638004541396,-2.4548434681236744
1772609016911960800,10.4709609375,-0.8063654824793338,-0.4078612544447183,-2.4594018620803952
1772609016921959000,10.480958984375,-0.8942173689335584,-0.8576713068246841,-1.0941009127222001
1772609016931957000,10.49095703125,-1.364024499681592,-0.5339116463899612,0.0651838718438521
1772609016941954800,10.500954833984375,-1.7944009527951479,0.37472704660594464,0.46551403666399416
1772609016951953000,10.510952880859374,-2.0803578290581703,1.0255004008352755,0.7238487465079874
1772609016961951000,10.520950927734376,-2.1516431961148976,0.607449176287651,1.017646545529738
1772609016971948800,10.53094873046875,-2.0429437519431115,-0.3582710018455982,1.1884980561014264
1772609016981947000,10.54094677734375,-1.8830694163292645,-1.5613210957169532,1.3029258878573775
1772609016991944000,10.55094384765625,-1.670032814848423,-2.666584184575081,1.3228605685137211
1772609017001942000,10.56094189453125,-1.3677145863711833,-3.2845985940188167,0.9501006572622805
1772609017011940000,10.570940185546876,-1.1991922493994236,-3.559619065725803,0.24631379798687994
1772609017021938000,10.58093798828125,-1.3291682903558015,-3.6181963423788543,-0.12798494020439682
1772609017031936000,10.59093603515625,-1.872134180817008,-3.659464172312617,-0.24669256817139684
1772609017041934000,10.60093408203125,-2.6884850507378575,-3.4458792892992496,-0.41947643504515286
1772609017051932000,10.610931884765625,-3.4083032996207474,-2.79674376540482,-0.517113948585093
1772609017061930000,10.620929931640624,-3.934240898391604,-2.0926210983037947,-0.28703327332288026
1772609017071927800,10.630927734375,-3.9783980200260873,-1.6063140836536884,0.1645266914643347
1772609017081926000,10.64092578125,-3.580410509341955,-1.2814911779016256,0.5740637701667844
1772609017091924000,10.650924072265624,-2.889471148940921,-1.1606395236432552,0.6107261521317064
1772609017101921800,10.660921875,-2.1605676763266324,-0.9989473249524832,0.7283914314389228
1772609017111919900,10.670919921875,-1.9423674084722995,-0.8445195643067359,0.8941893118828534
1772609017121918000,10.68091796875,-1.565060866767168,-0.541435319893062,0.6565428775414824
1772609017131915800,10.690915771484375,-1.1282955893993376,-0.3754533150538802,0.4845436582393944
1772609017141912800,10.700912841796875,-0.6729951229095459,-0.44853813274800775,0.3152183343216777
1772609017151911000,10.710910888671876,-0.4022387383878231,-0.49181262632906436,0.12302972894981502
1772609017161909000,10.720908935546875,-0.20313129353821277,-0.40239100634008645,-0.03614128070026636
1772609017171907000,10.730906982421875,-0.026658874344825743,-0.28048107520043847,0.07851093439608813
1772609017181905000,10.74090478515625,0.18758418031632898,-0.2492778354242444,0.3411088546425104
1772609017191903000,10.750903076171875,0.4346019618541002,0.0024304420173168182,0.5591466254115104
1772609017201901000,10.760901123046875,0.6812286982476711,0.30661680245399475,0.7397159585297107
1772609017211899000,10.77089892578125,0.8446820613920688,0.7074474276095628,0.6362988386750221
1772609017221897000,10.78089697265625,0.8423866439312696,1.3132283784240484,1.133256134416163
1772609017231895000,10.79089501953125,0.7545616454839706,1.6886591893851757,2.2325426330827174
1772609017241892900,10.800892822265626,1.5881407135814427,1.3884884943306446,1.95889973333925
1772609017251891000,10.810890869140625,2.850971614676714,1.268500763425231,0.5330138207674027
1772609017261889000,10.820888916015624,3.0500837357014414,0.6269476574838161,-0.5881006249561905
1772609017271886800,10.830886962890625,2.637906956145167,-0.11757365550100803,-1.0219435851365328
1772609017281885000,10.840885009765625,2.17094177082479,-0.6960282079726458,-1.7262629438534378
1772609017291883000,10.850883056640624,1.5641642101883888,-0.7924778269022703,-2.3712046693198383
1772609017301880800,10.860880859375,0.5287696073263883,-0.4409171363502741,-2.3211688649103044
1772609017311878000,10.8708779296875,-0.45399289102256296,0.15369301663041113,-1.376330585155636
1772609017321875700,10.880875732421876,-1.061865261158347,0.6933955213814973,-0.41953795597404236
1772609017331873800,10.890873779296875,-1.2048878306925297,1.108514784130454,0.032476474582403894
1772609017341871900,10.900871826171874,-0.8470295013010501,1.266867024743557,0.012699322575330733
1772609017351869700,10.91086962890625,-0.27228081761002537,1.0930524265825747,-0.09561536006256938
1772609017361868000,10.920867919921875,0.17641981222331524,0.9558470188945531,-0.1857391369715333
1772609017371866000,10.9308662109375,0.6417968515694141,0.7548311100751162,-0.5095777078613638
1772609017381864000,10.940864013671876,0.8791630076646805,0.4350280783116817,-0.5892044945448637
1772609017391862000,10.950862060546875,0.6489741958528756,0.4078425497442484,-0.6093000648513436
1772609017401860000,10.960860107421874,0.13167583061158655,0.5260439817547797,-0.5941448735564947
1772609017411858000,10.97085791015625,-0.325436069214344,0.7143740120023488,-0.2814332613587379
1772609017421856000,10.98085595703125,-0.5745908627808094,0.8835293861806393,0.18906126713156698
1772609017431854000,10.99085400390625,-0.12722937259674072,0.6680261023253202,0.2283776707366109
1772609017441852000,11.000851806640625,0.32745150068998335,0.5361170474797486,0.46960225582569837
1772609017451850000,11.01085009765625,0.4821300212264061,0.38713703084588047,0.5203802569046616
1772609017461846800,11.0208466796875,0.6039940673977137,0.3105097182393074,0.2667059400871396
1772609017471844900,11.030844970703125,0.471689875754714,0.18722762196362017,0.21312077263295648
1772609017481843000,11.040843017578124,0.10608546228110789,0.1921680009752512,0.3547136016249656
1772609017491840800,11.0508408203125,-0.23839316105544567,0.203460963883996,0.4602858536869287
