time,seconds_elapsed,z,y,x
1772609962283312600,0.076312744140625,0.0010577104985713959,0.0021600984036922455,0.0017823614180088043
1772609962293310700,0.086310791015625,0.0022796052508056164,-0.00048052147030830383,0.00003732740879058838
1772609962303308500,0.09630859375,-0.0009393580257892609,-0.002138339215889573,0.0005691605620086193
1772609962313306600,0.106306640625,-0.0004203571006655693,0.0024184901267290115,-0.000524657778441906
1772609962323304700,0.1163046875,0.0006246669217944145,0.0006799781695008278,0.0027259965427219868
1772609962333302500,0.126302490234375,-0.001567319966852665,-0.00027323467656970024,0.00008747680112719536
1772609962343300600,0.136300537109375,-0.00018034595996141434,0.00023702718317508698,0.0018672673031687737
1772609962353297700,0.146297607421875,0.0015968852676451206,0.0006174151785671711,0.0012272940948605537
1772609962363295500,0.15629541015625,-0.002293194644153118,0.0008136900141835213,-0.0005676769651472569
1772609962373293600,0.16629345703125,0.001145932823419571,-0.0005700984038412571,0.0021554757840931416
1772609962383291600,0.176291748046875,0.00006202608346939087,0.00017372239381074905,-0.0026030605658888817
1772609962393289500,0.18628955078125,-0.0012898370623588562,0.00006695417687296867,-0.0010112319141626358
1772609962403287600,0.19628759765625,0.0006611952558159828,-0.0020281546749174595,-0.0011145626194775105
1772609962413285400,0.206285400390625,0.003219769336283207,0.000870575662702322,-0.001228733453899622
1772609962423282700,0.21628271484375,0.0002359636127948761,-0.0005206596106290817,0.0012876871041953564
1772609962433280800,0.22628076171875,0.0005419282242655754,0.000459479633718729,0.0022881007753312588
1772609962443278600,0.236278564453125,0.0011371448636054993,0.001524744089692831,-0.002838750369846821
1772609962453276700,0.246276611328125,-0.0013536205515265465,-0.00159797677770257,-0.0006901007145643234
1772609962463274800,0.256274658203125,-0.00030859652906656265,-0.0014411164447665215,-0.0010680034756660461
1772609962473272600,0.2662724609375,0.0004532095044851303,0.000030538998544216156,-0.0003064866177737713
1772609962483270700,0.276270751953125,0.00019701290875673294,0.0012153792195022106,-0.0005488344468176365
1772609962493268500,0.2862685546875,0.00012271106243133545,0.002995702438056469,0.0006099068559706211
1772609962503265500,0.296265625,-0.00006344355642795563,0.0008140411227941513,0.0023926272988319397
1772609962513263600,0.306263671875,0.0012568356469273567,0.00010146573185920715,-0.0009936471469700336
1772609962523261400,0.316261474609375,-0.0023227185010910034,-0.0032229581847786903,-0.0023148413747549057
1772609962533259500,0.326259521484375,-0.0005695130676031113,-0.0005099987611174583,-0.0008038124069571495
1772609962543257600,0.336257568359375,0.0008544791489839554,0.0008567357435822487,0.0005211099050939083
1772609962553255700,0.346255615234375,-0.0008159028366208076,0.0001528649590909481,0.002181373070925474
1772609962563253800,0.356253662109375,-0.0005903327837586403,0.0007816371507942677,0.0022096033208072186
1772609962573250600,0.36625048828125,-0.00018685311079025269,-0.00008379807695746422,0.0005486709997057915
1772609962583248100,0.376248046875,0.0019508665427565575,-0.00024811504408717155,0.0008362922817468643
1772609962593246200,0.38624609375,0.000351867638528347,0.001639361958950758,0.0019205962307751179
1772609962603244300,0.396244384765625,0.0022720065899193287,-0.00044136587530374527,0.0005304259248077869
1772609962613242000,0.4062421875,-0.00035878829658031464,-0.00035242363810539246,-0.0021549868397414684
1772609962623240200,0.416240234375,0.00029288697987794876,0.003002360463142395,0.000606178306043148
1772609962633238300,0.42623828125,-0.0007361005991697311,0.000674316193908453,0.0007295156829059124
1772609962643235300,0.4362353515625,0.0018378444947302341,0.000960339792072773,0.0007646698504686356
1772609962653233400,0.4462333984375,0.0013232752680778503,0.0010413015261292458,-0.0016305283643305302
1772609962663231200,0.456231201171875,0.00004762131720781326,-0.002303362125530839,-0.0001482130028307438
1772609962673229300,0.466229248046875,-0.0024577779695391655,0.0026424825191497803,-0.0003831195645034313
1772609962683227400,0.476227294921875,-0.0005597425624728203,-0.0013653086498379707,0.0014107851311564445
1772609962693225200,0.48622509765625,0.0014151539653539658,0.00046366220340132713,0.0020278561860322952
1772609962703223300,0.496223388671875,-0.0008682403713464737,0.0003422219306230545,-0.0006230548024177551
1772609962713221400,0.506221435546875,0.0017674509435892105,0.00015989039093255997,-0.0017691482789814472
1772609962723218200,0.51621826171875,-0.0003843829035758972,0.00012313853949308395,0.000035942066460847855
1772609962733216300,0.52621630859375,-0.0009930022060871124,-0.0006940201856195927,-0.0021449318155646324
1772609962743214000,0.536214111328125,-0.0004244176670908928,0.0004905536770820618,0.00176698574796319
1772609962753212200,0.546212158203125,0.002197855617851019,0.0004568956792354584,-0.0002543148584663868
1772609962763210200,0.556210205078125,-0.0011500036343932152,-0.0007841372862458229,-0.00040158769115805626
1772609962773208000,0.5662080078125,-0.0012630708515644073,0.0011889138258993626,0.001289584208279848
1772609962783206100,0.5762060546875,0.001199287362396717,0.0012773307971656322,0.0017172875814139843
1772609962793203200,0.586203125,-0.0005096569657325745,-0.00041996827349066734,0.0020666192285716534
1772609962803201300,0.596201171875,-0.001391695812344551,-0.0002505914308130741,-0.0027651540003716946
1772609962813199400,0.606199462890625,-0.0007691150531172752,-0.0008254838176071644,-0.0013860170729458332
1772609962823197200,0.616197265625,-0.00026311445981264114,-0.002778912428766489,0.0011429204605519772
1772609962833195300,0.6261953125,-0.001217372715473175,0.0006685513071715832,0.00021432572975754738
1772609962843193300,0.636193359375,-0.0010208310559391975,-0.000023338012397289276,-0.0016773175448179245
1772609962853191200,0.646191162109375,-0.0005760351195931435,0.0004523009993135929,-0.0004970543086528778
1772609962863188200,0.656188232421875,0.0007944274693727493,-0.00035756640136241913,-0.0024528796784579754
1772609962873186000,0.66618603515625,0.0011034905910491943,0.00161016546189785,0.00011658435687422752
1772609962883184000,0.67618408203125,0.001975142862647772,0.000580853782594204,-0.0003185761161148548
1772609962893182200,0.68618212890625,-0.00039365701377391815,0.00021554762497544289,0.0022891941480338573
1772609962903180000,0.696179931640625,0.0003783935680985451,-0.0010252189822494984,-0.00014866329729557037
1772609962913178000,0.70617822265625,0.0008191075176000595,0.000987958163022995,-0.0007298998534679413
1772609962923176200,0.71617626953125,0.00024200044572353363,-0.0021178200840950012,-0.00033948058262467384
1772609962933173200,0.72617333984375,0.001367689110338688,0.0028443289920687675,0.0029773986898362637
1772609962943171300,0.73617138671875,0.0013335999101400375,0.0009361742995679379,-0.0029071217868477106
1772609962953169400,0.74616943359375,-0.000028490088880062103,-0.0005434551276266575,-0.0007713595405220985
1772609962963167200,0.756167236328125,-0.00023568328469991684,-0.0018065925687551498,-0.001782029401510954
1772609962973165300,0.766165283203125,0.00017201527953147888,-0.00197225296869874,-0.0010698786936700344
1772609962983163100,0.7761630859375,0.0021025403402745724,-0.002673729555681348,-0.0005649435333907604
1772609962993161200,0.7861611328125,-0.0016030063852667809,0.0011195987462997437,0.0003513959236443043
1772609963003158300,0.796158203125,0.0008737333118915558,0.0005861674435436726,0.0022198697552084923
1772609963013156000,0.806156005859375,0.0010042842477560043,0.0009804056026041508,-0.0008776197209954262
1772609963023154200,0.816154296875,-0.0003858860582113266,-0.0003652898594737053,0.000052356161177158356
1772609963033152300,0.82615234375,-0.0016681402921676636,-0.00004988117143511772,0.00003134971484541893
1772609963043150000,0.836150146484375,-0.001563211902976036,0.003178136423230171,0.0012159240432083607
1772609963053148200,0.846148193359375,-0.00031140726059675217,-0.00036805495619773865,0.0028486638329923153
1772609963063146200,0.856146240234375,-0.002024352550506592,0.00008068745955824852,0.0008108131587505341
1772609963073143300,0.866143310546875,0.0020672096870839596,0.000830293633043766,-0.001824873499572277
1772609963083141400,0.876141357421875,0.0014773192815482616,-0.0016424511559307575,-0.00017211586236953735
1772609963093139200,0.88613916015625,0.00018570013344287872,0.0003935215063393116,-0.00046562356874346733
1772609963103137300,0.89613720703125,0.002311968244612217,0.000817496795207262,-0.0008693588897585869
1772609963113135400,0.90613525390625,-0.0006384896114468575,-0.0011781859211623669,-0.00019128574058413506
1772609963123133200,0.91613330078125,-0.0015956293791532516,-0.00013715634122490883,0.0007181838154792786
1772609963133131300,0.92613134765625,0.0005564354360103607,0.0004999670200049877,0.0008314987644553185
1772609963143129000,0.936129150390625,0.0006749462336301804,0.0005321912467479706,0.0005638510920107365
1772609963153126100,0.946126220703125,-0.0005262084305286407,0.0004182918928563595,0.00016000168398022652
1772609963163124200,0.956124267578125,-0.0007768115028738976,-0.0004102177917957306,-0.0014477488584816456
1772609963173122000,0.9661220703125,-0.001347620040178299,-0.001219282392412424,-0.0005597532726824284
1772609963183120100,0.9761201171875,-0.00017662812024354935,-0.0003518909215927124,0.00016968650743365288
1772609963193118200,0.9861181640625,0.0003426196053624153,-0.0015829862095415592,0.001522192731499672
1772609963203116300,0.9961162109375,-0.0009756451472640038,0.0005840277299284935,-0.00256895599886775
1772609963213114400,1.0061142578125,0.0003968430683016777,-0.0006871866062283516,0.0033171786926686764
1772609963223111200,1.016111083984375,-0.002139551565051079,0.0013946066610515118,0.0006670677103102207
1772609963233109200,1.026109130859375,0.0012571364641189575,0.0016009951941668987,-0.001222809311002493
1772609963243107300,1.036107421875,-0.0005620690062642097,0.00040390435606241226,0.0002903989516198635
1772609963253105200,1.046105224609375,-0.0015111276879906654,0.000492424238473177,0.0011929543688893318
1772609963263103200,1.056103271484375,-0.00013986602425575256,-0.000831166747957468,0.0020638080313801765
1772609963273101300,1.066101318359375,-0.0017128726467490196,-0.0006535276770591736,0.0004884297959506512
1772609963283099100,1.07609912109375,-0.000014308840036392212,-0.0006002644076943398,-0.0018429011106491089
1772609963293096200,1.08609619140625,0.00007349997758865356,0.000674316193908453,0.0003249817527830601
1772609963303094300,1.09609423828125,0.0017196000553667545,0.0009891018271446228,0.000872527714818716
1772609963313092400,1.10609228515625,-0.0007415544241666794,0.0005788984708487988,-0.00010454095900058746
1772609963323090400,1.11609033203125,0.0009351717308163643,0.0012473519891500473,0.000553792342543602
1772609963333088300,1.126088134765625,0.002305466216057539,-0.0007545496337115765,0.0022189682349562645
1772609963343086300,1.13608642578125,-0.0018951371312141418,-0.00007357960566878319,-0.002390963491052389
1772609963353084400,1.14608447265625,-0.00016500428318977356,0.00019459519535303116,-0.0005548610351979733
1772609963363081200,1.156081298828125,0.0012850863859057426,-0.002367365639656782,-0.0003567216917872429
1772609963373079300,1.166079345703125,0.0017428365536034107,-0.0006709303706884384,-0.0007526851259171963
1772609963383077000,1.1760771484375,0.0010165926069021225,0.0013192500919103622,0.00050406064838171
1772609963393075200,1.1860751953125,-0.003200751729309559,-0.001207918394356966,-0.0026287464424967766
1772609963403073300,1.1960732421875,-0.00038685649633407593,0.0006688111461699009,-0.0014500315301120281
1772609963413071000,1.206071044921875,-0.00024343840777873993,-0.0017394926398992538,-0.00004722503945231438
1772609963423069200,1.216069091796875,0.0012268926948308945,-0.0009980686008930206,0.0018113949336111546
1772609963433067300,1.2260673828125,-0.0015171580016613007,0.002068478614091873,-0.0012764260172843933
1772609963443064300,1.236064208984375,-0.00032246392220258713,0.001863415353000164,-0.00044898176565766335
1772609963453062400,1.2460625,-0.0003465944901108742,-0.001520555466413498,-0.0017664548940956593
1772609963463060200,1.256060302734375,0.0009945733472704887,0.0015748366713523865,0.0019539808854460716
1772609963473058300,1.266058349609375,-0.00002933293581008911,-0.00011985097080469131,-0.0006182882934808731
1772609963483056400,1.276056396484375,0.00006014946848154068,-0.000783244613558054,-0.0010441276244819164
1772609963493054200,1.28605419921875,0.0013744775205850601,-0.000287539791315794,-0.0003724456764757633
1772609963503052300,1.29605224609375,0.000214405357837677,-0.00026756618171930313,0.002297373488545418
1772609963513049000,1.306049072265625,0.0014997627586126328,-0.000558734405785799,-0.0013047531247138977
1772609963523047200,1.316047119140625,-0.0012270482257008553,0.0006351605989038944,0.002297705039381981
1772609963533045200,1.326045166015625,-0.00046708621084690094,0.0038516391068696976,0.0009773257188498974
1772609963543043000,1.33604296875,0.0010136319324374199,0.000727484468370676,0.0010132784955203533
1772609963553041200,1.346041259765625,-0.0007211519405245781,0.0011796895414590836,-0.0027436427772045135
1772609963563039200,1.356039306640625,0.0002349233254790306,0.0034167449921369553,0.001156024169176817
1772609963573037000,1.366037109375,0.0009814277291297913,0.0013328343629837036,-0.0006464570760726929
1772609963583034000,1.3760341796875,-0.002324087545275688,0.001480373553931713,-0.0018094591796398163
1772609963593032200,1.3860322265625,-0.0014413241297006607,0.0016419198364019394,0.0016985130496323109
1772609963603030300,1.3960302734375,-0.00006313808262348175,0.00036253733560442924,-0.003997988998889923
1772609963613028000,1.406028076171875,0.0009585889056324959,0.0002405541017651558,-0.001302317250519991
1772609963623026200,1.416026123046875,-0.0026744958013296127,0.00025626691058278084,-0.0013883374631404877
1772609963633024300,1.426024169921875,-0.0013847621157765388,-0.0010024714283645153,0.0001920228824019432
1772609963643022000,1.43602197265625,0.000902094878256321,0.0014806599356234074,0.001001889817416668
1772609963653019100,1.44601904296875,-0.001813586801290512,-0.0013048043474555016,-0.0003624390810728073
1772609963663017000,1.456016845703125,0.0018498576246201992,0.00009655114263296127,-0.0022237226366996765
1772609963673015000,1.46601513671875,-0.001556001603603363,-0.000054652802646160126,0.0008524125441908836
1772609963683013000,1.47601318359375,-0.00033201277256011963,0.000020448584109544754,0.0003858269192278385
1772609963693011000,1.486010986328125,-0.0009849518537521362,-0.00042795855551958084,0.0017097173258662224
1772609963703009000,1.496009033203125,-0.001863262616097927,0.0015129530802369118,0.000004761386662721634
1772609963713007000,1.506007080078125,0.0005071824416518211,0.00002374919131398201,0.0007165740244090557
1772609963723004200,1.516004150390625,-0.0006411727517843246,0.002511408179998398,-0.0008522942662239075
1772609963733002200,1.526002197265625,0.00010848138481378555,-0.00006784172728657722,-0.0003741229884326458
1772609963743000000,1.536,-0.0006779506802558899,-0.0007525407709181309,0.0014232443645596504
1772609963752998100,1.545998046875,-0.0008193971589207649,-0.0009511131793260574,-0.0026155835948884487
1772609963762996200,1.555996337890625,-0.0014098193496465683,0.000498445238918066,-0.0006115548312664032
1772609963772994000,1.565994140625,-0.0011622756719589233,0.0021577957086265087,-0.000255705788731575
1772609963782992100,1.5759921875,0.0022487007081508636,-0.00011654431000351906,-0.0007084431126713753
1772609963792989200,1.5859892578125,-0.0009393347427248955,-0.002337047830224037,-0.003093270817771554
1772609963802987000,1.595987060546875,0.002022898755967617,0.001085380557924509,-0.0008215946145355701
1772609963812985000,1.605985107421875,-0.00011462066322565079,-0.0016005439683794975,0.001089130062609911
1772609963822983000,1.61598291015625,-0.0003375271335244179,0.0018807402811944485,0.0013770177029073238
1772609963832981000,1.62598095703125,-0.00034088362008333206,-0.00036231428384780884,0.00020765699446201324
1772609963842979000,1.63597900390625,0.0006894925609230995,-0.00042756134644150734,-0.0006149932742118835
1772609963852977200,1.64597705078125,-0.0008388031274080276,0.000974645372480154,-0.0018797684460878372
1772609963862975200,1.655975341796875,0.0006997045129537582,-0.0001579970121383667,-0.0009428681805729866
1772609963872972300,1.66597216796875,0.0006700893864035606,0.0003415732644498348,-0.0018286844715476036
1772609963882970000,1.67597021484375,-0.0004431111738085747,-0.0003186245448887348,0.0000022384338080883026
1772609963892968200,1.68596826171875,-0.0016086222603917122,-0.0004141428507864475,0.0032896902412176132
1772609963902966300,1.69596630859375,-0.00022564269602298737,0.0010234317742288113,-0.0029309215024113655
1772609963912964000,1.705964111328125,-0.00034505780786275864,-0.0011894539929926395,-0.001996102277189493
1772609963922962200,1.715962158203125,-0.0003852713853120804,0.0014745057560503483,-0.000014177989214658737
1772609963932960000,1.7259599609375,0.000777585431933403,0.0006092507392168045,0.0008865254931151867
1772609963942957000,1.73595703125,-0.0004139132797718048,-0.003341016126796603,-0.00008446304127573967
1772609963952955100,1.745955078125,0.0020077438093721867,0.0017877104692161083,-0.0005363780073821545
1772609963962953200,1.755953125,0.0006119813770055771,-0.0012229932472109795,0.0001730881631374359
1772609963972951300,1.765951416015625,0.0008526081219315529,0.0016194130294024944,-0.0017560692504048347
1772609963982949400,1.775949462890625,-0.0006779097020626068,-0.000036008190363645554,-0.0008042552508413792
1772609963992947200,1.785947265625,-0.0018152324482798576,-0.0007061152718961239,-0.0008228574879467487
1772609964002945300,1.7959453125,-0.0018229549750685692,-0.0003101029433310032,-0.001784791238605976
1772609964012942000,1.805942138671875,0.0007708193734288216,0.0007228483445942402,0.003278573974967003
1772609964022940200,1.815940185546875,-0.001777825877070427,0.00007143896073102951,-0.00045358017086982727
1772609964032938200,1.825938232421875,0.0009582769125699997,0.001373056322336197,0.0006474745459854603
1772609964042936000,1.83593603515625,-0.0007083294913172722,-0.00037557538598775864,-0.0001751757226884365
1772609964052934100,1.84593408203125,-0.0007308898493647575,0.002762013580650091,-0.00012970296666026115
1772609964062932200,1.85593212890625,-0.0015029394999146461,0.0013169827871024609,-0.0016327910125255585
1772609964072930000,1.865929931640625,0.000714082270860672,0.0004937718622386456,0.00075187673792243
1772609964082927000,1.875927001953125,-0.00006755534559488297,0.002729495521634817,-0.00003269081935286522
1772609964092925200,1.88592529296875,-0.0007720943540334702,-0.00018720095977187157,0.0020072171464562416
1772609964102923300,1.89592333984375,-0.0018389569595456123,0.0004226625896990299,-0.0009600771591067314
1772609964112921300,1.90592138671875,0.0007080733776092529,0.0012081773020327091,-0.0005317982286214828
1772609964122919200,1.915919189453125,-0.0016791848465800285,0.00007952935993671417,-0.0014593773521482944
1772609964132917200,1.925917236328125,0.001743687316775322,-0.000658226665109396,-0.0017146607860922813
1772609964142915300,1.935915283203125,-0.0001365048810839653,0.0014888136647641659,-0.0012201122008264065
1772609964152913200,1.9459130859375,-0.0016850084066390991,0.0010340572334825993,0.002081193495541811
1772609964162910200,1.95591015625,0.0021680528298020363,-0.0009143115021288395,0.002197041641920805
1772609964172908000,1.965907958984375,-0.0007668035104870796,-0.0020444761030375957,-0.000668342225253582
1772609964182906000,1.975906005859375,-0.001053893007338047,0.0018999315798282623,0.0005489885807037354
1772609964192904200,1.985904296875,-0.001680184155702591,0.0004521324299275875,-0.00125045794993639
1772609964202902000,1.995902099609375,-0.0000881468877196312,-0.0011292528361082077,0.00009949831292033195
1772609964212900000,2.005900146484375,-0.0021759597584605217,0.0003070463426411152,0.0019160960800945759
1772609964222898200,2.015898193359375,-0.000006282702088356018,0.0007491311989724636,0.000925667118281126
1772609964232895200,2.025895263671875,-0.00019186176359653473,0.0008556889370083809,0.0002752779982984066
1772609964242893300,2.035893310546875,0.002110441215336323,0.002373956609517336,-0.0005159475840628147
1772609964252891100,2.04589111328125,-0.0014193328097462654,0.0006254985928535461,0.0009956276044249535
1772609964262889200,2.05588916015625,-0.0010611377656459808,0.0008201757445931435,-0.0016230586916208267
1772609964272887300,2.06588720703125,0.00023919716477394104,0.0008971015922725201,0.0005588415078818798
1772609964282885000,2.075885009765625,0.0012831557542085648,0.000936250202357769,-0.0012092310935258865
1772609964292883200,2.08588330078125,-0.0020264768972992897,-0.001209133304655552,-0.0006006630137562752
1772609964302880000,2.0958798828125,0.0007679779082536697,0.00014242064207792282,-0.0019029485993087292
1772609964312878000,2.105878173828125,0.00023128092288970947,0.00016750209033489227,-0.0024268957786262035
1772609964322876200,2.115876220703125,-0.0011263983324170113,0.0003315526992082596,-0.00008837413042783737
1772609964332874000,2.1258740234375,-0.000720953568816185,-0.0003279512748122215,0.0010696984827518463
1772609964342872000,2.1358720703125,-0.000026401132345199585,0.0017450531013309956,0.0008310796692967415
1772609964352870100,2.1458701171875,-0.001355508342385292,0.0013590939342975616,-0.000040315091609954834
1772609964362868000,2.155867919921875,-0.0009096954017877579,-0.0017719846218824387,0.000779405701905489
1772609964372865300,2.165865234375,-0.00033044442534446716,0.0009690760634839535,-0.000054152216762304306
1772609964382863000,2.175863037109375,-0.0004233885556459427,0.002729692030698061,0.0001362636685371399
1772609964392861200,2.185861083984375,0.0014490410685539246,0.0011906437575817108,-0.0010168333537876606
1772609964402859300,2.195859375,0.0019097677432000637,0.0029874788597226143,-0.002047476824373007
1772609964412857000,2.205857177734375,-0.0002070944756269455,-0.0006890520453453064,-0.0008578849956393242
1772609964422855200,2.215855224609375,0.0001694764941930771,0.000501380767673254,0.0004851473495364189
1772609964432853200,2.225853271484375,0.0011022631078958511,-0.0011593997478485107,-0.0013384944759309292
1772609964442850000,2.23585009765625,0.00027987919747829437,0.0004363660700619221,0.0003454224206507206
1772609964452848000,2.24584814453125,0.0011501014232635498,-0.0006720218807458878,0.0017888708971440792
1772609964462846000,2.255845947265625,-0.0008941413834691048,-0.0036116191186010838,-0.002258867956697941
1772609964472844000,2.265843994140625,-0.0013639433309435844,0.00031360331922769547,-0.0006353314965963364
1772609964482842000,2.275842041015625,-0.0009162658825516701,0.001170075498521328,0.001876295544207096
1772609964492840000,2.28583984375,-0.003369187004864216,-0.0010375343263149261,-0.0017951959744095802
1772609964502838000,2.295838134765625,-0.0007185423746705055,0.00178248668089509,-0.0004191407933831215
1772609964512836000,2.305836181640625,0.0011900030076503754,0.00032736919820308685,-0.0017353296279907227
1772609964522833200,2.315833251953125,-0.0017855465412139893,-0.0004337625578045845,0.0022516888566315174
1772609964532831200,2.325831298828125,0.0001556864008307457,0.0007605152204632759,-0.0011722049675881863
1772609964542829000,2.3358291015625,-0.0003119641914963722,-0.0006187357939779758,0.0014701830223202705
1772609964552827100,2.3458271484375,-0.0017640218138694763,-0.000473598949611187,0.0010615931823849678
1772609964562825200,2.3558251953125,-0.00032458268105983734,0.003578134346753359,0.0002466663718223572
1772609964572823000,2.365822998046875,-0.002605441026389599,-0.0031753990333527327,0.0008500423282384872
1772609964582820900,2.37582080078125,-0.0021196799352765083,0.0018601054325699806,0.00012006983160972595
1772609964592817700,2.385817626953125,-0.002901757135987282,-0.0001863120123744011,-0.0014522997662425041
1772609964602815700,2.395815673828125,-0.0009877430275082588,-0.000955699011683464,0.0011139223352074623
1772609964612813800,2.405813720703125,-0.00020336639136075974,0.0024482938461005688,0.0010050511918962002
1772609964622812000,2.41581201171875,0.001989480573683977,-0.001925948541611433,0.00000849645584821701
1772609964632810000,2.42581005859375,0.0013459259644150734,0.001414683647453785,0.0021468321792781353
1772609964642808000,2.43580810546875,-0.0005550384521484375,-0.0011571310460567474,0.0001795548014342785
1772609964652806000,2.445805908203125,-0.002720325253903866,0.00001413840800523758,-0.0008174027316272259
1772609964662803000,2.455802978515625,0.0019793547689914703,-0.0007371390238404274,0.001418587751686573
1772609964672800800,2.46580078125,-0.0012674499303102493,-0.00018216483294963837,0.0009219767525792122
1772609964682798800,2.475798828125,0.0011653481051325798,-0.0010474259033799171,-0.0010202666744589806
1772609964692797000,2.485796875,-0.0007234560325741768,0.0006939433515071869,0.0004619099199771881
1772609964702794800,2.495794677734375,-0.0001218477264046669,-0.0004906305111944675,-0.001653971616178751
1772609964712792800,2.505792724609375,-0.0003785649314522743,-0.0019242996349930763,-0.001082295086234808
1772609964722791000,2.515791015625,0.0013468973338603973,-0.0011799461208283901,0.0008666059002280235
1772609964732788000,2.5257880859375,0.0009636394679546356,0.0010122237727046013,0.0024937428534030914
1772609964742786000,2.5357861328125,0.00020304042845964432,-0.0011326861567795277,-0.001424300018697977
1772609964752784000,2.545783935546875,0.0005267783999443054,-0.0021393969655036926,-0.0019301297143101692
1772609964762782000,2.555781982421875,-0.0014447597786784172,-0.0003489539958536625,0.0002235686406493187
1772609964772780000,2.565780029296875,0.00006952881813049316,0.00001750420778989792,-0.0030223282519727945
1772609964782777900,2.57577783203125,-0.001454331912100315,-0.0020962466951459646,-0.000857178121805191
1772609964792776000,2.58577587890625,0.0017497939988970757,0.0002806037664413452,-0.0005113263614475727
1772609964802772700,2.595772705078125,0.0007886588573455811,-0.003110133111476898,-0.0004775039851665497
1772609964812770800,2.605770751953125,-0.002797177992761135,0.000193827785551548,0.00007020635530352592
1772609964822769000,2.615768798828125,0.0008766530081629753,-0.000298856757581234,0.0012545138597488403
1772609964832766700,2.6257666015625,-0.0000031748786568641663,-0.0003840578719973564,0.0005408064462244511
1772609964842764800,2.635764892578125,0.0012157540768384933,0.0004561697132885456,-0.001833135262131691
1772609964852763000,2.645762939453125,-0.0010302765294909477,-0.000977726187556982,0.00037981197237968445
1772609964862760700,2.6557607421875,-0.0013477252796292305,0.002711284440010786,0.0008530556224286556
1772609964872758800,2.6657587890625,0.0010360460728406906,0.0016483697108924389,0.0004266551695764065
1772609964882755800,2.675755859375,0.00020460691303014755,0.0004981504753232002,0.00012971274554729462
1772609964892754000,2.68575390625,0.001149662770330906,-0.0011363294906914234,0.00029003527015447617
1772609964902752000,2.695751953125,0.0007794834673404694,0.0013670418411493301,-0.0006117108277976513
1772609964912749800,2.705749755859375,-0.000009669922292232513,-0.0022208383306860924,-0.000426421407610178
1772609964922748000,2.715747802734375,0.0006934050470590591,-0.0019161729142069817,-0.0005113761872053146
1772609964932746000,2.72574609375,0.0014359485357999802,-0.0010471376590430737,-0.0019570649601519108
1772609964942743800,2.735743896484375,0.0009669661521911621,-0.0018293079920113087,0.00018438324332237244
1772609964952740900,2.745740966796875,0.00002800673246383667,0.00014687329530715942,-0.0019954717718064785
1772609964962738700,2.75573876953125,0.00015583820641040802,-0.0002331598661839962,0.00036808382719755173
1772609964972736800,2.76573681640625,-0.002645832486450672,-0.0006535500288009644,0.000670052133500576
1772609964982734800,2.77573486328125,-0.001363520510494709,-0.0006527509540319443,-0.0005432842299342155
1772609964992732700,2.785732666015625,0.0023116222582757473,0.00035788025707006454,0.0018415316008031368
1772609965002730800,2.795730712890625,0.00005512591451406479,-0.0011872858740389347,-0.00048580486327409744
1772609965012728800,2.805728759765625,-0.0009627863764762878,-0.0012825820595026016,-0.00004441849887371063
1772609965022726000,2.815725830078125,-0.0007808925583958626,-0.00044688209891319275,0.00007595634087920189
1772609965032724000,2.825723876953125,0.002094358205795288,0.0009834114462137222,-0.0007558688521385193
1772609965042721800,2.8357216796875,0.0009699715301394463,0.001560252159833908,-0.0006634569726884365
1772609965052719900,2.845719970703125,0.0014164373278617859,0.0005585127510130405,-0.00006959587335586548
1772609965062718000,2.855718017578125,0.00018073059618473053,-0.0025509942788630724,-0.0014760112389922142
1772609965072715800,2.8657158203125,0.0032150661572813988,0.0009529246017336845,-0.0006818315014243126
1772609965082713900,2.8757138671875,0.0005239415913820267,0.0008695675060153008,-0.0009707845747470856
1772609965092711000,2.8857109375,-0.0003813384100794792,0.001116931438446045,-0.0018098358996212482
1772609965102708700,2.895708740234375,0.0003225347027182579,0.00021784845739603043,0.0031795967370271683
1772609965112706800,2.905706787109375,-0.0012951921671628952,-0.0010313112288713455,-0.0010555866174399853
1772609965122704600,2.91570458984375,0.0005759447813034058,-0.0010062777437269688,0.0011457828804850578
1772609965132702700,2.92570263671875,0.00023827143013477325,0.002024361863732338,-0.0013996334746479988
1772609965142700800,2.93570068359375,-0.0017899926751852036,-0.001179154496639967,0.001575117465108633
1772609965152699000,2.945698974609375,-0.001479271799325943,-0.00121753616258502,-0.0003008311614394188
1772609965162696000,2.955696044921875,0.00044353120028972626,0.0008107274770736694,0.0022755106911063194
1772609965172694000,2.965694091796875,0.00017924048006534576,0.000559572596102953,-0.00028026243671774864
1772609965182691800,2.97569189453125,0.00006312690675258636,-0.000267605297267437,-0.000712227076292038
1772609965192690000,2.98568994140625,0.0006136931478977203,-0.0001413901336491108,-0.001916804350912571
1772609965202687700,2.995687744140625,0.000154031440615654,0.0012035057879984379,0.0010749907232820988
1772609965212685800,3.005685791015625,-0.0024453867226839066,0.0023809983395040035,0.0004916819743812084
1772609965222684000,3.015683837890625,0.0020276587456464767,-0.00048589427024126053,0.000880237203091383
1772609965232680700,3.0256806640625,-0.00041860248893499374,0.0010135308839380741,-0.0011146343313157558
1772609965242678800,3.0356787109375,0.00008233822882175446,0.00025346502661705017,-0.0006445865146815777
1772609965252676900,3.0456767578125,-0.0017319601029157639,0.000013130251318216324,-0.00034372927621006966
1772609965262674700,3.0556748046875,0.0003322567790746689,0.000038164202123880386,0.0011649513617157936
1772609965272672800,3.0656728515625,0.0011605732142925262,0.0006509618833661079,-0.00006673671305179596
1772609965282670800,3.0756708984375,0.0009115682914853096,0.00014309678226709366,-0.0024657119065523148
1772609965292669000,3.0856689453125,0.00024134013801813126,0.0009644525125622749,0.0014593363739550114
1772609965302667000,3.0956669921875,0.00012309569865465164,-0.0007218611426651478,-0.0017569633200764656
1772609965312663800,3.105663818359375,-0.0014185840263962746,-0.001372840255498886,-0.0011009727604687214
1772609965322662000,3.115661865234375,0.0019780113361775875,0.0011446462012827396,0.001994685735553503
1772609965332660000,3.125659912109375,-0.0010633952915668488,0.00010903133079409599,0.002934857737272978
1772609965342657800,3.13565771484375,-0.0004537971690297127,0.0017508701421320438,-0.001173867378383875
1772609965352656000,3.14565576171875,0.0011599650606513023,0.000699708703905344,0.0031070648692548275
1772609965362654000,3.155654052734375,-0.0015857536345720291,0.0029783095233142376,-0.000494061503559351
1772609965372651800,3.16565185546875,0.0011476688086986542,0.0002177567221224308,0.0012054960243403912
1772609965382648800,3.17564892578125,-0.00015461724251508713,-0.0005574896931648254,0.0011101546697318554
1772609965392647000,3.18564697265625,-0.0036144480109214783,-0.0005362448282539845,0.0006731012836098671
1772609965402645000,3.19564501953125,-0.0005070716142654419,-0.0019250833429396152,0.0011735092848539352
1772609965412643000,3.20564306640625,0.001300460658967495,-0.0005961018614470959,0.00010939408093690872
1772609965422641000,3.215640869140625,-0.00030462630093097687,0.0016430839896202087,0.0009211255237460136
1772609965432639000,3.225638916015625,-0.0006830086931586266,-0.00031220540404319763,-0.0004206751473248005
1772609965442637000,3.235636962890625,0.0007985075935721397,-0.00074789859354496,-0.0016742250882089138
1772609965452633900,3.2456337890625,0.0021179821342229843,-0.0003567035309970379,-0.00013434048742055893
1772609965462632000,3.2556318359375,0.0004734797403216362,-0.00040730368345975876,-0.0002296813763678074
1772609965472629800,3.265629638671875,0.0002951333299279213,0.00039210449904203415,-0.002421453595161438
1772609965482627800,3.2756279296875,0.0010783690959215164,-0.00037888064980506897,-0.0028475592844188213
1772609965492626000,3.2856259765625,0.0005608955398201942,-0.0007616034708917141,0.0020400090143084526
1772609965502623700,3.295623779296875,-0.003498295322060585,-0.000031365081667900085,-0.000257234089076519
1772609965512621800,3.305621826171875,-0.0007016453891992569,-0.0009995666332542896,-0.000589434988796711
1772609965522619000,3.315618896484375,-0.0013764901086688042,-0.0013915840536355972,-0.0017276699654757977
1772609965532617000,3.325616943359375,-0.0003643287345767021,-0.0012051071971654892,0.0012528030201792717
1772609965542615000,3.335614990234375,-0.000971795991063118,-0.00010921619832515717,-0.0016652229242026806
1772609965552612900,3.34561279296875,0.00022475887089967728,0.00017507141456007957,0.0015126392245292664
1772609965562611000,3.35561083984375,0.001244216226041317,-0.0033304474782198668,-0.0009276154451072216
1772609965572609000,3.365609130859375,-0.0002663256600499153,0.0009532738476991653,0.000507062766700983
1772609965582607400,3.375607421875,-0.0026256199926137924,0.0006944146007299423,-0.00005832640454173088
1772609965592605200,3.385605224609375,0.0017413594760000706,0.00033945171162486076,-0.00034549180418252945
1772609965602602200,3.395602294921875,-0.00035641249269247055,0.0016851467080414295,0.00009126681834459305
1772609965612600300,3.405600341796875,-0.0006925547495484352,-0.0023082562256604433,0.0010871030390262604
1772609965622598100,3.41559814453125,0.002516821026802063,-0.001233404502272606,-0.00013235816732048988
1772609965632596200,3.42559619140625,0.00017820391803979874,-0.0008629891090095043,0.0018949620425701141
1772609965642594300,3.43559423828125,-0.00017093680799007416,0.0013602175749838352,-0.0005032145418226719
1772609965652592000,3.445592041015625,0.00042043160647153854,0.00032336916774511337,0.0012182588689029217
1772609965662590200,3.455590087890625,-0.00025867484509944916,-0.0009277835488319397,-0.00004434539005160332
1772609965672587300,3.465587158203125,-0.0015558097511529922,0.000056338030844926834,-0.002166987396776676
1772609965682585300,3.47558544921875,-0.000412781722843647,0.0014995047822594643,0.00005701836198568344
1772609965692583400,3.48558349609375,0.0003331732004880905,0.0008111149072647095,-0.0015363488346338272
1772609965702581200,3.495581298828125,-0.0016839047893881798,0.001703539863228798,-0.00023938948288559914
1772609965712579300,3.505579345703125,0.0007868483662605286,0.0008435421623289585,-0.0021711871959269047
1772609965722577400,3.515577392578125,0.0032055312767624855,0.00030931225046515465,-0.0002925936132669449
1772609965732575200,3.5255751953125,0.0006217481568455696,0.0008466746658086777,-0.00005585094913840294
1772609965742572300,3.535572265625,0.0023085945285856724,0.000816314946860075,0.0003862339071929455
1772609965752570000,3.545570068359375,-0.00027688220143318176,0.0015295734629034996,0.0003775153309106827
1772609965762568200,3.555568115234375,0.0002216612920165062,0.001740229781717062,-0.0006541935727000237
1772609965772566300,3.565566162109375,0.0009240424260497093,-0.0010989787988364697,-0.0017289933748543262
1772609965782564000,3.575564208984375,0.0013762470334768295,-0.0002963016740977764,-0.0008000824600458145
1772609965792562200,3.585562255859375,0.0011294232681393623,0.0002783588133752346,-0.0009485967457294464
1772609965802560300,3.595560302734375,0.0007222257554531097,0.0011540059931576252,-0.0009603146463632584
1772609965812557300,3.605557373046875,0.0005314629524946213,0.0026278896257281303,0.0009777555242180824
1772609965822555400,3.615555419921875,0.0006129555404186249,0.00008084205910563469,0.0011274251155555248
1772609965832553200,3.62555322265625,0.0017526722513139248,-0.0006407457403838634,0.0016431543044745922
1772609965842551300,3.63555126953125,0.0007987283170223236,-0.0017454251646995544,0.0010186424478888512
1772609965852549400,3.64554931640625,0.0038028033450245857,-0.0016537499614059925,-0.0026058871299028397
1772609965862547200,3.655547119140625,0.0013886475935578346,0.0009505553171038628,0.001008555293083191
1772609965872545300,3.665545166015625,0.0005204174667596817,-0.0016342131420969963,-0.0009685633704066277
1772609965882542000,3.6755419921875,0.0018695746548473835,0.002778911031782627,-0.003084977623075247
1772609965892540200,3.6855400390625,0.000922108069062233,0.0007195025682449341,-0.0016197501681745052
1772609965902538200,3.695538330078125,-0.0006230585277080536,0.001874782145023346,-0.000595232006162405
1772609965912536000,3.7055361328125,0.0004773112013936043,0.0018518799915909767,0.0007934877648949623
1772609965922534100,3.7155341796875,0.002180136274546385,0.002592239063233137,-0.0015809866599738598
1772609965932532200,3.7255322265625,0.0010325983166694641,-0.0011498518288135529,0.001039471011608839
1772609965942530000,3.735530029296875,0.00007279589772224426,0.0008898628875613213,-0.00004709837958216667
1772609965952527400,3.74552734375,0.0009005200117826462,-0.002228018594905734,0.0012346301227807999
1772609965962525200,3.755525146484375,-0.0005684802308678627,0.0017091985791921616,0.0009797653183341026
1772609965972523300,3.765523193359375,-0.00019431672990322113,-0.0021643158979713917,0.00012845173478126526
1772609965982521300,3.775521240234375,0.0005843909457325935,-0.0013571116141974926,0.0011114240624010563
1772609965992519200,3.785519287109375,0.0019512148573994637,0.000048436690121889114,-0.0013883155770599842
1772609966002517200,3.795517333984375,-0.0005604121834039688,-0.00009697163477540016,-0.00004022335633635521
1772609966012515300,3.805515380859375,0.000022112391889095306,0.00022881757467985153,-0.0024727461859583855
1772609966022513200,3.81551318359375,-0.0011635273694992065,-0.0002185935154557228,-0.0013667354360222816
1772609966032510200,3.82551025390625,-0.0012986445799469948,0.000008257105946540833,-0.0023561902344226837
1772609966042508000,3.835508056640625,-0.0007114177569746971,0.00012277299538254738,0.0010284208692610264
1772609966052506000,3.845506103515625,-0.000050115399062633514,-0.0009552864357829094,0.00017771730199456215
1772609966062504200,3.855504150390625,0.00023138057440519333,0.0005813576281070709,-0.0018580029718577862
1772609966072502000,3.865501953125,0.0007002875208854675,0.0020447936840355396,-0.0011661485768854618
1772609966082500000,3.8755,0.0005913637578487396,0.00018750503659248352,0.002091962844133377
1772609966092498200,3.885498291015625,0.0010325629264116287,0.001262884121388197,0.0005391589365899563
1772609966102495200,3.8954951171875,-0.00018530059605836868,0.0005755224265158176,-0.0007269075140357018
1772609966112493300,3.905493408203125,0.002315065823495388,-0.001567270141094923,-0.0008105989545583725
1772609966122491100,3.9154912109375,-0.00003197789192199707,0.0014210627414286137,-0.0007408242672681808
1772609966132489200,3.9254892578125,0.00017611216753721237,-0.0009379209950566292,0.0012250016443431377
1772609966142487300,3.9354873046875,-0.0012556035071611404,-0.00007372535765171051,-0.0005454681813716888
1772609966152485000,3.945485107421875,-0.0005649123340845108,0.0005965195596218109,-0.0014281016774475574
1772609966162483200,3.955483154296875,0.0010729311034083366,-0.00010575586929917336,-0.0014856262132525444
1772609966172480300,3.965480224609375,0.001020515337586403,-0.00008288165554404259,0.000042389146983623505
1772609966182478000,3.97547802734375,-0.00005806516855955124,0.0020130258053541183,0.0008583818562328815
1772609966192476200,3.98547607421875,0.0009540105238556862,-0.0003949101082980633,-0.0016452781856060028
1772609966202474200,3.99547412109375,-0.0018969038501381874,0.0014623785391449928,0.0006793951615691185
1772609966212472300,4.005472412109375,-0.0005016932263970375,-0.0011562001891434193,-0.0008842777460813522
1772609966222470400,4.015470458984375,0.0008581159636378288,0.0013785967603325844,0.00010615214705467224
1772609966232468200,4.02546826171875,0.000257677398622036,-0.0005262307822704315,-0.0009748446755111217
1772609966242466300,4.03546630859375,-0.00029359664767980576,0.0006554140709340572,0.0007679276168346405
1772609966252463400,4.04546337890625,-0.0012832386419177055,0.0005939211696386337,0.002069958485662937
1772609966262461200,4.055461181640625,-0.00038921553641557693,0.000060490332543849945,0.0027165738865733147
1772609966272459300,4.065459228515625,-0.0001406632363796234,-0.0006972900591790676,-0.00047091906890273094
1772609966282457000,4.07545703125,0.0010939780622720718,-0.000023776665329933167,-0.0015090196393430233
1772609966292455200,4.085455078125,-0.0018099518492817879,-0.0007615732029080391,0.0005659847520291805
1772609966302453200,4.095453369140625,0.0007698517292737961,0.00039024418219923973,-0.0006079366430640221
1772609966312451000,4.105451171875,-0.0007764557376503944,-0.0008723740465939045,-0.0007348195649683475
1772609966322448100,4.1154482421875,0.00008667539805173874,-0.0021637410391122103,-0.0006951382383704185
1772609966332446500,4.125446533203125,0.0012261206284165382,0.0012031318619847298,0.0014070072211325169
1772609966342444300,4.1354443359375,-0.0005041342228651047,-0.0013551008887588978,-0.002478810492902994
1772609966352442400,4.1454423828125,0.0007800348103046417,0.0008190837688744068,-0.0006060549058020115
1772609966362440200,4.155440185546875,0.000180024653673172,-0.0007146308198571205,-0.0001439964398741722
1772609966372438300,4.165438232421875,0.00012345705181360245,0.001740722917020321,0.0012741056270897388
1772609966382436400,4.175436279296875,0.0006025601178407669,0.0009961030445992947,-0.001932073850184679
1772609966392433200,4.18543310546875,0.0003547957167029381,0.00030246609821915627,-0.0015006312169134617
1772609966402431200,4.19543115234375,0.00012230221182107925,0.0005956804379820824,0.0011510779149830341
1772609966412429300,4.20542919921875,0.0005964385345578194,0.00047960784286260605,-0.00010305596515536308
1772609966422427100,4.21542724609375,0.0005599530413746834,-0.0017332127317786217,0.0002916245721280575
1772609966432425200,4.22542529296875,0.0006997771561145782,0.0022925040684640408,0.002147240098565817
1772609966442423300,4.23542333984375,0.0007818024605512619,-0.0014013005420565605,0.0006273742765188217
1772609966452421000,4.245421142578125,0.00019229017198085785,-0.00010249344632029533,-0.0007366775535047054
1772609966462418400,4.25541845703125,-0.002851170487701893,0.00021096039563417435,-0.0016272389329969883
1772609966472416300,4.265416259765625,-0.00011045392602682114,-0.00003523193299770355,-0.0009869798086583614
1772609966482414300,4.275414306640625,-0.000772782601416111,0.0007472047582268715,0.0011422173120081425
1772609966492412400,4.285412353515625,0.0009044045582413673,-0.0003490452654659748,0.0004685758613049984
1772609966502410200,4.29541015625,0.0014873705804347992,-0.0004355977289378643,-0.00010586809366941452
1772609966512408300,4.305408203125,0.00036749523133039474,0.0017468403093516827,0.0019864183850586414
1772609966522406400,4.315406494140625,0.0012998683378100395,-0.00011364417150616646,0.00010409625247120857
1772609966532404200,4.325404296875,0.0010006316006183624,-0.0007023457437753677,0.0011293832212686539
1772609966542401300,4.3354013671875,-0.0025267256423830986,0.0000952710397541523,0.0003642570227384567
1772609966552399000,4.345399169921875,0.000020823441445827484,-0.0007984405383467674,-0.00011096987873315811
1772609966562397200,4.355397216796875,-0.0006340481340885162,-0.0009688828140497208,-0.0037336680106818676
1772609966572395300,4.365395263671875,0.002441052347421646,-0.0008342601358890533,0.0009370455518364906
1772609966582393000,4.37539306640625,0.0001254342496395111,0.0007732235826551914,0.0003277142532169819
1772609966592391200,4.38539111328125,0.001434052363038063,-0.0001164809800684452,0.0012006396427750587
1772609966602389000,4.395388916015625,-0.0005332250148057938,-0.002077100332826376,0.0012890566140413284
1772609966612386300,4.40538623046875,0.0020094644278287888,0.000835503451526165,0.00017549097537994385
1772609966622384000,4.415384033203125,0.0012126462534070015,0.003872839268296957,0.00035179220139980316
1772609966632382200,4.42538232421875,0.0006740940734744072,-0.0014842590317130089,0.00035345135256648064
1772609966642380300,4.43538037109375,-0.0006492305546998978,-0.00005840277299284935,-0.0009933090768754482
1772609966652378000,4.445378173828125,0.000838003121316433,0.00008150190114974976,-0.00043307850137352943
1772609966662376200,4.455376220703125,-0.0026366226375102997,-0.0014018788933753967,-0.0002807457931339741
1772609966672374300,4.465374267578125,-0.0018958291038870811,0.0003743879497051239,-0.0003444291651248932
1772609966682371000,4.47537109375,0.0006019491702318192,-0.0011252379044890404,0.00039646215736866
1772609966692369200,4.485369140625,0.0007685590535402298,0.0004637031815946102,0.0016966317780315876
1772609966702367000,4.495366943359375,0.0018468727357685566,-0.0006023603491485119,-0.001615807879716158
1772609966712365000,4.505364990234375,-0.0014115199446678162,0.001045876182615757,0.0013389033265411854
1772609966722363100,4.515363037109375,-0.0018064668402075768,0.0017867679707705975,-0.0006475485861301422
1772609966732361000,4.52536083984375,-0.00018507055938243866,0.0008277781307697296,0.0020575476810336113
1772609966742359000,4.535359130859375,0.0024964669719338417,0.001741242129355669,0.002523333765566349
1772609966752357000,4.545357177734375,-0.00043271854519844055,-0.00007705390453338623,-0.0006270413286983967
1772609966762354200,4.555354248046875,0.000014426186680793762,-0.000373197253793478,0.001261938363313675
1772609966772352300,4.565352294921875,0.0003235219046473503,-0.0009300308302044868,-0.0017871744930744171
1772609966782350000,4.57535009765625,-0.0004911385476589203,-0.0012038038112223148,0.0012240619398653507
1772609966792348200,4.58534814453125,-0.0002431776374578476,-0.0011992072686553001,0.0007691062055528164
1772609966802346200,4.59534619140625,0.0007371315732598305,-0.00128895603120327,0.0011504706926643848
1772609966812344000,4.605343994140625,0.0017475835047662258,-0.0018848697654902935,0.0011937101371586323
1772609966822342100,4.615342041015625,0.001992328092455864,0.0020853709429502487,-0.0003077802248299122
1772609966832339000,4.6253388671875,0.00041814614087343216,-0.00039664749056100845,0.0001568063162267208
1772609966842337000,4.6353369140625,0.0031007486395537853,-0.00017667049542069435,0.0007946332916617393
1772609966852335000,4.645335205078125,-0.0014215121045708656,0.00195954367518425,0.0018606018275022507
1772609966862333200,4.655333251953125,0.0011787982657551765,-0.0021419909317046404,0.0003306153230369091
1772609966872331300,4.665331298828125,0.0008975071832537651,0.0009581618942320347,0.0029670563526451588
1772609966882329300,4.675329345703125,-0.0017107920721173286,-0.0016775685362517834,-0.002177372109144926
1772609966892327200,4.6853271484375,-0.00025066640228033066,-0.00012356368824839592,-0.0011833603493869305
1772609966902324200,4.69532421875,0.00018529314547777176,-0.0022815230768173933,0.0003639361821115017
1772609966912322000,4.705322021484375,0.0008489657193422318,0.0011562975123524666,0.00026195449754595757
1772609966922320100,4.715320068359375,-0.00013667065650224686,0.0017278119921684265,-0.0015263580717146397
1772609966932318200,4.725318115234375,0.0014043543487787247,0.0007486254908144474,-0.0012392057105898857
1772609966942316000,4.73531591796875,0.0013955659233033657,-0.0007525980472564697,-0.0005925903096795082
1772609966952314000,4.745314208984375,0.00028864946216344833,-0.000009725335985422134,-0.0006986288353800774
1772609966962312200,4.755312255859375,0.00039490964263677597,-0.001925603486597538,0.00018953531980514526
1772609966972309000,4.76530908203125,-0.0008908482268452644,-0.0010676146484911442,0.0005479799583554268
1772609966982307000,4.77530712890625,-0.0015473179519176483,0.0006445315666496754,0.0016702362336218357
1772609966992305200,4.78530517578125,-0.0003712065517902374,-0.0014036204665899277,-0.0003519756719470024
1772609967002303200,4.79530322265625,-0.0016484586521983147,0.0002241036854684353,0.001340729184448719
1772609967012301300,4.80530126953125,0.000636570155620575,0.0005775969475507736,-0.00008983444422483444
1772609967022299100,4.815299072265625,0.001974275801330805,-0.0019667870365083218,0.0018361634574830532
1772609967032297200,4.825297119140625,-0.0006621899083256721,-0.0007826914079487324,0.0006215851753950119
1772609967042295300,4.83529541015625,0.003005781676620245,0.0007004230283200741,0.0007637981325387955
1772609967052292000,4.8452919921875,-0.0003807730972766876,0.0005828212015330791,0.001333742868155241
1772609967062290200,4.855290283203125,0.0021854485385119915,0.0011945492587983608,-0.0002540335990488529
1772609967072288000,4.8652880859375,0.0008800197392702103,-0.0007363222539424896,-0.00023836176842451096
1772609967082286000,4.8752861328125,-0.001505640335381031,-0.0003472347743809223,-0.0019728788174688816
1772609967092284200,4.8852841796875,0.00048754550516605377,-0.00003558723255991936,-0.000757930800318718
1772609967102282000,4.895281982421875,-0.0007668035104870796,-0.00196424825116992,0.001919877715408802
1772609967112280000,4.905280029296875,0.00007839314639568329,0.0006741094402968884,-0.0007146443240344524
1772609967122277400,4.91527734375,-0.000669688917696476,0.00021311640739440918,-0.000585481058806181
1772609967132275200,4.925275146484375,-0.0009900974109768867,0.00024804892018437386,0.000035163480788469315
1772609967142273300,4.935273193359375,0.0013513537123799324,0.0011644423939287663,-0.00016537262126803398
1772609967152271000,4.94527099609375,-0.0007377490401268005,0.0012828502804040909,0.0022189440205693245
1772609967162269200,4.955269287109375,0.003117176704108715,-0.0010234471410512924,-0.0012588775716722012
1772609967172267300,4.965267333984375,0.001733196433633566,-0.0011723339557647705,-0.0014594262465834618
1772609967182265000,4.97526513671875,0.00019522104412317276,-0.002022148808464408,0.00015471596270799637
1772609967192262100,4.98526220703125,-0.000977170653641224,0.0011623194441199303,0.001989953685551882
1772609967202260200,4.99526025390625,-0.000805397517979145,-0.00013117818161845207,0.00010177213698625565
1772609967212258000,5.005258056640625,-0.0013487255200743675,-0.0006864247843623161,0.0024515618570148945
1772609967222256000,5.015256103515625,-0.00046402402222156525,0.00013436144217848778,0.000490410253405571
1772609967232254000,5.02525390625,0.0006806366145610809,0.000715126283466816,0.0008682697080075741
1772609967242252000,5.035251953125,0.0008329693228006363,0.001019259449094534,0.003352999221533537
1772609967252250000,5.04525,-0.0008834535256028175,-0.0001721847802400589,-0.001554790884256363
1772609967262248000,5.055248046875,-0.0007934384047985077,0.000046727247536182404,-0.0009454595856368542
1772609967272245200,5.065245361328125,0.001142849214375019,0.0020062150433659554,0.0008718082681298256
1772609967282243300,5.075243408203125,-0.0008449340239167213,0.000466108787804842,-0.0013625840656459332
1772609967292241200,5.0852412109375,0.0019768248312175274,0.000676177442073822,0.0007832241244614124
1772609967302239200,5.0952392578125,0.0019461982883512974,-0.0007813707925379276,0.00018640980124473572
1772609967312237300,5.1052373046875,-0.001551046036183834,-0.00020079826936125755,-0.00039490126073360443
1772609967322235100,5.115235107421875,-0.001206698827445507,0.002529474440962076,0.001975578721612692
1772609967332233200,5.125233154296875,0.0015526912175118923,0.0009914739057421684,-0.001115705817937851
1772609967342230000,5.13522998046875,-0.00010006595402956009,-0.000006678979843854904,-0.001345003955066204
1772609967352228000,5.14522802734375,0.0007844138890504837,0.0007308349013328552,0.0004344130866229534
1772609967362226200,5.15522607421875,-0.00036367401480674744,0.00003894558176398277,-0.0007115448825061321
1772609967372224000,5.16522412109375,0.0021579209715127945,0.0006876904517412186,-0.0004891697317361832
1772609967382222000,5.17522216796875,0.0009746784344315529,-0.002218351000919938,0.0009806291200220585
1772609967392220200,5.18522021484375,-0.001424998976290226,-0.0027621847111731768,-0.002774463500827551
1772609967402218000,5.195218017578125,0.0017454945482313633,-0.00028331438079476357,0.0012064301408827305
1772609967412215300,5.20521533203125,-0.0005075205117464066,0.0005999398417770863,0.003196991514414549
1772609967422213000,5.215213134765625,-0.0025847861543297768,0.0022702738642692566,0.00032344087958335876
1772609967432211200,5.225211181640625,0.0013281796127557755,-0.0009619835764169693,0.002121604047715664
1772609967442209300,5.235209228515625,0.00014174170792102814,0.0004532202146947384,-0.001097891479730606
1772609967452207000,5.24520703125,0.00035917479544878006,0.0014816848561167717,-0.0006078965961933136
1772609967462205200,5.255205078125,-0.00018064770847558975,-0.0009399275295436382,-0.0027847643941640854
1772609967472203300,5.265203369140625,-0.000015284866094589233,0.0009003421291708946,0.0009080120362341404
1772609967482201000,5.275201171875,-0.00042354781180620193,-0.0010208622552454472,-0.0015093395486474037
1772609967492198100,5.2851982421875,-0.0009471001103520393,0.0009357426315546036,-0.00020272424444556236
1772609967502196000,5.295196044921875,-0.00041793007403612137,-0.00033112289384007454,-0.0017153997905552387
1772609967512194000,5.305194091796875,0.0004206085577607155,-0.001607158686965704,-0.00045752525329589844
1772609967522192100,5.315192138671875,0.0007202140986919403,0.0002711690030992031,0.001576863694936037
1772609967532190200,5.325190185546875,0.00032872240990400314,0.0016679386608302593,0.000050825998187065125
1772609967542185000,5.33518505859375,0.00040914956480264664,-0.0007976158522069454,-0.0012360136024653912
1772609967552183000,5.34518310546875,-0.0013671386986970901,0.0015847464092075825,-0.00003489525988698006
1772609967562181000,5.35518115234375,0.0009098639711737633,-0.00020729470998048782,0.0030993791297078133
1772609967572179200,5.36517919921875,-0.0010665897279977798,0.00013233674690127373,0.0010807435028254986
1772609967582177300,5.37517724609375,-0.0032296087592840195,0.0020697866566479206,0.0012724907137453556
1772609967592175600,5.385175537109375,-0.0008533596992492676,-0.0036807144060730934,-0.0006269998848438263
1772609967602173400,5.39517333984375,0.0017522773705422878,0.0020717135630548,-0.0005785301327705383
1772609967612171800,5.405171875,0.000006122514605522156,0.001385049894452095,-0.000692236702889204
1772609967622168600,5.41516845703125,-0.0016490323469042778,0.00010646646842360497,0.0025991639122366905
1772609967632166700,5.425166748046875,0.0005321372300386429,0.000424019992351532,-0.0012513152323663235
1772609967642164700,5.435164794921875,-0.00033472105860710144,-0.00015495112165808678,0.0011053155176341534
1772609967652162600,5.44516259765625,-0.00042175035923719406,-0.0007735374383628368,-0.0005623218603432178
1772609967662160600,5.45516064453125,0.0002395128831267357,0.0005716253072023392,0.0001612589694559574
1772609967672158700,5.46515869140625,0.001049429178237915,-0.00010224850848317146,-0.001051406841725111
1772609967682156500,5.475156494140625,-0.0027953768149018288,-0.0009267632849514484,-0.001365660224109888
1772609967692153600,5.485153564453125,-0.0005690883845090866,-0.0021854564547538757,0.0005382457748055458
1772609967702151400,5.4951513671875,-0.0009043803438544273,-0.0012219250202178955,-0.0001999824307858944
1772609967712149500,5.5051494140625,0.0006150528788566589,-0.00010719709098339081,0.0023902570828795433
1772609967722147600,5.515147705078125,0.0002653803676366806,0.0002094525843858719,0.0007609352469444275
1772609967732145700,5.525145751953125,0.0008387034758925438,-0.0001275697723031044,0.00013333745300769806
1772609967742143700,5.535143798828125,0.0006919633597135544,0.0029848660342395306,-0.0013399231247603893
1772609967752141800,5.545141845703125,-0.0010576015338301659,0.0004125097766518593,0.00013876799494028091
1772609967762138600,5.555138671875,0.000645490363240242,0.000741410069167614,0.000398426316678524
1772609967772136700,5.56513671875,-0.00018318742513656616,0.0009588696993887424,0.0009220489300787449
1772609967782134500,5.575134521484375,-0.0009349985048174858,0.0035967309959232807,0.0012275134213268757
1772609967792132600,5.585132568359375,0.0010168710723519325,0.001565935555845499,-0.002432519104331732
1772609967802130700,5.595130615234375,-0.0013133948668837547,-0.00012011174112558365,-0.0003704335540533066
1772609967812128500,5.60512841796875,-0.0019404646009206772,0.001331391278654337,0.0018000821582973003
1772609967822126600,5.615126708984375,-0.0005505615845322609,-0.00044307298958301544,0.0005436032079160213
1772609967832124700,5.625124755859375,-0.0019462434574961662,-0.0008479678072035313,0.0012747496366500854
1772609967842121700,5.635121826171875,-0.0004564709961414337,-0.0010913806036114693,0.001164228655397892
1772609967852119800,5.645119873046875,-0.0021392395719885826,0.0006979983299970627,-0.0003965790383517742
1772609967862117600,5.65511767578125,0.00014655198901891708,0.0018444890156388283,-0.000464489683508873
1772609967872115700,5.66511572265625,0.001143530011177063,0.0008144574239850044,-0.0023464043624699116
1772609967882113800,5.67511376953125,-0.0015859436243772507,-0.0028540471103042364,-0.00016287853941321373
1772609967892111600,5.685111572265625,0.00011482741683721542,-0.001126559916883707,0.00036476412788033485
1772609967902109700,5.695109619140625,-0.0007994361221790314,0.00026707258075475693,-0.0016991859301924706
1772609967912106800,5.705106689453125,-0.0030830446630716324,-0.0009588520042598248,0.000642899889498949
1772609967922104600,5.7151044921875,-0.0013682348653674126,0.0016739489510655403,0.00031000468879938126
1772609967932102700,5.7251025390625,-0.000456162728369236,0.0019121416844427586,0.000267720315605402
1772609967942100700,5.735100830078125,-0.0009160898625850677,0.0016101393848657608,-0.0017906371504068375
1772609967952098600,5.7450986328125,-0.0009088749065995216,-0.0014028833247721195,-0.0015895748510956764
1772609967962096600,5.7550966796875,0.0010852999985218048,0.00020832940936088562,-0.0006398917175829411
1772609967972094500,5.765094482421875,0.0012366147711873055,-0.0006445110775530338,0.00018454808741807938
1772609967982091800,5.775091796875,-0.002063840627670288,-0.0010029724799096584,-0.002397653181105852
1772609967992089900,5.78508984375,-0.0008530560880899429,-0.00038820458576083183,-0.0010964171960949898
1772609968002087700,5.795087646484375,-0.0008242940530180931,0.0007953038439154625,-0.0016266526654362679
1772609968012085800,5.805085693359375,-0.0013716062530875206,-0.0004107793793082237,0.00136537104845047
1772609968022083800,5.815083740234375,0.002510483842343092,0.0032361536286771297,0.0008985185995697975
1772609968032081700,5.82508154296875,-0.0005609551444649696,0.0014356975443661213,-0.0001524197869002819
1772609968042079700,5.835079833984375,0.0010657040402293205,-0.002358508063480258,-0.00013883737847208977
1772609968052077600,5.84507763671875,0.0009710667654871941,0.0006825514137744904,0.0020336941815912724
1772609968062074600,5.85507470703125,-0.0005551911890506744,0.0008362154476344585,-0.0006166836246848106
1772609968072072700,5.86507275390625,-0.00003513973206281662,-0.00022298144176602364,0.000027442816644906998
1772609968082070500,5.875070556640625,-0.001085757277905941,0.001989306416362524,-0.000505455769598484
1772609968092068600,5.885068603515625,0.0020760935731232166,-0.001167465467005968,-0.0016567534767091274
1772609968102066700,5.895066650390625,-0.0014760307967662811,0.0019132792949676514,0.0006242441013455391
1772609968112064500,5.905064453125,0.001836411189287901,-0.001102781854569912,-0.00028001656755805016
1772609968122062600,5.9150625,0.0018952670507133007,-0.0006628278642892838,-0.0018574069254100323
1772609968132059600,5.9250595703125,0.0018559438176453114,0.0030613387934863567,-0.0027758413925766945
1772609968142057700,5.9350576171875,-0.0006162682548165321,-0.002106259111315012,0.0009137019515037537
1772609968152055800,5.945055908203125,0.0017780466005206108,0.0019924696534872055,-0.0006553288549184799
1772609968162053600,5.9550537109375,-0.000103742815554142,0.0010920553468167782,-0.001665199175477028
1772609968172051700,5.9650517578125,0.000460122711956501,-0.0014088158495724201,-0.0036388367880135775
1772609968182049800,5.9750498046875,-0.0017633503302931786,0.00006950460374355316,-0.00006673857569694519
1772609968192047600,5.985047607421875,-0.00002703629434108734,-0.00031142542138695717,-0.00016554119065403938
1772609968202044700,5.995044677734375,-0.0007623350247740746,0.0007378598675131798,-0.003572522895410657
1772609968212042500,6.00504248046875,-0.0001679910346865654,-0.00012698303908109665,-0.002025024499744177
1772609968222040600,6.01504052734375,-0.0006478931754827499,-0.0011634854599833488,0.0018267054110765457
1772609968232038700,6.02503857421875,-0.00037700869143009186,-0.0000975639559328556,0.0006145820952951908
1772609968242036500,6.035036376953125,-0.0015099169686436653,-0.002009181072935462,0.00034933118149638176
1772609968252034600,6.04503466796875,-0.0015594735741615295,-0.0008020219393074512,0.000024045351892709732
1772609968262032600,6.05503271484375,0.0008762534707784653,0.0013325014151632786,0.0022560404613614082
1772609968272030500,6.065030517578125,-0.0010799365118145943,-0.001330114435404539,-0.00008658180013298988
1772609968282027800,6.07502783203125,0.00023566558957099915,-0.0008342340588569641,0.002154468558728695
1772609968292025600,6.085025634765625,-0.0016396818682551384,0.0012456388212740421,-0.0012741773389279842
1772609968302023700,6.095023681640625,0.0006341245025396347,0.0008096792735159397,0.0029519936069846153
1772609968312021800,6.105021728515625,-0.0012348992750048637,0.001476265024393797,0.000633634626865387
1772609968322019600,6.11501953125,-0.0005219709128141403,0.0015779980458319187,-0.0016052848659455776
1772609968332017700,6.125017578125,-0.0016757072880864143,0.0008848649449646473,0.0023211310617625713
1772609968342015700,6.135015625,-0.0010136459022760391,0.002227097749710083,-0.003777508158236742
1772609968352012500,6.145012451171875,-0.0006884140893816948,-0.0008771331049501896,0.00047116493806242943
1772609968362010600,6.1550107421875,-0.0004481971263885498,0.0007900060154497623,0.00038274796679615974
1772609968372008400,6.165008544921875,-0.001497083343565464,-0.0010976586490869522,-0.0008192211389541626
1772609968382006500,6.175006591796875,-0.0019921641796827316,-0.0019400161691009998,-0.0007340000011026859
1772609968392004600,6.185004638671875,0.00017560645937919617,0.0008341963402926922,0.0004994692280888557
1772609968402002700,6.195002685546875,-0.0007221447303891182,-0.0010212277993559837,0.0024928455241024494
1772609968412000800,6.205000732421875,-0.001852954737842083,0.001744445413351059,-0.00005916692316532135
1772609968421998800,6.214998779296875,-0.0010641273111104965,0.0019311332143843174,0.00017199572175741196
1772609968431995600,6.22499560546875,-0.00019327830523252487,-0.001989430282264948,-0.0006322711706161499
1772609968441993700,6.23499365234375,-0.0003626551479101181,0.0016761445440351963,0.0014852075837552547
1772609968451991600,6.244991455078125,0.0013349317014217377,0.0016805613413453102,-0.00001615099608898163
1772609968461989600,6.25498974609375,0.0014822045341134071,0.00039798300713300705,0.0010720165446400642
1772609968471987700,6.26498779296875,0.0007636928930878639,0.0016773082315921783,-0.0027500027790665627
1772609968481985500,6.274985595703125,-0.00025443360209465027,-0.0005115438252687454,-0.0001286533661186695
1772609968491983600,6.284983642578125,-0.0006191059947013855,0.0002505537122488022,0.0010495013557374477
1772609968501980400,6.29498046875,0.00041073840111494064,-0.0019939583726227283,0.0006241942755877972
1772609968511978800,6.304978759765625,0.000235104002058506,-0.001089401077479124,-0.00009085610508918762
1772609968521976800,6.314976806640625,0.00005960185080766678,-0.0008278787136077881,0.0011680200695991516
1772609968531974700,6.324974609375,-0.0003775637596845627,-0.0012907912023365498,0.0010104905813932419
1772609968541972700,6.33497265625,-0.0012414930388331413,0.0004959236830472946,-0.0007272218354046345
1772609968551970800,6.344970703125,0.00040765106678009033,0.0010846988297998905,0.001288889441639185
1772609968561968600,6.35496875,0.0008425451815128326,-0.0029731595423072577,-0.0016959812492132187
1772609968571966700,6.364966796875,-0.0012266160920262337,0.00028256699442863464,-0.00159427709877491
1772609968581963500,6.374963623046875,-0.00165618397295475,-0.0008985446766018867,-0.0006866720505058765
1772609968591960800,6.3849609375,0.0010555349290370941,0.0002578245475888252,0.00009875558316707611
1772609968601959000,6.394958984375,0.0008717766031622887,-0.001615709625184536,-0.0008125780150294304
1772609968611956700,6.404956787109375,-0.002559940330684185,-0.0011542290449142456,-0.0009473846293985844
1772609968621954800,6.414954833984375,-0.00008612964302301407,0.002114268485456705,-0.0022432790137827396
1772609968631953000,6.424952880859375,-0.003193526528775692,0.0015648375265300274,0.00012188591063022614
1772609968641950700,6.43495068359375,-0.0001593874767422676,-0.0013699661940336227,0.002036432269960642
1772609968651948000,6.444947998046875,-0.002185586839914322,-0.0005036983639001846,0.00010501174256205559
1772609968661945900,6.45494580078125,-0.0004452113062143326,0.0007032463327050209,-0.00045744795352220535
1772609968671944000,6.46494384765625,-0.0005925605073571205,0.0023454031907022,0.00007398100569844246
1772609968681942000,6.47494189453125,0.0014908304437994957,0.0021139751188457012,0.0013930443674325943
1772609968691939800,6.48493994140625,-0.0008589057251811028,0.0007490436546504498,0.0003875340335071087
1772609968701938000,6.49493798828125,-0.0019534649327397346,0.0025253724306821823,-0.0008279322646558285
1772609968711936000,6.50493603515625,0.0004486357793211937,0.0004284270107746124,0.0002614925615489483
1772609968721932800,6.514932861328125,0.00011547468602657318,-0.00012844009324908257,-0.000194440595805645
1772609968731931000,6.524930908203125,-0.0017626024782657623,0.0008516893722116947,-0.0005897101946175098
1772609968741928700,6.5349287109375,-0.00177671667188406,0.0003851032815873623,0.0005306815728545189
1772609968751926800,6.5449267578125,-0.001119903288781643,-0.0010684831067919731,-0.001371900551021099
1772609968761924900,6.5549248046875,0.0019051814451813698,0.0016183801926672459,-0.00022221356630325317
1772609968771923000,6.5649228515625,4.591420292854309e-7,-0.0007468289695680141,-0.0008459547534584999
1772609968781921000,6.574921142578125,-0.0007574763149023056,0.0017655971460044384,0.0012086741626262665
1772609968791919000,6.584919189453125,-0.001330059953033924,-0.0006010481156408787,0.00046673649922013283
1772609968801916000,6.594916015625,-0.0006578778848052025,-0.00021702051162719727,0.0021309456788003445
1772609968811914000,6.6049140625,0.0015262956731021404,0.0019776453264057636,0.00006304727867245674
1772609968821911800,6.614911865234375,0.0017284294590353966,0.000501721166074276,-0.00024348264560103416
1772609968831910000,6.624909912109375,-0.0008957637473940849,-0.00004158122465014458,-0.0017009065486490726
1772609968841908000,6.634907958984375,-0.00007258076220750809,-0.0014320178888738155,-0.0017120917327702045
1772609968851905800,6.64490576171875,-0.0007562916725873947,-0.0001446157693862915,-0.0008925381116569042
1772609968861904000,6.65490380859375,0.0007017888128757477,-0.00011851638555526733,0.0020902021788060665
1772609968871900700,6.664900634765625,-0.002149449661374092,-0.002414748538285494,0.0016324957832694054
1772609968881899000,6.67489892578125,-0.0009113457053899765,0.00010566692799329758,-0.0005275937728583813
1772609968891897000,6.68489697265625,-0.0008351309224963188,0.0007749130018055439,0.00037839123979210854
1772609968901895000,6.69489501953125,-0.000209820456802845,-0.0003542671911418438,-0.0014812941662967205
1772609968911893000,6.70489306640625,0.0029975594952702522,0.0012658028863370419,-0.0023335074074566364
1772609968921891000,6.71489111328125,-0.000009948387742042542,-0.0013129357248544693,-0.0020155259408056736
1772609968931889000,6.724888916015625,-0.0001878822222352028,-0.0003941776230931282,-0.0018467726185917854
1772609968941887000,6.734886962890625,-0.0010936232283711433,0.0017914786003530025,0.0009490139782428741
1772609968951883800,6.7448837890625,0.00047676824033260345,-0.0005824202671647072,-0.00021434994414448738
1772609968961881900,6.7548818359375,-0.0014894437044858932,-0.001189088448882103,0.001818174496293068
1772609968971880000,6.7648798828125,0.0018175141885876656,0.0004215184599161148,0.00014755362644791603
1772609968981877800,6.774877685546875,0.0001429188996553421,-0.00124668562784791,0.0000831051729619503
1772609968991875800,6.784875732421875,-0.0006403597071766853,-0.0010463674552738667,0.0017744023352861404
1772609969001874000,6.7948740234375,-0.0021154843270778656,-0.0009419713169336319,0.002000771462917328
1772609969011871700,6.804871826171875,-0.0009931037202477455,0.0012658284977078438,-0.0009113652631640434
1772609969021869000,6.814869140625,0.00028042029589414597,-0.0010892045684158802,0.0010316772386431694
1772609969031867000,6.824866943359375,0.0008923951536417007,-0.0010189628228545189,-0.0026962487027049065
1772609969041865000,6.834864990234375,-0.00044051650911569595,-0.0003297366201877594,-0.0003241710364818573
1772609969051863000,6.844863037109375,0.00040925946086645126,0.0008548134937882423,0.00034647993743419647
1772609969061860900,6.85486083984375,0.0008580023422837257,0.0006050090305507183,-0.00013714982196688652
1772609969071859000,6.86485888671875,0.001778116449713707,0.000735478475689888,-0.0017219684086740017
1772609969081857000,6.87485693359375,-0.0007188636809587479,0.00047342339530587196,0.0030267145484685898
1772609969091853800,6.884853759765625,-0.001325095072388649,-0.0006013684906065464,0.000775778666138649
1772609969101852000,6.894851806640625,-0.0003304043784737587,0.00032354751601815224,-0.0004846951924264431
1772609969111849700,6.904849609375,-0.0008193999528884888,0.0017168615013360977,0.00001880154013633728
1772609969121847800,6.914847900390625,-0.0006401687860488892,0.0001171007752418518,0.000028122682124376297
1772609969131846000,6.924845947265625,-0.0008673667907714844,0.0006221150979399681,-0.00008718017488718033
1772609969141843700,6.93484375,0.0004711383953690529,-0.0018951045349240303,0.00005636410787701607
1772609969151841800,6.944841796875,-0.00025197770446538925,0.0010805362835526466,-0.0012196321040391922
1772609969161839900,6.95483984375,0.001901454757899046,-0.0010068495757877827,0.000044570304453372955
1772609969171837000,6.9648369140625,-0.00032587163150310516,-0.0007581748068332672,0.002937831450253725
1772609969181835000,6.9748349609375,0.000012616626918315887,0.000868484377861023,0.0027514095418155193
1772609969191832800,6.984832763671875,-0.0011855429038405418,0.00019076140597462654,0.0007068570703268051
1772609969201831000,6.994830810546875,-0.000325874425470829,0.001380661502480507,-0.00009075971320271492
1772609969211829000,7.0048291015625,0.0009487876668572426,0.0006144004873931408,-0.0013283570297062397
1772609969221826800,7.014826904296875,-0.0007082307711243629,-0.0015637991018593311,-0.0010042502544820309
1772609969231825000,7.024824951171875,-0.0010526124387979507,0.0012938515283167362,0.00007350323721766472
1772609969241822000,7.034822021484375,-0.0002203742042183876,-0.0004345397464931011,0.00035872822627425194
1772609969251819800,7.04481982421875,-0.0027819573879241943,-0.0020192964002490044,0.0011253575794398785
1772609969261817900,7.05481787109375,-0.0004223966971039772,0.0004646335728466511,-0.00042460206896066666
1772609969271815700,7.064815673828125,-0.0002907468006014824,-0.0009861369617283344,0.001155848614871502
1772609969281813800,7.074813720703125,-0.0006955470889806747,-0.0003698812797665596,0.0006578373722732067
1772609969291811800,7.084811767578125,-0.0004577627405524254,-0.0002873432822525501,-0.002292268443852663
1772609969301809700,7.0948095703125,-0.0031978897750377655,0.0006447630003094673,-0.00231943279504776
1772609969311807700,7.104807861328125,-0.0017655696719884872,0.0019493247382342815,-0.00019506271928548813
1772609969321805000,7.11480517578125,-0.0008345283567905426,-0.0018235757015645504,-0.0007268963381648064
1772609969331803000,7.124802978515625,-0.000728195533156395,0.00028248270973563194,0.0021122326143085957
1772609969341801000,7.134801025390625,-0.0008094217628240585,0.001852415967732668,-0.00009872391819953918
1772609969351799000,7.144799072265625,0.0010070865973830223,-0.0002030152827501297,-0.001355671789497137
1772609969361796900,7.154796875,-0.0011929506435990334,0.00090752262622118,-0.0027793976478278637
1772609969371795000,7.164794921875,-0.0013297265395522118,0.0011554248631000519,-0.0018938514403998852
1772609969381792800,7.174792724609375,-0.0021324027329683304,0.001038245391100645,-0.0012320559471845627
1772609969391789800,7.184789794921875,-0.0015710359439253807,-0.002241817768663168,-0.0006958302110433578
1772609969401788000,7.194787841796875,0.00093073770403862,-0.00007080892100930214,0.00008021481335163116
1772609969411785700,7.20478564453125,-0.0006390102207660675,0.00024484191089868546,0.0008226982317864895
1772609969421783800,7.21478369140625,-0.00014259666204452515,-0.0008715549483895302,-0.0005624117329716682
1772609969431782000,7.224781982421875,-0.0004684198647737503,0.0009837383404374123,0.0011473000049591064
1772609969441780000,7.234780029296875,-0.0022082626819610596,0.0006074332632124424,0.000013325829058885574
1772609969451778000,7.244778076171875,-0.00013894401490688324,0.0019783717580139637,-0.0002028709277510643
1772609969461776000,7.25477587890625,-0.001521390862762928,0.0003248145803809166,0.001053874846547842
1772609969471773000,7.26477294921875,-0.00006523355841636658,0.0008850991725921631,-0.00020856596529483795
1772609969481771000,7.27477099609375,0.0007321173325181007,0.0012560775503516197,0.0005557611584663391
1772609969491768800,7.284768798828125,-0.0010333089157938957,0.0005402537062764168,-0.0017931768670678139
1772609969501767000,7.294766845703125,-0.0003427509218454361,-0.0010390006937086582,-0.00022377632558345795
1772609969511765000,7.304764892578125,-0.00007543899118900299,0.0008849650621414185,-0.0018530203960835934
1772609969521762800,7.3147626953125,0.0016683991998434067,-0.0019182786345481873,-0.0002252962440252304
1772609969531761000,7.324760986328125,-0.001407558098435402,-0.00010734051465988159,0.0008035893552005291
1772609969541757700,7.3347578125,-0.003039809875190258,0.00021303771063685417,-0.001616425346583128
1772609969551756000,7.344756103515625,-0.0026397742331027985,-0.0011895573697984219,-0.0030145724304020405
1772609969561754000,7.354754150390625,0.0003759898245334625,0.0008174008689820766,0.0026068277657032013
1772609969571752000,7.364751953125,-0.0015404736623167992,-0.0007050605490803719,-0.00009889015927910805
1772609969581750000,7.37475,-0.0005881274119019508,0.001420940738171339,-0.0005433717742562294
1772609969591748400,7.384748291015625,0.00007031485438346863,0.00288301520049572,-0.0007856525480747223
1772609969601746400,7.394746337890625,-0.00028069037944078445,0.002257172018289566,-0.0018407967872917652
1772609969611744500,7.40474462890625,-0.0006505409255623817,0.0003015962429344654,0.0019875732250511646
1772609969621741600,7.414741455078125,-0.0007890257984399796,0.0006768354214727879,-0.0010633445344865322
1772609969631739600,7.42473974609375,-0.0021112747490406036,-0.001199136022478342,-0.0005554342642426491
1772609969641737500,7.434737548828125,0.00009781681001186371,0.0005361801013350487,0.0024006743915379047
1772609969651735600,7.444735595703125,-0.00014253798872232437,0.0007713222876191139,0.0012552132830023766
1772609969661733600,7.454733642578125,-0.0005872854962944984,-0.0006561321206390858,-0.0002798326313495636
1772609969671731500,7.4647314453125,0.0016371696256101131,-0.0018190224654972553,0.0003468799404799938
1772609969681729500,7.4747294921875,-0.0015919134020805359,0.001805806066840887,0.00010080402716994286
1772609969691727600,7.4847275390625,-0.0009146668016910553,-0.0016333316452801228,-0.0005017044022679329
1772609969701724400,7.494724365234375,-0.0013186680153012276,0.0005185026675462723,-0.000423673540353775
1772609969711722500,7.504722412109375,0.0018801945261657238,-0.0009766402654349804,0.0010080221109092236
1772609969721720600,7.514720458984375,-0.000546211376786232,0.0006164629012346268,-0.0014447495341300964
1772609969731718700,7.52471875,-0.002882855013012886,0.00010066106915473938,0.0016615763306617737
1772609969741716700,7.534716796875,-0.0020402316004037857,-0.0010034856386482716,-0.0012391386553645134
1772609969751714600,7.544714599609375,0.0006282692775130272,0.000810953788459301,-0.002779852133244276
1772609969761712600,7.554712646484375,-0.0027281129732728004,-0.00012408196926116943,-0.0007145707495510578
1772609969771709400,7.56470947265625,-0.001618347130715847,0.0010214713402092457,-0.0009481213055551052
1772609969781707500,7.57470751953125,0.0021036863327026367,0.0008278596214950085,0.0009989161044359207
1772609969791705600,7.58470556640625,0.00039264559745788574,-0.0003270423039793968,0.0011081802658736706
1772609969801703400,7.594703369140625,-0.0009384024888277054,0.001929720863699913,-0.0001786593347787857
1772609969811701500,7.604701416015625,0.0006792685016989708,0.001172858290374279,-0.00026651425287127495
1772609969821699600,7.614699462890625,-0.0006017126142978668,0.00029348256066441536,-0.002383194398134947
1772609969831697400,7.624697509765625,-0.001781906932592392,0.002672842238098383,0.0008464697748422623
1772609969841695500,7.634695556640625,-0.00008653849363327026,0.0003814580850303173,0.002061404287815094
1772609969851692500,7.644692626953125,0.0009546056389808655,0.0017261682078242302,0.0017199269495904446
1772609969861690600,7.654690673828125,-0.0003498103469610214,0.00042121950536966324,0.0008165822364389896
1772609969871688700,7.664688720703125,-0.00019390415400266647,-0.00009281095117330551,-0.001319010742008686
1772609969881686500,7.6746865234375,-0.0002948381006717682,0.0016177371144294739,-0.0009786589071154594
1772609969891684600,7.6846845703125,-0.0019388217478990555,0.0007336307317018509,7.017515599727631e-7
1772609969901682700,7.6946826171875,0.0010337987914681435,0.000923247542232275,-0.0012187594547867775
1772609969911680500,7.704680419921875,0.00007926393300294876,0.0017498447559773922,0.00005877530202269554
1772609969921677600,7.714677490234375,0.0008134972304105759,-0.0008507324382662773,-0.00010713981464505196
1772609969931675400,7.72467529296875,-0.000010035932064056396,-0.000017775222659111023,0.002055051736533642
1772609969941673500,7.734673583984375,0.0004999591037631035,0.0016861152835190296,0.00019190460443496704
1772609969951671600,7.744671630859375,0.0017031412571668625,0.0014414186589419842,-0.0006128521636128426
1772609969961669400,7.75466943359375,-0.001055094413459301,0.0005575153045356274,-0.0011888938024640083
1772609969971667500,7.76466748046875,-0.0017022285610437393,-0.00027070287615060806,-0.0000883881002664566
1772609969981665500,7.77466552734375,0.0009540077298879623,-0.0009053340181708336,-0.0001973113976418972
1772609969991663400,7.784663330078125,-0.0008178995922207832,-0.0021891873329877853,-0.0010382677428424358
1772609970001660700,7.79466064453125,-0.0019510751590132713,-0.0008269804529845715,-0.0001327930949628353
1772609970011658500,7.804658447265625,0.0007335999980568886,-0.001217295415699482,-0.0015821191482245922
1772609970021656600,7.814656494140625,0.0012156320735812187,-0.0012066424824297428,0.0009769126772880554
1772609970031654700,7.824654541015625,-0.0002519497647881508,-0.0008487915620207787,-0.0024037943221628666
1772609970041652500,7.834652587890625,-0.0009973691776394844,0.0011118273250758648,0.0015885503962635994
1772609970051650600,7.844650634765625,-0.001964366063475609,0.00010946299880743027,0.0020615109242498875
1772609970061648600,7.854648681640625,0.0030535622499883175,-0.0022820555604994297,0.0019240914843976498
1772609970071646500,7.864646484375,0.0001000603660941124,-0.0005969768390059471,-0.000783839263021946
1772609970081643500,7.8746435546875,-0.0002815704792737961,-0.00018205679953098297,-0.00015213759616017342
1772609970091641300,7.884641357421875,-0.0004466492682695389,0.001534933689981699,-0.00035037752240896225
1772609970101639400,7.894639404296875,-0.0008280137553811073,-0.0010296902619302273,-0.002202872186899185
1772609970111637500,7.904637451171875,-0.0006785942241549492,0.0006060153245925903,0.00018491968512535095
1772609970121635300,7.91463525390625,-0.0013355957344174385,-0.0009665815159678459,-0.0015599834732711315
1772609970131633400,7.92463330078125,-0.0016924180090427399,0.000545739196240902,0.001799287274479866
1772609970141631500,7.934631591796875,-0.00016110017895698547,0.00012868782505393028,0.0006834231317043304
1772609970151628500,7.944628662109375,-0.0008840598165988922,0.000040492042899131775,-0.0002664984203875065
1772609970161626600,7.954626708984375,-0.002748805098235607,-0.0008905488066375256,0.0006075510755181313
1772609970171624400,7.96462451171875,-0.0006813639774918556,0.0009640157222747803,-0.001554417423903942
1772609970181622500,7.97462255859375,-0.00008162017911672592,-0.00024665752425789833,0.0003998102620244026
1772609970191620600,7.98462060546875,-0.0003829868510365486,0.00020747119560837746,-0.0001222449354827404
1772609970201618400,7.994618408203125,-0.000016002915799617767,-0.0005917437374591827,-0.00020719971507787704
1772609970211616500,8.004616455078125,-0.001285787671804428,-0.001168224960565567,0.0008040592074394226
1772609970221614600,8.014614501953124,0.0008231699466705322,-0.00010881945490837097,-0.001968824304640293
1772609970231611400,8.024611328125,-0.0025876127183437347,-0.003253171918913722,-0.0000437367707490921
1772609970241609500,8.034609375,-0.0007489658892154694,0.002015892416238785,0.0015011625364422798
1772609970251607300,8.044607177734376,-0.0009264238178730011,-0.0009408672340214252,0.00025249458849430084
1772609970261605400,8.05460546875,-0.00030377693474292755,-0.0019557978957891464,-0.0006681601516902447
1772609970271603700,8.064603759765625,-0.00028643757104873657,0.0006142575293779373,-0.0004726490005850792
1772609970281601500,8.0746015625,-0.0029876818880438805,0.000413721427321434,-0.0007283124141395092
1772609970291599600,8.084599609375,0.0010336888954043388,-0.0009944243356585503,-0.0005155857652425766
1772609970301597700,8.09459765625,-0.00014342833310365677,-0.0002769683487713337,0.001976067665964365
1772609970311594500,8.104594482421875,-0.0015916591510176659,-0.0022217025980353355,-0.00031183939427137375
1772609970321592600,8.114592529296875,-0.0013897912576794624,0.0016939430497586727,-0.0021883025765419006
1772609970331590400,8.12459033203125,-0.000660087913274765,0.0007381141185760498,0.00003439653664827347
1772609970341588500,8.13458837890625,-0.00015115831047296524,-0.001156458631157875,0.0008493238128721714
1772609970351586600,8.144586669921875,0.0017277360893785954,0.000009603332728147507,0.0008988999761641026
1772609970361584400,8.15458447265625,-0.0006941426545381546,0.0004175994545221329,-0.000008971896022558212
1772609970371582500,8.16458251953125,0.0005058040842413902,0.0019137738272547722,0.0005661086179316044
1772609970381580500,8.17458056640625,0.0022717462852597237,0.0014045778661966324,0.0017879665829241276
1772609970391577600,8.18457763671875,0.00221698684617877,0.00008759880438446999,0.0009164786897599697
1772609970401575700,8.19457568359375,-0.00021767523139715195,-0.0018479865975677967,0.0008855857886373997
1772609970411573500,8.204573486328124,-0.0009474810212850571,-0.0023454194888472557,0.001528074499219656
1772609970421571600,8.214571533203125,-0.0008960822597146034,-0.0007291468791663647,0.0008479035459458828
1772609970431569700,8.224569580078125,-0.002702617086470127,-0.0005763187073171139,-0.0002902531996369362
1772609970441567500,8.2345673828125,0.0006471071392297745,0.0005874824710190296,0.001546262763440609
1772609970451565600,8.244565673828125,-0.0011949306353926659,0.0025316718965768814,-0.0014934972859919071
1772609970461563600,8.254563720703125,-0.002404804341495037,-0.00010006409138441086,0.00023329630494117737
1772609970471560400,8.264560546875,-0.0006238240748643875,-0.0016179787926375866,-0.00009095389395952225
1772609970481558500,8.27455859375,-0.0008970648050308228,0.0007889862172305584,-0.0010859109461307526
1772609970491556400,8.284556396484374,-0.0011462569236755371,0.000025478191673755646,-0.0016456390731036663
1772609970501554400,8.294554443359376,-0.0008586356416344643,-0.0001723947934806347,0.0025725415907800198
1772609970511552500,8.304552490234375,-0.0014220522716641426,0.0015251683071255684,0.0012143123894929886
1772609970521550300,8.31455029296875,0.001386517658829689,0.00045537669211626053,0.0003682258538901806
1772609970531548400,8.32454833984375,-0.0019608410075306892,0.0008524344302713871,-0.0027155382558703423
1772609970541545700,8.334545654296875,0.002311668824404478,-0.0009206980466842651,0.0007215375080704689
1772609970551543600,8.34454345703125,0.00135468365624547,0.0006861956790089607,0.0012387395836412907
1772609970561541600,8.354541748046875,0.0004774387925863266,0.0024681170471012592,0.0002309996634721756
1772609970571539500,8.36453955078125,0.0026165004819631577,-0.0004548812285065651,0.0022346223704516888
1772609970581537500,8.37453759765625,0.0004705246537923813,0.0004431367851793766,-0.0014956668019294739
1772609970591534600,8.38453466796875,-0.00023586396127939224,-0.00008213706314563751,-0.0004994538612663746
1772609970601532700,8.39453271484375,0.002920780796557665,-0.0025418326258659363,-0.0019149240106344223
1772609970611530800,8.40453076171875,-0.0007759025320410728,0.0010910793207585812,-0.0006096605211496353
1772609970621527600,8.414527587890625,-0.0009234417229890823,-0.0022450624965131283,0.0005871639586985111
1772609970631525600,8.424525634765626,-0.0003865426406264305,-0.002636201214045286,-0.0012181829661130905
1772609970641523700,8.434523681640625,0.0006443671882152557,-0.0020742742344737053,0.0016780048608779907
1772609970651521800,8.444521728515625,0.000933593139052391,0.00024421326816082,0.00013298168778419495
1772609970661520000,8.454519775390626,-0.0006166333332657814,0.0001097237691283226,-0.0008204299956560135
1772609970671517700,8.464517578125,0.0008412366732954979,-0.0020972653292119503,0.00030374806374311447
1772609970681515800,8.474515869140625,-0.001034427434206009,-0.0030125936027616262,-0.00043181702494621277
1772609970691513900,8.484513916015626,-0.00027173105627298355,0.00008882023394107819,0.0009239474311470985
1772609970701510700,8.4945107421875,0.0013559930957853794,-0.0002880170941352844,-0.001621768344193697
1772609970711508700,8.5045087890625,0.0003572637215256691,0.0010103723034262657,0.0006572101265192032
1772609970721506800,8.5145068359375,0.0020236033014953136,0.0012247571721673012,0.0002521430142223835
1772609970731504600,8.524504638671875,-0.002699829638004303,0.0002327021211385727,-0.00046195415779948235
1772609970741502700,8.534502685546874,0.0005652057006955147,0.00116374297067523,0.00042594363912940025
1772609970751500800,8.544500732421875,-0.0001974189653992653,-0.0000653429888188839,0.0002502775751054287
1772609970761498600,8.55449853515625,-0.002283739857375622,-0.00109465466812253,0.000718727707862854
1772609970771496000,8.564495849609376,0.0029961406253278255,-0.0011270302347838879,-0.00033777114003896713
1772609970781493800,8.57449365234375,0.00015508010983467102,-0.0019888291135430336,-0.0019295425154268742
1772609970791491800,8.584491943359374,-0.001361262984573841,0.003271362278610468,0.0007659047842025757
1772609970801490000,8.594489990234376,-0.0003857472911477089,-0.0012094061821699142,0.0011675097048282623
1772609970811487700,8.60448779296875,0.0011330610141158104,-0.00012891320511698723,0.0016871988773345947
1772609970821485800,8.61448583984375,0.00046567339450120926,0.0002327440306544304,-0.0010537267662584782
1772609970831484000,8.62448388671875,-0.001408519223332405,-0.0021664935629814863,-0.0007369276136159897
1772609970841481700,8.634481689453125,-0.00012780539691448212,-0.0012780632823705673,-0.0016967309638857841
1772609970851478800,8.644478759765626,-0.0005626128986477852,0.000572902150452137,0.0010268967598676682
1772609970861476600,8.6544765625,-0.0016001807525753975,-0.0017749406397342682,0.00029585883021354675
1772609970871474700,8.664474609375,0.00154844019562006,-0.0002436717040836811,0.0008135717362165451
1772609970881472800,8.67447265625,-0.0015932908281683922,-0.00048016058281064034,-0.0009355922229588032
1772609970891470600,8.684470703125,-0.00011251121759414673,-0.0004196586087346077,0.00032359035685658455
1772609970901468700,8.69446875,-0.00021371059119701385,-0.00018423516303300858,-0.0007576532661914825
1772609970911466800,8.704466796875,0.0007990123704075813,-0.002190730068832636,0.0011260583996772766
1772609970921464600,8.714464599609375,-0.000634034164249897,-0.0007230620831251144,0.0018861247226595879
1772609970931462000,8.7244619140625,-0.0019018957391381264,-0.0006971410475671291,-0.0009439680725336075
1772609970941459700,8.734459716796875,0.0006350306794047356,-0.001843099482357502,0.0007668463513255119
1772609970951457800,8.744457763671875,0.0005441028624773026,0.001583252102136612,0.00042412756010890007
1772609970961455900,8.754455810546874,-0.000016226433217525482,0.0002530030906200409,-0.0007657725363969803
1772609970971453700,8.76445361328125,0.0004709940403699875,-0.0020035654306411743,0.00020652078092098236
1772609970981451800,8.77445166015625,-0.0030387863516807556,-0.00015852740034461021,-0.0030111107043921947
1772609970991449900,8.784449951171876,-0.0003210827708244324,-0.0009600385092198849,0.0009644259698688984
1772609971001447700,8.79444775390625,-0.0002518408000469208,0.003020588308572769,-0.001829229760915041
1772609971011444700,8.80444482421875,0.00010042078793048859,-0.0003021145239472389,-0.0029345680959522724
1772609971021442600,8.814442626953126,-0.0012388834729790688,0.0014659580774605274,0.0010678963735699654
1772609971031440600,8.824440673828125,-0.0028606699779629707,0.0005763871595263481,0.00010002683848142624
1772609971041438700,8.834438720703124,0.0008371295407414436,-0.0005216342397034168,-0.0006459243595600128
1772609971051436500,8.8444365234375,-0.0004198867827653885,-0.001186160370707512,-0.0008466150611639023
1772609971061434600,8.8544345703125,-0.0024849018082022667,0.0008247927762567997,0.00047644320875406265
1772609971071432700,8.8644326171875,-0.000342685729265213,0.000300609041005373,0.00043760286644101143
1772609971081430800,8.8744306640625,0.0008176527917385101,0.0008827759884297848,0.0009452016092836857
1772609971091427800,8.884427734375,0.0009213248267769814,0.00018118927255272865,-0.0022793561220169067
1772609971101425700,8.89442578125,0.0003543384373188019,0.0017937333323061466,0.0003153616562485695
1772609971111423700,8.904423828125,0.001037130132317543,-0.0012063425965607166,-0.00010626250877976418
1772609971121421800,8.914421875,-0.00041349418461322784,-0.0032543132547289133,0.0009784428402781487
1772609971131419600,8.924419677734376,0.0010086474940180779,0.002521136775612831,-0.000335183460265398
1772609971141417700,8.934417724609375,0.0013505974784493446,0.0006313575431704521,-0.0028002052567899227
1772609971151415800,8.944415771484374,-0.0010191388428211212,-0.0017810994759202003,-0.000873833429068327
1772609971161412600,8.95441259765625,0.00028607621788978577,0.0027864878065884113,-0.0007441374473273754
1772609971171410700,8.96441064453125,-0.0026188883930444717,-0.0014842730015516281,0.0018880460411310196
1772609971181408800,8.97440869140625,0.00037343986332416534,0.0010372078977525234,0.0022582262754440308
1772609971191406800,8.98440673828125,-0.0005889730527997017,0.0004725228063762188,0.0014873859472572803
1772609971201405000,8.994405029296875,0.0008525960147380829,0.00037744827568531036,-0.000567242968827486
1772609971211402800,9.00440283203125,0.0004176311194896698,0.001738453283905983,-0.0018776785582304
1772609971221400800,9.01440087890625,-0.0005794558674097061,-0.002408088417723775,0.0021423627622425556
1772609971231399000,9.02439892578125,0.0009759282693266869,0.0005774591118097305,-0.0013436321169137955
1772609971241395700,9.034395751953125,-0.0007252991199493408,0.0018661622889339924,0.0009165927767753601
1772609971251393800,9.044393798828125,-0.0006673615425825119,-0.0003704945556819439,-0.0006863623857498169
1772609971261391600,9.0543916015625,-0.0008860062807798386,0.0022881394252181053,0.0006960844621062279
1772609971271389700,9.0643896484375,-0.0019131535664200783,-0.0014823679812252522,0.0005918634124100208
1772609971281387800,9.0743876953125,0.0013444246724247932,-0.0017188568599522114,-0.001583406701683998
1772609971291385600,9.084385498046874,0.00007990933954715729,-0.0004577883519232273,0.0007031718268990517
1772609971301383700,9.0943837890625,0.0020069722086191177,-0.0016836412250995636,0.001348721794784069
1772609971311381800,9.1043818359375,0.0000179242342710495,0.0021980549208819866,0.0016719307750463486
1772609971321378800,9.11437890625,-0.000911252573132515,0.0006438340060412884,-0.000074037816375494
1772609971331377000,9.124376953125,-0.0005487194284796715,0.0005732905119657516,0.00012554042041301727
1772609971341374700,9.134374755859374,0.000657159835100174,-0.00013617565855383873,-0.00023851357400417328
1772609971351372800,9.144372802734376,-0.002876915968954563,-0.001027687918394804,-0.0008017206564545631
1772609971361371000,9.154370849609375,0.0014102403074502945,0.0007552984170615673,-0.00048613594844937325
1772609971371368700,9.16436865234375,-0.0004611285403370857,0.0019702063873410225,-0.0014910274185240269
1772609971381366800,9.17436669921875,0.0000624489039182663,-0.001451689749956131,-0.0006864862516522408
1772609971391364900,9.18436474609375,-0.000864565372467041,0.0024385331198573112,-0.0005044108256697655
1772609971401361700,9.194361572265626,-0.0006517786532640457,0.0007985583506524563,-0.0002514105290174484
1772609971411359700,9.20435986328125,-0.0006074383854866028,-0.000563641544431448,0.00015408126637339592
1772609971421357600,9.214357666015625,0.001787275541573763,0.002384477760642767,0.002058241982012987
1772609971431355600,9.224355712890626,-0.0005734618753194809,-0.0014675683341920376,-0.0017508016899228096
1772609971441353700,9.234353759765625,-0.0005409708246588707,-0.0006084325723350048,-0.0007710247300565243
1772609971451351600,9.2443515625,0.001272379420697689,0.000700047705322504,0.0009111030958592892
1772609971461349600,9.254349609375,0.0029954444617033005,-0.0018339501693844795,0.000976350624114275
1772609971471347700,9.26434765625,-0.00007528439164161682,-0.0005837902426719666,-0.001248522661626339
1772609971481344800,9.2743447265625,0.0006056856364011765,-0.0003571552224457264,-0.0008458527736365795
1772609971491342800,9.2843427734375,-0.0020299172028899193,0.000035449396818876266,-0.0006790086627006531
1772609971501340700,9.294340576171875,0.0002843700349330902,-0.0003408552147448063,0.0017881439998745918
1772609971511338800,9.3043388671875,0.0012683868408203125,-0.0005727563984692097,-0.0005710059776902199
1772609971521336800,9.3143369140625,0.0005235001444816589,-0.00048300763592123985,-0.0009158849716186523
1772609971531334700,9.324334716796875,-0.0005486682057380676,0.001434061210602522,-0.000635156873613596
1772609971541332700,9.334332763671876,-0.00044533703476190567,-0.0010456079617142677,0.0016524987295269966
1772609971551330800,9.344330810546875,0.0016446174122393131,-0.00036877207458019257,-0.002665436826646328
1772609971561327600,9.35432763671875,-0.0006643431261181831,0.0022778771817684174,-0.0014560953713953495
1772609971571325700,9.36432568359375,-0.00018851831555366516,-0.0007731993682682514,-0.000482343602925539
1772609971581323500,9.374323486328125,-0.0009230179712176323,0.0008001960813999176,-0.002811011392623186
1772609971591321600,9.384321533203124,0.0015966128557920456,0.0000374549999833107,0.0009178770706057549
1772609971601319400,9.3943193359375,0.0006972635164856911,0.0008760844357311726,-0.0010821567848324776
1772609971611317800,9.40431787109375,0.0022795978002250195,-0.0002942071296274662,-0.0010822112672030926
1772609971621315800,9.41431591796875,0.0003828946501016617,0.0018898514099419117,-0.002095810603350401
1772609971631312600,9.424312744140625,0.001665789633989334,-0.0006893789395689964,-0.0015276754274964333
1772609971641310700,9.434310791015625,-0.0006977654993534088,-0.00040548620745539665,-0.00135856494307518
1772609971651308500,9.44430859375,-0.00037718191742897034,-0.0007838406600058079,0.00019631627947092056
1772609971661306600,9.454306640625,-0.0017114263027906418,-0.0008687954396009445,-0.00045962026342749596
1772609971671304700,9.4643046875,0.0032575149089097977,-0.0007323669269680977,-0.00018156878650188446
1772609971681302500,9.474302490234376,0.0007064724341034889,0.0012919018045067787,0.0014224527403712273
1772609971691300600,9.484300537109375,0.0006699403747916222,-0.0021321866661310196,-0.0008601606823503971
1772609971701298700,9.494298583984374,-0.0007918691262602806,-0.0014195246621966362,-0.0012183557264506817
1772609971711295500,9.50429541015625,-0.00026321783661842346,0.000058624427765607834,0.0015525096096098423
1772609971721293600,9.51429345703125,0.000708303414285183,-0.0019291592761874199,-0.0009026587940752506
1772609971731291600,9.524291748046876,0.0019046817906200886,0.002503075636923313,0.0003652316518127918
1772609971741289700,9.534289794921875,0.0009882878512144089,0.00003272714093327522,-0.0013176198117434978
1772609971751287800,9.544287841796875,0.0005722949281334877,0.00028145965188741684,-0.0019714939408004284
1772609971761285600,9.55428564453125,0.0008910754695534706,0.00034564174711704254,-0.0021951994858682156
1772609971771283700,9.56428369140625,-0.00015344377607107162,-0.00003523426130414009,0.0003936472348868847
1772609971781281800,9.57428173828125,-0.0012472039088606834,0.0017536110244691372,0.00015529431402683258
1772609971791278600,9.584278564453125,0.0019514989107847214,-0.00208244938403368,-0.001148279756307602
1772609971801276700,9.594276611328125,0.0003765057772397995,0.000354875810444355,0.000789436511695385
1772609971811274500,9.6042744140625,-0.0014082277193665504,0.0006300616078078747,-0.0009447424672544003
1772609971821272600,9.6142724609375,-0.0010502981022000313,0.0003861160948872566,-0.0022278535179793835
1772609971831270700,9.624270751953125,-0.000338762067258358,0.0002772808074951172,-0.00023203203454613686
1772609971841268500,9.6342685546875,-0.0010226620361208916,-0.000030314084142446518,0.0003530643880367279
1772609971851266600,9.6442666015625,-0.0021730931475758553,-0.001631293911486864,-0.00023340992629528046
1772609971861264600,9.6542646484375,0.0005899360403418541,-0.0003452533856034279,-0.0011796308681368828
1772609971871262500,9.664262451171876,-0.0008181389421224594,-0.0005308673717081547,0.0002502896822988987
1772609971881259800,9.674259765625,-0.001977412961423397,0.00029204925522208214,-0.002922600135207176
1772609971891257600,9.684257568359374,0.0003245510160923004,0.0025661205872893333,0.000586257316172123
1772609971901255700,9.694255615234376,-0.0003122109919786453,-0.0006251451559364796,-0.0005655600689351559
1772609971911253800,9.704253662109375,-0.0002991361543536186,-0.0001668245531618595,0.003054982516914606
1772609971921251600,9.71425146484375,0.0002071307972073555,0.002575431950390339,-0.0002654469572007656
1772609971931249700,9.724249755859375,0.0015859082341194153,0.0017411462031304836,0.0010726568289101124
1772609971941247700,9.734247802734375,-0.00034408457577228546,0.0023155901581048965,0.0011948957107961178
1772609971951244500,9.74424462890625,-0.0019768094643950462,-0.00025166384875774384,0.0006647678092122078
1772609971961242600,9.75424267578125,-0.0002910289913415909,-0.0012924275361001492,-0.00022366270422935486
1772609971971240400,9.764240478515624,-0.0014387955889105797,0.0013655717484652996,-0.0005436562933027744
1772609971981238500,9.774238525390626,0.00006615649908781052,-0.001184938009828329,-0.000886671245098114
1772609971991236600,9.784236572265625,0.001842966303229332,0.0001810719259083271,0.0009340294636785984
1772609972001234400,9.794234375,-0.0015166113153100014,-0.00015741540119051933,0.0011870297603309155
1772609972011232500,9.804232421875,-0.001888517290353775,-0.00008928915485739708,0.00011072028428316116
1772609972021230600,9.814230712890625,-0.0009159306064248085,0.0013975538313388824,0.0001344224438071251
1772609972031227600,9.8242275390625,-0.00022209994494915009,0.00025295885279774666,0.00005916738882660866
1772609972041225700,9.834225830078125,-0.0003930749371647835,-0.0012466670013964176,-0.0012074317783117294
1772609972051223600,9.8442236328125,-0.00020304322242736816,0.001084242481738329,0.0005076485686004162
1772609972061221600,9.8542216796875,0.00042519625276327133,-0.0003964751958847046,-0.0006886436603963375
1772609972071219700,9.8642197265625,-0.00018212292343378067,0.0004818681627511978,-0.0020894124172627926
1772609972081217500,9.874217529296875,-0.001238066703081131,0.00028159841895103455,0.00023872312158346176
1772609972091215600,9.884215576171876,-0.0007109269499778748,-0.000320932362228632,-0.0013448391109704971
1772609972101213700,9.894213623046875,-0.0011186571791768074,-0.0008546300232410431,0.0005281618796288967
1772609972111210500,9.90421044921875,-0.0003652293235063553,-0.003002903424203396,0.0008971295319497585
1772609972121208600,9.91420849609375,-0.0008118413388729095,-0.00016637053340673447,-0.000264008529484272
1772609972131206400,9.924206298828125,-0.00039386842399835587,0.001094842329621315,0.00012877536937594414
1772609972141204500,9.93420458984375,-0.002758755348622799,0.0012082932516932487,0.0022699567489326
1772609972151202600,9.94420263671875,-0.0018975753337144852,0.0006849817000329494,-0.0017300620675086975
1772609972161200600,9.95420068359375,-0.0008211256936192513,0.0016708839684724808,0.00003002118319272995
1772609972171198700,9.96419873046875,-0.00005795992910861969,-0.0012272251769900322,-0.001083968672901392
1772609972181196800,9.97419677734375,-0.0006856666877865791,0.0006811958737671375,-0.0010200529359281063
1772609972191193600,9.984193603515624,-0.0008882144466042519,0.0002655480057001114,0.000684103462845087
1772609972201191700,9.994191650390626,0.00011366605758666992,0.0003297305665910244,0.00018209777772426605
1772609972211189500,10.004189453125,-0.0001963730901479721,0.0012759538367390633,0.001182536594569683
1772609972221187600,10.0141875,0.0007312064990401268,-0.0014364761300384998,-0.0011322833597660065
1772609972231185700,10.024185546875,-0.0002415832132101059,0.0005824961699545383,-0.00040659354999661446
1772609972241183500,10.03418359375,0.0009035756811499596,0.0007462804205715656,-0.0016090106219053268
1772609972251181600,10.044181640625,-0.0016059866175055504,-0.00023723766207695007,0.0011061904951930046
1772609972261179600,10.0541796875,-0.0015428699553012848,0.0012381537817418575,-0.001143115572631359
1772609972271176700,10.0641767578125,-0.0003468049690127373,0.0006324863061308861,-0.00250733969733119
1772609972281174800,10.0741748046875,-0.0003723716363310814,-0.0010743336752057076,-0.0017619207501411438
1772609972291172600,10.084172607421875,0.002607405185699463,-0.0005752616561949253,-0.00041059451177716255
1772609972301170700,10.094170654296875,-0.0006142202764749527,-0.0018325401470065117,-0.0002910182811319828
1772609972311168800,10.104168701171876,0.0010742275044322014,0.00040727853775024414,0.002939863596111536
1772609972321166600,10.11416650390625,-0.0010182186961174011,-0.001154665369540453,-0.0012924321927130222
1772609972331164700,10.12416455078125,0.0022560404613614082,-0.002307506278157234,-0.0008092769421637058
1772609972341162800,10.134162841796876,-0.0007663806900382042,-0.0012140125036239624,-0.0001400243490934372
1772609972351159600,10.14415966796875,-0.0006361585110425949,-0.0001224619336426258,0.000269867479801178
1772609972361157600,10.15415771484375,0.0008594729006290436,-0.00023777689784765244,0.0001835813745856285
1772609972371155500,10.164155517578125,-0.00015450548380613327,-0.0024010324850678444,-0.0004950664006173611
1772609972381153500,10.174153564453125,-0.0014298930764198303,-0.00118529936298728,0.0006804526783525944
1772609972391151600,10.184151611328126,-0.0029727881774306297,-0.0021672374568879604,-0.0005973526276648045
1772609972401149400,10.1941494140625,0.00040170270949602127,-0.0016782809980213642,-0.0006032115779817104
1772609972411147500,10.2041474609375,-0.0003032013773918152,0.0010613701306283474,-0.0008857180364429951
1772609972421145600,10.2141455078125,0.00007523316890001297,0.0018696398474276066,-0.0021597743034362793
1772609972431142700,10.224142578125,0.0009485902264714241,-0.0028879980091005564,-0.001320532988756895
1772609972441140700,10.234140625,0.0007507177069783211,0.00014108140021562576,0.0015082764439284801
1772609972451138600,10.244138671875,0.0029709311202168465,0.0006888723000884056,-0.0019291862845420837
1772609972461136600,10.25413671875,0.0012212339788675308,0.00035038450732827187,-0.0018024197779595852
1772609972471134700,10.264134765625,-0.00037875305861234665,0.00036814529448747635,-0.0013742875307798386
1772609972481132500,10.274132568359375,-0.000439472496509552,-0.0010350742377340794,-0.001786278560757637
1772609972491130600,10.284130615234375,0.0003661802038550377,0.0003849235363304615,-0.001134862657636404
1772609972501128700,10.294128662109374,-0.0025185560807585716,-0.0017069894820451736,-0.0019481917843222618
1772609972511125500,10.30412548828125,0.0014503682032227516,-0.0008128904737532139,-0.0005157110281288624
1772609972521123600,10.31412353515625,0.0005190614610910416,0.000312295276671648,-0.0014781774953007698
1772609972531121400,10.324121337890626,0.0012747123837471008,0.0012354357168078423,0.0005160546861588955
1772609972541119500,10.334119384765625,-0.00005234126001596451,0.0005986741743981838,-0.0013433643616735935
1772609972551117600,10.34411767578125,-0.0006068162620067596,-0.00003788340836763382,-0.0005748155526816845
1772609972561115400,10.354115478515626,-0.0004291841760277748,-0.00041791656985878944,-0.00013326341286301613
1772609972571113500,10.364113525390625,0.0009329020977020264,0.0013580289669334888,0.001074629370123148
1772609972581111600,10.374111572265624,0.0010783104225993156,-0.0044268895871937275,0.0015947441570460796
1772609972591109600,10.384109619140625,-0.0003709215670824051,-0.0007764049805700779,0.0008324296213686466
1772609972601107500,10.394107421875,0.00020751729607582092,0.0015621166676282883,0.0014918278902769089
1772609972611105500,10.40410546875,-0.00021904613822698593,-0.0020727142691612244,-0.0016651530750095844
1772609972621103600,10.414103515625,0.000023567117750644684,-0.000015688594430685043,0.00006829854100942612
1772609972631101400,10.424101318359375,0.00008932966738939285,-0.0030472860671579838,-0.0012394096702337265
1772609972641099500,10.434099609375,-0.0005807215347886086,0.0017349524423480034,-0.00013499706983566284
1772609972651097600,10.44409765625,-0.000174020417034626,-0.0007598451338708401,0.0001889606937766075
1772609972661095400,10.454095458984375,-0.00032928306609392166,0.0006676088087260723,-0.001502412836998701
1772609972671093500,10.464093505859376,-0.001169467344880104,0.0006546140648424625,-0.002878590952605009
1772609972681090600,10.474090576171875,-0.0006645321846008301,0.0009195986203849316,0.00005088606849312782
1772609972691088400,10.48408837890625,0.00009269546717405319,-0.00043715862557291985,0.0003353036008775234
1772609972701086500,10.49408642578125,-0.0005981279537081718,0.0004866919480264187,0.001165676862001419
1772609972711084300,10.504084228515625,-0.00016765203326940536,-0.003103414550423622,0.0020001069642603397
1772609972721082400,10.514082275390624,0.0017602108418941498,-0.0015819505788385868,0.00042111892253160477
1772609972731080400,10.52408056640625,0.0010349610820412636,-0.00044862087815999985,-0.0001529972068965435
1772609972741078300,10.534078369140625,-0.0010199341922998428,-0.0008355779573321342,-0.0010078717023134232
1772609972751075600,10.54407568359375,0.0019644489511847496,0.0001669079065322876,-0.00004565063863992691
1772609972761073700,10.55407373046875,0.0008917283266782761,0.0003988691605627537,-0.0004182267002761364
1772609972771071500,10.564071533203125,0.0016760323196649551,0.00038926396518945694,0.002061194274574518
1772609972781069600,10.574069580078126,0.0008712252601981163,-0.001494656316936016,0.0007117707282304764
1772609972791067400,10.5840673828125,0.0012145265936851501,0.0001304694451391697,-0.0013806740753352642
1772609972801065500,10.5940654296875,0.002268871758133173,-0.0012410585768520832,0.0017101909033954144
1772609972811063600,10.6040634765625,0.0009969519451260567,-0.0009405282326042652,-0.0016033900901675224
1772609972821061400,10.614061279296875,0.0010920269414782524,-0.00003052596002817154,-0.0038194062653928995
1772609972831059500,10.6240595703125,0.0009318282827734947,-0.00007749255746603012,-0.0016707582399249077
1772609972841056500,10.634056396484375,-0.0025169653818011284,0.00019601406529545784,0.0012832200154662132
1772609972851054300,10.644054443359375,0.0003820173442363739,0.00004799291491508484,0.0006020390428602695
1772609972861052400,10.654052490234376,0.0016840370371937752,0.0003467993810772896,0.004905174486339092
1772609972871050500,10.664050537109375,-0.00003946386277675629,0.000254844781011343,-0.0007219370454549789
1772609972881048300,10.67404833984375,-0.0014224434271454811,-0.00015474949032068253,0.0017502754926681519
1772609972891046400,10.68404638671875,-0.00035095587372779846,-0.0003276681527495384,0.005694313440471888
1772609972901044500,10.69404443359375,0.0003755539655685425,0.00009444262832403183,0.0022231494076550007
1772609972911042600,10.70404248046875,0.00026939529925584793,0.002207356970757246,0.000007953960448503494
1772609972921039600,10.71403955078125,0.0004403702914714813,0.0009785746224224567,-0.0010940623469650745
1772609972931037400,10.724037353515625,-0.00008527841418981552,0.0000018849968910217285,-0.0015921141020953655
1772609972941035500,10.734035400390624,0.00020127836614847183,-0.0014031985774636269,-0.002818233333528042
1772609972951033600,10.74403369140625,0.00038330815732479095,-0.0004021846689283848,-0.0012107989750802517
1772609972961031400,10.754031494140625,-0.00029686279594898224,0.00005614524707198143,-0.0004800274036824703
