time,seconds_elapsed,z,y,x
1772567168086830300,0.077830322265625,-0.1483189223766327,0.19816081164926289,0.2184998353227973
1772567168096859400,0.087859375,-0.27987667956650253,0.35058600030094383,0.03353489759415388
1772567168106888400,0.097888427734375,-0.07098258471786975,0.11809000752530992,0.05257584428116679
1772567168116917200,0.107917236328125,-0.05435878217518329,-0.01597995168119669,0.05129018838480115
1772567168126946600,0.117946533203125,0.004577975440025329,-0.0024439590860158202,0.0438045088045299
1772567168136976400,0.127976318359375,0.06046177522540092,0.011360694382712245,0.03349880336746573
1772567168147005400,0.13800537109375,0.08584230019748211,0.0128543670065701,0.034764147128164766
1772567168157034500,0.148034423828125,0.17115969973802567,0.039881197880953546,0.040481063470244404
1772567168167063600,0.1580634765625,0.2449608490079641,0.07408164671175181,0.051680064485222096
1772567168177092600,0.168092529296875,0.2534101129233837,0.10929258775934576,0.08823927833661437
1772567168187121400,0.178121337890625,0.26405659462213515,0.1395820736914873,0.11575520790219307
1772567168197150500,0.188150390625,0.32193361405134197,0.16253727121278644,0.08898249791935085
1772567168207179500,0.198179443359375,0.28409868117570874,0.14196736139282584,0.059353521722555154
1772567168217208300,0.208208251953125,0.2442734512656927,0.11147774977870285,0.01963847418874502
1772567168227238400,0.21823828125,0.20406594403982162,0.1165939968138933,-0.004834434419125318
1772567168237267500,0.228267333984375,0.11655951002240181,0.13726773233450948,0.015776391933113337
1772567168247296300,0.238296142578125,0.08961188186407089,0.10170359393507242,0.04214636633396148
1772567168257325300,0.2483251953125,0.0746843618452549,0.07684168600961566,0.08553951785862446
1772567168267354400,0.258354248046875,0.03172200295329094,0.04398403008989989,0.07294248661398887
1772567168277383700,0.2683837890625,0.0880213978022337,-0.01502403919585049,0.055592561753839254
1772567168287412500,0.27841259765625,0.05896013849079609,-0.04579845910072326,0.029868776302039622
1772567168297441500,0.288441650390625,0.003465630283951759,-0.08018113263063133,0.0419223483197391
1772567168307470600,0.298470703125,-0.03544540739059448,-0.08348441195972263,0.043444151059538125
1772567168317500400,0.30850048828125,-0.03317629341483116,-0.06243351368978619,0.035824031444638964
1772567168327529500,0.318529541015625,-0.023493688312172887,-0.04157046614214778,0.08717603301927447
1772567168337558500,0.32855859375,-0.06622223844826221,-0.0714433340974152,0.15155921947211026
1772567168347587300,0.33858740234375,-0.016736615267395973,-0.10206285570152103,0.1455214006125927
1772567168357616400,0.348616455078125,0.02018354085087776,-0.029218349569290876,0.11312778200805186
1772567168367645400,0.3586455078125,0.06579612199068069,-0.02350691311992705,0.06922448900416493
1772567168377674200,0.36867431640625,0.11415303340256214,-0.03474398112297058,0.07846943334192037
1772567168387703300,0.378703369140625,0.18540742079913616,-0.047422187845036386,0.10421119284182787
1772567168397732600,0.388732666015625,0.21431553537547587,-0.07211085809543728,0.13283333008363843
1772567168407761400,0.398761474609375,0.22236089466512202,-0.04827851241342723,0.13946283122599124
1772567168417791500,0.40879150390625,0.22758418227136135,0.009988529246672987,0.12150003516450524
1772567168427820500,0.418820556640625,0.23007190743386743,0.04455189310573041,0.0970459773875773
1772567168437849600,0.428849609375,0.2530529700487852,0.020909224776923654,0.06686915804967283
1772567168447878400,0.43887841796875,0.22715689677000045,0.013624839922413229,0.048990533140301704
1772567168457907500,0.448907470703125,0.16353461168706415,-0.029433234428986904,0.014332330604642628
1772567168467936500,0.4589365234375,0.16335282537937162,-0.022547274307534098,0.0078154960565269
1772567168477965300,0.46896533203125,0.07919511726796627,0.014577683667838572,0.03506093811765313
1772567168487994400,0.478994384765625,-0.04106441631615162,-0.013993088712915778,0.05377338350266218
1772567168498023400,0.4890234375,-0.011630816560983658,0.0016292086370289325,0.0035692367888987063
1772567168508053500,0.499053466796875,0.04246609980762005,0.06400346642024815,-0.0029236323617398735
1772567168518082300,0.509082275390625,-0.016854688689112662,0.08013809720650315,0.03463219131156802
1772567168528111400,0.519111328125,-0.027965280768275258,0.045646483409404755,0.061825903185456985
1772567168538140400,0.529140380859375,-0.009474515309929847,0.031050679562985895,0.061719227940589184
1772567168548169500,0.53916943359375,0.02327624616920948,0.04701221880465745,0.02174845208004117
1772567168558198500,0.549198486328125,0.06887070713043213,0.0012335603829473256,0.023064064723253248
1772567168568227600,0.5592275390625,0.08287351351976394,-0.015637129592895507,0.05257730558589101
1772567168578256400,0.56925634765625,0.11294365761280059,0.05734181657396257,0.0574858281545341
1772567168588285400,0.579285400390625,0.15789748258292674,0.11475311818756162,0.021644991705566642
1772567168598315500,0.5893154296875,0.18132745800912378,0.08708134047314524,0.009707739543914795
1772567168608344600,0.599344482421875,0.18754443282783032,-0.0064433309204876416,0.03169029264077544
1772567168618373400,0.609373291015625,0.14659633636772632,-0.06766673816815018,0.038620238034427164
1772567168628402400,0.61940234375,0.12810790899693966,-0.10462678790539502,0.00898293240070343
1772567168638431500,0.629431396484375,0.12378127796947955,-0.10778780921958386,0.028477468074113128
1772567168648460300,0.639460205078125,0.08660860839486122,-0.14231734387427566,0.04986351658254862
1772567168658489300,0.6494892578125,0.044213820257782935,-0.11286372424438595,0.06534735530987382
1772567168668518700,0.6595185546875,0.1010790322959423,-0.09646876202151179,0.034677053366601464
1772567168678547500,0.66954736328125,0.13657529309093952,-0.08740976870991289,0.0405795554086566
1772567168688577500,0.67957763671875,0.05926116726398468,-0.09458616314530371,0.08538403503596782
1772567168698606600,0.689606689453125,0.057605216750502584,-0.08943813273236155,0.0678187138594687
1772567168708635400,0.699635498046875,0.11466332101225853,-0.06372136154323815,0.03171571934297681
1772567168718664400,0.70966455078125,0.1489402691453695,-0.06624079701825976,0.024737843154370782
1772567168728693500,0.719693603515625,0.14989713147878647,-0.08765168770700693,0.05084492883533239
1772567168738722600,0.72972265625,0.11715864495933055,-0.08207344918325543,0.07783303513452411
1772567168748751400,0.73975146484375,0.11409224312603473,-0.09727014153227209,0.06875818666666746
1772567168758780400,0.749780517578125,0.11231295849382876,-0.14169738534502685,0.06417831153050065
1772567168768809000,0.75980908203125,0.09106091162860393,-0.16715031796619295,0.08475158235132693
1772567168778838300,0.76983837890625,0.05705284356474876,-0.16005298011638222,0.1148278639242053
1772567168788868000,0.7798681640625,0.06855740339756011,-0.11430245181061327,0.1150203177563846
1772567168798897200,0.789897216796875,0.07082593285143375,-0.029632702523842452,0.12644786683022974
1772567168808926200,0.79992626953125,-0.005297521886229515,-0.004321005004271864,0.14032982331886887
1772567168818955300,0.809955322265625,0.011928922724723815,-0.015880436829477547,0.11582710409462452
1772567168828984300,0.819984375,0.017474866414070128,-0.0067540043048560615,0.0929955329529941
1772567168839013000,0.83001318359375,0.005889642560482025,-0.031596842203661796,0.10250161244496703
1772567168849042200,0.840042236328125,0.023346973317861557,-0.021242256123572587,0.10626914828494191
1772567168859071200,0.8500712890625,0.06745908676683902,-0.01314187871105969,0.10144333556368947
1772567168869101000,0.86010107421875,0.12349836937487124,-0.0072812430493533606,0.0994432477876544
1772567168879130000,0.870130126953125,0.19292320325672627,0.05490304511971771,0.06818652425855398
1772567168889159200,0.8801591796875,0.1851356181204319,0.10850998601429164,0.06471358745098113
1772567168899188000,0.89018798828125,0.1849690293818712,0.06968487305752932,0.05651917507946491
1772567168909217000,0.900217041015625,0.1739373477578163,0.037560353717952966,0.04971124863028526
1772567168919246000,0.91024609375,0.09996259548664092,0.06504793397188187,0.07078530858010053
1772567168929275400,0.920275390625,0.03753390410244465,0.06892375249192119,0.06914572467952966
1772567168939304200,0.93030419921875,-0.07211480361819267,0.015395429791510104,0.07230185062289238
1772567168949333200,0.940333251953125,-0.08479717505872249,0.022087328645586966,0.10998188519775867
1772567168959362300,0.9503623046875,-0.05476151775717735,0.01868205024674535,0.14299889639765023
1772567168969392000,0.96039208984375,0.02905015339553356,0.0035455636523663995,0.17299655977636574
1772567168979421200,0.970421142578125,0.13773615356385707,0.04732837208174169,0.1802655278660357
1772567168989450200,0.9804501953125,0.23306816664040086,0.12998758526369927,0.12851429784074425
1772567168999479000,0.99047900390625,0.22929683140814303,0.2609543177578598,0.10783493629693984
1772567169009508000,1.000508056640625,0.19325345812439917,0.2982022445257753,0.07617080101072787
1772567169019537200,1.010537109375,0.20050328312218188,0.20286460542604326,0.039252544588595624
1772567169029566000,1.02056591796875,0.13869652302861213,0.10385536514148115,0.017314999677240848
1772567169039595000,1.030594970703125,0.12165478733479976,0.09132380034849047,0.024900632500648497
1772567169049624300,1.040624267578125,0.08437690382003783,0.09619615562520921,0.002256985146552324
1772567169059654100,1.050654052734375,0.058552726733684536,0.04161963904611766,-0.0398842666208744
1772567169069683200,1.06068310546875,0.016563596788048744,0.041684667106345295,-0.017712328431755305
1772567169079712300,1.070712158203125,-0.039347675526142115,0.037040348431840536,0.05830620462670922
1772567169089741300,1.0807412109375,0.013047113099694252,0.050627998149022455,0.09230258225277066
1772567169099770000,1.09077001953125,-0.08488309977650642,0.21224932356067,0.12980521443411708
1772567169109799200,1.100799072265625,0.33242285936176774,-0.004437178729847073,0.17893983222022652
1772567169119828200,1.110828125,0.11451076079905033,-0.049946884017065166,0.12101561264842747
1772567169129857000,1.12085693359375,0.21079671359956265,0.1236168811880052,0.13149477495625614
1772567169139886000,1.130885986328125,0.23896014728844164,0.13903057728856802,0.057576867438852784
1772567169149916200,1.140916259765625,0.1767389611750841,0.1053544445928186,0.06670593031197786
1772567169159945200,1.1509453125,0.09578151040971279,0.05426321284621954,0.08669614054784178
1772567169169974000,1.16097412109375,0.022497078490257262,0.03214066675677895,0.09695610714703798
1772567169180003000,1.171003173828125,0.03587561550140381,0.054842693234607574,0.10451499809399246
1772567169190032100,1.1810322265625,0.08525134856700897,0.032928163872659205,0.08119958895817399
1772567169200061200,1.191061279296875,0.09836685072779655,0.03625913492627442,0.0959767407208681
1772567169210090200,1.20109033203125,0.11838204927444457,0.03265519215017557,0.1076192477196455
1772567169220119300,1.211119384765625,0.19433599266409873,0.01208301730789244,0.08310556870996952
1772567169230148000,1.221148193359375,0.2638011585563421,0.019569865931943056,0.06151786014959216
1772567169240177200,1.23117724609375,0.32268940085470676,-0.001672755517810583,0.07409560217186809
1772567169250207200,1.241207275390625,0.2934340802758932,-0.07902816320322453,0.11262523931339383
1772567169260236300,1.251236328125,0.18402619557380676,-0.04993789699301123,0.13982786514610052
1772567169270265000,1.26126513671875,0.13601707468628882,0.032978651950880886,0.09120704210102558
1772567169280294100,1.271294189453125,0.1320049164354801,0.11852752215974033,0.07270823946669697
1772567169290323200,1.2813232421875,0.0815419726550579,0.08582418001890182,0.05690539791807532
1772567169300352000,1.29135205078125,0.06439210041165351,-0.06855908389799296,0.026895897971093652
1772567169310381000,1.301381103515625,0.05464578242301941,-0.11031798528432846,0.045350423072278497
1772567169320410400,1.311410400390625,0.03956453314721584,-0.09821984347254037,0.022918811033666133
1772567169330439200,1.321439208984375,-0.056260231882333755,-0.13258103582300246,0.16450009571835397
1772567169340469200,1.33146923828125,0.14773673857450484,-0.11307963201738894,0.045183542072772975
1772567169350498300,1.341498291015625,-0.06826455793082714,0.0178034407813102,0.07800035452544689
1772567169360527000,1.351527099609375,-0.08453121759891509,-0.068721288722381,0.11244462204948066
1772567169370556200,1.36155615234375,-0.015059621965885162,-0.0690763857703656,0.10592997945845127
1772567169380585200,1.371585205078125,0.011889175236225128,0.009633943655341863,0.06177987208664417
1772567169390614300,1.3816142578125,0.0769458770364523,-0.005541852036118507,0.02938639961257577
1772567169400643000,1.39164306640625,0.1100678099155426,0.0023068156376481056,-0.00195566411241889
1772567169410672000,1.401672119140625,0.11851239765584468,0.035982363811507816,0.007361176417768001
1772567169420701200,1.411701171875,0.07757189998030663,0.02058569191098213,0.02734831791371107
1772567169430731000,1.42173095703125,0.06707154875397682,0.03463284889869392,0.020646189926564692
1772567169440760000,1.431760009765625,0.013719313272833824,0.05448328533768654,0.02368994153663516
1772567169450789000,1.4417890625,-0.01637245813012123,-0.0011493161655962466,0.018969781146943566
1772567169460818200,1.451818115234375,-0.09022679889202118,-0.017064239786565304,0.039901363886147734
1772567169470847200,1.46184716796875,-0.02809387558400631,0.010290873194113374,0.04903393389061093
1772567169480876300,1.471876220703125,0.06896832228600978,0.07105535769313573,-0.022232728465646504
1772567169490905000,1.481905029296875,0.02935468930006027,0.07966646110676229,0.008020078717917203
1772567169500934100,1.49193408203125,0.13992927969396113,0.04501563815996051,0.05095101955831051
1772567169510963200,1.501963134765625,0.17184826652407645,0.08595474759601056,0.06605638036206364
1772567169520993300,1.5119931640625,0.18643150314986703,0.1094663368910551,0.06825608236342669
1772567169531022000,1.52202197265625,0.15656477267444133,0.07881094025596976,0.0668600979603827
1772567169541051100,1.532051025390625,0.1756979276895523,0.0694748105034232,0.0356973363250494
1772567169551080200,1.542080078125,0.1624216820091009,0.05156133347637951,0.03292217252328992
1772567169561109000,1.55210888671875,0.12306406961083412,-0.005365180294960737,0.06357888433262705
1772567169571138000,1.562137939453125,0.10135726471543312,-0.021981603248789904,0.10189444033205508
1772567169581167000,1.5721669921875,0.08893266742825508,0.008053980987519025,0.09535115616843104
1772567169591196200,1.582196044921875,0.0955453635662794,0.04496186214610934,0.0871202111788094
1772567169601225200,1.59222509765625,0.07712883238792419,0.04595883729420602,0.11375205138623713
1772567169611255300,1.60225537109375,0.09223638514876364,0.011736030501127242,0.11583557966202497
1772567169621284400,1.612284423828125,0.1083335334688425,0.017577596136182545,0.12362447997257113
1772567169631313200,1.622313232421875,0.08511983114182949,-0.006098170744627714,0.12993103277087212
1772567169641342200,1.63234228515625,0.094565120357275,-0.04037153868116438,0.14078998817652463
1772567169651371300,1.642371337890625,0.10690145483911037,-0.03925144861005246,0.11750146704763173
1772567169661400000,1.652400146484375,0.06738426796495914,-0.009341390449553727,0.10296294634640216
1772567169671429000,1.66242919921875,0.10170856237113475,0.014947466828301548,0.07701835775077343
1772567169681458200,1.672458251953125,0.13655600386857986,0.02669767198525369,0.05176949633434415
1772567169691487000,1.682487060546875,0.13826923752725123,0.006380421752110123,0.06425912168174981
1772567169701517000,1.69251708984375,0.16515081471204757,-0.01672594774290919,0.08788666550666094
1772567169711546000,1.702546142578125,0.1684738216549158,-0.011636954040825367,0.08785904684737324
1772567169721575200,1.7125751953125,0.1538508375406265,0.03408354445286095,0.11233677776083349
1772567169731604200,1.722604248046875,0.12277823840677737,0.04512640505805612,0.14555617966502904
1772567169741633300,1.73263330078125,0.10671382331252098,0.045399815171957014,0.17081541634500025
1772567169751662300,1.742662353515625,0.10452771144509315,0.07549290174916386,0.14027692408785222
1772567169761691100,1.752691162109375,0.1621691685527563,0.10654014724604785,0.08869330571442842
1772567169771720400,1.762720458984375,0.12589140199124813,0.12454371370933949,0.10482289499938488
1772567169781749200,1.772749267578125,0.09181260677874088,0.06007927871383726,0.11272256220802664
1772567169791779300,1.782779296875,0.1494645852804184,0.050458925192430615,0.0721548433676362
1772567169801808400,1.792808349609375,0.18324059815406799,0.09331577788330614,0.058429246484488245
1772567169811837400,1.80283740234375,0.147721541005373,0.08502009709440171,0.050824762830138204
1772567169821866200,1.8128662109375,0.13716449115574358,0.0779147220686078,0.03829261351525783
1772567169831895300,1.822895263671875,0.16679741287529468,0.11063443082235754,0.001356090784072876
1772567169841924400,1.83292431640625,0.10118249267041683,0.10413820067085325,0.02301525714546442
1772567169851953200,1.842953125,0.02239303359389305,0.04297865243963897,0.07042290500849485
1772567169861982500,1.852982421875,-0.004141337588429451,0.027300094857811926,0.0597568418264389
1772567169872011500,1.863011474609375,0.04994739547371864,0.054666825211048126,0.027154256646335122
1772567169882041000,1.873041015625,0.10251987875401973,0.0527946746636182,0.030323534332215785
1772567169892070400,1.8830703125,0.10596563529372215,0.03155709471516311,0.06890504779145121
1772567169902099500,1.893099365234375,0.11728782429695128,0.03327865781076252,0.06973053883016109
1772567169912128300,1.903128173828125,0.13035539566278456,0.06326200040318071,0.03648205696195364
1772567169922157300,1.9131572265625,0.153874218416214,0.06802724204361438,0.007879355072975158
1772567169932186400,1.923186279296875,0.12499299184679984,0.03446289915926754,0.03521364446133375
1772567169942215200,1.933215087890625,0.05716507176756858,-0.02725165260620415,0.0662140551418066
1772567169952244200,1.943244140625,0.022065116813778877,-0.052765667764842504,0.05601590173244476
1772567169962273300,1.953273193359375,0.02607084532380104,-0.02963043750151992,0.06306172859072685
1772567169972303400,1.963303466796875,-0.0002852466821670532,-0.008276829957962036,0.0678740973085165
1772567169982332200,1.973332275390625,-0.001301145726442337,-0.0026936229981482027,0.07273556586503982
1772567169992361200,1.983361328125,0.01068038396835327,0.009234788269922137,0.06712327894121409
1772567170002390300,1.993390380859375,0.07800678426623343,0.0413363651253283,0.04129457181021571
1772567170012419300,2.00341943359375,0.15744272455275057,0.05911627890057861,0.019344898069649934
1772567170022448400,2.013448486328125,0.1891436847180128,0.05394289485067129,0.030219197174906728
1772567170032477400,2.0234775390625,0.19239713355600832,0.03452887706756592,0.012215630711615084
1772567170042506200,2.03350634765625,0.21525661561787127,0.05106127499975264,0.0056971887283027165
1772567170052535300,2.043535400390625,0.19899229403734206,0.04533383726365864,0.01471679987758398
1772567170062565400,2.0535654296875,0.12964578608870506,0.008559154030680655,0.03391629812717437
1772567170072594400,2.063594482421875,0.07911269968152046,0.03148600224032998,0.032008710940182206
1772567170082623200,2.073623291015625,0.06770926213562488,0.06554631194807589,0.01784896042346954
1772567170092652300,2.08365234375,0.009333061012625694,0.050788741668686264,0.032447248487919564
1772567170102681300,2.093681396484375,-0.040378187617659565,0.01308868721909821,0.04998115161284804
1772567170112710100,2.103710205078125,-0.08488193073272704,-0.0005338146157562732,0.04629764079451561
1772567170122739200,2.1137392578125,-0.056633156847953794,0.02592018480673432,0.006099485918879509
1772567170132768500,2.1237685546875,0.03689326811134815,0.04977452312484383,0.02158697790801525
1772567170142797300,2.13379736328125,0.10679624089896678,0.04330905343778431,0.05398308073058724
1772567170152827100,2.1438271484375,0.2208937447220087,0.04675013380236923,0.054499067428708074
1772567170162856400,2.1538564453125,0.299727042940259,0.08326295122876763,0.03728898943066597
1772567170172885500,2.163885498046875,0.3021124767720699,0.11443535747528076,0.03169306911975145
1772567170182914300,2.173914306640625,0.24992110176384447,0.08952807603813707,0.045102293530106544
1772567170192943400,2.183943359375,0.17503215725719928,0.07513466289602219,0.0439624758452177
1772567170202972400,2.193972412109375,0.07708382420241833,0.041972544137015934,0.04806450433656573
1772567170213001200,2.204001220703125,0.008439911565184593,-0.010072846529260278,0.035066637206077576
1772567170223030300,2.2140302734375,0.0018225392520427703,-0.04370017164722085,0.021472557748109102
1772567170233060400,2.224060302734375,0.011221066716313361,-0.0684790043991059,0.017180851903557778
1772567170243089400,2.23408935546875,0.05689210004508495,-0.06842639742903411,0.032265462180227036
1772567170253118200,2.2441181640625,0.07349661336541176,-0.03765051621943712,0.04753551202639937
1772567170263147300,2.254147216796875,0.11833821013271809,-0.006353387614712119,0.07419117150083183
1772567170273176300,2.26417626953125,0.10421499223411082,0.00860386995524168,0.09927388257011771
1772567170283205400,2.274205322265625,0.11425240212380885,-0.0073836074452847235,0.10286386988610029
1772567170293234400,2.284234375,0.10060206243395804,-0.0063715077932924025,0.09855272868871688
1772567170303263500,2.294263427734375,0.09842647196054458,-0.0010077888030558823,0.08797039826735853
1772567170313292300,2.304292236328125,0.08418401159644126,-0.0025508535265922547,0.06075052903890609
1772567170323322400,2.314322265625,0.07326222008764743,0.010594313120096921,0.03715396487414837
1772567170333351400,2.324351318359375,0.09806348386704922,0.025472806365415452,0.019038900860399006
1772567170343380200,2.334380126953125,0.11039046599864959,-0.0008707914851605892,0.018407617219537497
1772567170353409300,2.3444091796875,0.10846329732835293,-0.001391600488871336,0.04874123455435037
1772567170363438300,2.354438232421875,0.09543605797290801,0.0326952318996191,0.07681260604560375
1772567170373467100,2.364467041015625,0.10364742147922515,0.056722296436131,0.08632526140883565
1772567170383496200,2.37449609375,0.10803542730510234,0.07067929092235863,0.10686565287336706
1772567170393525200,2.384525146484375,0.09407119936048984,0.06745331461317837,0.1175134497463703
1772567170403554600,2.394554443359375,0.058359834510087964,0.0725497609693557,0.10975129131227732
1772567170413584100,2.404584228515625,0.055417351317405696,0.09854374166466295,0.08071560483351349
1772567170423613200,2.41461328125,0.06004150398671627,0.0853960907999426,0.057189183295518156
1772567170433642500,2.424642578125,0.07244564300775527,0.09230535873174667,0.05898191193118691
1772567170443671300,2.43467138671875,0.05812953288555145,0.1046954692274332,0.0645903994627297
1772567170453700400,2.444700439453125,0.06750234138667584,0.089809815588966,0.06166077575162053
1772567170463729400,2.4547294921875,0.1212824468910694,0.1137275014668703,0.06459829050824045
1772567170473758200,2.46475830078125,0.12646657153069973,0.1174458644028753,0.08512523796930908
1772567170483787300,2.474787353515625,0.12510463552773,0.09927424789629875,0.0920686273664236
1772567170493817300,2.4848173828125,0.13903963737785816,0.07969590639695524,0.07287818920612335
1772567170503846400,2.494846435546875,0.13244856854975223,0.06108860188685357,0.07680223078206182
1772567170513875200,2.504875244140625,0.08611351835429668,0.029748510923236608,0.06985694168880581
1772567170523904300,2.514904296875,0.0986784008949995,-0.0019748802695423364,0.0655963616348803
1772567170533933300,2.524933349609375,0.09824000947773456,-0.007266630002111196,0.07331219670921564
1772567170543962400,2.53496240234375,0.11861702707409857,0.02065400790683925,0.07433306418955325
1772567170553991400,2.544991455078125,0.12104513100385665,0.03499211066514253,0.08423281917423009
1772567170564020500,2.5550205078125,0.11294599570035933,0.026702932682260868,0.05954743685945868
1772567170574049300,2.56504931640625,0.12469196307361126,0.02188698376789689,0.05518339643105864
1772567170584079400,2.575079345703125,0.12968962523043154,-0.0017855682425200938,0.05596095667481422
1772567170594108400,2.5851083984375,0.1390238552868366,-0.03549589546881616,0.06532251312956214
1772567170604137500,2.595137451171875,0.13503040173649788,-0.041499738993495704,0.05943038635104894
1772567170614166300,2.605166259765625,0.1485714358329773,-0.011339213203266262,0.053056321274489164
1772567170624195300,2.6151953125,0.1437386088490486,0.010546163129433989,0.05149345587193965
1772567170634224400,2.625224365234375,0.12037351535260676,0.02560673494338989,0.0765098237067461
1772567170644253200,2.635253173828125,0.11604688432514666,0.009294117241725325,0.07379793439954518
1772567170654282200,2.6452822265625,0.08690613003671169,-0.0009611731823533773,0.06990414183139801
1772567170664312300,2.655312255859375,0.08415537002384663,-0.009091580406948924,0.06428615581914782
1772567170674341400,2.66534130859375,0.08485562724769115,-0.0038293490298092364,0.05469663582742214
1772567170684370200,2.6753701171875,0.09836334359645843,0.016761676643416285,0.05545388393551111
1772567170694399200,2.685399169921875,0.12038929744362831,0.03508161557950079,0.04053206300511956
1772567170704428500,2.695428466796875,0.12949907109439374,0.023759134315326808,0.041348201693594454
1772567170714457300,2.705457275390625,0.09365151264369487,-0.005310381367802619,0.04618731228783726
1772567170724486400,2.715486328125,0.07518588162660599,-0.002806654918566346,0.061375529069453476
1772567170734515500,2.725515380859375,0.030704350343346593,-0.02140204979516566,0.07864464377835392
1772567170744544300,2.735544189453125,-0.019400866040587425,-0.038411052263155575,0.0848491975069046
1772567170754574300,2.74557421875,-0.014468670335412024,0.005987330781295895,0.08748144570663571
1772567170764603400,2.755603271484375,-0.03674070789813995,0.02876074199490249,0.08829787665605544
1772567170774635500,2.765635498046875,-0.02784545378088951,0.005126914559677243,0.09234291426315903
1772567170784664600,2.77566455078125,-0.012090835288166998,-0.002359349542483687,0.09676540688052773
1772567170794693600,2.785693603515625,0.04256079235374927,0.024753844441100955,0.12058657358139753
1772567170804722400,2.795722412109375,0.09305705388188362,0.022604484387487172,0.14400383565649388
1772567170814751700,2.805751708984375,0.10979250010550022,0.028715149287506937,0.14657017901316285
1772567170824780800,2.81578076171875,0.18376900594234466,0.05981003331840038,0.10274828068241476
1772567170834810600,2.825810546875,0.20384850189685821,0.0792709589831531,0.0738506875000894
1772567170844839700,2.835839599609375,0.1943850925028324,0.0495954402308911,0.046632717967778445
1772567170854868700,2.84586865234375,0.17954232815802096,0.057865475121885536,0.05951353458985686
1772567170864897800,2.855897705078125,0.14870821395516395,0.06397519017383456,0.05252762122526765
1772567170874926600,2.865926513671875,0.12559037321805952,0.042215705243125554,0.057739949046075344
1772567170884955600,2.87595556640625,0.10463526347279548,0.009018369040265678,0.07266732293441891
1772567170894984700,2.885984619140625,0.06574994476139545,0.003180383601784706,0.08328063301593065
1772567170905013500,2.896013427734375,0.03780453773736953,-0.010779095102474092,0.08500658002570272
1772567170915042600,2.90604248046875,0.04927636434435844,0.003000862316414714,0.0718685737721622
1772567170925072600,2.91607275390625,0.0514046085447073,0.03452697737142443,0.055055970659106966
1772567170935101700,2.926101806640625,0.0422720385402441,0.04242766749337315,0.06936565104052424
1772567170945130500,2.936130615234375,0.07766366991698742,0.04023622186370194,0.06933890916407108
1772567170955159600,2.94615966796875,0.11095277605652809,0.042046851482242346,0.05774959365725517
1772567170965188900,2.95618896484375,0.13653496108055113,0.030104484754055735,0.046733255732804534
1772567170975217700,2.9662177734375,0.17558686853051184,0.013062310668826103,0.04549903776273131
1772567170985246700,2.976246826171875,0.1547872416079044,0.01162402149401605,0.04889087215811014
1772567170995275800,2.98627587890625,0.08806699050962924,0.05084478270485997,0.04715469601526856
1772567171005305900,2.996305908203125,0.03856675428152084,0.07210245559327304,0.03498480414152145
1772567171015334700,3.006334716796875,0.024912322938442227,0.050489685656875366,0.03662657999917865
1772567171025363700,3.01636376953125,-0.013791209465265273,0.015551424070820212,0.07594649073556065
1772567171035392800,3.026392822265625,0.03318447672128677,-0.042321138378977774,0.08902765223532914
1772567171045421600,3.036421630859375,0.09453180260956287,-0.061764674517512316,0.04463774475827813
1772567171055450600,3.04645068359375,0.12787585380673408,-0.08177307799719273,-0.00658785395771265
1772567171065479700,3.056479736328125,0.17726795348525046,-0.04662899164073169,-0.02224631859958172
1772567171075508500,3.066508544921875,0.21689561499655247,0.004388736478239298,-0.0032267069615423676
1772567171085538600,3.07653857421875,0.20192425583600998,0.011643749107792973,0.039206367359310386
1772567171095567600,3.086567626953125,0.16511282078921793,0.02376454114280641,0.07340016725361347
1772567171105596400,3.096596435546875,0.16946458625793456,0.056103068559244275,0.05881853806301951
1772567171115625700,3.106625732421875,0.11571604493558406,0.05853482575081288,0.03749678696244955
1772567171125654800,3.11665478515625,0.09401917691230774,0.022129779547825454,0.02994213379919529
1772567171135683600,3.12668359375,0.0844610749721527,0.0411675844296813,0.007293956400454044
1772567171145712600,3.136712646484375,0.057820905327796934,0.06615655280090868,-0.004865267948806286
1772567171155741700,3.14674169921875,0.05981061784029006,0.05423237931653857,-0.02062923879176378
1772567171165770800,3.156770751953125,0.043813422763347626,0.056771104013919826,-0.03726736212074756
1772567171175800600,3.166800537109375,0.03323533012568951,0.03762961956188082,-0.020014029502868652
1772567171185829600,3.17682958984375,0.030270635101199147,0.034200448830798265,0.003815320504456758
1772567171195858700,3.186858642578125,0.0325122765481472,0.03714534317627549,0.017383242607861758
1772567171205887500,3.196887451171875,0.06396832204163073,0.04358692053109407,0.0028894378311932084
1772567171215916500,3.20691650390625,0.09738076229989528,0.05156199106350541,-0.005249298830330372
1772567171225945600,3.216945556640625,0.09294365663528442,0.04466331759095192,0.0069528878778219215
1772567171235974700,3.226974609375,0.0994230817824602,-0.0018120178580284117,0.016746844400465487
1772567171246003700,3.237003662109375,0.12120061382651329,0.027125761204212902,0.008343173192441463
1772567171256033500,3.247033447265625,0.11661679316759109,0.0544911763831973,0.01881546736806631
1772567171266062800,3.257062744140625,0.10759703588783741,0.057590165311843154,0.03923427827954292
1772567171276091600,3.267091552734375,0.14231237543821335,0.05559300014525652,0.056565790700167415
1772567171286120700,3.27712060546875,0.16070844835042952,0.030601547555997966,0.02815276616439223
1772567171296149800,3.287149658203125,0.16581366253495217,0.004307195674628019,0.001154576862603426
1772567171306178600,3.297178466796875,0.15243629456758498,-0.017632321998104453,-0.028334844733029604
1772567171316207600,3.30720751953125,0.13959785578250883,-0.006094371352344751,-0.07855594258159398
1772567171326236700,3.317236572265625,0.08924480211734771,-0.08905461330749094,0.030056553959101437
1772567171336266800,3.327266845703125,0.20816402700841424,-0.036492578355967996,-0.0005734159737825394
1772567171346295600,3.337295654296875,0.0867272663384676,0.038777693618461485,0.015922230144590137
1772567171356324600,3.34732470703125,0.0702133539110422,-0.0752190532438457,0.0023301965132355687
1772567171366353700,3.357353759765625,0.07021276938915252,-0.029168884404376146,0.012488894695043563
1772567171376382500,3.367382568359375,0.10775836392939091,-0.010972279587015509,0.023616584039479492
1772567171386411800,3.377411865234375,0.09699439333081245,-0.039937019721418617,0.06593070815578103
1772567171396440800,3.38744091796875,0.12215689163804054,-0.05934760343842208,0.08265738655105233
1772567171406469600,3.3974697265625,0.11875380519628524,-0.020555223707482216,0.06462386334091424
1772567171416499700,3.407499755859375,0.08103519217669963,0.01776084374859929,0.021968524571508167
1772567171426528800,3.41752880859375,0.08543956461548805,0.04625409391373396,-0.011251754115521907
1772567171436557800,3.427557861328125,0.04514028745293617,0.033819559754431246,0.011559066499024629
1772567171446586600,3.437586669921875,0.03919686887860298,0.02881758674867451,0.029798779805749652
1772567171456615700,3.44761572265625,0.09277589885294436,0.025051000756770372,0.03248421949744224
1772567171466644700,3.457644775390625,0.13047230004072188,0.03839980021677911,0.017169015335291624
1772567171476673500,3.467673583984375,0.15241875891089438,0.05467413173466921,0.03305924290642142
1772567171486702600,3.47770263671875,0.1545785672932863,0.07753339460082352,0.04358969701007008
1772567171496732700,3.487732666015625,0.15219488702714443,0.06912329365201295,0.03824453658983111
1772567171506761500,3.497761474609375,0.11457914986014366,0.027103037915751336,0.04584025241583586
1772567171516790500,3.50779052734375,0.07425064660310744,0.012956950598210096,0.07189604630097747
1772567171526819600,3.517819580078125,0.062352119016647334,0.03049450698494911,0.07627031586244702
1772567171536848600,3.5278486328125,0.05438099400699138,0.05059095407426357,0.07939677731990814
1772567171546877700,3.537877685546875,0.06583119330406188,0.04170943622142076,0.06416691335365175
1772567171556906800,3.54790673828125,0.08740297364294529,0.009037512132152915,0.05892945109158754
1772567171566935600,3.557935546875,0.1322322954505682,-0.014103490284830331,0.052639118775725365
1772567171576965600,3.567965576171875,0.1618418362945318,-0.05144318698942661,0.04303030956164002
1772567171586994700,3.57799462890625,0.17866788341104983,-0.05896408401355147,0.04085895687192678
1772567171597023700,3.588023681640625,0.18637071287333964,0.0015247984144836663,0.042677404470741746
1772567171607052500,3.598052490234375,0.17263444846570491,0.05131598041318357,0.029071926835924387
1772567171617081600,3.60808154296875,0.12780220404863357,0.044410877199843525,0.031169337506592273
1772567171627110700,3.618110595703125,0.09712357266843319,-0.0004989624980837106,0.027289135072380302
1772567171637139500,3.628139404296875,0.09495207384824753,-0.04175122953653335,0.02367854335978627
1772567171647168500,3.63816845703125,0.06708382371366024,-0.06028590720184147,0.02662672564089298
1772567171657198600,3.648198486328125,0.03995557829141617,-0.06265804316066205,0.019147329670935867
1772567171667227600,3.6582275390625,0.015341946038603782,-0.0711381406057626,0.021384879464656115
1772567171677256700,3.668256591796875,0.001980360162258148,-0.07585070221088826,0.026722294969856737
1772567171687285800,3.67828564453125,0.012635609689354895,-0.045988355649635194,0.02632218973636627
1772567171697314800,3.688314697265625,0.033254619348049165,-0.031186215576156973,0.026615327464044092
1772567171707343600,3.698343505859375,0.04951134214401245,-0.014813538250327109,0.0413917485743761
1772567171717372700,3.70837255859375,0.08253624438941479,0.027504531388729807,0.03673354750499129
1772567171727401700,3.718401611328125,0.13003800027668475,0.04164579640068113,0.015470686984807252
1772567171737431800,3.728431884765625,0.15037702395021915,0.05022277834899723,-0.012895868060737848
1772567171747460600,3.738460693359375,0.16112112080454827,0.035574002206325527,-0.018752923525869845
1772567171757489700,3.74848974609375,0.1350076053828001,0.009387275417894124,0.016233926442265508
1772567171767518700,3.758518798828125,0.06498246752023697,0.003302037220075726,0.04453486890569329
1772567171777544700,3.768544677734375,0.07954758396744728,0.052528278812393546,0.045383886950463054
1772567171787573500,3.778573486328125,0.10194470921456814,0.07618789827600121,0.017980623979121445
1772567171797602600,3.7886025390625,0.11477145756185055,0.05914462821222841,0.026207477315515277
1772567171807631600,3.798631591796875,0.140737088945508,0.04514291780143976,0.029119273108989
1772567171817661700,3.80866162109375,0.17690204278230667,0.06257357974760235,0.013236498191952705
1772567171827690500,3.8186904296875,0.08324702300727367,0.13831943334452806,0.0060851651325821874
1772567171837719600,3.828719482421875,0.16655775890052318,0.03167882139869034,0.0939770913362503
1772567171847748900,3.838748779296875,0.24441373651921747,0.007257716043293476,0.06121084002703428
1772567171857777700,3.848777587890625,0.05091711728870869,0.15459223049245774,0.025128888298571107
1772567171867806700,3.858806640625,0.15306407107710837,0.07327230309024453,-0.01130173073709011
1772567171877835800,3.868835693359375,0.1397650290429592,0.057201312124729155,-0.01688566834926605
1772567171887864600,3.878864501953125,0.18955460360646248,0.04936265438832342,0.0037349487446248528
1772567171897894700,3.888894775390625,0.21194529911279678,0.024954627710208295,0.032695670291036365
1772567171907923700,3.898923828125,0.14727087462842464,0.030202246040105817,0.05074482946172356
1772567171917952500,3.908952392578125,0.12422025390863418,0.02372369767576456,0.05170213018655777
1772567171927981600,3.918981689453125,0.09139175101816653,0.025649039715155957,0.030434447360783812
1772567171938010600,3.9290107421875,0.040107553982734676,0.01583908190578222,0.03669306936413049
1772567171948039700,3.939039794921875,0.03674538407325744,-0.02678673850819468,0.04558437795862555
1772567171958068700,3.94906884765625,0.027572482058405876,-0.01330444886162877,0.054716217310726636
1772567171968097800,3.959097900390625,0.044753333961963654,0.012278393749520182,0.05505290191918611
1772567171978127600,3.969127685546875,0.050279988428950304,-0.007734612840041517,0.05442790188863873
1772567171988156700,3.97915673828125,0.04501870689988136,-0.005752426046878099,0.02889291700720787
1772567171998185700,3.989185791015625,0.1020242041915655,0.011271920120716095,0.01443096867352724
1772567172008213800,3.9992138671875,0.1024380456894636,0.012309519540145992,0.012492401826381682
1772567172018242600,4.00924267578125,0.14854337878227233,0.028622940959408878,0.006409720911830663
1772567172028272600,4.019272705078125,0.13088614153862,0.01861212681569159,0.005500058721005916
1772567172038301700,4.0293017578125,0.1379752230167389,-0.02462736851722002,0.03919672274813056
1772567172048330500,4.03933056640625,0.11090133813023567,-0.044625981255248186,0.061399786727875466
1772567172058359600,4.049359619140625,0.09799334124028682,-0.04320617758519947,0.05444909080713987
1772567172068388600,4.059388671875,0.0985083050251007,-0.033084523478150364,0.0445930288337171
1772567172078417700,4.069417724609375,0.07157938156723975,-0.033805092837661505,0.04175254471078515
1772567172088446700,4.07944677734375,0.07322130355536938,-0.021183584738895297,0.04217690760269761
1772567172098475800,4.089475830078125,0.08153495839238166,-0.029621304346993563,0.027573651102185247
1772567172108505600,4.099505615234375,0.06010404782891273,-0.05047054256498813,0.017328297550231218
1772567172118534700,4.10953466796875,0.09919862537682056,-0.04817892449647188,0.011431640727072954
1772567172128563700,4.119563720703125,0.17501052994728086,-0.0070502107724547385,-0.007543547247350215
1772567172138592800,4.1295927734375,0.17998247314095497,0.026602467982470988,-0.022874971891939638
1772567172148621600,4.13962158203125,0.15669804366528986,0.01891848935112357,-0.013636311164498328
1772567172158650600,4.149650634765625,0.13667115468084812,-0.027978359445556995,-0.0033593934305012224
1772567172168679700,4.1596796875,0.09381868590414523,-0.004063230850920081,-0.013138736905902624
1772567172178708500,4.16970849609375,0.11424947951436042,0.01689955074414611,-0.0004436521142721176
1772567172188738600,4.179738525390625,0.10539748001694679,-0.0035972938396036623,0.016895459090918302
1772567172198767600,4.189767578125,0.08552315124571323,-0.006757292240485549,0.014242168103158473
1772567172208796700,4.199796630859375,0.14820669417381285,-0.03807670574225485,0.033458179096132516
1772567172218825500,4.209825439453125,0.041588147929310794,-0.022704364565387367,0.041720103745907546
1772567172228854800,4.219854736328125,0.03911795842349529,-0.03769530520923436,0.056502223944664
1772567172238883800,4.2298837890625,0.012681786918640137,-0.03413205976970494,0.06805003839731216
1772567172248912600,4.23991259765625,0.0004489128112792969,-0.03923946591131389,0.0535763996258378
1772567172258942700,4.249942626953125,0.003685410514473915,-0.037878845082595945,0.025375118144601583
1772567172268971800,4.2599716796875,-0.006474748972058296,-0.041209889201447365,0.029072219096869228
1772567172279000800,4.270000732421875,0.01335047996044159,-0.05134476811625063,0.03370835446491837
1772567172289029600,4.280029541015625,0.06665303108096123,-0.022196634238958356,0.0350783276438713
1772567172299058700,4.29005859375,0.133586632668972,-0.007694353894889355,0.04599529684707522
1772567172309087700,4.300087646484375,0.17020108383893964,0.013851415219902992,0.04736380872130394
1772567172319116500,4.310116455078125,0.19267127432227132,0.022971710264682768,0.026115999639779328
1772567172329145600,4.3201455078125,0.22250410252809524,0.04373611974343657,0.02115209362208843
1772567172339175700,4.33017578125,0.2242056457489729,0.042579935445636506,0.024669600223749876
1772567172349204500,4.34020458984375,0.22763152854442595,0.015968991895765065,0.006569003126770258
1772567172359233500,4.350233642578125,0.19521394454240798,-0.02175824282169342,-0.03321224151104688
1772567172369262600,4.3602626953125,0.16229659432470797,-0.004961640995368361,-0.05924392386823892
1772567172379291600,4.370291748046875,0.08973112432956695,0.023592764772474763,-0.029772330190241336
1772567172389320700,4.38032080078125,0.031789222970604894,0.03732749481014907,0.01765256106853485
1772567172399349800,4.390349853515625,0.020008184283971785,0.042336189817637204,0.03735051035955548
1772567172409378800,4.40037890625,0.0167921448469162,0.02179747885353863,0.03722659171894192
1772567172419408600,4.41040869140625,0.03245265531539917,-0.009033274348452686,0.0359282224714756
1772567172429437700,4.420437744140625,0.034816461837291715,-0.02264255137555301,0.039811347515136
1772567172439466800,4.430466796875,0.04024024045169353,-0.009183715669810771,0.04577990053072571
1772567172449495600,4.44049560546875,0.040705519875884055,0.012166019416227936,0.07036912899464369
1772567172459524600,4.450524658203125,0.11143500661551951,0.019408830151334405,0.06262246039062738
1772567172469553700,4.4605537109375,0.1291769995331764,0.022890900113433598,0.022887246851623057
1772567172479582500,4.47058251953125,0.14760463662743567,-0.0013082330543547867,0.003459346673637628
1772567172489612500,4.480612548828125,0.1464624808549881,-0.018990823934972284,0.007720072858035564
1772567172499641600,4.4906416015625,0.10954174021482467,-0.020323387712985277,0.02721796953231096
1772567172509670700,4.500670654296875,0.09621990182697772,0.007650295557454228,0.03402618824243545
1772567172519699500,4.510699462890625,0.09045593147277832,-0.012201309925317764,0.07209887539669871
1772567172529728800,4.520728759765625,0.0704752197176218,-0.018010946052148938,0.09058379563614725
1772567172539757800,4.5307578125,0.07801672113835811,-0.011804346496984362,0.06790536922961474
1772567172549786600,4.54078662109375,0.06039046355485916,0.0079025898180902,0.05025163911730051
1772567172559815700,4.550815673828125,0.07156535304188728,0.013999006997048855,0.029844957035034893
1772567172569845800,4.560845703125,0.09848433962762355,-0.009575783727318049,0.013751461976766586
1772567172579874800,4.570874755859375,0.10308628046512604,-0.009567673486098646,0.03109101157337427
1772567172589903600,4.580903564453125,0.14296645543277262,-0.009844882992282509,0.03833572200462222
1772567172599932700,4.5909326171875,0.18166063548624514,0.008331994211301206,0.05152268196642398
1772567172609961700,4.600961669921875,0.1696317595183849,0.04872362583242357,0.07568667075559496
1772567172619990500,4.610990478515625,0.1036363155633211,0.065096157027781,0.08635244167670607
1772567172630019600,4.62101953125,0.07556348276734352,0.04518931422643363,0.04812412556931376
1772567172640048600,4.631048583984375,0.0766448482632637,0.03238821177706122,0.011551467714458703
1772567172650079700,4.641079833984375,0.04983282918334007,-0.03221234375350177,0.049869800192862745
1772567172660109800,4.65110986328125,0.03990998558402061,-0.023979133741557596,0.05949336858466267
1772567172670138600,4.661138671875,0.08159574866890906,0.014864756980910896,0.030514234598726032
1772567172680167700,4.671167724609375,0.11827975794374943,0.03126702572740614,0.0204214412599802
1772567172690196700,4.68119677734375,0.15003683221042155,-0.018762787332758307,0.04614186571091413
1772567172700225500,4.6912255859375,0.161494630292058,-0.04061718400530517,0.05899857080504298
1772567172710254600,4.701254638671875,0.16470716259777546,-0.0030946050144732,0.05536313691213727
1772567172720283600,4.71128369140625,0.09258768280446529,0.02403546703867614,0.0738040718793869
1772567172730313500,4.7213134765625,0.031248540222644804,0.009454057043790817,0.06305500658899545
1772567172740342500,4.731342529296875,-0.010572831940650939,0.011953764905035495,0.05893398113623261
1772567172750371600,4.74137158203125,-0.030534838995337484,-0.039935850677639245,0.056065293832123275
1772567172760401000,4.75140087890625,0.01153787758052349,-0.04537563057877123,0.05278641829192638
1772567172770429000,4.761428955078125,0.0795943457186222,-0.0154048552069813,0.020413988605886696
1772567172780457700,4.771457763671875,0.13938976598978042,0.025186536769941446,0.01967047676220536
1772567172790486800,4.78148681640625,0.12817805162370205,0.01115070489384234,0.04940758950859308
1772567172800515800,4.791515869140625,0.1504962664157152,0.011390724194794893,0.06353080740720034
1772567172810545700,4.801545654296875,0.1439525438606739,0.01312865390330553,0.05663023423850536
1772567172820574700,4.81157470703125,0.15308803647458552,-0.015740809163078663,0.03814166073724627
1772567172830603800,4.821603759765625,0.13003683123290538,-0.025460385275259612,0.026737200278043747
1772567172840632600,4.831632568359375,0.11661854673326015,-0.002751636795699596,0.05181348160654306
1772567172850661600,4.84166162109375,0.12513327710032462,-0.004934752988442779,0.05451967182531953
1772567172860691000,4.85169091796875,0.1409282276034355,-0.0195708157800138,0.040124358987063166
1772567172870719700,4.8617197265625,0.15452303771376608,-0.021666838211193678,0.05536576726064086
1772567172880749800,4.871749755859375,0.15178513718247413,-0.03600581775233149,0.0633854075871408
1772567172890779000,4.88177880859375,0.1191302372932434,-0.03682064126655459,0.05724179026558995
1772567172900808000,4.891807861328125,0.08344517592787742,-0.05551942345239222,0.07061667401492595
1772567172910836700,4.901836669921875,0.05888882682025432,-0.046421194108948106,0.07093918396756052
1772567172920865800,4.91186572265625,0.04844458969533443,0.002349266539886594,0.052857729962468146
1772567172930894800,4.921894775390625,0.07340250534117221,0.02579210144765675,0.028331629862636327
1772567172940923600,4.931923583984375,0.10633680669367312,0.047327422233670945,0.027664836516976356
1772567172950952700,4.94195263671875,0.12643792995810507,0.034796953419223425,0.04783449497297406
1772567172960982800,4.951982666015625,0.0966606313318014,0.02065305805876851,0.05185659009590745
1772567172971011800,4.96201171875,0.09904197351038456,0.02430880408734083,0.03853226749002933
1772567172981040600,4.97204052734375,0.08892097699046135,0.020092793827503917,0.03548281679153442
1772567172991069700,4.982069580078125,0.09502923073768615,0.0008007949888706207,0.04649520919322967
1772567173001098800,4.9920986328125,0.08766250136196613,-0.004382014476507902,0.05471139500513673
1772567173011127800,5.0021279296875,0.06864625072479248,-0.01031542311348021,0.06813815507218242
1772567173021156900,5.012156982421875,0.0764706607401371,-0.0027033406745642424,0.03980214129537344
1772567173031186000,5.02218603515625,0.09954700042307377,0.017037790171056985,0.02234232631996274
1772567173041216000,5.032216064453125,0.10757599309980868,0.050734235002473,0.028347265823185443
1772567173051244800,5.042244873046875,0.14037293180823326,0.05156805547811091,0.02475596333295107
1772567173061273900,5.05227392578125,0.1367974114090204,0.0645884997665882,0.03165668263211846
1772567173071303000,5.062302978515625,0.15549626666009425,0.053805970598012204,0.024443244121968744
1772567173081331700,5.072331787109375,0.14645312850475312,0.03310081702582538,0.021658581839501857
1772567173091360800,5.08236083984375,0.1416430978745222,0.014880758267641066,0.019812515581399202
1772567173101389800,5.092389892578125,0.11299217292964457,-0.010852671795338392,0.04126154632344842
1772567173111419600,5.102419677734375,0.10112520952522754,-0.037426205944269895,0.061654492141306395
1772567173121448700,5.11244873046875,0.08878712147772312,-0.04943140877559781,0.053042731140553946
1772567173131477800,5.122477783203125,0.054800096201896666,-0.030625659083947536,0.04716653258353472
1772567173141506600,5.132506591796875,0.05145838455855846,-0.03566657586060464,0.03710077338218689
1772567173151535900,5.142535888671875,0.07728606877624988,-0.047055254228785634,0.044752457179129124
1772567173161565000,5.15256494140625,0.13914777392745017,-0.03454443996287882,0.03837152397036552
1772567173171593700,5.16259375,0.17102525970339774,-0.018449410534650088,0.03825374280959368
1772567173181622800,5.172622802734375,0.18979484210312364,-0.0027368045527487992,0.017471943804621696
1772567173191652900,5.18265283203125,0.18348142117261884,-0.0007778525047004223,0.01726283109858632
1772567173201682000,5.192681884765625,0.08031798381805419,-0.007525500134006142,0.03756225341409444
1772567173211710700,5.202710693359375,0.024531214666366576,-0.009073971685022116,0.05305471383929252
1772567173221739800,5.21273974609375,-0.026554244926571845,-0.012550123362988233,0.04557517173886299
1772567173231768800,5.222768798828125,-0.04756897590458393,-0.01943352620117366,0.027570143970847127
1772567173241797600,5.232797607421875,-0.03280512201488018,-0.005131225408613682,0.009835749837756156
1772567173251826700,5.24282666015625,0.012598784810304641,0.003891016089171171,0.011817571304738522
1772567173261856800,5.252856689453125,0.07237316229343414,0.01973433577865362,0.013732465015351771
1772567173271885800,5.2628857421875,0.13708265809118747,0.040296646814048286,0.022754121991246937
1772567173281914600,5.27291455078125,0.18376432976722717,0.061790393480658526,0.034762978084385394
1772567173291943700,5.282943603515625,0.17832184645235538,0.049226899179443714,0.0246400818683207
1772567173301973000,5.292972900390625,0.16528233213722704,0.05181939989067614,0.018803338538855314
1772567173312001800,5.303001708984375,0.12389759782552719,0.06882686798870563,0.038422523505240676
1772567173322030800,5.31303076171875,0.08797171344161032,0.0694410543642938,0.02798588516488671
1772567173332060000,5.323059814453125,0.10078092613220214,0.047502340409159655,0.015629823069274424
1772567173342090000,5.333090087890625,0.13193243572115898,0.028278511435911056,0.0005541267514228821
1772567173352118800,5.343118896484375,0.15323884312212466,0.004306757283210754,-0.001914309188723564
1772567173362147800,5.35314794921875,0.16511223626732827,-0.007315949036553502,0.015303367593884468
1772567173372177000,5.363177001953125,0.1600648897498846,-0.0048792964741587634,0.03238996534273028
1772567173382205700,5.373205810546875,0.14780045146048068,0.0023299773175269366,0.033026509680598976
1772567173392234800,5.38323486328125,0.12321487625837325,0.05065181741602719,0.04040259140655398
1772567173402263800,5.393263916015625,0.0955845265328884,0.05290704899691045,0.023030893106013535
1772567173412293600,5.403293701171875,0.06988952878415584,0.03706482528597116,0.018045213647931813
1772567173422322700,5.41332275390625,0.06046119070351123,0.04324168728999793,0.027460692247003315
1772567173432351700,5.423351806640625,0.017205401822924613,0.027629911334067583,0.025500498089939354
1772567173442380500,5.433380615234375,-0.006986790147423744,0.011110080622509122,0.0016800620414316654
1772567173452409900,5.443409912109375,-0.0027799861073493958,0.04782207388281822,0.01332666069343686
1772567173462439000,5.45343896484375,0.04576981752812862,0.056958443279564376,0.01836991555765271
1772567173472468000,5.463468017578125,0.12395137383937835,0.044522301685065026,0.0371339449994266
1772567173482496800,5.473496826171875,0.16270342155992984,0.04001797600314021,0.03192410139665008
1772567173492526800,5.48352685546875,0.20540566821098327,0.051093569834157825,0.016721563828736543
1772567173502556000,5.493555908203125,0.22703473169505595,0.0584606645360589,-0.007491817060112952
1772567173512584700,5.503584716796875,0.19157237316966055,0.06261610371507705,-0.00373114935234189
1772567173522613800,5.51361376953125,0.16336451581716538,0.06258673149012028,-0.0038879473492503163
1772567173532642800,5.523642822265625,0.13880524410009384,0.0625213381037116,0.013767097937315701
1772567173542671600,5.533671630859375,0.08577098852694034,0.05342471619546413,0.02856178535670042
1772567173552700700,5.54370068359375,0.03642155894637108,0.0407497243437916,0.03200637285262346
1772567173562729700,5.553729736328125,0.03491641508042812,0.04165441809855401,0.01878171122893691
1772567173572759800,5.563759765625,0.042494156858325,0.03400346495397389,0.0064151277393102646
1772567173582788600,5.57378857421875,0.08957739507257938,0.025257556179538367,0.014062866013497113
1772567173592817700,5.583817626953125,0.14869360090792177,0.014894640662521124,0.016982552852481604
1772567173602847000,5.593846923828125,0.17698504489064215,0.032210224861651655,0.02960588758215308
1772567173612875800,5.603875732421875,0.16769640754163265,0.0503042460873723,0.05042041981294751
1772567173622904800,5.61390478515625,0.15082242963016032,0.05329845946729183,0.0446213781453669
1772567173632934000,5.623933837890625,0.11197452031970023,0.03696881756559014,0.024289076473563907
1772567173642964000,5.6339638671875,0.06428396386206149,0.033658889300003644,0.013935147980600594
1772567173652992800,5.64399267578125,0.06856500218212604,0.015758490950241684,0.008718143984675407
1772567173663021800,5.654021728515625,0.06740589527487754,0.0259031606066972,0.012384557537734507
1772567173673051000,5.66405078125,0.08784954836666584,0.0266025410477072,0.0071694532379508015
1772567173683079700,5.67407958984375,0.09701485159695147,0.04517367826588452,0.03562120234891772
1772567173693108700,5.684108642578125,0.05680851341485977,0.037269407947361465,0.07330854344740509
1772567173703137800,5.6941376953125,0.036945290559530254,0.0036018238842487334,0.05878916583806276
1772567173713166600,5.70416650390625,0.03159340813755989,0.0079363459572196,0.033997108278423546
1772567173723196700,5.71419677734375,0.040087680238485336,-0.008688552564010023,0.03426934934854507
1772567173733225700,5.724225830078125,0.04030219977200031,-0.017846257009729742,0.05146189168989658
1772567173743254800,5.7342548828125,0.043426469272375104,-0.0006888590469956398,0.05931026710271835
1772567173753283800,5.744283935546875,0.053795887595415114,0.01584872651696205,0.03677811729907989
1772567173763313000,5.75431298828125,0.172539171397686,0.04688844629451632,-0.031840953157842154
1772567173773342200,5.76434228515625,0.23489362850189208,0.09864281812496482,-0.021680793671309945
1772567173783371300,5.774371337890625,0.22754735739231108,0.08511566642336547,0.026774755809456107
1772567173793401300,5.7844013671875,0.24426292987167833,0.09486052310727536,0.06224149824902415
1772567173803430100,5.79443017578125,0.23835458261072634,0.11643771027363836,0.029287907674163578
1772567173813459200,5.804459228515625,0.18487199874818325,0.07492964184321463,0.032774873007088895
1772567173823488300,5.81448828125,0.10081424387991428,0.016949235104769467,0.029394144527614116
1772567173833517000,5.82451708984375,0.021280103915929792,0.008035349352285266,0.015534107609838246
1772567173843546000,5.834546142578125,-0.016568857485055922,0.01938976012468338,0.01739873243793845
1772567173853575200,5.8445751953125,-0.053961891812086105,-0.013941943047568201,0.0031133097149431705
1772567173863604000,5.85460400390625,-0.051226329368352884,-0.033468042903020974,0.009411386945843696
1772567173873634000,5.864634033203125,-0.030128011760115623,-0.03469802308939397,0.022933131819963454
1772567173883663000,5.8746630859375,0.021207623201608655,-0.001102116023004055,0.03235533242076635
1772567173893692200,5.884692138671875,0.05068506209850311,0.04706577562279999,0.02553893040418625
1772567173903721200,5.89472119140625,0.10060206243395804,0.05730586847774684,0.01999327897578478
1772567173913750300,5.904750244140625,0.1364496208846569,0.059198623421788214,-0.005189093075692653
1772567173923779300,5.914779296875,0.1399918235361576,0.05161050638034939,-0.003633388066291809
1772567173933808000,5.92480810546875,0.167462598785758,0.0453139635194093,0.017774433882534503
1772567173943838200,5.934838134765625,0.14192249933779238,0.03035224897004664,0.05129486455991864
1772567173953867300,5.9448671875,0.12382570163309574,0.019521496745571493,0.03390416929796338
1772567173963896300,5.954896240234375,0.11462357352375983,0.025642244648188352,0.024374270538985728
1772567173973925000,5.964925048828125,0.13481237507164479,0.02248896824903786,0.0012232581846415996
1772567173983954200,5.9749541015625,0.15973580392599104,0.02265153839960694,-0.007319821494072675
1772567173993983200,5.984983154296875,0.1587619904577732,0.028820728553831575,0.01364887838512659
1772567174004012000,5.995011962890625,0.1403103879660368,0.0005549304690212011,0.03035261429622769
1772567174014041000,6.005041015625,0.14049626592695713,-0.006324234585464,0.050097909860312935
1772567174024071200,6.0150712890625,0.12616028206050395,-0.011495865069702267,0.08039616362079978
1772567174034100000,6.025099853515625,0.11328560291826724,-0.029774010690674185,0.09338394774869084
1772567174044129000,6.03512890625,0.12000935821533203,-0.034965661049634215,0.07764584199935197
1772567174054158300,6.045158447265625,0.1076759463429451,-0.0014206073876470327,0.04314984428808093
1772567174064187100,6.055187255859375,0.09130816438794136,0.012658552173525094,0.03560805060639977
1772567174074216200,6.06521630859375,0.07982756995260715,0.0035587884601205586,0.02589519649595022
1772567174084245200,6.075245361328125,0.09924363356232642,0.022397344442829488,-0.0059773208439350125
1772567174094275300,6.085275390625,0.12192425192594528,0.01422850490398705,-0.006781038442254066
1772567174104304000,6.09530419921875,0.1330424427896738,-0.002763327233493328,0.027329174821823832
1772567174114333200,6.105333251953125,0.1333212597310543,0.0001736760664731264,0.06559533872157335
1772567174124362200,6.1153623046875,0.14492577280700206,0.018291516559198497,0.058809770234674215
1772567174134391000,6.12539111328125,0.16669219893515108,0.03751797588095069,0.023285452388972044
1772567174144420000,6.135420166015625,0.14503566292226314,0.04400594966076314,0.04093699054419994
1772567174154449200,6.14544921875,0.10813128889501095,0.020823080863431095,0.059455374661833045
1772567174164479200,6.155479248046875,0.053526423004269595,0.02682546308338642,0.056992199418693774
1772567174174508000,6.165508056640625,0.04926701199412346,0.044228944761678574,0.022122399958968163
1772567174184537000,6.175537109375,0.05982990706264972,0.05357625349536538,0.007082943998277187
1772567174194566100,6.185566162109375,0.0541144520252943,0.03353825859501958,0.01860693918392062
1772567174204595200,6.19559521484375,0.03674479955136776,-0.004050298304110765,0.04859802669137716
1772567174214624300,6.205624267578125,0.057686465293169016,-0.0027148119166493416,0.04861833882704377
1772567174224653300,6.2156533203125,0.12088731009364127,0.015560411094874143,0.018406594306230543
1772567174234682000,6.22568212890625,0.1209118600130081,0.010159721095114945,0.02359875612184405
1772567174244712200,6.235712158203125,0.11469663875997066,-0.019644319407641886,0.03667290335893631
1772567174254741200,6.2457412109375,0.127521633541584,-0.0198071087539196,0.04267959642782807
1772567174264770300,6.255770263671875,0.10521803179681301,-0.024447628036141394,0.05804243912398815
1772567174274799000,6.265799072265625,0.12648878336250782,-0.006265855461731553,0.04063260077014565
1772567174284828200,6.275828125,0.13038345271348953,-0.015231763662397861,0.04725640282407403
1772567174294857200,6.285857177734375,0.12203531108498572,-0.048209027373790736,0.05419350861087441
1772567174304886000,6.295885986328125,0.11635609640479087,-0.0450250635754317,0.06990633378848433
1772567174314916000,6.305916015625,0.08929740908741951,-0.04586611750945448,0.05212050172910094
1772567174324945200,6.315945068359375,0.0742611679971218,-0.05535298084430396,0.04628010513782501
1772567174334974000,6.325973876953125,0.055500353425741195,-0.0494374001249671,0.045033466077595945
1772567174345003000,6.3360029296875,0.0720475836008787,-0.004820844285190105,0.03584712005928158
1772567174355032300,6.3460322265625,0.07798574147820472,0.031933892138302326,0.030425679532438514
1772567174365061000,6.35606103515625,0.0637871202558279,0.023550313870236275,0.05161445190310478
1772567174375090200,6.366090087890625,0.06943243266642093,-0.01039535648189485,0.0438774279102683
1772567174385119200,6.376119140625,0.08105214331150054,0.04110387154370546,0.01371989779472351
1772567174395149300,6.3861494140625,0.058896425604820245,0.05370229102782905,0.011829846264421939
1772567174405178000,6.39617822265625,0.001724339574575424,0.019999343390390275,0.003615998540073633
1772567174415207200,6.406207275390625,-0.04451543355286121,-0.020325798865780235,0.017247925790399313
1772567174425236200,6.416236328125,-0.05573357765972614,-0.039961861901730296,0.021086042648553845
1772567174435265000,6.42626513671875,-0.026266075634956358,-0.047058176838234066,0.04620061016082763
1772567174445294000,6.436294189453125,-0.015699088913202285,-0.061478770248219364,0.06343786842674017
1772567174455323100,6.4463232421875,0.035436639562249184,-0.06308949338048696,0.07463146261423825
1772567174465353200,6.456353271484375,0.1212958908945322,0.005456292644515633,0.08243190723210572
1772567174475382000,6.466382080078125,0.20203063881993294,0.04710471939370036,0.058524815813452
1772567174485411000,6.4764111328125,0.2026426332384348,0.07258454002179204,0.024523177490383387
1772567174495440100,6.486440185546875,0.29132804790735245,0.04299531131349504,0.008472937051951885
1772567174505469200,6.49646923828125,0.2646469617307186,0.02221022437289357,-0.00946238648071885
1772567174515498200,6.506498291015625,0.2121913828283548,-0.0122791974671185,-0.031679332855343814
1772567174525527300,6.51652734375,0.2646212427675724,-0.016781185061484575,0.003038198652118444
1772567174535557400,6.526557373046875,0.1600947003662586,-0.04460544992387294,0.014968144290149211
1772567174545586200,6.536586181640625,0.1786474251449108,-0.06755597127005457,0.08157076035812497
1772567174555615200,6.546615234375,0.09147007695138454,-0.06497676843181252,0.07167071311250328
1772567174565644300,6.556644287109375,0.05937222642302513,-0.05694470701515674,0.07344941322281956
1772567174575673000,6.566673095703125,0.09455869061648844,-0.03789440797790885,0.050511605227738614
1772567174585702100,6.5767021484375,0.06911503728032112,-0.022552169678360223,0.020642828925698995
1772567174595731200,6.586731201171875,0.08085749752223491,-0.03862973651513457,-0.012684271136671303
1772567174605760000,6.596760009765625,0.08696107509434223,-0.041891514790058135,-0.002507306645810604
1772567174615790000,6.6067900390625,0.10845336045622825,-0.05265080921351909,0.012292056948691605
1772567174625819100,6.616819091796875,0.1424316179037094,-0.02861687654480338,0.005783405707031488
1772567174635848000,6.626847900390625,0.15195347948670387,0.030082126791775226,-0.03002235942855477
1772567174645877200,6.636877197265625,0.15237959594428538,0.10333353322446345,-0.04856412442177534
1772567174655906300,6.64690625,0.14514496851563452,0.13399345990419387,-0.056998044637590645
1772567174665935000,6.65693505859375,0.05906710599660873,0.11655527223870157,-0.016457944456487895
1772567174675964200,6.666964111328125,0.03531622805297375,0.0719185503937304,0.0025309797823429105
1772567174685994200,6.676994140625,0.11478723965287208,0.12910831821113825,-0.008146043185144662
1772567174696023300,6.687023193359375,0.17468553577661514,0.16154241495653987,-0.013662760780006646
1772567174706052000,6.697052001953125,0.20679624578654765,0.09759060565829276,0.004789572364091873
1772567174716081200,6.7070810546875,0.21798983997404575,-0.004373538909107446,0.016464081936329603
1772567174726110200,6.717110107421875,0.24957798741459844,-0.047533904591202734,-0.012972732689231633
1772567174736139000,6.727138916015625,0.2127799963712692,-0.02802475587055087,-0.02770063848271966
1772567174746168000,6.73716796875,0.12235738264620304,-0.013401625625789164,-0.039518648178875446
1772567174756198100,6.7471982421875,-0.0026490532040596006,-0.06441621193960309,0.04110577123984694
1772567174766227200,6.757227294921875,0.05456979457736015,-0.03875803906992078,0.014613485633581875
1772567174776256000,6.767256103515625,-0.03655658350288868,0.004977350021153688,0.014792933853715657
1772567174786285000,6.77728515625,-0.026577041280269623,-0.13155907236412168,0.030053923610597846
1772567174796314000,6.787314208984375,-0.005102291575074196,-0.14417159343883396,0.05745031844973564
1772567174806343200,6.79734326171875,-0.040488662254810334,-0.099294779227674,0.07719152236059308
1772567174816372200,6.807372314453125,0.05780103158354759,-0.07897372960224747,0.02993263531848788
1772567174826401300,6.8174013671875,0.09058160367906093,-0.04130962324887514,0.03253741098940372
1772567174836431400,6.827431396484375,0.07412555891871452,-0.03189487530216575,0.028497487948834895
1772567174846460200,6.837460205078125,0.13137655540406704,-0.02937880082800984,0.021508651974797247
1772567174856489200,6.8474892578125,0.13703180468678475,-0.046534664420783516,0.032847499851882456
1772567174866518300,6.857518310546875,0.11552549079954623,-0.050251200725883245,0.04314677554816007
1772567174876547000,6.867547119140625,0.12609890726208686,-0.03745645495206117,0.04941884155496955
1772567174886576000,6.877576171875,0.11076572905182838,-0.025788959642499682,0.059384209121763704
1772567174896605200,6.887605224609375,0.09194880037903785,-0.03957826941162348,0.05970101998597383
1772567174906635300,6.89763525390625,0.09770692551434039,-0.04398527219891548,0.04122457531392574
1772567174916664000,6.9076640625,0.04944061499536037,-0.044020343512296674,0.05490399496778845
1772567174926693000,6.917693115234375,0.028506548038125037,-0.03301496537327766,0.05955152851268649
1772567174936722200,6.92772216796875,0.061519759845733636,0.00949248935803771,0.047324791885167354
1772567174946751200,6.937751220703125,0.03203063051104545,0.03925269071906805,0.03505421611592174
1772567174956780300,6.9477802734375,0.10793664310574531,0.03763458799794316,-0.006803396404534578
1772567174966809300,6.957809326171875,0.1116582939773798,0.02086187850385904,0.010002338576316832
1772567174976839400,6.96783935546875,0.19653437949120997,0.023242928421497343,0.01593742771372199
1772567174986868200,6.9778681640625,0.1936754829287529,0.07405147076919674,0.026018384484201667
1772567174996897300,6.987897216796875,0.1671802747130394,0.011407967590540647,0.04979848852232098
1772567175006926300,6.99792626953125,0.13534136738181113,0.0010045008674263954,0.055911710705608124
1772567175016955100,7.007955078125,0.12390578113198279,0.014949001198261975,0.033278877006471155
1772567175026984200,7.017984130859375,0.09875088160932063,-0.0027354163132607937,0.002846621602773666
1772567175037013200,7.02801318359375,0.04335223499238491,-0.033101620743423696,-0.004068564613163471
1772567175047042000,7.0380419921875,0.07878069124817848,-0.048351212323457,-0.019447627791762352
1772567175057072000,7.048072021484375,0.0881172593921423,-0.022494009750336406,0.0058341129809617994
1772567175067101200,7.05810107421875,0.07126900044381618,-0.0246893278375268,0.039144846430420877
1772567175077130000,7.0681298828125,0.07622223893702029,0.015132394941151142,0.049297699393332
1772567175087159000,7.078158935546875,0.08151216203868389,-0.0009453180260956287,0.053646396122127765
1772567175097188400,7.088188232421875,0.02368190436065197,-0.06951105086058378,0.060068684254586696
1772567175107217400,7.098217529296875,0.0642448008954525,-0.08779358039572835,0.05347001664191484
1772567175117246200,7.10824609375,0.07506430107355118,-0.08879252830520272,0.0263534616574645
1772567175127276300,7.1182763671875,0.06252922914922238,-0.10308905694410204,0.007719488336145878
1772567175137305300,7.128305419921875,0.0868184517532587,-0.09497004789635538,0.03034969168677926
1772567175147334100,7.138334228515625,0.10416238526403904,-0.05701996420845389,0.04351546273007989
1772567175157363200,7.14836328125,0.08406360008716583,-0.04114624938070774,0.07011573875546455
1772567175167392300,7.158392333984375,0.022459084567427633,-0.030974691717326638,0.12389072969332336
1772567175177421000,7.168421142578125,0.1582043565750122,0.008551701376587152,0.05824351465404033
1772567175187450000,7.1784501953125,0.11034370424747467,0.02096387757360935,0.02022168090417981
1772567175197480200,7.188480224609375,0.18115560857355595,-0.01576616280004382,0.02057663182169199
1772567175207509200,7.19850927734375,0.23739479766786098,-0.016002894165366887,0.013981325209885835
1772567175217538000,7.2085380859375,0.2403729366958141,0.004858838208019733,0.024226971022784708
1772567175227567000,7.218567138671875,0.19479191973805426,0.017532149559259413,0.026515374220907686
1772567175237596200,7.22859619140625,0.14322656767368316,0.05478606767654419,0.0009073241032660007
1772567175247625200,7.238625244140625,0.10720189909040927,0.07639554967731237,0.007467121010273694
1772567175257654300,7.248654296875,0.07330839731693267,0.05004413384646177,0.004988602067530155
1772567175267684000,7.25868408203125,0.05845335801243782,0.03470905594006181,0.004064765220880508
1772567175277713400,7.26871337890625,0.02118424232602119,0.0194236623942852,-0.0069281918279826635
1772567175287742200,7.2787421875,0.0022591771036386487,-0.006471826362609863,-0.006479717408120632
1772567175297771300,7.288771240234375,0.017468436673283575,0.014889379965513944,-0.01469371126294136
1772567175307800300,7.29880029296875,0.042616321933269495,0.008711568113416434,0.010526946972310542
1772567175317829000,7.3088291015625,0.03716156365871429,-0.01896452044993639,0.017969956454634665
1772567175327858200,7.318858154296875,0.0803916335761547,-0.011502660136669873,0.000012713351100683212
1772567175337888300,7.32888818359375,0.10668576626181601,-0.015804595114290713,0.015164982036501169
1772567175347917000,7.3389169921875,0.12407879961133003,-0.03854951088577509,0.03912833368703723
1772567175357946000,7.348946044921875,0.13755845890939236,-0.040673955693840975,0.06780541598647832
1772567175367975200,7.35897509765625,0.09494739767313003,-0.0003942600145936012,0.09119535166323184
1772567175378004200,7.369004150390625,0.08918225827515125,-0.0003137421242892742,0.06011646891906857
1772567175388033000,7.379032958984375,0.08805530007183551,-0.0019847440764307975,0.0024286884516477583
1772567175398062300,7.389062255859375,0.10014087466299533,-0.05257540588974952,-0.0264776725590229
1772567175408091400,7.39909130859375,0.12105915952920913,-0.08977101794853806,-0.0325176833756268
1772567175418121200,7.409121337890625,0.16165829642117022,-0.08120455739423632,-0.0406841848269105
1772567175428150300,7.419150390625,0.1743342381209135,-0.034373248114436865,-0.02626709854826331
1772567175438179300,7.429179443359375,0.1265320379823446,-0.011801935344189404,0.017666881854832173
1772567175448208100,7.4392080078125,0.10627952354848384,0.008110241219401359,0.045889936776459216
1772567175458237200,7.4492373046875,0.0947223567456007,0.02387216623574495,0.03977481489703059
1772567175468266200,7.459266357421875,0.05071253462731838,0.012830109348148107,0.03449687449410557
1772567175478295000,7.469294921875,0.05529460172057152,0.00009337737187743187,0.011858487837016582
1772567175488325000,7.4793251953125,0.04026128323972225,-0.0093371526658535,-0.00012362637966871262
1772567175498354200,7.489354248046875,0.048753801774978636,0.019308657712489366,0.005281739795207977
1772567175508383200,7.49938330078125,0.08141980758011341,0.043751171182096,-0.002207885307818651
1772567175518412000,7.509412109375,0.13777999270558355,0.03671308923885226,0.009070464553683997
1772567175528441000,7.519441162109375,0.15511165125668047,0.0305788242675364,0.01917246411219239
1772567175538470100,7.52947021484375,0.1988514242619276,0.036936084339767694,0.010221826545894146
1772567175548499200,7.539499267578125,0.20084289034008979,0.03850216461271047,0.022311492790281773
1772567175558529000,7.549529052734375,0.11958557984530925,0.024098083946108816,0.056152095332741736
1772567175568558300,7.559558349609375,0.05646189193427562,-0.005004384158551692,0.058562225214391944
1772567175578587400,7.56958740234375,0.046725510817766186,-0.004437982447445392,0.055184565474838014
1772567175588616200,7.5796162109375,0.05111643925309181,0.013178922785818576,0.04412833393141627
1772567175598645200,7.589645263671875,0.0645277094900608,-0.011675824746489524,0.035235125640779734
1772567175608674300,7.59967431640625,0.06625672523975372,0.014537059396505354,0.013815905515104532
1772567175618703000,7.609703125,0.07264671853780746,0.03198956784829497,0.009267594560980797
1772567175628733200,7.619733154296875,0.09597790976464748,0.04589812008291483,0.01274696110934019
1772567175638762200,7.62976220703125,0.08770517145991324,0.0790218065276742,0.024407880547642705
1772567175648791300,7.639791259765625,0.04676116665303707,0.0799636174224317,0.028034400481730698
1772567175658820000,7.649820068359375,0.06134674136638641,0.06118775141239166,0.022946575823426244
1772567175668849200,7.65984912109375,0.08566168293356895,0.03088949765190482,0.023590718945860862
1772567175678878200,7.669878173828125,0.12539806551635266,0.025815993779897687,0.006419803914427757
1772567175688907300,7.6799072265625,0.15784896726608275,0.03648804831132293,0.016733838788419962
1772567175698937000,7.68993701171875,0.18567688539028165,0.033169279152154924,0.042127077111601824
1772567175708966100,7.699966064453125,0.15712065299153327,0.029308804331719875,0.047105450046062466
1772567175718995200,7.7099951171875,0.14125322177410124,0.010418225900828838,0.06746244776770473
1772567175729024300,7.720024169921875,0.14234744675159453,0.007619242832064628,0.03328004605025053
1772567175739053300,7.73005322265625,0.1251689329355955,-0.026039281141757964,0.028119156155735254
1772567175749082000,7.74008203125,0.056038698086142535,-0.06705415922775865,0.04563830010294914
1772567175759111200,7.750111083984375,0.010241992551088333,-0.05037731132358312,0.04450651959404349
1772567175769141200,7.760141357421875,0.013082184413075446,-0.020576485691219566,0.03234773363620043
1772567175779170300,7.77017041015625,0.029866730475425717,0.003726619307696819,0.03143427205309272
1772567175789199400,7.780199462890625,0.06365034213364124,0.023714637586474418,0.03677694825530052
1772567175799228200,7.790228271484375,0.11128536901175975,0.026791414683312177,0.07414294844493269
1772567175809257200,7.80025732421875,0.1540221024543047,0.024492051699757576,0.08883446775078772
1772567175819286300,7.810286376953125,0.18440438123643396,0.03655716802477836,0.10810045536532997
1772567175829315000,7.820315185546875,0.12636661828756332,0.03473945107832551,0.12447262123450636
1772567175839345200,7.83034521484375,0.08201543538570404,0.05424889205992221,0.11475962099358439
1772567175849374200,7.840374267578125,0.010990765091776848,0.050019876188039776,0.0938461584329605
1772567175859403300,7.8504033203125,0.0020376433074474334,0.051422436462342735,0.06826528858318924
1772567175869432300,7.860432373046875,0.006323357802629471,0.04542451122179627,0.05162205068767071
1772567175879461400,7.87046142578125,0.05482815325260162,0.043383945304900404,0.01489697875007987
1772567175889490400,7.880490478515625,0.13638941513001918,0.0614702216155827,0.009094429951161146
1772567175899519200,7.890519287109375,0.23364333617985247,0.047049043683707714,0.035747459077090024
1772567175909549300,7.90054931640625,0.2710679346889257,0.026904081277549265,0.06852598534598946
1772567175919578400,7.910578369140625,0.2736591202259064,0.026528379832953215,0.07112053188383578
1772567175929607400,7.920607421875,0.25139351240396496,0.035072336294502016,0.0637979339107871
1772567175939636200,7.93063623046875,0.1870879212319851,0.015730214703828096,0.04424056213423609
1772567175949665300,7.940665283203125,0.12255319747924803,-0.010371318019181489,0.02859305727779865
1772567175959694300,7.9506943359375,0.04876607673466205,-0.017459376583993432,0.02717427652105689
1772567175969723100,7.96072314453125,0.005362403815984726,-0.02167231810390949,0.020767478218674657
1772567175979752200,7.970752197265625,0.020366496202349663,-0.042017625387758016,0.030573271309584378
1772567175989782300,7.9807822265625,0.04580430431962013,-0.0690676910072565,0.045320612455904484
1772567175999811000,7.99081103515625,0.050992520612478255,-0.08471300390660762,0.03713774439170956
1772567176009838300,8.00083837890625,0.05154840092957019,-0.08381737024113535,0.034625615440309045
1772567176019867100,8.0108671875,0.09738836108446121,-0.05816343515515327,0.030128157890588043
1772567176029896200,8.020896240234375,0.11793021385371684,-0.032691286376863714,0.041076983536779875
1772567176039925200,8.03092529296875,0.10865794311761856,-0.015802841548621653,0.04487199190557003
1772567176049955300,8.040955322265624,0.0687058719575405,-0.0003038052521646023,0.04801087445318698
1772567176059984100,8.050984130859375,0.0732680653065443,0.022522212931513786,0.03717383861839771
1772567176070013200,8.06101318359375,0.0717126525580883,0.017542670953273772,0.03463526005148888
1772567176080042200,8.071042236328125,0.08499766606688498,-0.01956277860403061,0.03489946394562721
1772567176090071300,8.0810712890625,0.11571662945747375,-0.01998202692940831,0.02549918291568756
1772567176100100400,8.091100341796874,0.14619710791707038,0.017226152350008486,0.0037326106570661067
1772567176110129400,8.10112939453125,0.18040157533586024,0.05821867247372865,0.0015941373236477373
1772567176120159500,8.111159423828125,0.1235878012239933,0.0602766279168427,0.044886604952812194
1772567176130188300,8.121188232421876,0.11414543461799621,0.0408037195533514,0.04678644722476601
1772567176140217300,8.13121728515625,0.10780278759300709,0.04782046644762158,0.03857844471931457
1772567176150246400,8.141246337890625,0.10107435612082481,0.026854543047398326,0.028303865072876213
1772567176160275200,8.151275146484375,0.0712117172986269,0.0014054828837513924,0.016897651048004628
1772567176170304300,8.16130419921875,0.08613280757665634,0.02809299880117178,-0.01861936027407646
1772567176180333300,8.171333251953126,0.11946341477036475,0.05183627796024084,-0.05850421141684055
1772567176190362000,8.181362060546874,0.11665829422175883,0.026214053186774253,-0.04526975905150175
1772567176200392200,8.19139208984375,0.10540390975773334,-0.005243161350488662,-0.030654519852250813
1772567176210421200,8.201421142578125,0.10167933627665042,-0.006774462570995092,-0.0072886957034468645
1772567176220450000,8.211449951171875,0.10126783286631107,-0.016301730981469153,0.023374153585731982
1772567176230479400,8.221479248046874,0.0673462740421295,-0.059751727259904144,0.07744505873024463
1772567176240508400,8.23150830078125,0.03720657184422016,-0.07044774718880653,0.08377630757838488
1772567176250537500,8.241537353515625,0.024375731843709943,-0.05080971139147877,0.048910453641414636
1772567176260567300,8.2515673828125,0.029790158107876778,-0.05248597404062748,0.027323183472454545
1772567176270596400,8.261596435546876,0.06465279717445373,-0.07020473221316934,0.021655951490998266
1772567176280625400,8.27162548828125,0.08738836059570312,-0.04639379464536905,0.01409632989168167
1772567176290654200,8.281654296875,0.10270108053982258,0.007365998723357916,-0.0045117783360183236
1772567176300683300,8.291683349609375,0.15316811597347257,0.03638575698062777,-0.008136836965382099
1772567176310712300,8.30171240234375,0.13044775012135504,0.06309563086032867,0.0054747781492769714
1772567176320741000,8.3117412109375,0.1234960312873125,0.049047816285490986,0.017597469880431888
1772567176330771200,8.321771240234375,0.13957681299448013,0.07118219894319772,0.020123481226712463
1772567176340800300,8.33180029296875,0.13503098625838755,0.10543547393977641,0.0023490473441779612
1772567176350829300,8.341829345703125,0.14669512056708334,0.1138672021985054,-0.03160685214102268
1772567176360858000,8.351858154296876,0.18326047189831732,0.11122735521420836,-0.060658174580335615
1772567176370887200,8.36188720703125,0.15988836413919924,0.11156009429991244,-0.057595718269795176
1772567176380916500,8.37191650390625,0.12130641228854655,0.11222294212281703,-0.034353812761604784
1772567176390945300,8.3819453125,0.11389993542432784,0.1033783952794969,-0.02286956506446004
1772567176400974300,8.391974365234375,0.09526830019056796,0.1010506829842925,-0.0003254325620830059
1772567176411004400,8.40200439453125,0.09600245968401432,0.08367898468375205,0.004436082751303911
1772567176421033500,8.412033447265625,0.08501520172357559,0.057308571891486644,0.00043912206962704655
1772567176431062300,8.422062255859375,0.07871580931842327,0.03410159156620502,0.007349924371391535
1772567176441091300,8.43209130859375,0.048366848284006114,0.007669657845050096,-0.004785042319446802
1772567176451120400,8.442120361328126,0.02762976520359516,-0.007353139241784811,-0.010363280843198298
1772567176461149200,8.452149169921874,0.045593291917443275,-0.003997983594983816,-0.026898966711014508
1772567176471179300,8.46217919921875,0.06465045908689498,-0.032710721729695795,0.01829538901671767
1772567176481208300,8.472208251953125,0.07179156301319599,-0.08161226141229272,0.07298939449563623
1772567176491237000,8.482237060546876,0.13318448160886764,-0.06620791766196489,0.07517156084030867
1772567176501266200,8.49226611328125,0.15579028117060661,-0.053294513944536444,0.06504924914613366
1772567176511295200,8.502295166015625,0.16997604291141033,-0.061018093933910125,0.01650982077419758
1772567176521324300,8.51232421875,0.15932956121265887,-0.05114858795702457,-0.02786620430797338
1772567176531353300,8.522353271484375,0.10505845732092857,-0.05297872599363327,0.0015254560016095637
1772567176541382400,8.53238232421875,0.037165070790052414,-0.05430895168408751,0.04191182692572474
1772567176551412200,8.542412109375,0.010243161594867706,-0.024208704713732,0.04141366814523935
1772567176561441300,8.552441162109375,0.03283142549991608,-0.008336305060237645,0.04790872925296426
1772567176571470300,8.56247021484375,0.03712941495478153,-0.009557809679210185,0.060706397636234755
1772567176581499400,8.57249951171875,0.061951137000322336,-0.0162561382740736,0.04177914045676589
1772567176591528200,8.582528076171876,0.12577566665709017,-0.014516454999893904,0.020240970126539467
1772567176601557200,8.59255712890625,0.15294599765539169,-0.01073898228779435,0.02132847310230136
1772567176611586300,8.60258642578125,0.21464754380881784,0.018159049285948275,0.015361527521908282
1772567176621616400,8.612616455078125,0.22218144644498825,0.04242708297148347,0.025446137554198504
1772567176631645200,8.622645263671876,0.1670055026680231,0.029450697020441292,0.023313071048259734
1772567176641674200,8.63267431640625,0.14808219101130962,0.015415741927176712,-0.002493570381402969
1772567176651703300,8.642703369140625,0.1051794533520937,0.04179872194007039,-0.022811697397381064
1772567176661732000,8.652732177734375,0.10835808338820933,0.006489800410717725,-0.031401246566325425
1772567176671761200,8.66276123046875,0.09318447965383529,-0.034807255617529155,-0.0012168284438550472
1772567176681790500,8.67279052734375,0.07383388249576091,-0.03785568340271711,-0.001020721349865198
1772567176691820300,8.6828203125,0.05861000987887382,-0.012924948024749755,0.0010813654959201812
1772567176701849300,8.692849365234375,0.056101241928339,0.013891454969346522,-0.008688917890191078
1772567176711878400,8.70287841796875,0.04593231461346149,0.00151712656468153,-0.007368482941389084
1772567176721907500,8.712907470703126,0.06332651700675487,-0.041791415416449304,0.010077888030558825
1772567176731936300,8.722936279296874,0.07406827577352523,-0.0899441825583577,0.039027065269649025
1772567176741965300,8.73296533203125,0.09604746786952018,-0.09067191231101751,0.043820583156496284
1772567176751994400,8.742994384765625,0.12029343585371971,-0.06662044398561119,0.045857788072526454
1772567176762024200,8.753024169921876,0.12266367211639881,-0.05321326540187001,0.035436055040359495
1772567176772053200,8.76305322265625,0.10242869333922862,-0.058847033505141734,0.011836422135680914
1772567176782083300,8.773083251953125,0.08148761211931704,-0.030460458584874867,-0.014127894073724745
1772567176792112000,8.783112060546875,0.07925240041315555,-0.016165391250699757,-0.026660920171439645
1772567176802141200,8.79314111328125,0.0936544352531433,-0.017485533938556907,-0.014686843130737542
1772567176812170200,8.803170166015626,0.1096972230374813,0.008308978661894798,0.01229775603711605
1772567176822199000,8.813198974609374,0.14694412689208983,0.013019202179461717,0.01776347409710288
1772567176832229000,8.82322900390625,0.1534334889113903,0.0031635785974562167,0.02651844296082854
1772567176842258200,8.833258056640625,0.12732757227420807,-0.003979132764041424,0.025629677427560088
1772567176852287000,8.843286865234376,0.10854746848046778,0.0224487093038857,-0.0052798400990664955
1772567176862316000,8.85331591796875,0.06068623163104057,0.05016103822439909,-0.027545740181952712
1772567176872345000,8.863344970703125,0.007864157503843307,0.06118614397719502,-0.0183050336278975
1772567176882374100,8.8733740234375,0.012850129222869872,0.047146804969757795,-0.0420553270496428
1772567176892403200,8.8834033203125,0.09432020568549633,0.05383052051737904,-0.05853811368644237
1772567176902433300,8.893433349609374,0.1609445951938629,0.05512903589531779,-0.038906799890846014
1772567176912462300,8.90346240234375,0.18944062183797358,0.03467442301809787,-0.003771335232257843
1772567176922491100,8.9134912109375,0.23638415932059287,0.038555209974199534,0.012801467775553464
1772567176932520200,8.923520263671875,0.21092589293718336,0.04048910064622759,0.025076865850389003
1772567176942549200,8.93354931640625,0.1713894168406725,0.020976444794237614,0.03996580742448568
1772567176952578000,8.943578125,0.13284721247851847,0.04838058454841375,0.02979483428299427
1772567176962607000,8.953607177734375,0.09835691385567187,0.06217106336131691,-0.003981616982072592
1772567176972637200,8.96363720703125,0.07959668380618094,0.008463000179827212,-0.0047381344377994536
1772567176982666200,8.973666259765626,0.0943348187327385,-0.015131518158316612,-0.01287204879373312
1772567176992695000,8.983695068359374,0.09031506169736385,-0.02183729940727353,-0.008854045324027537
1772567177002724000,8.99372412109375,0.0981727894604206,-0.021133535052090882,0.021845044322311876
1772567177012753200,9.003753173828125,0.047186114066839216,-0.003941869493573904,0.06176905843168497
1772567177022782200,9.0137822265625,0.026546061620116232,-0.016527502561360596,0.05471197952702641
1772567177032811300,9.023811279296876,0.010446575212478637,-0.034102614479511975,0.037784079471230504
1772567177042841000,9.033841064453124,0.00391045144200325,-0.04903729489147663,0.021937398780882356
1772567177052870400,9.043870361328125,0.06416355235278606,-0.025526363183557985,0.02247822765931487
1772567177062899200,9.053899169921875,0.12047756024897098,0.0017947744622826575,0.028657208555191754
1772567177072928300,9.06392822265625,0.15946224768161774,0.02217646823376417,0.0302237272195518
1772567177082957300,9.073957275390624,0.18679566028714178,0.051374213406443596,0.026868717703223226
1772567177092986000,9.083986083984374,0.17468319768905638,0.059717094337940216,0.01618964890912175
1772567177103015200,9.09401513671875,0.14980945319533348,0.062299804307520384,0.006660042411088943
1772567177113045200,9.104045166015625,0.1180973871141672,0.03573123859465122,0.013388327752798796
1772567177123074000,9.114073974609376,0.12355039182305336,0.033817806188762185,0.024709347712248562
1772567177133103000,9.12410302734375,0.10001403341293334,0.05554126995801925,0.009918313554674386
1772567177143132200,9.134132080078125,0.09690262339413165,0.05564209998399019,0.0009812661223113537
1772567177153161000,9.144160888671875,0.12694354139268396,0.06021642216220498,-0.012605945203453301
1772567177163190000,9.15418994140625,0.11119535264074802,0.0569639962375164,-0.017744623266160487
1772567177173219300,9.16421923828125,0.12998714687228202,0.04062178711518645,-0.017573796743899583
1772567177183249200,9.174249267578125,0.10499065278172492,0.016084873360395432,0.0036123452782630917
1772567177193278000,9.18427783203125,0.10606968019008636,0.0007435118436813354,0.03148468706607818
1772567177203307300,9.194307373046875,0.1162760169059038,0.015461334634572266,0.05140007850006222
1772567177213336300,9.20433642578125,0.07157528991401195,0.016676555643230676,0.06432195778489112
1772567177223365000,9.214365234375,0.04889700963795185,0.02832125459909439,0.04026669006720185
1772567177233394200,9.224394287109375,0.05866729302406311,0.03954071388021111,-0.0017547347128391265
1772567177243424300,9.23442431640625,0.05630465554594993,0.01082680670171976,-0.008882979157567023
1772567177253453300,9.244453369140626,0.05197451738715172,-0.04012333607375622,-0.011709727016091347
1772567177263482000,9.254482177734374,0.08442132748365402,-0.04740326394885778,-0.013006927219778298
1772567177273511200,9.26451123046875,0.10050912345349788,-0.03988777375221252,0.006491700106859207
1772567177283540200,9.274540283203125,0.10039747977256774,-0.04933393975049257,0.02043912304714322
1772567177293569000,9.284569091796875,0.1138403141915798,-0.01795256692841649,0.013200988487154244
1772567177303598000,9.29459814453125,0.12859189312160013,0.03044409197196364,0.01691124118193984
1772567177313627100,9.304627197265624,0.119822895732522,0.024080256028473374,0.024304858564585446
1772567177323657200,9.3146572265625,0.11871405770778655,0.011550006409734487,0.013888970751315354
1772567177333686000,9.32468603515625,0.17267770308554173,0.029329554858803748,-0.015469225680083035
1772567177343715000,9.334715087890626,0.17122925784289836,0.02046776461973786,-0.023583704683184624
1772567177353744400,9.344744384765624,0.14323241289258,-0.015774199976027012,-0.0034514556281268595
1772567177363773200,9.354773193359375,0.16913842304348944,-0.027685002522170543,0.014706716874986887
1772567177373802200,9.36480224609375,0.12598667905926703,-0.0432502359226346,0.03268047272190452
1772567177383832300,9.374832275390625,0.06689210053384304,-0.04399798555001616,0.06438216353952884
1772567177393861000,9.384861083984376,0.04447919319570064,-0.04707344747260213,0.05575228236019611
1772567177403890200,9.39489013671875,0.011357844838500022,-0.028022710043936968,0.008220131334662437
1772567177413919200,9.404919189453125,0.06725508862733841,0.019059066865593194,-0.02301438036262989
1772567177423948000,9.414947998046875,0.11757950071990489,0.034334231278300285,-0.02448532969802618
1772567177433977000,9.42497705078125,0.14648995338380336,0.023564999982714652,-0.01570668769776821
1772567177444006100,9.435006103515626,0.1669219160377979,0.035841420970857144,-0.024209581496566532
1772567177454035000,9.445034912109374,0.15054127460122108,0.04991787711828947,-0.013700608572363852
1772567177464065000,9.45506494140625,0.11393851386904716,0.04360957075431943,0.0151962539575994
1772567177474094000,9.465093994140625,0.07546586761176585,0.02505260819196701,0.049788843911141155
1772567177484123100,9.475123046875,0.08516133219599724,0.00020122166052460668,0.05576967188641429
1772567177494152200,9.485152099609374,0.10024901121258735,0.0012327566653490066,0.040006139434874056
1772567177504181200,9.49518115234375,0.13133563887178898,0.027709552441537378,0.0022946868084371087
1772567177514210300,9.505210205078125,0.15161971748769282,0.05075798120424151,-0.022972440917044878
1772567177524240100,9.515240234375,0.16554770507514477,0.06836275760829448,-0.0010997779354453086
1772567177534269200,9.525269287109374,0.14527064072191714,0.07809066315740347,0.0056117024019360535
1772567177544298200,9.53529833984375,0.09357844740748406,0.06483882126584649,0.013251988022029398
1772567177554327300,9.545327392578125,0.0663227762132883,0.04707783138677477,0.009658931966125965
1772567177564356000,9.555356201171875,0.07404489489793777,0.0401360494248569,-0.02729614933505654
1772567177574385200,9.56538525390625,0.09387187739610671,0.018621844492107627,-0.058090662179887294
1772567177584414200,9.575414306640624,0.11368249328136443,0.016828239073604343,-0.052756753806024785
1772567177594444000,9.585444091796875,0.13916238697469233,0.02037964794486761,-0.04076894050091505
1772567177604473000,9.59547314453125,0.1439338391602039,-0.005519786334782838,0.009069587770849466
1772567177614502100,9.605502197265626,0.13542904566526412,-0.043932226837426425,0.04340981039851904
1772567177624531200,9.61553125,0.13985387637019156,-0.06593743015751242,0.036429157730937
1772567177634560000,9.62556005859375,0.09999474419057369,-0.0891866421893239,0.027971125987172125
1772567177644589300,9.63558935546875,0.034192192459106444,-0.08645736335590481,0.022956804956495762
1772567177654618400,9.645618408203125,0.027156886994838713,-0.05207081736847758,-0.006283902575075626
1772567177664648000,9.65564794921875,0.016338555860519407,-0.02007598882317543,0.008072539557516575
1772567177674677200,9.66567724609375,0.010276479342579841,-0.0077586513027548785,0.03205561882182956
1772567177684706300,9.675706298828125,0.03127835083901882,0.006090864221006632,0.041794922547787425
1772567177694735000,9.685735107421875,0.05844634374976158,0.03642126668542623,0.049049277590215205
1772567177704764200,9.69576416015625,0.06640519379973411,0.04770341593921184,0.05515007868334651
1772567177714793200,9.705793212890624,0.10826046823263168,0.06975231227055191,0.03366027753949165
1772567177724822000,9.715822021484374,0.16311258688271044,0.10458689428642391,0.006928922480344772
1772567177734852000,9.72585205078125,0.1832616409420967,0.09317088951990007,0.0016824001289904116
1772567177744881200,9.735881103515625,0.183994046869874,0.0805197900004685,0.006389847167581319
1772567177754910200,9.74591015625,0.17184359034895896,0.07908084323853254,0.02652531109303236
1772567177764939000,9.75593896484375,0.13886895698606966,0.059845104631781575,0.02609232650324702
1772567177774968000,9.765968017578125,0.13526654857993126,0.030170097336173055,0.03272241216748953
1772567177784996400,9.775996337890625,0.07467384045124054,-0.0035373803459107876,0.040579409278184174
1772567177795025400,9.786025390625,0.14989479339122772,0.03853299814239144,0.03533829375430941
1772567177805055500,9.796055419921874,0.1661257972240448,0.06557195784598588,0.056592970968037844
1772567177815084300,9.806084228515624,0.10726385841071605,0.02489566406458616,0.06353519132137299
1772567177825113300,9.81611328125,0.11565408561527728,0.03508665708079934,0.029825813943147657
1772567177835142400,9.826142333984375,0.1174134965032339,0.030149639070034026,-0.006989420495927334
1772567177845171200,9.836171142578126,0.0865174229800701,-0.020364888767153023,0.015212474440038204
1772567177855200300,9.8462001953125,0.12864683817923067,-0.02960501079931855,0.01942512369900942
1772567177865229300,9.856229248046875,0.0867576614767313,-0.0469862075805664,0.01478168180733919
1772567177875259400,9.86625927734375,0.07300561497807502,-0.05444777563288807,0.019809446841478347
1772567177885288200,9.8762880859375,0.09564356324374675,-0.017694646644592284,0.05410597645789385
1772567177895317200,9.886317138671876,0.07716507274508476,-0.016999503987282515,0.056669835596531624
1772567177905346300,9.89634619140625,0.06191138951182365,-0.038838849221169945,0.05791092169880867
1772567177915375400,9.906375244140625,0.06473989093601704,-0.06775806971341371,0.03829275964573026
1772567177925404400,9.916404296875,0.03294482274651527,-0.05766425346136093,0.019662439586222172
1772567177935433500,9.92643359375,0.023867782321572304,-0.05632423702925443,0.023385259501636026
1772567177945463300,9.93646337890625,0.08820318410992622,-0.03348798971250653,0.013003858479857444
1772567177955492400,9.946492431640625,0.11711012964248657,-0.03297857888564467,0.04137991200610995
1772567177965521400,9.956521484375,0.1418833363711834,-0.02628668003156781,0.07193491700664162
1772567177975550500,9.966550537109375,0.17016308991611004,0.05184416900575161,0.07863383012339473
1772567177985579300,9.976579345703126,0.053988195297121996,-0.000936111806333065,0.06154182554706931
1772567177995608300,9.9866083984375,-0.02234685636460781,-0.030649697546660897,0.027606238197535275
1772567178005637400,9.996637451171875,0.020369418811798094,-0.00660027504786849,0.0014871698178350924
1772567178015667500,10.00666748046875,0.05108604411482811,-0.02347439908981323,-0.007123568269610405
1772567178025696300,10.0166962890625,0.11217501132786273,-0.06317585648968815,0.041567105141282076
1772567178035725300,10.026725341796874,0.22094810525774955,-0.012966595209389925,0.06578983838036656
1772567178045754400,10.03675439453125,0.26341888124048707,0.08107654710039496,0.062022887062281366
1772567178055783200,10.046783203125,0.2353723519295454,0.09020692514777183,0.06207534790188074
