time,seconds_elapsed,z,y,x
1772567168086830300,0.077830322265625,0.06621041148900986,-0.015182971954345703,0.007771311327815056
1772567168096859400,0.087859375,0.045595452189445496,-0.030895672738552094,0.06687898933887482
1772567168106888400,0.097888427734375,0.05669178068637848,-0.03386536240577698,0.10753800719976425
1772567168116917200,0.107917236328125,0.07314037531614304,-0.05137890577316284,0.12189744412899017
1772567168126946600,0.117946533203125,0.07476703077554703,-0.05597658455371857,0.1368875801563263
1772567168136976400,0.127976318359375,0.07298324257135391,-0.06145210564136505,0.15184351801872253
1772567168147005400,0.13800537109375,0.06603238731622696,-0.06322683393955231,0.15695971250534058
1772567168157034500,0.148034423828125,0.05715079605579376,-0.060772739350795746,0.15155595541000366
1772567168167063600,0.1580634765625,0.04716288298368454,-0.04880555719137192,0.13825534284114838
1772567168177092600,0.168092529296875,0.03398105502128601,-0.04307819530367851,0.1030733659863472
1772567168187121400,0.178121337890625,0.027560707181692123,-0.031650036573410034,0.0641709715127945
1772567168197150500,0.188150390625,0.01141476072371006,-0.017350992187857628,0.006181173957884312
1772567168207179500,0.198179443359375,-0.0028408742509782314,-0.015634851530194283,-0.04289236292243004
1772567168217208300,0.208208251953125,-0.02511228621006012,-0.003287726081907749,-0.05969882756471634
1772567168227238400,0.21823828125,-0.03877750039100647,0.015062784776091576,-0.04849383980035782
1772567168237267500,0.228267333984375,-0.0529320128262043,0.03328476473689079,-0.029368914663791656
1772567168247296300,0.238296142578125,-0.055362679064273834,0.046837057918310165,-0.00610114261507988
1772567168257325300,0.2483251953125,-0.05985795706510544,0.04276944324374199,-0.004209069535136223
1772567168267354400,0.258354248046875,-0.05878869816660881,0.04572714865207672,-0.010545262135565281
1772567168277383700,0.2683837890625,-0.0648363009095192,0.042437732219696045,-0.022544682025909424
1772567168287412500,0.27841259765625,-0.07022148370742798,0.033949971199035645,-0.03925574943423271
1772567168297441500,0.288441650390625,-0.07420230656862259,0.024591537192463875,-0.04697177931666374
1772567168307470600,0.298470703125,-0.07343904674053192,0.023859435692429543,-0.028806623071432114
1772567168317500400,0.30850048828125,-0.06841254234313965,0.022295031696558,-0.00015495531260967255
1772567168327529500,0.318529541015625,-0.06595604121685028,0.012800064869225025,0.021508261561393738
1772567168337558500,0.32855859375,-0.055942095816135406,-0.009102747775614262,0.026651324704289436
1772567168347587300,0.33858740234375,-0.04485376179218292,-0.03126157820224762,0.027288885787129402
1772567168357616400,0.348616455078125,-0.04616709053516388,-0.04817914962768555,0.025052903220057487
1772567168367645400,0.3586455078125,-0.04504110664129257,-0.06796004623174667,0.01724051870405674
1772567168377674200,0.36867431640625,-0.03282556310296059,-0.06415724754333496,0.00893551204353571
1772567168387703300,0.378703369140625,-0.01774381659924984,-0.06236547231674194,0.005796443670988083
1772567168397732600,0.388732666015625,0.0024588163942098618,-0.04527237266302109,0.005497806705534458
1772567168407761400,0.398761474609375,0.02453082799911499,-0.02711041271686554,0.009384158067405224
1772567168417791500,0.40879150390625,0.04171863943338394,-0.014695337042212486,0.019428150728344917
1772567168427820500,0.418820556640625,0.04827028512954712,0.004804594442248344,0.019951995462179184
1772567168437849600,0.428849609375,0.056433260440826416,0.01235956884920597,0.0071728164330124855
1772567168447878400,0.43887841796875,0.055762410163879395,0.016657644882798195,-0.02455262281000614
1772567168457907500,0.448907470703125,0.05520142987370491,0.017149411141872406,-0.039977386593818665
1772567168467936500,0.4589365234375,0.042655542492866516,0.026662223041057587,-0.044234178960323334
1772567168477965300,0.46896533203125,0.0322718471288681,0.01894681714475155,-0.04577648639678955
1772567168487994400,0.478994384765625,0.0361185148358345,0.013519827276468277,-0.033211689442396164
1772567168498023400,0.4890234375,0.03358520567417145,0.017132218927145004,-0.0006661983206868172
1772567168508053500,0.499053466796875,0.01824885793030262,0.0025418251752853394,0.01570984534919262
1772567168518082300,0.509082275390625,0.012333361431956291,-0.025955229997634888,0.00977247767150402
1772567168528111400,0.519111328125,0.014657501131296158,-0.046881020069122314,0.006951923482120037
1772567168538140400,0.529140380859375,0.014375693164765835,-0.056061141192913055,0.018733516335487366
1772567168548169500,0.53916943359375,0.013878216035664082,-0.06011181324720383,0.03807738795876503
1772567168558198500,0.549198486328125,0.011991472914814949,-0.060967348515987396,0.04697803407907486
1772567168568227600,0.5592275390625,0.00802496075630188,-0.06369948387145996,0.04764595627784729
1772567168578256400,0.56925634765625,0.00502502266317606,-0.05414600297808647,0.05153091251850128
1772567168588285400,0.579285400390625,-0.005365300923585892,-0.043760206550359726,0.06049218401312828
1772567168598315500,0.5893154296875,-0.01377977803349495,-0.03552444279193878,0.06155315041542053
1772567168608344600,0.599344482421875,-0.017614729702472687,-0.0361659973859787,0.04874228313565254
1772567168618373400,0.609373291015625,-0.016987964510917664,-0.04220965877175331,0.03091295063495636
1772567168628402400,0.61940234375,-0.022778742015361786,-0.03695604205131531,0.012384006753563881
1772567168638431500,0.629431396484375,-0.02691550739109516,-0.04337310045957565,-0.00663099717348814
1772567168648460300,0.639460205078125,-0.034455716609954834,-0.04849382862448692,-0.020881306380033493
1772567168658489300,0.6494892578125,-0.04512544348835945,-0.045073747634887695,-0.03212451934814453
1772567168668518700,0.6595185546875,-0.049839772284030914,-0.03630582243204117,-0.026372626423835754
1772567168678547500,0.66954736328125,-0.057482071220874786,-0.03084355778992176,-0.0277376901358366
1772567168688577500,0.67957763671875,-0.05486871302127838,-0.026489822193980217,-0.02791106142103672
1772567168698606600,0.689606689453125,-0.050698183476924896,-0.00881071388721466,-0.012811306864023209
1772567168708635400,0.699635498046875,-0.054656438529491425,0.015469858422875404,0.0075783878564834595
1772567168718664400,0.70966455078125,-0.05665316805243492,0.030390074476599693,0.011393992230296135
1772567168728693500,0.719693603515625,-0.057099781930446625,0.03145347535610199,-0.0036544660106301308
1772567168738722600,0.72972265625,-0.05229272320866585,0.03088323026895523,-0.026140283793210983
1772567168748751400,0.73975146484375,-0.045951470732688904,0.03069760650396347,-0.029274558648467064
1772567168758780400,0.749780517578125,-0.03503222018480301,0.03941205143928528,-0.02190336398780346
1772567168768809000,0.75980908203125,-0.025547370314598083,0.03491184115409851,-0.013747166842222214
1772567168778838300,0.76983837890625,-0.010751161724328995,0.030538642778992653,-0.008393494412302971
1772567168788868000,0.7798681640625,-0.001131824217736721,0.030664345249533653,-0.0009760581888258457
1772567168798897200,0.789897216796875,0.005211535841226578,0.015541613101959229,-0.008362318389117718
1772567168808926200,0.79992626953125,0.017879394814372063,0.004302807152271271,-0.009678984992206097
1772567168818955300,0.809955322265625,0.029606450349092484,0.00390961579978466,0.0018183477222919464
1772567168828984300,0.819984375,0.041951797902584076,0.0014789486303925514,0.014098183251917362
1772567168839013000,0.83001318359375,0.048142220824956894,-0.00040432158857584,0.022152630612254143
1772567168849042200,0.840042236328125,0.05583129823207855,0.001232457347214222,0.020718518644571304
1772567168859071200,0.8500712890625,0.06204181909561157,0.004004504531621933,0.023704521358013153
1772567168869101000,0.86010107421875,0.06535559147596359,0.013922115787863731,0.020244009792804718
1772567168879130000,0.870130126953125,0.061747826635837555,0.020364541560411453,0.011662488803267479
1772567168889159200,0.8801591796875,0.05142728239297867,0.028545506298542023,-0.005325016565620899
1772567168899188000,0.89018798828125,0.056467484682798386,0.03949866443872452,-0.016726739704608917
1772567168909217000,0.900217041015625,0.05754633620381355,0.04542712867259979,-0.025515705347061157
1772567168919246000,0.91024609375,0.055435772985219955,0.042224422097206116,-0.030296694487333298
1772567168929275400,0.920275390625,0.05998285487294197,0.02172660455107689,-0.014435971155762672
1772567168939304200,0.93030419921875,0.07086137682199478,0.008996903896331787,0.04459056258201599
1772567168949333200,0.940333251953125,0.08870003372430801,0.011199604719877243,0.132124662399292
1772567168959362300,0.9503623046875,0.11016341298818588,0.0012991111725568771,0.1884358525276184
1772567168969392000,0.96039208984375,0.12771204113960266,-0.00731941033154726,0.21697507798671722
1772567168979421200,0.970421142578125,0.14263252913951874,-0.01905927062034607,0.2098030149936676
1772567168989450200,0.9804501953125,0.13916988670825958,-0.013420292176306248,0.18741488456726074
1772567168999479000,0.99047900390625,0.12019990384578705,-0.016299931332468987,0.13639956712722778
1772567169009508000,1.000508056640625,0.09817582368850708,-0.013481774367392063,0.08612735569477081
1772567169019537200,1.010537109375,0.08885468542575836,-0.0030780471861362457,0.04109015688300133
1772567169029566000,1.02056591796875,0.08397018909454346,0.003234976902604103,-0.0013225488364696503
1772567169039595000,1.030594970703125,0.07426688820123672,0.01238382887095213,-0.025088008493185043
1772567169049624300,1.040624267578125,0.05736513435840607,0.019471831619739532,-0.03771698474884033
1772567169059654100,1.050654052734375,0.03690733760595322,0.02156870812177658,-0.029681753367185593
1772567169069683200,1.06068310546875,0.015051573514938354,0.008995127864181995,-0.02196311205625534
1772567169079712300,1.070712158203125,0.008141309954226017,-0.008359762839972973,-0.005354478023946285
1772567169089741300,1.0807412109375,-0.01389794610440731,-0.042399220168590546,0.010431942529976368
1772567169099770000,1.09077001953125,-0.02533986233174801,-0.026725225150585175,0.03737803176045418
1772567169109799200,1.100799072265625,0.000581483356654644,-0.01562623493373394,0.03714447468519211
1772567169119828200,1.110828125,0.0020748497918248177,-0.02664390578866005,0.003384452313184738
1772567169129857000,1.12085693359375,-0.0048645492643117905,-0.015057024545967579,-0.01754346676170826
1772567169139886000,1.130885986328125,-0.010153860785067081,-0.012125940062105656,-0.033252738416194916
1772567169149916200,1.140916259765625,-0.01514435838907957,-0.010420984588563442,-0.03880995512008667
1772567169159945200,1.1509453125,-0.012231878936290741,-0.023356812074780464,-0.04372538626194
1772567169169974000,1.16097412109375,-0.019411761313676834,-0.030929245054721832,-0.03112810105085373
1772567169180003000,1.171003173828125,-0.021271880716085434,-0.020756080746650696,0.0011411737650632858
1772567169190032100,1.1810322265625,-0.02178294211626053,-0.01814272254705429,0.020259207114577293
1772567169200061200,1.191061279296875,-0.02777702361345291,-0.019200939685106277,0.025917258113622665
1772567169210090200,1.20109033203125,-0.026546113193035126,-0.014355052262544632,0.02414439246058464
1772567169220119300,1.211119384765625,-0.025871776044368744,0.0038939639925956726,0.021707847714424133
1772567169230148000,1.221148193359375,-0.03240131586790085,0.026094874367117882,0.008599502965807915
1772567169240177200,1.23117724609375,-0.030963018536567688,0.045368265360593796,-0.019266247749328613
1772567169250207200,1.241207275390625,-0.02514481171965599,0.044576242566108704,-0.059646427631378174
1772567169260236300,1.251236328125,-0.02144891396164894,0.04661037027835846,-0.08343793451786041
1772567169270265000,1.26126513671875,-0.02855582721531391,0.06467672437429428,-0.08013428747653961
1772567169280294100,1.271294189453125,-0.04456103965640068,0.07684113830327988,-0.07659262418746948
1772567169290323200,1.2813232421875,-0.04306354746222496,0.06673550605773926,-0.0952102541923523
1772567169300352000,1.29135205078125,-0.03183360397815704,0.0529678612947464,-0.1143094077706337
1772567169310381000,1.301381103515625,-0.02772381529211998,0.03659368306398392,-0.12314844131469727
1772567169320410400,1.311410400390625,-0.03320592641830444,0.026315735653042793,-0.12802913784980774
1772567169330439200,1.321439208984375,-0.024131469428539276,0.024516502395272255,-0.10833025723695755
1772567169340469200,1.33146923828125,-0.017810989171266556,0.04186193645000458,-0.04544583708047867
1772567169350498300,1.341498291015625,-0.014507604762911797,0.021563323214650154,-0.011328080669045448
1772567169360527000,1.351527099609375,-0.00029908353462815285,0.010726626962423325,0.028925316408276558
1772567169370556200,1.36155615234375,0.010934929363429546,-0.001384364441037178,0.03623196482658386
1772567169380585200,1.371585205078125,0.01329629123210907,-0.012205508537590504,0.030668755993247032
1772567169390614300,1.3816142578125,0.011033136397600174,-0.016158971935510635,0.014302033931016922
1772567169400643000,1.39164306640625,0.006941548548638821,-0.008002890273928642,0.006729532033205032
1772567169410672000,1.401672119140625,-0.0008812206797301769,-0.0016081072390079498,-0.005115675739943981
1772567169420701200,1.411701171875,-0.002018330153077841,0.0018547298386693,-0.014658447355031967
1772567169430731000,1.42173095703125,-0.0009224391542375088,-0.005063363816589117,-0.024691639468073845
1772567169440760000,1.431760009765625,-0.005492476746439934,-0.014763067476451397,-0.030486728996038437
1772567169450789000,1.4417890625,0.0015326756983995438,-0.04087322950363159,-0.023785948753356934
1772567169460818200,1.451818115234375,-0.008925696834921837,-0.052620045840740204,-0.016976159065961838
1772567169470847200,1.46184716796875,-0.0006089108064770699,-0.04671208932995796,0.02866988815367222
1772567169480876300,1.471876220703125,-0.007995788007974625,-0.04616234079003334,0.04774748906493187
1772567169490905000,1.481905029296875,-0.0111582912504673,-0.04627552255988121,0.052712421864271164
1772567169500934100,1.49193408203125,-0.010047235526144505,-0.04786727577447891,0.03572874143719673
1772567169510963200,1.501963134765625,-0.01492827758193016,-0.0519576258957386,0.004985477775335312
1772567169520993300,1.5119931640625,-0.015498010441660881,-0.055830031633377075,-0.01692473143339157
1772567169531022000,1.52202197265625,-0.018771566450595856,-0.04898624122142792,-0.030562512576580048
1772567169541051100,1.532051025390625,-0.021098395809531212,-0.031740110367536545,-0.02313653752207756
1772567169551080200,1.542080078125,-0.022973794490098953,-0.018147069960832596,-0.025206610560417175
1772567169561109000,1.55210888671875,-0.02498137764632702,-0.01173198502510786,-0.02864896133542061
1772567169571138000,1.562137939453125,-0.021570932120084763,-0.01278473250567913,-0.03501391410827637
1772567169581167000,1.5721669921875,-0.017508845776319504,-0.015807583928108215,-0.026628997176885605
1772567169591196200,1.582196044921875,-0.014909600839018822,-0.0149673568084836,-0.01708236336708069
1772567169601225200,1.59222509765625,-0.009080590680241585,-0.025564800947904587,-0.010831684805452824
1772567169611255300,1.60225537109375,-0.0018266728147864342,-0.024488884955644608,-0.004170852713286877
1772567169621284400,1.612284423828125,0.0029631424695253372,-0.02522299438714981,0.0026758695021271706
1772567169631313200,1.622313232421875,0.011653836816549301,-0.02088150754570961,0.00860380008816719
1772567169641342200,1.63234228515625,0.018537234514951706,-0.018836647272109985,0.015292027965188026
1772567169651371300,1.642371337890625,0.022204939275979996,-0.022946171462535858,0.014511454850435257
1772567169661400000,1.652400146484375,0.02065158635377884,-0.022535590454936028,0.014601954258978367
1772567169671429000,1.66242919921875,0.018954087048768997,-0.018981868401169777,0.021657735109329224
1772567169681458200,1.672458251953125,0.014233534224331379,-0.006803384516388178,0.024435389786958694
1772567169691487000,1.682487060546875,0.010535736568272114,-0.005456624086946249,0.014410455711185932
1772567169701517000,1.69251708984375,0.01047159917652607,0.005927004851400852,0.006752234883606434
1772567169711546000,1.702546142578125,0.014075655490159988,0.01791815459728241,0.019245389848947525
1772567169721575200,1.7125751953125,0.015714846551418304,0.0210002101957798,0.04140332341194153
1772567169731604200,1.722604248046875,0.024745624512434006,0.024502534419298172,0.06558056175708771
1772567169741633300,1.73263330078125,0.03252825886011124,0.01972266100347042,0.0713626965880394
1772567169751662300,1.742662353515625,0.047633975744247437,0.025345923379063606,0.07760407775640488
1772567169761691100,1.752691162109375,0.044107258319854736,0.031263336539268494,0.08550994843244553
1772567169771720400,1.762720458984375,0.040709324181079865,0.027492035180330276,0.08414933830499649
1772567169781749200,1.772749267578125,0.045477595180273056,0.03015955537557602,0.07561682164669037
1772567169791779300,1.782779296875,0.04465547576546669,0.04104096442461014,0.062056005001068115
1772567169801808400,1.792808349609375,0.032705746591091156,0.04106774553656578,0.03635109215974808
1772567169811837400,1.80283740234375,0.020947089418768883,0.034950464963912964,-0.00032569700852036476
1772567169821866200,1.8128662109375,0.014169275760650635,0.030491886660456657,-0.02381099760532379
1772567169831895300,1.822895263671875,0.0027648210525512695,0.03951014578342438,-0.033821552991867065
1772567169841924400,1.83292431640625,-0.015146033838391304,0.030810391530394554,-0.04232750087976456
1772567169851953200,1.842953125,-0.018961012363433838,0.025461165234446526,-0.04145718365907669
1772567169861982500,1.852982421875,-0.023281732574105263,0.023670196533203125,-0.018768198788166046
1772567169872011500,1.863011474609375,-0.017500542104244232,0.026742152869701385,0.011869337409734726
1772567169882041000,1.873041015625,-0.02840588428080082,0.02486005797982216,0.012583483010530472
1772567169892070400,1.8830703125,-0.034758053719997406,0.014480124227702618,-0.00553666427731514
1772567169902099500,1.893099365234375,-0.03878624364733696,0.015042755752801895,-0.022444166243076324
1772567169912128300,1.903128173828125,-0.03806585818529129,0.021463902667164803,-0.02445751614868641
1772567169922157300,1.9131572265625,-0.03798244148492813,0.031222987920045853,-0.026863016188144684
1772567169932186400,1.923186279296875,-0.03446280583739281,0.02634327858686447,-0.03645545616745949
1772567169942215200,1.933215087890625,-0.02329513058066368,0.013881308026611805,-0.049986425787210464
1772567169952244200,1.943244140625,-0.011873897165060043,0.009542484767735004,-0.03973592072725296
1772567169962273300,1.953273193359375,-0.0034117563627660275,0.00317413080483675,-0.025669686496257782
1772567169972303400,1.963303466796875,0.0038765165954828262,-0.008992787450551987,-0.010138929821550846
1772567169982332200,1.973332275390625,0.009720321744680405,-0.025676995515823364,0.0015598703175783157
1772567169992361200,1.983361328125,0.017898622900247574,-0.03081582859158516,0.005427844822406769
1772567170002390300,1.993390380859375,0.0203329436480999,-0.03572983294725418,0.007040701806545258
1772567170012419300,2.00341943359375,0.020649593323469162,-0.032862674444913864,-0.0038178046233952045
1772567170022448400,2.013448486328125,0.01713944412767887,-0.022731639444828033,-0.019478101283311844
1772567170032477400,2.0234775390625,0.011005120351910591,-0.005002709571272135,-0.021962828934192657
1772567170042506200,2.03350634765625,0.0024063140153884888,0.017664777114987373,-0.017950959503650665
1772567170052535300,2.043535400390625,-0.00905353482812643,0.025566907599568367,-0.022749442607164383
1772567170062565400,2.0535654296875,-0.018296871334314346,0.021945049986243248,-0.04002632200717926
1772567170072594400,2.063594482421875,-0.02248362824320793,0.014667430892586708,-0.04349828511476517
1772567170082623200,2.073623291015625,-0.030500883236527443,0.008303361013531685,-0.03838132321834564
1772567170092652300,2.08365234375,-0.037852540612220764,-0.005746145732700825,-0.03674587607383728
1772567170102681300,2.093681396484375,-0.04361307993531227,-0.023927703499794006,-0.02339785546064377
1772567170112710100,2.103710205078125,-0.0406135618686676,-0.030465498566627502,0.004323787987232208
1772567170122739200,2.1137392578125,-0.039335403591394424,-0.024805305525660515,0.052719395607709885
1772567170132768500,2.1237685546875,-0.04351017251610756,-0.014681565575301647,0.07904927432537079
1772567170142797300,2.13379736328125,-0.04697780683636665,-0.014406541362404823,0.0781962051987648
1772567170152827100,2.1438271484375,-0.0468241423368454,-0.008691131137311459,0.05082530528306961
1772567170162856400,2.1538564453125,-0.05175284668803215,-0.006629319861531258,0.00716073252260685
1772567170172885500,2.163885498046875,-0.055447716265916824,-0.0008603809401392937,-0.020733483135700226
1772567170182914300,2.173914306640625,-0.050569429993629456,0.0029861098155379295,-0.03921114280819893
1772567170192943400,2.183943359375,-0.049610160291194916,0.009971847757697105,-0.03786038979887962
1772567170202972400,2.193972412109375,-0.04094916582107544,0.01178959384560585,-0.0289800763130188
1772567170213001200,2.204001220703125,-0.030523687601089478,0.015941197052598,-0.017644330859184265
1772567170223030300,2.2140302734375,-0.021786397323012352,0.013642629608511925,-0.006929186172783375
1772567170233060400,2.224060302734375,-0.014160702005028725,0.006650499999523163,-0.001000456977635622
1772567170243089400,2.23408935546875,-0.0074992552399635315,-0.000013612210750579834,0.0007347157225012779
1772567170253118200,2.2441181640625,0.006339594721794128,0.00035683345049619675,-0.0005569173954427242
1772567170263147300,2.254147216796875,0.007468685507774353,-0.006075140554457903,-0.005641898140311241
1772567170273176300,2.26417626953125,0.018740780651569366,-0.009995313361287117,-0.011940540745854378
1772567170283205400,2.274205322265625,0.02784854918718338,-0.014108589850366116,-0.01686394214630127
1772567170293234400,2.284234375,0.03692007437348366,-0.015561876818537712,-0.017314547672867775
1772567170303263500,2.294263427734375,0.034780342131853104,-0.017211023718118668,-0.014825811609625816
1772567170313292300,2.304292236328125,0.04106700047850609,-0.016667207702994347,-0.0018106778152287006
1772567170323322400,2.314322265625,0.044070251286029816,-0.010403991676867008,0.0070785051211714745
1772567170333351400,2.324351318359375,0.03988589346408844,-0.005026802886277437,0.006479027681052685
1772567170343380200,2.334380126953125,0.034587275236845016,-0.01119760051369667,-0.010704219341278076
1772567170353409300,2.3444091796875,0.03357367962598801,-0.017169207334518433,-0.022986453026533127
1772567170363438300,2.354438232421875,0.03170924261212349,-0.02269638516008854,-0.026346862316131592
1772567170373467100,2.364467041015625,0.03694634884595871,-0.024049004539847374,-0.016512073576450348
1772567170383496200,2.37449609375,0.03355797380208969,-0.019200406968593597,-0.012751040980219841
1772567170393525200,2.384525146484375,0.03857909515500069,-0.023450281471014023,-0.012155558913946152
1772567170403554600,2.394554443359375,0.03493300825357437,-0.02078983560204506,-0.011427750810980797
1772567170413584100,2.404584228515625,0.027241267263889313,-0.018289394676685333,-0.010975279845297337
1772567170423613200,2.41461328125,0.021069876849651337,-0.01928616128861904,-0.006966122426092625
1772567170433642500,2.424642578125,0.009854505769908428,-0.021293118596076965,-0.005472355522215366
1772567170443671300,2.43467138671875,0.002827920950949192,-0.02690298855304718,-0.006157082039862871
1772567170453700400,2.444700439453125,-0.0013074353337287903,-0.02149464190006256,-0.000044860877096652985
1772567170463729400,2.4547294921875,-0.012578600086271763,-0.022007416933774948,0.011497106403112411
1772567170473758200,2.46475830078125,-0.01813342049717903,-0.02086811512708664,0.0069106100127100945
1772567170483787300,2.474787353515625,-0.01724083162844181,-0.024829480797052383,-0.005949285812675953
1772567170493817300,2.4848173828125,-0.018235255032777786,-0.02288750186562538,-0.01297337282449007
1772567170503846400,2.494846435546875,-0.023105697706341743,-0.02202804759144783,-0.012128407135605812
1772567170513875200,2.504875244140625,-0.02140207216143608,-0.01980777084827423,-0.006144550163298845
1772567170523904300,2.514904296875,-0.018074877560138702,-0.016732461750507355,-0.003693981561809778
1772567170533933300,2.524933349609375,-0.018734276294708252,-0.016264278441667557,0.00040595512837171555
1772567170543962400,2.53496240234375,-0.019372522830963135,-0.01823938637971878,-0.0024413946084678173
1772567170553991400,2.544991455078125,-0.019623393192887306,-0.01510990597307682,0.0021858476102352142
1772567170564020500,2.5550205078125,-0.016593165695667267,-0.011421248316764832,0.003150567412376404
1772567170574049300,2.56504931640625,-0.01775643602013588,-0.004555086139589548,0.008529620245099068
1772567170584079400,2.575079345703125,-0.01195481326431036,-0.0013584159314632416,0.005403296090662479
1772567170594108400,2.5851083984375,-0.0051307291723787785,0.0020554903894662857,-0.003759042825549841
1772567170604137500,2.595137451171875,0.00038771796971559525,0.006951330229640007,-0.010456433519721031
1772567170614166300,2.605166259765625,0.009152446873486042,0.015986904501914978,-0.016436561942100525
1772567170624195300,2.6151953125,0.014810199849307537,0.0185047946870327,-0.01624259352684021
1772567170634224400,2.625224365234375,0.015066131018102169,0.018048062920570374,-0.018060734495520592
1772567170644253200,2.635253173828125,0.019219359382987022,0.019233137369155884,-0.011819282546639442
1772567170654282200,2.6452822265625,0.026702042669057846,0.01596943289041519,-0.01369734387844801
1772567170664312300,2.655312255859375,0.02260555326938629,0.01798546314239502,-0.010588803328573704
1772567170674341400,2.66534130859375,0.01857006549835205,0.02178499661386013,-0.014174217358231544
1772567170684370200,2.6753701171875,0.014517730101943016,0.023618385195732117,-0.01554480753839016
1772567170694399200,2.685399169921875,0.007828935980796814,0.033056627959012985,-0.02451593242585659
1772567170704428500,2.695428466796875,0.003814377821981907,0.04102171212434769,-0.03343478962779045
1772567170714457300,2.705457275390625,0.00025106873363256454,0.046676669269800186,-0.0399978831410408
1772567170724486400,2.715486328125,-0.003923858981579542,0.04693809524178505,-0.04300554841756821
1772567170734515500,2.725515380859375,-0.005105770193040371,0.0350143238902092,-0.04316214472055435
1772567170744544300,2.735544189453125,-0.004284072667360306,0.019888509064912796,-0.04371802508831024
1772567170754574300,2.74557421875,0.0022888751700520515,0.005307701416313648,-0.02788739651441574
1772567170764603400,2.755603271484375,0.002127494663000107,-0.01148966047912836,-0.01895826682448387
1772567170774635500,2.765635498046875,0.011180911213159561,-0.024495474994182587,-0.006044597830623388
1772567170784664600,2.77566455078125,0.012208763509988785,-0.03530909866094589,0.01170261949300766
1772567170794693600,2.785693603515625,0.01609032228589058,-0.043689534068107605,0.02896363101899624
1772567170804722400,2.795722412109375,0.024691037833690643,-0.04849871248006821,0.028962183743715286
1772567170814751700,2.805751708984375,0.03123309090733528,-0.04702252149581909,0.02164727821946144
1772567170824780800,2.81578076171875,0.0299152210354805,-0.03472071886062622,0.014995058998465538
1772567170834810600,2.825810546875,0.018993863835930824,-0.0198067519813776,0.004425506107509136
1772567170844839700,2.835839599609375,0.014302844181656837,-0.00761706056073308,-0.01127551682293415
1772567170854868700,2.84586865234375,0.010462300851941109,0.0007607117295265198,-0.022360391914844513
1772567170864897800,2.855897705078125,0.007974034175276756,0.009458395652472973,-0.031577277928590775
1772567170874926600,2.865926513671875,0.008222507312893867,0.013371645472943783,-0.03179911896586418
1772567170884955600,2.87595556640625,0.007780846208333969,0.016264479607343674,-0.024348853155970573
1772567170894984700,2.885984619140625,0.008875938132405281,0.010058247484266758,-0.01969045214354992
1772567170905013500,2.896013427734375,0.008868465200066566,0.0017247013747692108,-0.02058624103665352
1772567170915042600,2.90604248046875,0.007602399215102196,-0.006370242685079575,-0.018825359642505646
1772567170925072600,2.91607275390625,0.001462036743760109,-0.010373863391578197,-0.014979813247919083
1772567170935101700,2.926101806640625,-0.002466658130288124,-0.011941399425268173,-0.009975999593734741
1772567170945130500,2.936130615234375,-0.009067347273230553,-0.0055774664506316185,-0.002896223682910204
1772567170955159600,2.94615966796875,-0.011419983580708504,-0.002778218127787113,0.0008625620976090431
1772567170965188900,2.95618896484375,-0.012358905747532845,0.0014933878555893898,-0.003373797982931137
1772567170975217700,2.9662177734375,-0.021159589290618896,0.0062782904133200645,-0.012526815757155418
1772567170985246700,2.976246826171875,-0.02506377547979355,0.007749415002763271,-0.021149780601263046
1772567170995275800,2.98627587890625,-0.03381545469164848,0.002132008783519268,-0.024291779845952988
1772567171005305900,2.996305908203125,-0.03328423202037811,0.003576314076781273,-0.013287457637488842
1772567171015334700,3.006334716796875,-0.0310991108417511,-0.007756234612315893,0.007832208648324013
1772567171025363700,3.01636376953125,-0.018760742619633675,-0.020841084420681,0.017496680840849876
1772567171035392800,3.026392822265625,-0.0033413064666092396,-0.027068886905908585,0.026920543983578682
1772567171045421600,3.036421630859375,0.012519599869847298,-0.022465523332357407,0.019095787778496742
1772567171055450600,3.04645068359375,0.02059323899447918,-0.020695585757493973,0.012068238109350204
1772567171065479700,3.056479736328125,0.021416665986180305,-0.01128661260008812,0.005356554873287678
1772567171075508500,3.066508544921875,0.02006431296467781,0.001906421035528183,0.0025778133422136307
1772567171085538600,3.07653857421875,0.027521638199687004,0.0008534565567970276,-0.004868435673415661
1772567171095567600,3.086567626953125,0.03181278705596924,0.007748913951218128,-0.011299436911940575
1772567171105596400,3.096596435546875,0.03233613446354866,0.005865494720637798,-0.01677606999874115
1772567171115625700,3.106625732421875,0.03076593577861786,0.009106294251978397,-0.01967731863260269
1772567171125654800,3.11665478515625,0.03004654496908188,0.012820938602089882,-0.019137006253004074
1772567171135683600,3.12668359375,0.021183010190725327,0.011972188949584961,-0.017442170530557632
1772567171145712600,3.136712646484375,0.013252931647002697,0.007581953890621662,-0.017331482842564583
1772567171155741700,3.14674169921875,0.011312020011246204,0.0007442878559231758,-0.022231698036193848
1772567171165770800,3.156770751953125,0.002826129086315632,-0.006562900263816118,-0.02703462541103363
1772567171175800600,3.166800537109375,-0.004999835975468159,-0.014080737717449665,-0.024583451449871063
1772567171185829600,3.17682958984375,-0.00848928652703762,-0.01800605282187462,-0.015318461693823338
1772567171195858700,3.186858642578125,-0.011179611086845398,-0.025253046303987503,-0.004588319454342127
1772567171205887500,3.196887451171875,-0.013869989663362503,-0.030752159655094147,-0.00008647656068205833
1772567171215916500,3.20691650390625,-0.017715860158205032,-0.03859569877386093,-0.007084731012582779
1772567171225945600,3.216945556640625,-0.02307768166065216,-0.04014904797077179,-0.01056214701384306
1772567171235974700,3.226974609375,-0.027371762320399284,-0.038262199610471725,-0.010870540514588356
1772567171246003700,3.237003662109375,-0.03351651877164841,-0.03316512703895569,-0.009892066940665245
1772567171256033500,3.247033447265625,-0.035492584109306335,-0.028156787157058716,-0.00540783628821373
1772567171266062800,3.257062744140625,-0.03862743079662323,-0.03266787528991699,-0.0004577049985527992
1772567171276091600,3.267091552734375,-0.034189268946647644,-0.028176190331578255,0.0012669581919908524
1772567171286120700,3.27712060546875,-0.034584254026412964,-0.02875858172774315,-0.007824959233403206
1772567171296149800,3.287149658203125,-0.0387134850025177,-0.02779718115925789,-0.02246462181210518
1772567171306178600,3.297178466796875,-0.04389800876379013,-0.021542873233556747,-0.03136436268687248
1772567171316207600,3.30720751953125,-0.0490669384598732,-0.027742711827158928,-0.04182605817914009
1772567171326236700,3.317236572265625,-0.04435288533568382,-0.013467096723616123,-0.04870482534170151
1772567171336266800,3.327266845703125,-0.04801686108112335,-0.003984645940363407,-0.03505026549100876
1772567171346295600,3.337295654296875,-0.043079033493995667,-0.002016092650592327,-0.03349963203072548
1772567171356324600,3.34732470703125,-0.035544686019420624,-0.001461355946958065,-0.03445970267057419
1772567171366353700,3.357353759765625,-0.03154328092932701,0.0035906536504626274,-0.026392102241516113
1772567171376382500,3.367382568359375,-0.026508841663599014,0.0003546467050909996,-0.01813017949461937
1772567171386411800,3.377411865234375,-0.021364104002714157,-0.004012975841760635,-0.013240374624729156
1772567171396440800,3.38744091796875,-0.008874144405126572,-0.00721702491864562,-0.014720026403665543
1772567171406469600,3.3974697265625,-0.00431082583963871,-0.011455705389380455,-0.020776139572262764
1772567171416499700,3.407499755859375,-0.0014796191826462746,-0.017225177958607674,-0.027217261493206024
1772567171426528800,3.41752880859375,-0.009553366340696812,-0.020593442022800446,-0.02460329979658127
1772567171436557800,3.427557861328125,-0.016117524355649948,-0.023303475230932236,-0.016217805445194244
1772567171446586600,3.437586669921875,-0.01900411769747734,-0.01997106894850731,-0.0038910130970180035
1772567171456615700,3.44761572265625,-0.01503254659473896,-0.007231038995087147,0.008895622566342354
1772567171466644700,3.457644775390625,-0.017508000135421753,0.003087691031396389,0.011244293302297592
1772567171476673500,3.467673583984375,-0.015785999596118927,0.005614764057099819,-0.005248130299150944
1772567171486702600,3.47770263671875,-0.013199271634221077,0.012974676676094532,-0.018891770392656326
1772567171496732700,3.487732666015625,-0.011092443950474262,0.017358504235744476,-0.024905454367399216
1772567171506761500,3.497761474609375,-0.010292586870491505,0.009014180861413479,-0.03003770485520363
1772567171516790500,3.50779052734375,-0.0077500673942267895,-0.00045655202120542526,-0.032127752900123596
1772567171526819600,3.517819580078125,-0.013910427689552307,-0.007840221747756004,-0.03146173432469368
1772567171536848600,3.5278486328125,-0.01202917005866766,-0.019878508523106575,-0.023071181029081345
1772567171546877700,3.537877685546875,-0.008571784012019634,-0.022644545882940292,-0.011004537343978882
1772567171556906800,3.54790673828125,-0.0026417230255901814,-0.021616831421852112,0.0016401512548327446
1772567171566935600,3.557935546875,0.0015499070286750793,-0.015996847301721573,0.014810138382017612
1772567171576965600,3.567965576171875,0.008037634193897247,-0.007521337363868952,0.01663760095834732
1772567171586994700,3.57799462890625,0.005467883311212063,-0.001970176585018635,0.0056062983348965645
1772567171597023700,3.588023681640625,0.004474258050322533,0.007103480398654938,-0.002390908543020487
1772567171607052500,3.598052490234375,0.002362895756959915,0.015397637151181698,-0.0024977847933769226
1772567171617081600,3.60808154296875,0.00732835941016674,0.01779661327600479,-0.00832131877541542
1772567171627110700,3.618110595703125,0.011196998879313469,0.015094172209501266,-0.0145771699026227
1772567171637139500,3.628139404296875,0.016183236613869667,0.011873077601194382,-0.020186053588986397
1772567171647168500,3.63816845703125,0.01801282726228237,0.007669011130928993,-0.023726992309093475
1772567171657198600,3.648198486328125,0.021287716925144196,-0.001139925792813301,-0.029081545770168304
1772567171667227600,3.6582275390625,0.020376309752464294,-0.01489401888102293,-0.026171818375587463
1772567171677256700,3.668256591796875,0.020986441522836685,-0.02280387282371521,-0.01723398268222809
1772567171687285800,3.67828564453125,0.023138023912906647,-0.02577783912420273,0.0034131407737731934
1772567171697314800,3.688314697265625,0.024031512439250946,-0.030344363301992416,0.020672820508480072
1772567171707343600,3.698343505859375,0.026474174112081528,-0.03132547438144684,0.029126044362783432
1772567171717372700,3.70837255859375,0.029269959777593613,-0.03337051719427109,0.028384089469909668
1772567171727401700,3.718401611328125,0.030856987461447716,-0.03380705788731575,0.02541472017765045
1772567171737431800,3.728431884765625,0.032908156514167786,-0.032093316316604614,0.014570861123502254
1772567171747460600,3.738460693359375,0.03313751518726349,-0.029105570167303085,0.00879282783716917
1772567171757489700,3.74848974609375,0.03177903592586517,-0.030776171013712883,0.005578393116593361
1772567171767518700,3.758518798828125,0.03127669543027878,-0.03173990547657013,0.0037807123735547066
1772567171777544700,3.768544677734375,0.023485084995627403,-0.028586458414793015,0.012057018466293812
1772567171787573500,3.778573486328125,0.017871104180812836,-0.030140377581119537,0.005466606467962265
1772567171797602600,3.7886025390625,0.01783781498670578,-0.0348387286067009,-0.0036712316796183586
1772567171807631600,3.798631591796875,0.015291055664420128,-0.02329261228442192,-0.00016625970602035522
1772567171817661700,3.80866162109375,0.012105381116271019,-0.025909166783094406,0.00332434568554163
1772567171827690500,3.8186904296875,-0.006956619210541248,-0.05155390501022339,-0.016583647578954697
1772567171837719600,3.828719482421875,0.012253294698894024,-0.014415591023862362,0.006100893020629883
1772567171847748900,3.838748779296875,0.013860490173101425,-0.014771372079849243,0.004753079265356064
1772567171857777700,3.848777587890625,0.005658220499753952,0.005352005362510681,0.011760654859244823
1772567171867806700,3.858806640625,0.00144947599619627,0.017801892012357712,0.02210553176701069
1772567171877835800,3.868835693359375,-0.000905290711671114,0.0328998826444149,0.02127435989677906
1772567171887864600,3.878864501953125,-0.00986066646873951,0.05094755440950394,0.017894163727760315
1772567171897894700,3.888894775390625,-0.017106328159570694,0.05086793005466461,-0.007826912216842175
1772567171907923700,3.898923828125,-0.01536584459245205,0.048583902418613434,-0.03265643119812012
1772567171917952500,3.908952392578125,-0.018040724098682404,0.04854395613074303,-0.03826158493757248
1772567171927981600,3.918981689453125,-0.023887483403086662,0.047386862337589264,-0.03645636886358261
1772567171938010600,3.9290107421875,-0.025832390412688255,0.04194735735654831,-0.030833903700113297
1772567171948039700,3.939039794921875,-0.025155222043395042,0.04318632930517197,-0.013439510948956013
1772567171958068700,3.94906884765625,-0.02603086829185486,0.03769196197390556,0.008229564875364304
1772567171968097800,3.959097900390625,-0.029131580144166946,0.035513222217559814,0.02466694638133049
1772567171978127600,3.969127685546875,-0.030679941177368164,0.030578382313251495,0.022218436002731323
1772567171988156700,3.97915673828125,-0.028693431988358498,0.020632486790418625,0.016308754682540894
1772567171998185700,3.989185791015625,-0.032659679651260376,0.02224157005548477,0.008102756924927235
1772567172008213800,3.9992138671875,-0.03789520263671875,0.023012302815914154,-0.0011673416011035442
1772567172018242600,4.00924267578125,-0.042443037033081055,0.026943620294332504,-0.009732360951602459
1772567172028272600,4.019272705078125,-0.03226550295948982,0.02437819540500641,-0.011920414865016937
1772567172038301700,4.0293017578125,-0.01927468180656433,0.02299795299768448,-0.018599748611450195
1772567172048330500,4.03933056640625,-0.013827450573444366,0.020868223160505295,-0.020535334944725037
1772567172058359600,4.049359619140625,-0.013072549365460873,0.01672711968421936,-0.01577797159552574
1772567172068388600,4.059388671875,-0.010626168921589851,0.012011194601655006,-0.014044787734746933
1772567172078417700,4.069417724609375,-0.006235793698579073,0.008401653729379177,-0.01247548870742321
1772567172088446700,4.07944677734375,-0.007853131741285324,0.0059187887236475945,-0.014257144182920456
1772567172098475800,4.089475830078125,-0.0139507707208395,-0.0022179046645760536,-0.027043471112847328
1772567172108505600,4.099505615234375,-0.015715647488832474,-0.002796875312924385,-0.05099274218082428
1772567172118534700,4.10953466796875,-0.01788349822163582,0.005433661863207817,-0.07200603932142258
1772567172128563700,4.119563720703125,-0.02523035928606987,0.012528590857982635,-0.09474144876003265
1772567172138592800,4.1295927734375,-0.032562170177698135,0.00749881099909544,-0.11959991604089737
1772567172148621600,4.13962158203125,-0.035576604306697845,0.010947071947157383,-0.14061199128627777
1772567172158650600,4.149650634765625,-0.03967965766787529,0.003733302466571331,-0.1506197452545166
1772567172168679700,4.1596796875,-0.047042764723300934,0.00015454646199941635,-0.14945489168167114
1772567172178708500,4.16970849609375,-0.0463012158870697,0.01874353364109993,-0.1407560259103775
1772567172188738600,4.179738525390625,-0.04670122265815735,0.0074519990012049675,-0.10626304149627686
1772567172198767600,4.189767578125,-0.044488824903964996,0.025167249143123627,-0.07070697098970413
1772567172208796700,4.199796630859375,-0.03804264962673187,0.03170637786388397,-0.03943294286727905
1772567172218825500,4.209825439453125,-0.03018457069993019,0.034860461950302124,-0.013739312067627907
1772567172228854800,4.219854736328125,-0.02151411771774292,0.026481090113520622,-0.0029646949842572212
1772567172238883800,4.2298837890625,-0.01433412916958332,0.01478998176753521,0.006762700155377388
1772567172248912600,4.23991259765625,-0.008355598896741867,-0.0033677155151963234,0.008384565822780132
1772567172258942700,4.249942626953125,-0.003627256490290165,-0.0196445994079113,0.011829780414700508
1772567172268971800,4.2599716796875,0.0031696632504463196,-0.032062653452157974,0.010982362553477287
1772567172279000800,4.270000732421875,0.00868413969874382,-0.03376852720975876,0.0182458758354187
1772567172289029600,4.280029541015625,0.0120458472520113,-0.024659717455506325,0.0204072967171669
1772567172299058700,4.29005859375,0.009698229841887951,-0.01876557432115078,0.018391042947769165
1772567172309087700,4.300087646484375,0.006410823203623295,-0.008665002882480621,0.01528766006231308
1772567172319116500,4.310116455078125,0.0014736102893948555,0.010633043013513088,0.014525717124342918
1772567172329145600,4.3201455078125,-0.0010510659776628017,0.0249379463493824,0.007278457283973694
1772567172339175700,4.33017578125,-0.006385868415236473,0.03905799239873886,-0.0064267260022461414
1772567172349204500,4.34020458984375,-0.012923928909003735,0.0513325035572052,-0.01921708881855011
1772567172359233500,4.350233642578125,-0.02688157744705677,0.06346401572227478,-0.02262272872030735
1772567172369262600,4.3602626953125,-0.03366225212812424,0.0633002296090126,-0.019763825461268425
1772567172379291600,4.370291748046875,-0.02980823814868927,0.05693164840340614,-0.0079615144059062
1772567172389320700,4.38032080078125,-0.025570083409547806,0.046769291162490845,0.0007970891892910004
1772567172399349800,4.390349853515625,-0.016962438821792603,0.03484388440847397,0.006519397720694542
1772567172409378800,4.40037890625,-0.012858773581683636,0.026031218469142914,0.01117407064884901
1772567172419408600,4.41040869140625,-0.008527183905243874,0.009976387023925781,0.012042553164064884
1772567172429437700,4.420437744140625,-0.0032693054527044296,0.004765380173921585,0.016246885061264038
1772567172439466800,4.430466796875,0.0027172211557626724,-0.0005106143653392792,0.01665656268596649
1772567172449495600,4.44049560546875,0.00595003180205822,-0.0021612411364912987,0.02116210013628006
1772567172459524600,4.450524658203125,0.00848324503749609,-0.006777044385671616,0.013181040994822979
1772567172469553700,4.4605537109375,0.008233972825109959,-0.0105632608756423,-0.0014064228162169456
1772567172479582500,4.47058251953125,0.005490701645612717,-0.014442997053265572,-0.015426309779286385
1772567172489612500,4.480612548828125,0.004882168956100941,-0.00884183682501316,-0.019527312368154526
1772567172499641600,4.4906416015625,0.004587594419717789,-0.0016515441238880157,-0.012989056296646595
1772567172509670700,4.500670654296875,0.005488541908562183,-0.003235326148569584,-0.009257701225578785
1772567172519699500,4.510699462890625,0.012037787586450577,-0.005608202423900366,0.0002774810418486595
1772567172529728800,4.520728759765625,0.014082029461860657,-0.010004814714193344,0.006746564991772175
1772567172539757800,4.5307578125,0.012791336514055729,-0.015554154291749,0.012428516522049904
1772567172549786600,4.54078662109375,0.011966555379331112,-0.020590193569660187,0.015704205259680748
1772567172559815700,4.550815673828125,0.009087271988391876,-0.015378275886178017,0.021941229701042175
1772567172569845800,4.560845703125,0.0036040889099240303,-0.016754863783717155,0.01998593658208847
1772567172579874800,4.570874755859375,-0.0011108717881143093,-0.012435920536518097,0.011712713167071342
1772567172589903600,4.580903564453125,-0.005758088082075119,-0.007870730012655258,0.0000898800790309906
1772567172599932700,4.5909326171875,-0.01056953426450491,-0.010227976366877556,-0.019938211888074875
1772567172609961700,4.600961669921875,-0.012856123968958855,-0.009201860055327415,-0.025529250502586365
1772567172619990500,4.610990478515625,-0.00912723783403635,-0.004348980262875557,-0.019914818927645683
1772567172630019600,4.62101953125,-0.012765382416546345,0.001023947261273861,-0.002378169447183609
1772567172640048600,4.631048583984375,-0.013837995007634163,0.0007098615169525146,0.0025416873395442963
1772567172650079700,4.641079833984375,-0.016740309074521065,-0.0025589028373360634,-0.00381581112742424
1772567172660109800,4.65110986328125,-0.013444935902953148,0.002341599203646183,0.002161933109164238
1772567172670138600,4.661138671875,-0.010172709822654724,0.012743639759719372,0.01925543323159218
1772567172680167700,4.671167724609375,-0.014743954874575138,0.018357522785663605,0.022470980882644653
1772567172690196700,4.68119677734375,-0.018259592354297638,0.017502915114164352,0.008360753767192364
1772567172700225500,4.6912255859375,-0.015179969370365143,0.022749390453100204,-0.02261328510940075
1772567172710254600,4.701254638671875,-0.021144919097423553,0.01737353205680847,-0.0425848662853241
1772567172720283600,4.71128369140625,-0.021976962685585022,0.00763282086700201,-0.04458387568593025
1772567172730313500,4.7213134765625,-0.01702880859375,0.0024809353053569794,-0.020778678357601166
1772567172740342500,4.731342529296875,-0.012981012463569641,-0.0032880567014217377,0.00900252815335989
1772567172750371600,4.74137158203125,-0.00809997133910656,-0.010838651098310947,0.027412693947553635
1772567172760401000,4.75140087890625,-0.010446223430335522,-0.018671801313757896,0.020335525274276733
1772567172770429000,4.761428955078125,-0.015169605612754822,-0.014818739145994186,0.015303216874599457
1772567172780457700,4.771457763671875,-0.02259872481226921,-0.01443580724298954,0.0072427839040756226
1772567172790486800,4.78148681640625,-0.0260310061275959,-0.010238132439553738,0.002027248963713646
1772567172800515800,4.791515869140625,-0.027669411152601242,-0.00799945555627346,-0.003106864634901285
1772567172810545700,4.801545654296875,-0.02904253639280796,-0.004199656657874584,-0.001838933676481247
1772567172820574700,4.81157470703125,-0.02815244346857071,0.003765271045267582,-0.0017452286556363106
1772567172830603800,4.821603759765625,-0.03128831833600998,0.012043708004057407,0.003830364905297756
1772567172840632600,4.831632568359375,-0.02792503871023655,0.018008679151535034,0.008776583708822727
1772567172850661600,4.84166162109375,-0.022253040224313736,0.023604778572916985,0.007814648561179638
1772567172860691000,4.85169091796875,-0.022565077990293503,0.02287900447845459,-0.0027110110968351364
1772567172870719700,4.8617197265625,-0.014681054279208183,0.020785756409168243,-0.014539174735546112
1772567172880749800,4.871749755859375,-0.002947819884866476,0.017014551907777786,-0.02310560643672943
1772567172890779000,4.88177880859375,0.007860086858272552,0.009332929737865925,-0.021100511774420738
1772567172900808000,4.891807861328125,0.018134713172912598,0.006349234841763973,-0.010338960215449333
1772567172910836700,4.901836669921875,0.02296249195933342,0.00018028821796178818,-0.0048642996698617935
1772567172920865800,4.91186572265625,0.023789849132299423,0.0035748546943068504,0.00508551299571991
1772567172930894800,4.921894775390625,0.02166970819234848,0.0025769686326384544,0.005277793854475021
1772567172940923600,4.931923583984375,0.022118549793958664,0.008865639567375183,0.003557848744094372
1772567172950952700,4.94195263671875,0.02546800673007965,0.011742118746042252,-0.00046059535816311836
1772567172960982800,4.951982666015625,0.02975892275571823,0.00992155447602272,-0.004009719472378492
1772567172971011800,4.96201171875,0.032426610589027405,0.008571332320570946,-0.007673430256545544
1772567172981040600,4.97204052734375,0.03361443057656288,0.0041698794811964035,-0.011433224193751812
1772567172991069700,4.982069580078125,0.03407808765769005,-0.0019511301070451736,-0.01187903806567192
1772567173001098800,4.9920986328125,0.03703765571117401,-0.012498313561081886,-0.01009312178939581
1772567173011127800,5.0021279296875,0.04045822098851204,-0.015159344300627708,-0.004344156011939049
1772567173021156900,5.012156982421875,0.03921988978981972,-0.013933257199823856,0.0035253744572401047
1772567173031186000,5.02218603515625,0.03199819475412369,-0.011015498079359531,0.00849030539393425
1772567173041216000,5.032216064453125,0.021573761478066444,-0.0068779923021793365,0.006948348134756088
1772567173051244800,5.042244873046875,0.011127511039376259,0.0010931147262454033,0.0031818393617868423
1772567173061273900,5.05227392578125,0.0027361083775758743,0.0011932961642742157,-0.008620548993349075
1772567173071303000,5.062302978515625,-0.001550782471895218,0.013032645918428898,-0.019643373787403107
1772567173081331700,5.072331787109375,-0.004287094809114933,0.01824197918176651,-0.023975590243935585
1772567173091360800,5.08236083984375,-0.006934809498488903,0.02323833480477333,-0.02953174151480198
1772567173101389800,5.092389892578125,-0.007504495792090893,0.02751113846898079,-0.032375358045101166
1772567173111419600,5.102419677734375,-0.0038807326927781105,0.02620299533009529,-0.035493917763233185
1772567173121448700,5.11244873046875,0.00008752569556236267,0.019967887550592422,-0.02923530712723732
1772567173131477800,5.122477783203125,0.0012473324313759804,0.01796705275774002,-0.015587138943374157
1772567173141506600,5.132506591796875,0.003393152728676796,0.016990860924124718,-0.0013440214097499847
1772567173151535900,5.142535888671875,0.0038418956100940704,0.014745283871889114,0.00960503239184618
1772567173161565000,5.15256494140625,0.004752185195684433,0.02213234081864357,0.010069476440548897
1772567173171593700,5.16259375,0.005412649363279343,0.024633582681417465,-0.0065118977800011635
1772567173181622800,5.172622802734375,0.005229366011917591,0.02941853553056717,-0.028018664568662643
1772567173191652900,5.18265283203125,0.004059173166751862,0.029207613319158554,-0.03980395197868347
1772567173201682000,5.192681884765625,0.005529352463781834,0.024160291999578476,-0.0431552529335022
1772567173211710700,5.202710693359375,0.012154498137533665,0.016336724162101746,-0.03054065816104412
1772567173221739800,5.21273974609375,0.016614604741334915,0.011153331957757473,-0.014855144545435905
1772567173231768800,5.222768798828125,0.02145250141620636,0.002183806151151657,0.01448356918990612
1772567173241797600,5.232797607421875,0.021394796669483185,-0.007256427314132452,0.03166807442903519
1772567173251826700,5.24282666015625,0.02154526486992836,-0.01574898138642311,0.03362789750099182
1772567173261856800,5.252856689453125,0.016803478822112083,-0.021060897037386894,0.026117175817489624
1772567173271885800,5.2628857421875,0.015107311308383942,-0.021954920142889023,0.01743500679731369
1772567173281914600,5.27291455078125,0.012714258395135403,-0.015923714265227318,0.003639260306954384
1772567173291943700,5.282943603515625,0.015031476505100727,-0.012469861656427383,-0.0020676273852586746
1772567173301973000,5.292972900390625,0.014593995176255703,-0.0050133392214775085,-0.006409778725355864
1772567173312001800,5.303001708984375,0.014580945484340191,0.0027724122628569603,-0.012407749891281128
1772567173322030800,5.31303076171875,0.01394917443394661,0.010185377672314644,-0.005525657441467047
1772567173332060000,5.323059814453125,0.01570073515176773,0.008461778983473778,-0.004477703478187323
1772567173342090000,5.333090087890625,0.016970552504062653,0.01697828248143196,0.0008366219699382782
1772567173352118800,5.343118896484375,0.013682878576219082,0.018391888588666916,-0.005223400890827179
1772567173362147800,5.35314794921875,0.011618711985647678,0.023277154192328453,-0.009843925014138222
1772567173372177000,5.363177001953125,0.01730988547205925,0.02621435560286045,-0.016911953687667847
1772567173382205700,5.373205810546875,0.016430988907814026,0.024196520447731018,-0.02079205960035324
1772567173392234800,5.38323486328125,0.016916215419769287,0.021635890007019043,-0.019322261214256287
1772567173402263800,5.393263916015625,0.024669727310538292,0.017823589965701103,-0.01993335783481598
1772567173412293600,5.403293701171875,0.02732170559465885,0.007350709289312363,-0.02361810952425003
1772567173422322700,5.41332275390625,0.027859512716531754,-0.006574820261448622,-0.024675821885466576
1772567173432351700,5.423351806640625,0.028567645698785782,-0.02137880027294159,-0.02007121592760086
1772567173442380500,5.433380615234375,0.027940889820456505,-0.02978813834488392,-0.008497478440403938
1772567173452409900,5.443409912109375,0.02392963506281376,-0.034146666526794434,0.0147532494738698
1772567173462439000,5.45343896484375,0.017419202253222466,-0.03519695624709129,0.03216974064707756
1772567173472468000,5.463468017578125,0.014299042522907257,-0.02723783254623413,0.03151833266019821
1772567173482496800,5.473496826171875,0.013338888064026833,-0.024541528895497322,0.01071831863373518
1772567173492526800,5.48352685546875,0.008416036143898964,-0.016930481418967247,-0.0006347363814711571
1772567173502556000,5.493555908203125,-0.003807222004979849,-0.003453172743320465,-0.013794396072626114
1772567173512584700,5.503584716796875,-0.011633985675871372,0.004182909615337849,-0.014747807756066322
1772567173522613800,5.51361376953125,-0.017987677827477455,0.010304919444024563,-0.012607026845216751
1772567173532642800,5.523642822265625,-0.021313166245818138,0.009062820114195347,-0.012601966969668865
1772567173542671600,5.533671630859375,-0.022482912987470627,0.005205568857491016,-0.01633673533797264
1772567173552700700,5.54370068359375,-0.017239414155483246,0.0033203167840838432,-0.009660189971327782
1772567173562729700,5.553729736328125,-0.013445060700178146,-0.000936863012611866,0.002313830889761448
1772567173572759800,5.563759765625,-0.013870634138584137,0.0010858085006475449,0.014908451586961746
1772567173582788600,5.57378857421875,-0.012991664931178093,0.007874050177633762,0.01915236935019493
1772567173592817700,5.583817626953125,-0.016544856131076813,0.007959538139402866,0.014550958760082722
1772567173602847000,5.593846923828125,-0.016466017812490463,0.005293173715472221,0.0005500065162777901
1772567173612875800,5.603875732421875,-0.017997069284319878,0.003354925662279129,-0.01295435056090355
1772567173622904800,5.61390478515625,-0.01708180457353592,0.008668257854878902,-0.01840340532362461
1772567173632934000,5.623933837890625,-0.020263750106096268,0.00907785166054964,-0.015560479834675789
1772567173642964000,5.6339638671875,-0.028982343152165413,0.012823794037103653,-0.0035414076410233974
1772567173652992800,5.64399267578125,-0.023407548666000366,0.017730403691530228,0.006500307470560074
1772567173663021800,5.654021728515625,-0.026324745267629623,0.02080473117530346,0.006147776730358601
1772567173673051000,5.66405078125,-0.02738974429666996,0.025063393637537956,-0.0009761792607605457
1772567173683079700,5.67407958984375,-0.0236198790371418,0.010539142414927483,-0.009573329240083694
1772567173693108700,5.684108642578125,-0.014197349548339844,0.00318056158721447,-0.0195990651845932
1772567173703137800,5.6941376953125,-0.00797207560390234,-0.006952354218810797,-0.01350441575050354
1772567173713166600,5.70416650390625,-0.003586115315556526,-0.007740649860352278,0.006836275570094585
1772567173723196700,5.71419677734375,-0.0035361475311219692,-0.014469040557742119,0.018547940999269485
1772567173733225700,5.724225830078125,-0.002738797105848789,-0.02415602281689644,0.020117342472076416
1772567173743254800,5.7342548828125,0.001610741950571537,-0.031179100275039673,0.020087741315364838
1772567173753283800,5.744283935546875,0.006384991109371185,-0.024990180507302284,0.03946623206138611
1772567173763313000,5.75431298828125,-0.005080197937786579,-0.004353600554168224,0.05933431535959244
1772567173773342200,5.76434228515625,-0.021152108907699585,0.008297213353216648,0.053769372403621674
1772567173783371300,5.774371337890625,-0.022020623087882996,0.013744227588176727,0.01896384358406067
1772567173793401300,5.7844013671875,-0.014396258629858494,0.018528863787651062,-0.013996504247188568
1772567173803430100,5.79443017578125,-0.013536161743104458,0.03185838460922241,-0.038453564047813416
1772567173813459200,5.804459228515625,-0.011750245466828346,0.04099702090024948,-0.04136865958571434
1772567173823488300,5.81448828125,-0.0037235417403280735,0.04422375559806824,-0.03339006006717682
1772567173833517000,5.82451708984375,-0.0017275027930736542,0.035487253218889236,-0.02279200777411461
1772567173843546000,5.834546142578125,0.0017287619411945343,0.0209256112575531,-0.015351766720414162
1772567173853575200,5.8445751953125,0.0058446768671274185,0.004695774056017399,-0.009622241370379925
1772567173863604000,5.85460400390625,0.011312393471598625,-0.012589988298714161,0.003215538337826729
1772567173873634000,5.864634033203125,0.014811785891652107,-0.023942777886986732,0.020397454500198364
1772567173883663000,5.8746630859375,0.015691351145505905,-0.03218572586774826,0.030574597418308258
1772567173893692200,5.884692138671875,0.018031736835837364,-0.03897572308778763,0.03444257006049156
1772567173903721200,5.89472119140625,0.01970609277486801,-0.04272361472249031,0.03081408515572548
1772567173913750300,5.904750244140625,0.016169682145118713,-0.048456333577632904,0.022723134607076645
1772567173923779300,5.914779296875,0.015764636918902397,-0.048445701599121094,0.012892329134047031
1772567173933808000,5.92480810546875,0.013547556474804878,-0.04648907482624054,0.013386878184974194
1772567173943838200,5.934838134765625,0.015795277431607246,-0.047574058175086975,0.011474630795419216
1772567173953867300,5.9448671875,0.015261579304933548,-0.04266957938671112,0.02103165164589882
1772567173963896300,5.954896240234375,0.01533307135105133,-0.0404488630592823,0.02390052005648613
1772567173973925000,5.964925048828125,0.007036525756120682,-0.03922407329082489,0.0251719132065773
1772567173983954200,5.9749541015625,0.005355333909392357,-0.04363703355193138,0.019626621156930923
1772567173993983200,5.984983154296875,-0.0010418458841741085,-0.04705306887626648,0.007830946706235409
1772567174004012000,5.995011962890625,-0.0008724108338356018,-0.04331537336111069,0.00021391548216342926
1772567174014041000,6.005041015625,0.0010133730247616768,-0.0374247282743454,0.007085936143994331
1772567174024071200,6.0150712890625,0.006536068394780159,-0.031585559248924255,0.009285294450819492
1772567174034100000,6.025099853515625,0.01258890051394701,-0.027320776134729385,0.010641642846167088
1772567174044129000,6.03512890625,0.01621130481362343,-0.027005434036254883,0.00788146909326315
1772567174054158300,6.045158447265625,0.01429569348692894,-0.029655545949935913,0.0015191780403256416
1772567174064187100,6.055187255859375,0.012576363049447536,-0.03470037877559662,-0.0006315060891211033
1772567174074216200,6.06521630859375,0.013271181844174862,-0.03601544722914696,0.002509426325559616
1772567174084245200,6.075245361328125,0.01138222310692072,-0.026656849309802055,0.018682260066270828
1772567174094275300,6.085275390625,0.013595576398074627,-0.018405577167868614,0.026493575423955917
1772567174104304000,6.09530419921875,0.011770435608923435,-0.01738206297159195,0.01786639913916588
1772567174114333200,6.105333251953125,0.010987731628119946,-0.013821149244904518,0.0052123898640275
1772567174124362200,6.1153623046875,0.011476092040538788,-0.0075940899550914764,-0.001604731660336256
1772567174134391000,6.12539111328125,0.009615341201424599,-0.0034981481730937958,-0.0008728951215744019
1772567174144420000,6.135420166015625,0.01067245565354824,-0.008410174399614334,-0.0033952384255826473
1772567174154449200,6.14544921875,0.011205621063709259,-0.019258826971054077,-0.008831016719341278
1772567174164479200,6.155479248046875,0.01138804666697979,-0.020266301929950714,-0.007311416789889336
1772567174174508000,6.165508056640625,0.008226342499256134,-0.019772816449403763,0.001875690184533596
1772567174184537000,6.175537109375,0.004172029905021191,-0.018969137221574783,0.009174834936857224
1772567174194566100,6.185566162109375,0.000051320530474185944,-0.02339104935526848,0.012257443740963936
1772567174204595200,6.19559521484375,-0.0007561994716525078,-0.03431450203061104,0.008092996664345264
1772567174214624300,6.205624267578125,0.006022877059876919,-0.0343717597424984,0.011910905130207539
1772567174224653300,6.2156533203125,0.002623513340950012,-0.033302947878837585,0.009886697866022587
1772567174234682000,6.22568212890625,0.0073306504637002945,-0.03650060296058655,0.005021635442972183
1772567174244712200,6.235712158203125,0.010111944749951363,-0.03475848585367203,-0.0021870085038244724
1772567174254741200,6.2457412109375,0.014323467388749123,-0.030217528343200684,0.00022981036454439163
1772567174264770300,6.255770263671875,0.01931064948439598,-0.027845628559589386,0.003873170353472233
1772567174274799000,6.265799072265625,0.01882355660200119,-0.020750433206558228,0.006544853560626507
1772567174284828200,6.275828125,0.024040289223194122,-0.015191184356808662,0.009355035610496998
1772567174294857200,6.285857177734375,0.02877592295408249,-0.012072622776031494,0.0023131053894758224
1772567174304886000,6.295885986328125,0.03235432133078575,-0.009718856774270535,-0.0003333166241645813
1772567174314916000,6.305916015625,0.03794030472636223,-0.008345996960997581,-0.004406088963150978
1772567174324945200,6.315945068359375,0.035808637738227844,-0.018073933199048042,-0.00901766587048769
1772567174334974000,6.325973876953125,0.02983623370528221,-0.024569915607571602,-0.025513818487524986
1772567174345003000,6.3360029296875,0.024030836299061775,-0.03599942848086357,-0.04448238015174866
1772567174355032300,6.3460322265625,0.01652791164815426,-0.04887687414884567,-0.06691444665193558
1772567174365061000,6.35606103515625,0.0131768137216568,-0.06496366113424301,-0.09403952211141586
1772567174375090200,6.366090087890625,0.016761695966124535,-0.06578977406024933,-0.10455154627561569
1772567174385119200,6.376119140625,0.00825319904834032,-0.060307957231998444,-0.09681037813425064
1772567174395149300,6.3861494140625,0.006858500652015209,-0.06112608313560486,-0.07594744116067886
1772567174405178000,6.39617822265625,0.004481558687984943,-0.06665819883346558,-0.06270012259483337
1772567174415207200,6.406207275390625,0.01156237069517374,-0.07908265292644501,-0.05097529664635658
1772567174425236200,6.416236328125,0.014603917486965656,-0.0954199880361557,-0.04104147478938103
1772567174435265000,6.42626513671875,0.024301551282405853,-0.1115528792142868,-0.03201096132397652
1772567174445294000,6.436294189453125,0.03754541277885437,-0.12640583515167236,-0.03504481166601181
1772567174455323100,6.4463232421875,0.04897836223244667,-0.12922851741313934,-0.05909475311636925
1772567174465353200,6.456353271484375,0.04965175688266754,-0.14309097826480865,-0.06307841837406158
1772567174475382000,6.466382080078125,0.05873074010014534,-0.1228908970952034,-0.08313601464033127
1772567174485411000,6.4764111328125,0.05763544887304306,-0.11781337112188339,-0.07127771526575089
1772567174495440100,6.486440185546875,0.05978861451148987,-0.09755737334489822,-0.08663856238126755
1772567174505469200,6.49646923828125,0.05691394954919815,-0.07332789152860641,-0.07651221007108688
1772567174515498200,6.506498291015625,0.06094171106815338,-0.055345162749290466,-0.07711781561374664
1772567174525527300,6.51652734375,0.06417898833751678,-0.008711818605661392,-0.06621141731739044
1772567174535557400,6.526557373046875,0.0669390857219696,-0.013766498304903507,-0.04354365915060043
1772567174545586200,6.536586181640625,0.07233570516109467,-0.006686414126306772,-0.02476922981441021
1772567174555615200,6.546615234375,0.08303788304328918,-0.0066432710736989975,-0.016691861674189568
1772567174565644300,6.556644287109375,0.08759023994207382,-0.00502057233825326,0.0018678251653909683
1772567174575673000,6.566673095703125,0.08860117197036743,-0.0038016438484191895,0.015289091505110264
1772567174585702100,6.5767021484375,0.08331756293773651,-0.0058428337797522545,0.018787866458296776
1772567174595731200,6.586731201171875,0.08161847293376923,0.002346120774745941,0.026127273216843605
1772567174605760000,6.596760009765625,0.07430294156074524,0.007928771898150444,0.03088180162012577
1772567174615790000,6.6067900390625,0.06906157732009888,0.02065095864236355,0.03742066025733948
1772567174625819100,6.616819091796875,0.06142202764749527,0.02793843485414982,0.03951098024845123
1772567174635848000,6.626847900390625,0.05112225562334061,0.035252004861831665,0.03704409301280975
1772567174645877200,6.636877197265625,0.04151852801442146,0.03920607268810272,0.03321239352226257
1772567174655906300,6.64690625,0.02079247497022152,0.03511359542608261,0.028576895594596863
1772567174665935000,6.65693505859375,0.011084740981459618,0.018980149179697037,0.013678627088665962
1772567174675964200,6.666964111328125,0.0008707195520401001,0.01407008059322834,0.00036868080496788025
1772567174685994200,6.676994140625,-0.01494578830897808,0.014435727149248123,-0.008820738643407822
1772567174696023300,6.687023193359375,-0.031209979206323624,0.0194773580878973,-0.00997974630445242
1772567174706052000,6.697052001953125,-0.03584524989128113,0.02436668425798416,-0.012888427823781967
1772567174716081200,6.7070810546875,-0.040346261113882065,0.03730059415102005,-0.022077132016420364
1772567174726110200,6.717110107421875,-0.0455930121243,0.05166333541274071,-0.039355598390102386
1772567174736139000,6.727138916015625,-0.0533774308860302,0.05727807804942131,-0.05638810992240906
1772567174746168000,6.73716796875,-0.04872046783566475,0.052725814282894135,-0.07021169364452362
1772567174756198100,6.7471982421875,-0.048942308872938156,0.0490913987159729,-0.0641077309846878
1772567174766227200,6.757227294921875,-0.0470031201839447,0.05931110307574272,-0.02333466336131096
1772567174776256000,6.767256103515625,-0.04609870910644531,0.04695510491728783,0.0032567335292696953
1772567174786285000,6.77728515625,-0.03207587078213692,0.036256950348615646,0.025630859658122063
1772567174796314000,6.787314208984375,-0.02486642636358738,0.01611652784049511,0.03647179156541824
1772567174806343200,6.79734326171875,-0.011794798076152802,0.0004760175943374634,0.029924029484391212
1772567174816372200,6.807372314453125,-0.00448974734172225,0.0015881536528468132,0.03081139735877514
1772567174826401300,6.8174013671875,-0.003260007593780756,-0.0010189292952418327,0.026838049292564392
1772567174836431400,6.827431396484375,0.002556868828833103,0.0009877625852823257,0.02725350484251976
1772567174846460200,6.837460205078125,0.002922452986240387,0.0063612693920731544,0.026955440640449524
1772567174856489200,6.8474892578125,0.0013242904096841812,0.004798791371285915,0.024794019758701324
1772567174866518300,6.857518310546875,0.0038147522136569023,0.0064143650233745575,0.015850400552153587
1772567174876547000,6.867547119140625,0.008491529151797295,0.0035064592957496643,0.010898251086473465
1772567174886576000,6.877576171875,0.012548092752695084,0.002556213177740574,-0.003921284340322018
1772567174896605200,6.887605224609375,0.023881440982222557,0.0051999324932694435,-0.0036440491676330566
1772567174906635300,6.89763525390625,0.029681865125894547,0.004972450435161591,0.0032700132578611374
1772567174916664000,6.9076640625,0.03338685631752014,-0.0028644343838095665,0.001980510540306568
1772567174926693000,6.917693115234375,0.040128789842128754,-0.0035088127478957176,0.00928323995321989
1772567174936722200,6.92772216796875,0.03911998122930527,-0.013561713509261608,0.006834728643298149
1772567174946751200,6.937751220703125,0.037003614008426666,-0.016088826581835747,0.006030428223311901
1772567174956780300,6.9477802734375,0.03595832362771034,-0.013233917765319347,0.007906890474259853
1772567174966809300,6.957809326171875,0.027553483843803406,-0.00829942338168621,-0.002043356653302908
1772567174976839400,6.96783935546875,0.019734442234039307,0.002597966231405735,0.004314940422773361
1772567174986868200,6.9778681640625,0.01085704006254673,0.010764829814434052,-0.0018348190933465958
1772567174996897300,6.987897216796875,0.016719190403819084,0.010509166866540909,-0.010257598012685776
1772567175006926300,6.99792626953125,0.01720474660396576,0.015308670699596405,-0.018337398767471313
1772567175016955100,7.007955078125,0.015962647274136543,0.02003844454884529,-0.014716830104589462
1772567175026984200,7.017984130859375,0.014250924810767174,0.01590557023882866,-0.007164131850004196
1772567175037013200,7.02801318359375,0.013283664360642433,0.01364827249199152,-0.005573691800236702
1772567175047042000,7.0380419921875,0.004427083767950535,0.006426290608942509,-0.0000033508986234664917
1772567175057072000,7.048072021484375,-0.00020441971719264984,0.007921389304101467,-0.006687885150313377
1772567175067101200,7.05810107421875,-0.00558980880305171,0.002868266776204109,-0.012788241729140282
1772567175077130000,7.0681298828125,-0.004417219199240208,0.014119056053459644,-0.005594777874648571
1772567175087159000,7.078158935546875,-0.005276243202388287,0.017718445509672165,-0.00459076464176178
1772567175097188400,7.088188232421875,0.0027934014797210693,0.014830512925982475,-0.0025776810944080353
1772567175107217400,7.098217529296875,0.005556522868573666,0.011175245977938175,-0.005498070269823074
1772567175117246200,7.10824609375,0.00753604993224144,0.00632722582668066,-0.013192208483815193
1772567175127276300,7.1182763671875,0.01183286402374506,-0.005312436260282993,-0.031022287905216217
1772567175137305300,7.128305419921875,0.016948264092206955,-0.009636344388127327,-0.03732173144817352
1772567175147334100,7.138334228515625,0.018461324274539948,-0.023409299552440643,-0.043377138674259186
1772567175157363200,7.14836328125,0.022062717005610466,-0.035145848989486694,-0.03733309358358383
1772567175167392300,7.158392333984375,0.025361113250255585,-0.03441114351153374,-0.0290820449590683
1772567175177421000,7.168421142578125,0.03611788526177406,-0.02371775172650814,-0.004429961554706097
1772567175187450000,7.1784501953125,0.033821191638708115,-0.021059928461909294,0.010506014339625835
1772567175197480200,7.188480224609375,0.03289148211479187,-0.0044239601120352745,0.018098685890436172
1772567175207509200,7.19850927734375,0.03220541030168533,0.010692976415157318,0.010921758599579334
1772567175217538000,7.2085380859375,0.028140893206000328,0.02166599966585636,-0.008584564551711082
1772567175227567000,7.218567138671875,0.02561410516500473,0.03051247075200081,-0.02243487909436226
1772567175237596200,7.22859619140625,0.01785898208618164,0.03720978647470474,-0.03217725455760956
1772567175247625200,7.238625244140625,0.012929708696901798,0.038240186870098114,-0.03734945133328438
1772567175257654300,7.248654296875,0.0035577788949012756,0.03672458231449127,-0.04182063415646553
1772567175267684000,7.25868408203125,-0.004585782997310162,0.029765918850898743,-0.04459287226200104
1772567175277713400,7.26871337890625,-0.010721173137426376,0.019607290625572205,-0.04400964081287384
1772567175287742200,7.2787421875,-0.018606575205922127,0.007166899740695953,-0.046175919473171234
1772567175297771300,7.288771240234375,-0.017405755817890167,0.004762064665555954,-0.04018460214138031
1772567175307800300,7.29880029296875,-0.01995045505464077,0.001482420600950718,-0.03378508985042572
1772567175317829000,7.3088291015625,-0.014569004997611046,0.0009079771116375923,-0.02101816236972809
1772567175327858200,7.318858154296875,-0.00878567062318325,0.003052077256143093,-0.009573857299983501
1772567175337888300,7.32888818359375,-0.0055608488619327545,-0.0008036475628614426,-0.0016589420847594738
1772567175347917000,7.3389169921875,-0.00482255220413208,-0.005206171423196793,-0.007474703248590231
1772567175357946000,7.348946044921875,0.0033541517332196236,-0.014099265448749065,-0.018051447346806526
1772567175367975200,7.35897509765625,0.01077013835310936,-0.022610634565353394,-0.02340184710919857
1772567175378004200,7.369004150390625,0.01636437326669693,-0.028589431196451187,-0.014509020373225212
1772567175388033000,7.379032958984375,0.014858411625027657,-0.020189069211483,-0.004243189003318548
1772567175398062300,7.389062255859375,0.010587234050035477,-0.016852661967277527,-0.004777685739099979
1772567175408091400,7.39909130859375,0.00802342314273119,-0.01439856830984354,-0.0138096259906888
1772567175418121200,7.409121337890625,0.004578624852001667,-0.0038268836215138435,-0.020430244505405426
1772567175428150300,7.419150390625,-0.001844107173383236,-0.001414070837199688,-0.02755536139011383
1772567175438179300,7.429179443359375,-0.000497080385684967,0.0002882210537791252,-0.03081480599939823
1772567175448208100,7.4392080078125,0.0030595436692237854,0.0003737304359674454,-0.03314301371574402
1772567175458237200,7.4492373046875,0.00438206922262907,0.002229420468211174,-0.02701454609632492
1772567175468266200,7.459266357421875,0.005559886805713177,0.0004822053015232086,-0.023357879370450974
1772567175478295000,7.469294921875,0.01042201928794384,-0.005738938692957163,-0.024675078690052032
1772567175488325000,7.4793251953125,0.006267089396715164,-0.0076964739710092545,-0.018558319658041
1772567175498354200,7.489354248046875,0.004494222812354565,-0.013592712581157684,-0.007850549183785915
1772567175508383200,7.49938330078125,0.004069251008331776,-0.011377542279660702,-0.001898865681141615
1772567175518412000,7.509412109375,-0.000992086250334978,-0.008282151073217392,-0.007261939346790314
1772567175528441000,7.519441162109375,-0.004705189727246761,-0.008448773063719273,-0.0198287945240736
1772567175538470100,7.52947021484375,-0.0033459123224020004,-0.000017471611499786377,-0.030434833839535713
1772567175548499200,7.539499267578125,-0.007721054367721081,0.0007163789123296738,-0.031450122594833374
1772567175558529000,7.549529052734375,-0.0009004329331219196,-0.0033470718190073967,-0.035357244312763214
1772567175568558300,7.559558349609375,0.005463914945721626,-0.009151382371783257,-0.03345135599374771
1772567175578587400,7.56958740234375,0.007954503409564495,-0.013465438038110733,-0.028798814862966537
1772567175588616200,7.5796162109375,0.009760301560163498,-0.01731124147772789,-0.017271893098950386
1772567175598645200,7.589645263671875,0.010423162952065468,-0.020043110474944115,-0.011646497994661331
1772567175608674300,7.59967431640625,0.003261445090174675,-0.026099182665348053,-0.010887350887060165
1772567175618703000,7.609703125,-0.0029578343965113163,-0.027979640290141106,-0.019143950194120407
1772567175628733200,7.619733154296875,-0.009186092764139175,-0.027797266840934753,-0.02338809333741665
1772567175638762200,7.62976220703125,-0.01830821856856346,-0.02982206828892231,-0.02225758135318756
1772567175648791300,7.639791259765625,-0.02149837650358677,-0.024902233853936195,-0.014377868734300137
1772567175658820000,7.649820068359375,-0.020877592265605927,-0.023135492578148842,-0.008395875804126263
1772567175668849200,7.65984912109375,-0.022016506642103195,-0.017709936946630478,-0.0010936493054032326
1772567175678878200,7.669878173828125,-0.023958217352628708,-0.011562563478946686,-0.0006286613643169403
1772567175688907300,7.6799072265625,-0.029818100854754448,-0.0022224802523851395,-0.007182623725384474
1772567175698937000,7.68993701171875,-0.030937425792217255,0.005182705819606781,-0.018446728587150574
1772567175708966100,7.699966064453125,-0.027040794491767883,0.005684574134647846,-0.03194434940814972
1772567175718995200,7.7099951171875,-0.029045619070529938,0.002236313186585903,-0.038168955594301224
1772567175729024300,7.720024169921875,-0.022764582186937332,0.01114194467663765,-0.03242379054427147
1772567175739053300,7.73005322265625,-0.02286871150135994,0.007723512127995491,-0.028191493824124336
1772567175749082000,7.74008203125,-0.025843728333711624,0.0047247931361198425,-0.029146770015358925
1772567175759111200,7.750111083984375,-0.02606344223022461,-0.0015125973150134087,-0.017233651131391525
1772567175769141200,7.760141357421875,-0.028396159410476685,0.0018403679132461548,-0.0020817420445382595
1772567175779170300,7.77017041015625,-0.025863759219646454,0.00023102015256881714,0.0068033616989851
1772567175789199400,7.780199462890625,-0.023107541725039482,-0.002006388269364834,0.009779203683137894
1772567175799228200,7.790228271484375,-0.01773940771818161,0.0007425267249345779,0.0021788086742162704
1772567175809257200,7.80025732421875,-0.01125834695994854,0.0009097782894968987,-0.010179942473769188
1772567175819286300,7.810286376953125,-0.005491537973284721,-0.009592663496732712,-0.027028962969779968
1772567175829315000,7.820315185546875,0.0038949353620409966,-0.011324435472488403,-0.03117411397397518
1772567175839345200,7.83034521484375,0.009722464717924595,-0.02194645255804062,-0.02604859322309494
1772567175849374200,7.840374267578125,0.01576954871416092,-0.02650001272559166,-0.016985565423965454
1772567175859403300,7.8504033203125,0.014917337335646152,-0.028438527137041092,-0.007429077755659819
1772567175869432300,7.860432373046875,0.01319050882011652,-0.03368626534938812,0.0035640262067317963
1772567175879461400,7.87046142578125,0.007670308463275433,-0.025855503976345062,0.009160925634205341
1772567175889490400,7.880490478515625,-0.0015336382202804089,-0.01536526344716549,0.011417191475629807
1772567175899519200,7.890519287109375,-0.010630996897816658,-0.0029898202046751976,0.005157697945833206
1772567175909549300,7.90054931640625,-0.01768939569592476,0.01174088940024376,-0.011522237211465836
1772567175919578400,7.910578369140625,-0.019423648715019226,0.024583186954259872,-0.02767137996852398
1772567175929607400,7.920607421875,-0.025753799825906754,0.03425266221165657,-0.04163188859820366
1772567175939636200,7.93063623046875,-0.026422519236803055,0.045531414449214935,-0.04765542596578598
1772567175949665300,7.940665283203125,-0.034584373235702515,0.049294840544462204,-0.04575226455926895
1772567175959694300,7.9506943359375,-0.04078075289726257,0.05037155747413635,-0.03046651929616928
1772567175969723100,7.96072314453125,-0.03964196890592575,0.044646285474300385,-0.018522337079048157
1772567175979752200,7.970752197265625,-0.03861105814576149,0.0424015074968338,-0.007916565053164959
1772567175989782300,7.9807822265625,-0.03320176154375076,0.037449173629283905,0.00029863975942134857
1772567175999811000,7.99081103515625,-0.032853156328201294,0.030103109776973724,0.0004283348098397255
1772567176009838300,8.00083837890625,-0.03481040149927139,0.029264021664857864,0.005338636226952076
1772567176019867100,8.0108671875,-0.036639995872974396,0.028049886226654053,0.0023774681612849236
1772567176029896200,8.020896240234375,-0.038342591375112534,0.01408730074763298,-0.00228984747081995
1772567176039925200,8.03092529296875,-0.035694610327482224,0.009038479998707771,-0.0005649183876812458
1772567176049955300,8.040955322265624,-0.029450707137584686,0.006038523279130459,0.006373757496476173
1772567176059984100,8.050984130859375,-0.025182191282510757,0.005245166830718517,0.009231063537299633
1772567176070013200,8.06101318359375,-0.022345570847392082,0.01030724123120308,0.007143450900912285
1772567176080042200,8.071042236328125,-0.0229937843978405,0.015707332640886307,0.0013667885214090347
1772567176090071300,8.0810712890625,-0.0244704931974411,0.024419592693448067,-0.003616348374634981
1772567176100100400,8.091100341796874,-0.029962996020913124,0.0299131590873003,-0.006633177399635315
1772567176110129400,8.10112939453125,-0.02756371907889843,0.02926246076822281,-0.009657598100602627
1772567176120159500,8.111159423828125,-0.019727101549506187,0.029606539756059647,-0.006476718466728926
1772567176130188300,8.121188232421876,-0.02008828893303871,0.034018438309431076,-0.003437192179262638
1772567176140217300,8.13121728515625,-0.019448596984148026,0.03692474588751793,0.002876896411180496
1772567176150246400,8.141246337890625,-0.018342629075050354,0.03682464361190796,0.0011187000200152397
1772567176160275200,8.151275146484375,-0.02120792306959629,0.04079674184322357,0.0018257694318890572
1772567176170304300,8.16130419921875,-0.026184290647506714,0.048139337450265884,-0.003292123321443796
1772567176180333300,8.171333251953126,-0.02705620974302292,0.045676976442337036,-0.010933531448245049
1772567176190362000,8.181362060546874,-0.02452469989657402,0.04286874085664749,-0.018602941185235977
1772567176200392200,8.19139208984375,-0.019508369266986847,0.040250856429338455,-0.02625100687146187
1772567176210421200,8.201421142578125,-0.0072818053886294365,0.03578127920627594,-0.02507850155234337
1772567176220450000,8.211449951171875,0.00909237377345562,0.024901200085878372,-0.027949122712016106
1772567176230479400,8.221479248046874,0.027970317751169205,0.021323684602975845,-0.013142816722393036
1772567176240508400,8.23150830078125,0.04023204371333122,0.013365091755986214,0.010463709942996502
1772567176250537500,8.241537353515625,0.05170228332281113,0.005746583454310894,0.019280189648270607
1772567176260567300,8.2515673828125,0.05923716723918915,-0.0005422057583928108,0.022859744727611542
1772567176270596400,8.261596435546876,0.06645909696817398,-0.008618488907814026,0.016923483461141586
1772567176280625400,8.27162548828125,0.07183894515037537,-0.012057429179549217,0.009971835650503635
1772567176290654200,8.281654296875,0.06443682312965393,-0.010243713855743408,0.00635178666561842
1772567176300683300,8.291683349609375,0.06174037978053093,-0.01272471435368061,0.0037413565441966057
1772567176310712300,8.30171240234375,0.05632386356592178,-0.010415289551019669,0.003945039585232735
1772567176320741000,8.3117412109375,0.042770497500896454,-0.009016331285238266,0.006183692254126072
1772567176330771200,8.321771240234375,0.03282270208001137,-0.001608673483133316,0.008481433615088463
1772567176340800300,8.33180029296875,0.019617417827248573,0.00956248864531517,-0.00040633464232087135
1772567176350829300,8.341829345703125,0.005381546914577484,0.020420148968696594,-0.01082953717559576
1772567176360858000,8.351858154296876,-0.01798316463828087,0.0278591550886631,-0.020098935812711716
1772567176370887200,8.36188720703125,-0.03382204845547676,0.03439508378505707,-0.026308095082640648
1772567176380916500,8.37191650390625,-0.04821537062525749,0.034020379185676575,-0.019673096016049385
1772567176390945300,8.3819453125,-0.059176549315452576,0.038007572293281555,-0.008288949728012085
1772567176400974300,8.391974365234375,-0.06975968182086945,0.03954235464334488,-0.007981354370713234
1772567176411004400,8.40200439453125,-0.07186494767665863,0.03460940346121788,-0.013182401657104492
1772567176421033500,8.412033447265625,-0.07546740770339966,0.02709156647324562,-0.02142009139060974
1772567176431062300,8.422062255859375,-0.07185690104961395,0.01379863079637289,-0.023057784885168076
1772567176441091300,8.43209130859375,-0.0700635313987732,0.007279212586581707,-0.015214776620268822
1772567176451120400,8.442120361328126,-0.06640792638063431,0.010209300555288792,0.006311439909040928
1772567176461149200,8.452149169921874,-0.05869381129741669,0.00743215624243021,0.01748739555478096
1772567176471179300,8.46217919921875,-0.05098825320601463,0.006331493146717548,0.013590050861239433
1772567176481208300,8.472208251953125,-0.03906075283885002,0.010394145734608173,0.007903404533863068
1772567176491237000,8.482237060546876,-0.03087204322218895,0.010758982971310616,-0.006509901490062475
1772567176501266200,8.49226611328125,-0.01649097353219986,0.016053346917033195,-0.017786789685487747
1772567176511295200,8.502295166015625,-0.012976577505469322,0.017415490001440048,-0.025242004543542862
1772567176521324300,8.51232421875,-0.007219089660793543,0.008099752478301525,-0.029659923166036606
1772567176531353300,8.522353271484375,0.0014776820316910744,0.0006402703002095222,-0.015953760594129562
1772567176541382400,8.53238232421875,0.011557480320334435,-0.0049446444027125835,0.005795743316411972
1772567176551412200,8.542412109375,0.02200738713145256,-0.007386177312582731,0.026402436196804047
1772567176561441300,8.552441162109375,0.027936916798353195,-0.014020644128322601,0.0336289219558239
1772567176571470300,8.56247021484375,0.031235946342349052,-0.016458086669445038,0.03147761523723602
1772567176581499400,8.57249951171875,0.029987988993525505,-0.016993382945656776,0.021146416664123535
1772567176591528200,8.582528076171876,0.02380160614848137,-0.015812456607818604,0.005880177021026611
1772567176601557200,8.59255712890625,0.012250146828591824,-0.009247498586773872,-0.006134141702204943
1772567176611586300,8.60258642578125,0.0033065294846892357,-0.003179272636771202,-0.01568729616701603
1772567176621616400,8.612616455078125,-0.005512794945389032,0.002767033874988556,-0.01755257323384285
1772567176631645200,8.622645263671876,-0.013209596276283264,0.014589870348572731,-0.017514225095510483
1772567176641674200,8.63267431640625,-0.025939960032701492,0.022267717868089676,-0.0135690588504076
1772567176651703300,8.642703369140625,-0.034133173525333405,0.03280984237790108,-0.00397102627903223
1772567176661732000,8.652732177734375,-0.039667759090662,0.03373974189162254,-0.0018731066957116127
1772567176671761200,8.66276123046875,-0.04537278041243553,0.028019271790981293,-0.006446287035942078
1772567176681790500,8.67279052734375,-0.04766127094626427,0.028824709355831146,-0.014293684624135494
1772567176691820300,8.6828203125,-0.051391296088695526,0.024714119732379913,-0.012869426980614662
1772567176701849300,8.692849365234375,-0.053286757320165634,0.021324239671230316,-0.01043001376092434
1772567176711878400,8.70287841796875,-0.04924114793539047,0.01581575721502304,-0.004595560021698475
1772567176721907500,8.712907470703126,-0.047513142228126526,0.012732175178825855,-0.0008978703990578651
1772567176731936300,8.722936279296874,-0.045692071318626404,0.016494691371917725,0.0108416099101305
1772567176741965300,8.73296533203125,-0.04218611121177673,0.015128359198570251,0.016557544469833374
1772567176751994400,8.742994384765625,-0.031003501266241074,0.014438599348068237,0.013219539076089859
1772567176762024200,8.753024169921876,-0.024081937968730927,0.0075857508927583694,0.006440013647079468
1772567176772053200,8.76305322265625,-0.020716501399874687,0.0077711064368486404,-0.003446172457188368
1772567176782083300,8.773083251953125,-0.020974386483430862,0.006783666089177132,-0.0048659443855285645
1772567176792112000,8.783112060546875,-0.018105361610651016,0.004457660019397736,0.0001554461196064949
1772567176802141200,8.79314111328125,-0.011792508885264397,0.013627391308546066,0.006991107948124409
1772567176812170200,8.803170166015626,-0.010318183340132236,0.020417921245098114,0.009854006581008434
1772567176822199000,8.813198974609374,-0.009541632607579231,0.014851930551230907,0.0009267479181289673
1772567176832229000,8.82322900390625,-0.00953151285648346,0.012088102288544178,-0.006779907271265984
1772567176842258200,8.833258056640625,-0.01200459897518158,0.01009637676179409,-0.009480222128331661
1772567176852287000,8.843286865234376,-0.0159308984875679,0.003407848998904228,0.0017660409212112427
1772567176862316000,8.85331591796875,-0.01867794804275036,0.0016043558716773987,0.017622502520680428
1772567176872345000,8.863344970703125,-0.026471955701708794,-0.0010167276486754417,0.028777150437235832
1772567176882374100,8.8733740234375,-0.035699766129255295,0.006911739706993103,0.03816663473844528
1772567176892403200,8.8834033203125,-0.04450071230530739,0.0033625438809394836,0.025479072704911232
1772567176902433300,8.893433349609374,-0.044802915304899216,0.00867524091154337,0.010660496540367603
1772567176912462300,8.90346240234375,-0.04909593239426613,0.01791294664144516,-0.00759334210306406
1772567176922491100,8.9134912109375,-0.050322405993938446,0.02311842143535614,-0.0178297758102417
1772567176932520200,8.923520263671875,-0.05018125846982002,0.028496675193309784,-0.016538143157958984
1772567176942549200,8.93354931640625,-0.047966621816158295,0.033353254199028015,-0.005953204818069935
1772567176952578000,8.943578125,-0.0493306927382946,0.03493810072541237,0.0026916824281215668
1772567176962607000,8.953607177734375,-0.0531466081738472,0.028783973306417465,0.0016203103587031364
1772567176972637200,8.96363720703125,-0.05073618143796921,0.024102669209241867,-0.000607689842581749
1772567176982666200,8.973666259765626,-0.04783554747700691,0.01746666058897972,-0.004632748197764158
1772567176992695000,8.983695068359374,-0.038949642330408096,0.01072673313319683,-0.007825079374015331
1772567177002724000,8.99372412109375,-0.02884668856859207,0.005142359063029289,-0.012678327038884163
1772567177012753200,9.003753173828125,-0.01794823631644249,-0.003296665847301483,-0.0049599539488554
1772567177022782200,9.0137822265625,-0.009125715121626854,-0.011015571653842926,0.0013000722974538803
1772567177032811300,9.023811279296876,-0.005895034875720739,-0.013838522136211395,0.013623851351439953
1772567177042841000,9.033841064453124,-0.00303064426407218,-0.013254137709736824,0.026756491512060165
1772567177052870400,9.043870361328125,-0.00024764053523540497,-0.015732210129499435,0.025202535092830658
1772567177062899200,9.053899169921875,0.0015893839299678802,-0.016218410804867744,0.01745118573307991
1772567177072928300,9.06392822265625,0.000527847558259964,-0.012896116822957993,0.006216373294591904
1772567177082957300,9.073957275390624,0.0031436504796147346,-0.014756891876459122,-0.005128359422087669
1772567177092986000,9.083986083984374,0.0006935428828001022,-0.010128850117325783,-0.017392482608556747
1772567177103015200,9.09401513671875,-0.0020173820666968822,-0.0028812717646360397,-0.015236519277095795
1772567177113045200,9.104045166015625,-0.0036088870838284492,0.004593955352902412,-0.008849193342030048
1772567177123074000,9.114073974609376,-0.004497877322137356,0.011550948023796082,0.0007282579317688942
1772567177133103000,9.12410302734375,-0.0030485852621495724,0.014462048187851906,0.005766692571341991
1772567177143132200,9.134132080078125,-0.001074187457561493,0.016336429864168167,0.00902928039431572
1772567177153161000,9.144160888671875,-0.0052055492997169495,0.012101471424102783,-0.00012293923646211624
1772567177163190000,9.15418994140625,-0.0044717867858707905,0.00938553549349308,-0.008812868036329746
1772567177173219300,9.16421923828125,-0.0034187729470431805,0.005215024575591087,-0.016127772629261017
1772567177183249200,9.174249267578125,-0.0002879663370549679,0.00756074208766222,-0.017539598047733307
1772567177193278000,9.18427783203125,0.0006428081542253494,0.003509008325636387,-0.013220218941569328
1772567177203307300,9.194307373046875,0.004867324605584145,0.0041894856840372086,-0.008887136355042458
1772567177213336300,9.20433642578125,0.0023519694805145264,0.007861718535423279,-0.002330965828150511
1772567177223365000,9.214365234375,0.0066858744248747826,0.010010264813899994,0.0009433142840862274
1772567177233394200,9.224394287109375,-0.000771774910390377,0.0006955917924642563,0.0019561145454645157
1772567177243424300,9.23442431640625,-0.0014632330276072025,-0.007768136914819479,-0.0047643184661865234
1772567177253453300,9.244453369140626,-0.003462201915681362,-0.016412490978837013,-0.0024239327758550644
1772567177263482000,9.254482177734374,-0.00668205413967371,-0.02007187344133854,-0.004406428895890713
1772567177273511200,9.26451123046875,-0.009975052438676357,-0.01803215779364109,-0.006754803936928511
1772567177283540200,9.274540283203125,-0.00980622973293066,-0.009527867659926414,-0.0035097291693091393
1772567177293569000,9.284569091796875,-0.012642229907214642,-0.00018762890249490738,0.00560254231095314
1772567177303598000,9.29459814453125,-0.011969991959631443,0.0065722279250621796,0.011720234528183937
1772567177313627100,9.304627197265624,-0.012631786987185478,0.01596572995185852,0.017547497525811195
1772567177323657200,9.3146572265625,-0.014744909480214119,0.022967109456658363,0.019841402769088745
1772567177333686000,9.32468603515625,-0.020177224650979042,0.022358311340212822,0.009621787816286087
1772567177343715000,9.334715087890626,-0.021052449941635132,0.021243061870336533,-0.007052291184663773
1772567177353744400,9.344744384765624,-0.01713467389345169,0.017335135489702225,-0.01864290051162243
1772567177363773200,9.354773193359375,-0.011772946454584599,0.013841346837580204,-0.019822318106889725
1772567177373802200,9.36480224609375,-0.003984531387686729,0.010414657182991505,-0.013378266245126724
1772567177383832300,9.374832275390625,0.004566696472465992,0.006176173686981201,0.0011225985363125801
1772567177393861000,9.384861083984376,0.007732396014034748,0.004754312336444855,0.017141779884696007
1772567177403890200,9.39489013671875,0.0029045818373560905,0.006851043552160263,0.025511935353279114
1772567177413919200,9.404919189453125,-0.0009455499239265919,0.005691768601536751,0.018399696797132492
1772567177423948000,9.414947998046875,-0.004762856289744377,0.0015015043318271637,0.0035638101398944855
1772567177433977000,9.42497705078125,-0.006688587833195925,0.003090878948569298,-0.004282660782337189
1772567177444006100,9.435006103515626,-0.002357796300202608,-0.0028609922155737877,-0.0052102175541222095
1772567177454035000,9.445034912109374,-0.00004457496106624603,-0.0028106579557061195,0.0009486088529229164
1772567177464065000,9.45506494140625,0.00969724077731371,0.0006831623613834381,0.007566490210592747
1772567177474094000,9.465093994140625,0.019205257296562195,0.0041953399777412415,0.02182159200310707
1772567177484123100,9.475123046875,0.01841752976179123,0.007742112502455711,0.026212504133582115
1772567177494152200,9.485152099609374,0.016874227672815323,0.004478143528103828,0.024599960073828697
1772567177504181200,9.49518115234375,0.01108521781861782,-0.0006523635238409042,0.012672871351242065
1772567177514210300,9.505210205078125,0.009477734565734863,0.0009732302278280258,0.004914551042020321
1772567177524240100,9.515240234375,0.004642377607524395,0.00257315207272768,-0.000699738971889019
1772567177534269200,9.525269287109374,0.0037528816610574722,0.006417425349354744,0.00332429725676775
1772567177544298200,9.53529833984375,0.0021925289183855057,0.0090560894459486,0.015269819647073746
1772567177554327300,9.545327392578125,-0.0038842717185616493,0.010758114978671074,0.024413516744971275
1772567177564356000,9.555356201171875,-0.012470918707549572,0.010961905121803284,0.027351828292012215
1772567177574385200,9.56538525390625,-0.019256653264164925,0.008191417902708054,0.023259881883859634
1772567177584414200,9.575414306640624,-0.022398056462407112,0.009811639785766602,0.012740625999867916
1772567177594444000,9.585444091796875,-0.015451200306415558,0.011663869023323059,0.002306628040969372
1772567177604473000,9.59547314453125,-0.007907011546194553,0.007205215282738209,-0.008162161335349083
1772567177614502100,9.605502197265626,0.0011136475950479507,0.006391885690391064,-0.011344105936586857
1772567177624531200,9.61553125,0.009498712606728077,0.0036064228042960167,-0.008055419661104679
1772567177634560000,9.62556005859375,0.014077219180762768,0.0008330065757036209,0.0006568450480699539
1772567177644589300,9.63558935546875,0.016975022852420807,-0.0033971676602959633,0.009072690270841122
1772567177654618400,9.645618408203125,0.015108680352568626,-0.013083084486424923,0.009888683445751667
1772567177664648000,9.65564794921875,0.022700587287545204,-0.02570151723921299,0.006377341225743294
1772567177674677200,9.66567724609375,0.026308638975024223,-0.036033518612384796,0.01035850029438734
1772567177684706300,9.675706298828125,0.028695467859506607,-0.0407191626727581,0.01787468045949936
1772567177694735000,9.685735107421875,0.03111495077610016,-0.04330722242593765,0.022676359862089157
1772567177704764200,9.69576416015625,0.03293706476688385,-0.03915773704648018,0.024938460439443588
1772567177714793200,9.705793212890624,0.030069369822740555,-0.030599934980273247,0.02128087356686592
1772567177724822000,9.715822021484374,0.026121044531464577,-0.025278456509113312,0.001688934862613678
1772567177734852000,9.72585205078125,0.021955594420433044,-0.019140135496854782,-0.00655860872939229
1772567177744881200,9.735881103515625,0.018993839621543884,-0.013065430335700512,-0.006552098784595728
1772567177754910200,9.74591015625,0.022325720638036728,-0.003276715986430645,-0.003267089370638132
1772567177764939000,9.75593896484375,0.023426972329616547,-0.003384597599506378,-0.005009704269468784
1772567177774968000,9.765968017578125,0.02049216628074646,-0.001512128859758377,-0.010021240450441837
1772567177784996400,9.775996337890625,0.014373982325196266,0.003713334910571575,-0.009567647241055965
1772567177795025400,9.786025390625,0.01614818163216114,0.008594908751547337,-0.011574871838092804
1772567177805055500,9.796055419921874,0.014724686741828918,0.004490207880735397,-0.014486661180853844
1772567177815084300,9.806084228515624,0.009148824959993362,0.013033362105488777,-0.007840210571885109
1772567177825113300,9.81611328125,0.001192052848637104,0.019143834710121155,-0.004395619500428438
1772567177835142400,9.826142333984375,-0.00034752069041132927,0.024393457919359207,-0.00015932926908135414
1772567177845171200,9.836171142578126,-0.0009941761381924152,0.028644949197769165,0.0009387116879224777
1772567177855200300,9.8462001953125,0.0012671137228608131,0.026435058563947678,-0.0027556251734495163
1772567177865229300,9.856229248046875,0.003446037881076336,0.023635592311620712,-0.008426964282989502
1772567177875259400,9.86625927734375,0.005241274833679199,0.01471267081797123,-0.006208284758031368
1772567177885288200,9.8762880859375,0.010933597572147846,0.004302321933209896,-0.004741725046187639
1772567177895317200,9.886317138671876,0.017627719789743423,-0.006766309030354023,-0.001812780275940895
1772567177905346300,9.89634619140625,0.017721008509397507,-0.011584100313484669,0.0011029504239559174
1772567177915375400,9.906375244140625,0.02110535465180874,-0.00969831645488739,0.0018395809456706047
1772567177925404400,9.916404296875,0.021314838901162148,-0.0034410683438181877,0.007465330883860588
1772567177935433500,9.92643359375,0.01670091226696968,0.007233148440718651,0.013199915178120136
1772567177945463300,9.93646337890625,0.017423447221517563,0.005454942584037781,0.005875679664313793
1772567177955492400,9.946492431640625,0.01909085363149643,0.00623205304145813,0.004918007180094719
1772567177965521400,9.956521484375,0.0226493738591671,-0.004798499401658773,-0.0024665864184498787
1772567177975550500,9.966550537109375,0.03349882736802101,-0.021562831476330757,-0.013944543898105621
1772567177985579300,9.976579345703126,0.037153251469135284,-0.026429854333400726,-0.007133116014301777
1772567177995608300,9.9866083984375,0.03470554202795029,-0.021535765379667282,0.012203296646475792
1772567178005637400,9.996637451171875,0.03205907344818115,-0.021472521126270294,0.024068553000688553
1772567178015667500,10.00666748046875,0.03294137865304947,-0.017927587032318115,0.022710073739290237
1772567178025696300,10.0166962890625,0.02812868356704712,-0.010643506422638893,0.013623778708279133
1772567178035725300,10.026725341796874,0.01917300745844841,-0.005653275176882744,0.0022155949845910072
1772567178045754400,10.03675439453125,0.016410544514656067,0.0022096820175647736,-0.006567087024450302
1772567178055783200,10.046783203125,0.010694601573050022,0.005914405919611454,-0.008221176452934742
