time,seconds_elapsed,z,y,x
1772527349572730600,0.072730712890625,-0.010752202942967415,0.00016503827646374702,-0.013012654148042202
1772527349582728700,0.082728759765625,-0.013406574726104736,0.006306553725153208,-0.002387440297752619
1772527349592725500,0.0927255859375,-0.015897506847977638,0.01767907664179802,0.016082758083939552
1772527349602723600,0.1027236328125,-0.013814648613333702,0.025581475347280502,0.024103401228785515
1772527349612721400,0.112721435546875,-0.0027000196278095245,0.0178547203540802,0.019445285201072693
1772527349622719500,0.122719482421875,0.01748540997505188,-0.00009791553020477295,0.017999988049268723
1772527349632717600,0.132717529296875,0.04708100110292435,-0.035604942589998245,0.029898060485720634
1772527349642715400,0.14271533203125,0.059640735387802124,-0.0760202705860138,0.04437261074781418
1772527349652713500,0.15271337890625,0.0673241913318634,-0.0864933580160141,0.05075354129076004
1772527349662710500,0.16271044921875,0.07748308032751083,-0.10173729062080383,0.05790359899401665
1772527349672708600,0.17270849609375,0.07749966531991959,-0.09266233444213867,0.057191893458366394
1772527349682706700,0.182706787109375,0.07320825010538101,-0.07207690179347992,0.03911462053656578
1772527349692704500,0.19270458984375,0.06676442176103592,-0.04980183020234108,0.02719373255968094
1772527349702702600,0.20270263671875,0.050744712352752686,-0.039121489971876144,0.019054047763347626
1772527349712700700,0.21270068359375,0.04466193914413452,-0.022920740768313408,0.0145003292709589
1772527349722697500,0.222697509765625,0.026344450190663338,-0.010684315115213394,0.009114352986216545
1772527349732695300,0.2326953125,0.01364307664334774,0.0018413150683045387,0.007046076003462076
1772527349742693400,0.242693359375,0.012545322068035603,0.0009310469031333923,0.012299427762627602
1772527349752691500,0.25269140625,0.004461327567696571,-0.009079687297344208,0.012112317606806755
1772527349762689300,0.262689208984375,0.0014253235422074795,-0.010242156684398651,0.011937348172068596
1772527349772687400,0.272687255859375,-0.004676695913076401,-0.014939689077436924,0.01622803509235382
1772527349782684400,0.282684326171875,-0.00737900473177433,-0.0065912120044231415,0.02091439999639988
1772527349792682500,0.2926826171875,-0.01025974377989769,0.00397627055644989,0.026588216423988342
1772527349802680600,0.3026806640625,-0.008322561159729958,0.019222069531679153,0.025570888072252274
1772527349812678400,0.312678466796875,-0.012793591246008873,0.022762784734368324,0.02015925943851471
1772527349822676500,0.322676513671875,-0.00892135500907898,0.01967697963118553,0.013607615604996681
1772527349832674600,0.332674560546875,-0.005621545948088169,0.013325812295079231,0.008415806107223034
1772527349842672400,0.34267236328125,-0.005255362018942833,0.008214406669139862,0.0011317944154143333
1772527349852669400,0.35266943359375,-0.0028785327449440956,0.001303468830883503,0.0055604977533221245
1772527349862667300,0.362667236328125,0.0001161918044090271,-0.0059523130767047405,0.012068730778992176
1772527349872665300,0.372665283203125,0.0032866904512047768,-0.009387471713125706,0.00825501699000597
1772527349882663400,0.382663330078125,0.009873487055301666,-0.006152263376861811,-0.000478286761790514
1772527349892661200,0.3926611328125,0.001079196110367775,0.007961158640682697,-0.010264338925480843
1772527349902659300,0.402659423828125,0.0006927717477083206,0.014179106801748276,-0.009685100987553596
1772527349912656400,0.412656494140625,-0.000040397047996520996,0.00918647926300764,-0.0009089200757443905
1772527349922654500,0.422654541015625,-0.006582451984286308,0.019128592684864998,-0.000981357879936695
1772527349932652500,0.432652587890625,-0.010906286537647247,0.027828732505440712,0.001218391116708517
1772527349942650400,0.442650390625,-0.016738874837756157,0.0388755202293396,0.003355844411998987
1772527349952648400,0.4526484375,-0.009432034566998482,0.03763985261321068,0.008428500033915043
1772527349962646500,0.462646484375,-0.012759653851389885,0.03637911006808281,0.011792605742812157
1772527349972644400,0.472644287109375,-0.01098115649074316,0.030869977548718452,0.01300039328634739
1772527349982641400,0.482641357421875,-0.008660477586090565,0.021427737548947334,0.011400099843740463
1772527349992639200,0.49263916015625,-0.014554359018802643,0.02702965773642063,0.008572998456656933
1772527350002637300,0.50263720703125,-0.01717757247388363,0.03051680140197277,-0.0019763149321079254
1772527350012635400,0.512635498046875,-0.022787485271692276,0.033012960106134415,-0.005484030582010746
1772527350022633200,0.52263330078125,-0.025357432663440704,0.035431113094091415,-0.017125772312283516
1772527350032631300,0.53263134765625,-0.028967728838324547,0.03749468922615051,-0.01982959173619747
1772527350042628600,0.542628662109375,-0.0336756631731987,0.03332870826125145,-0.027081646025180817
1772527350052626400,0.55262646484375,-0.031879398971796036,0.03034646064043045,-0.027589665725827217
1772527350062624500,0.56262451171875,-0.0348978266119957,0.030728090554475784,-0.025043683126568794
1772527350072622300,0.572622314453125,-0.034873250871896744,0.03461723029613495,-0.030349789187312126
1772527350082620400,0.582620361328125,-0.033203449100255966,0.03672352433204651,-0.03465132415294647
1772527350092618500,0.592618408203125,-0.03015405312180519,0.039686210453510284,-0.03852629289031029
1772527350102616300,0.6026162109375,-0.0295974500477314,0.03723530471324921,-0.036816541105508804
1772527350112613400,0.61261328125,-0.03052251972258091,0.03657516464591026,-0.038258932530879974
1772527350122611500,0.622611572265625,-0.032414957880973816,0.03300413116812706,-0.03834468871355057
1772527350132609300,0.632609375,-0.03669823706150055,0.03380728140473366,-0.02613646909594536
1772527350142607400,0.642607421875,-0.03692673519253731,0.029687371104955673,-0.015455326996743679
1772527350152605400,0.65260546875,-0.03130009025335312,0.02290310710668564,-0.006623464170843363
1772527350162603300,0.662603271484375,-0.025256311520934105,0.014323201030492783,-0.0019725197926163673
1772527350172600600,0.6726005859375,-0.019717086106538773,0.012253131717443466,-0.013843538239598274
1772527350182598400,0.682598388671875,-0.017019569873809814,0.016631368547677994,-0.020659366622567177
1772527350192596500,0.692596435546875,-0.009917262941598892,0.017664548009634018,-0.022450054064393044
1772527350202594600,0.702594482421875,-0.00936146080493927,0.0094340480864048,-0.023957936093211174
1772527350212592400,0.71259228515625,-0.006265497766435146,0.012696297839283943,-0.021885419264435768
1772527350222590500,0.722590576171875,-0.007510258816182613,0.022864513099193573,-0.023673465475440025
1772527350232588500,0.732588623046875,-0.008021512068808079,0.025312187150120735,-0.030182896181941032
1772527350242585300,0.74258544921875,-0.01242158655077219,0.029992161318659782,-0.028321079909801483
1772527350252583400,0.75258349609375,-0.01319808792322874,0.026866327971220016,-0.01908557116985321
1772527350262581200,0.762581298828125,-0.012803939171135426,0.023591436445713043,-0.013426086865365505
1772527350272579300,0.772579345703125,-0.007599019445478916,0.015622235834598541,-0.006420220248401165
1772527350282577400,0.782577392578125,-0.005056232213973999,0.007892675697803497,-0.003252656664699316
1772527350292575200,0.7925751953125,-0.0017945831641554832,0.0066057536751031876,-0.0019331271760165691
1772527350302572500,0.802572509765625,0.0025988342240452766,0.0114585654810071,0.003873096778988838
1772527350312570400,0.8125703125,0.004296788480132818,0.015667565166950226,0.008902231231331825
1772527350322568400,0.822568359375,0.008217227645218372,0.01376526802778244,0.009027667343616486
1772527350332566500,0.83256640625,0.012381955049932003,0.0055712186731398106,0.013623883947730064
1772527350342564400,0.842564453125,0.010748905129730701,0.0005514263175427914,0.013633470982313156
1772527350352562400,0.8525625,0.016815166920423508,-0.0016227168962359428,0.017116064205765724
1772527350362560500,0.862560546875,0.016418088227510452,0.002339533995836973,0.009732717648148537
1772527350372557300,0.872557373046875,0.018538309261202812,0.008619451895356178,0.005367995705455542
1772527350382555400,0.882555419921875,0.017524709925055504,0.01187996193766594,0.0012874999083578587
1772527350392553200,0.89255322265625,0.015726087614893913,0.009285959415137768,0.001291162334382534
1772527350402551300,0.90255126953125,0.01726512797176838,0.014808823354542255,0.006217744201421738
1772527350412549400,0.91254931640625,0.018612153828144073,0.016096994280815125,0.0056129395961761475
1772527350422547500,0.92254736328125,0.01932242140173912,0.017840299755334854,0.0012826398015022278
1772527350432544500,0.93254443359375,0.01845468394458294,0.014435898512601852,-0.0016122600063681602
1772527350442542300,0.942542236328125,0.018963614478707314,0.015248429030179977,0.005000901408493519
1772527350452540400,0.95254052734375,0.015128055587410927,0.02338079921901226,0.002733241766691208
1772527350462538500,0.96253857421875,0.015725668519735336,0.030626729130744934,-0.004340114071965218
1772527350472536300,0.972536376953125,0.011756189167499542,0.030652577057480812,-0.013393198139965534
1772527350482534400,0.982534423828125,0.00653719250112772,0.023561112582683563,-0.014979909174144268
1772527350492531200,0.99253125,0.006028870120644569,0.013473555445671082,-0.011625257320702076
1772527350502529300,1.002529296875,0.008473917841911316,0.0028613917529582977,0.0024016117677092552
1772527350512527400,1.01252734375,0.008278362452983856,-0.0009464798495173454,0.008200602605938911
1772527350522525200,1.022525146484375,0.011556447483599186,-0.0025190762244164944,0.010575342923402786
1772527350532523500,1.0325234375,0.00636051082983613,0.0053465710952878,0.007269537076354027
1772527350542521600,1.042521484375,0.006355716846883297,0.01067342609167099,0.0036644162610173225
1772527350552519400,1.05251953125,0.0032970383763313293,0.013791577890515327,-0.005672404542565346
1772527350562516500,1.0625166015625,-0.0006745336577296257,0.006700112018734217,-0.0030691649299114943
1772527350572514600,1.0725146484375,-0.004120400175452232,-0.0007776753045618534,0.0005342480726540089
1772527350582512400,1.082512451171875,-0.004168336279690266,0.002358729485422373,-0.00283678132109344
1772527350592510500,1.092510498046875,-0.011629637330770493,0.004690511617809534,-0.005657668225467205
1772527350602508300,1.10250830078125,-0.009408028796315193,0.012342039495706558,-0.0036965166218578815
1772527350612506400,1.11250634765625,-0.005043718032538891,0.014576779678463936,-0.010091232135891914
1772527350622503400,1.12250341796875,-0.0014473851770162582,0.012646786868572235,-0.01132667250931263
1772527350632501200,1.132501220703125,0.0006098337471485138,0.008718233555555344,-0.009909050539135933
1772527350642499300,1.142499267578125,0.010474980808794498,0.0010091820731759071,-0.010963395237922668
1772527350652497400,1.152497314453125,0.005203748121857643,-0.0037931737024337053,-0.006009161937981844
1772527350662495500,1.16249560546875,0.011670702137053013,-0.0038541601970791817,0.008161517791450024
1772527350672493600,1.17249365234375,0.013236863538622856,0.00016498146578669548,0.014350594021379948
1772527350682491400,1.182491455078125,0.021937677636742592,0.0011865696869790554,0.018684621900320053
1772527350692488400,1.192488525390625,0.020798608660697937,0.006494536530226469,0.01107390783727169
1772527350702486500,1.202486572265625,0.02442077547311783,0.001741859596222639,0.008770006708800793
1772527350712484400,1.212484375,0.023724239319562912,0.0005304277874529362,0.017669670283794403
1772527350722482400,1.222482421875,0.014486800879240036,0.008080756291747093,0.017567938193678856
1772527350732480800,1.232480712890625,0.008766334503889084,0.02413451299071312,0.011661378666758537
1772527350742478600,1.242478515625,0.006799856200814247,0.03160974010825157,0.012435825541615486
1772527350752475600,1.2524755859375,-0.00041753891855478287,0.03209511190652847,0.005357986781746149
1772527350762473700,1.2624736328125,-0.009043517522513866,0.03392443805932999,-0.004991856403648853
1772527350772471600,1.272471435546875,-0.01664440706372261,0.0391727089881897,-0.012167011387646198
1772527350782469600,1.2824697265625,-0.01923513039946556,0.03287273645401001,-0.020162619650363922
1772527350792467700,1.2924677734375,-0.01767265610396862,0.024972572922706604,-0.021490849554538727
1772527350802465800,1.3024658203125,-0.02253585495054722,0.026178453117609024,-0.028399620205163956
1772527350812463900,1.3124638671875,-0.020266875624656677,0.03607850521802902,-0.037437256425619125
1772527350822460700,1.322460693359375,-0.023367326706647873,0.03807134926319122,-0.03762580826878548
1772527350832458800,1.332458740234375,-0.021236155182123184,0.037586286664009094,-0.03833114728331566
1772527350842456800,1.342456787109375,-0.018410008400678635,0.034091152250766754,-0.03263571113348007
1772527350852454700,1.35245458984375,-0.016562914475798607,0.029761632904410362,-0.02195519395172596
1772527350862452700,1.36245263671875,-0.00995907373726368,0.023921586573123932,-0.016583599150180817
1772527350872450600,1.372450439453125,-0.006008122116327286,0.01284719817340374,-0.008583328686654568
1772527350882447600,1.382447509765625,-0.0019611818715929985,0.0040640938095748425,-0.0023193075321614742
1772527350892445700,1.39244580078125,-0.0008731689304113388,0.005232957191765308,-0.0005418909713625908
1772527350902443500,1.402443603515625,-0.0008537285029888153,0.007385323755443096,0.0026270044036209583
1772527350912441900,1.41244189453125,-0.0015399092808365822,0.009137642569839954,0.004179449286311865
1772527350922440000,1.42243994140625,-0.006955180317163467,0.012523585930466652,0.003814329858869314
1772527350932437800,1.432437744140625,-0.0015084464102983475,0.014092331752181053,0.00041271885856986046
1772527350942435800,1.442435791015625,-0.0031116697937250137,0.011107992380857468,-0.007914186455309391
1772527350952432600,1.4524326171875,-0.002183099277317524,0.004788985010236502,-0.01186256855726242
1772527350962430700,1.4624306640625,-0.001210513524711132,-0.00016928790137171745,-0.011763764545321465
1772527350972428800,1.4724287109375,-0.0002616308629512787,-0.002283897250890732,-0.008339693769812584
1772527350982426600,1.482426513671875,-0.004160232841968536,-0.0033563522156327963,-0.005597170442342758
1772527350992424700,1.4924248046875,-0.006862236186861992,-0.0020273374393582344,-0.005865506827831268
1772527351002422800,1.5024228515625,-0.005432651378214359,-0.007829300127923489,0.0032688695937395096
1772527351012419600,1.512419677734375,-0.00431367103010416,-0.012238560244441032,0.002745049074292183
1772527351022417700,1.522417724609375,-0.004635380581021309,-0.012899023480713367,-0.0015085521154105663
1772527351032415700,1.532415771484375,-0.0005306843668222427,-0.016566287726163864,-0.002384843770414591
1772527351042413800,1.542413818359375,0.0013487078249454498,-0.026819458231329918,-0.0038991172332316637
1772527351052412000,1.552411865234375,-0.0002824394032359123,-0.03533593937754631,-0.00011407770216464996
1772527351062409700,1.56240966796875,0.00021823402494192123,-0.024850010871887207,-0.0034776499960571527
1772527351072406800,1.57240673828125,-0.004289242438971996,-0.020465461537241936,-0.0020102919079363346
1772527351082404600,1.582404541015625,-0.00490975845605135,-0.009915882721543312,-0.001658488530665636
1772527351092402700,1.592402587890625,-0.006435710936784744,-0.0021806913428008556,-0.0029441076330840588
1772527351102400800,1.60240087890625,-0.011721553280949593,0.012452580034732819,-0.0018988167867064476
1772527351112398600,1.612398681640625,-0.016633950173854828,0.01963615044951439,0.001994325779378414
1772527351122396700,1.622396728515625,-0.019639059901237488,0.02336910367012024,0.004807156510651112
1772527351132394800,1.632394775390625,-0.019084930419921875,0.028214171528816223,0.008092077448964119
1772527351142391800,1.642391845703125,-0.01405501738190651,0.027639996260404587,0.011665772646665573
1772527351152390000,1.652389892578125,-0.007845285348594189,0.010657913982868195,0.016469160094857216
1772527351162387700,1.6623876953125,0.002753563690930605,-0.00469467556104064,0.023810695856809616
1772527351172385800,1.6723857421875,0.010693967342376709,-0.00861460529267788,0.02360367961227894
1772527351182383900,1.6823837890625,0.01292356662452221,-0.0068662394769489765,0.017976153641939163
1772527351192381700,1.692381591796875,0.016907084733247757,0.0008334526792168617,0.012054193764925003
1772527351202378800,1.702378662109375,0.012537903152406216,0.011012585833668709,0.0077340141870081425
1772527351212376600,1.71237646484375,0.009872649796307087,0.017517074942588806,-0.0037370857317000628
1772527351222374700,1.722374755859375,0.00283497991040349,0.02602960355579853,-0.006472950801253319
1772527351232372700,1.732372802734375,-0.00014848355203866959,0.023953422904014587,-0.006898435298353434
1772527351242370600,1.74237060546875,-0.005070271901786327,0.01860765926539898,-0.0029343198984861374
1772527351252368600,1.75236865234375,-0.0038980236276984215,0.017663976177573204,0.0067462925799191
1772527351262366700,1.76236669921875,-0.004653296433389187,0.014783767983317375,0.016256174072623253
1772527351272363800,1.77236376953125,-0.00507704634219408,0.0143453199416399,0.020861756056547165
1772527351282361900,1.78236181640625,-0.0016769887879490852,0.024620594456791878,0.018590079620480537
1772527351292359700,1.792359619140625,0.00003861915320158005,0.02474949136376381,0.009315887466073036
1772527351302357800,1.802357666015625,-0.0012886999174952507,0.024230707436800003,0.0008678082376718521
1772527351312355800,1.81235595703125,-0.005787004716694355,0.030109353363513947,-0.011307431384921074
1772527351322353700,1.822353759765625,-0.01029546931385994,0.03619227930903435,-0.019851651042699814
1772527351332350700,1.832350830078125,-0.01613258570432663,0.03560878336429596,-0.021412264555692673
1772527351342348800,1.842348876953125,-0.02251165546476841,0.03784210979938507,-0.02025405503809452
1772527351352346600,1.8523466796875,-0.024012384936213493,0.04191287234425545,-0.016252966597676277
1772527351362344700,1.8623447265625,-0.027450794354081154,0.04432143643498421,-0.00922887958586216
1772527351372342800,1.8723427734375,-0.026875436305999756,0.04455164074897766,-0.004387074150145054
1772527351382340600,1.882340576171875,-0.024590175598859787,0.04940658062696457,0.0042684655636549
1772527351392338000,1.892337890625,-0.01816302165389061,0.044643569737672806,0.005361093673855066
1772527351402335700,1.902335693359375,-0.006947917863726616,0.03159807622432709,0.001225737389177084
1772527351412333800,1.912333740234375,-0.0011934321373701096,0.019327962771058083,-0.007799715735018253
1772527351422332000,1.922331787109375,-0.000466655008494854,0.0082984808832407,-0.002523727249354124
1772527351432329700,1.932329833984375,-0.0052789486944675446,0.01927143894135952,0.006400791462510824
1772527351442327800,1.942327880859375,-0.00043998565524816513,0.006105036474764347,0.00432991748675704
1772527351452324600,1.95232470703125,0.004570182412862778,-0.007219596765935421,0.0011137286201119423
1772527351462322700,1.96232275390625,0.0025610937736928463,-0.0030022149439901114,0.01030456367880106
1772527351472320800,1.97232080078125,0.0028286268934607506,-0.004525604657828808,0.016866881400346756
1772527351482318600,1.982318603515625,-0.0017442870885133743,0.005515311844646931,0.01712147891521454
1772527351492316700,1.992316650390625,-0.005860279314219952,0.0015165535733103752,0.01642444171011448
1772527351502314800,2.002314697265625,-0.004061046987771988,0.004279583226889372,0.011539138853549957
1772527351512312600,2.0123125,-0.009321094490587711,0.0026847384870052338,0.011039486154913902
1772527351522310000,2.022309814453125,-0.010433764196932316,0.0021579647436738014,0.008926266804337502
1772527351532307700,2.0323076171875,-0.004480571486055851,-0.0009874291718006134,0.00849403627216816
1772527351542305800,2.042305908203125,-0.0010717259719967842,-0.007801659405231476,0.005227935966104269
1772527351552303900,2.052303955078125,0.0036018560640513897,-0.011126026511192322,0.004102172330021858
1772527351562301700,2.0623017578125,0.006779539864510298,-0.016003606840968132,0.006288893520832062
1772527351572299800,2.0722998046875,0.008540156297385693,-0.015274593606591225,0.0008343630470335484
1772527351582296600,2.082296630859375,0.005898833274841309,-0.01512092910706997,-0.005623269826173782
1772527351592294700,2.092294677734375,0.005185481160879135,-0.014276337809860706,-0.009988810867071152
1772527351602292700,2.102292724609375,0.005522637162357569,-0.01435756403952837,-0.008900110609829426
1772527351612290600,2.11229052734375,0.00562201626598835,-0.018264586105942726,0.002100185491144657
1772527351622288600,2.12228857421875,0.00502227246761322,-0.012724146246910095,-0.0010402137413620949
1772527351632286700,2.13228662109375,0.007197995204478502,-0.0062955101020634174,-0.003830274101346731
1772527351642283800,2.14228369140625,0.00966887641698122,-0.012201336212456226,0.002187937032431364
1772527351652281900,2.15228173828125,0.013507481664419174,-0.02481185272336006,0.003164850641041994
1772527351662279700,2.16227978515625,0.016268912702798843,-0.03248761594295502,0.009580938145518303
1772527351672277800,2.17227783203125,0.013935293070971966,-0.030947094783186913,0.01477927714586258
1772527351682275800,2.18227587890625,0.009720041416585445,-0.019366338849067688,0.01664828322827816
1772527351692273700,2.192273681640625,0.005929725244641304,-0.01378098875284195,0.019529642537236214
1772527351702271700,2.202271728515625,0.006641854532063007,-0.008361189626157284,0.02360294759273529
1772527351712268500,2.2122685546875,-0.000158604234457016,-0.0025319813285022974,0.022105252370238304
1772527351722266600,2.2222666015625,0.0006099846214056015,0.0008856533095240593,0.021095914766192436
1772527351732264400,2.232264404296875,-0.0015831654891371727,-0.0006203451193869114,0.02375621348619461
1772527351742262500,2.242262451171875,-0.002753359265625477,0.0022100619971752167,0.016275927424430847
1772527351752260400,2.25226025390625,-0.004508268088102341,0.002757031936198473,0.007940853014588356
1772527351762258400,2.262258544921875,-0.003155915066599846,0.0032342695631086826,0.004951721057295799
1772527351772255700,2.272255859375,-0.005695773288607597,0.0070599461905658245,0.0026906318962574005
1772527351782253600,2.282253662109375,-0.0033734962344169617,0.0076011004857718945,0.006065655499696732
1772527351792251600,2.292251708984375,-0.0018688105046749115,0.002417523879557848,0.007390045560896397
1772527351802249500,2.30224951171875,-0.005770075134932995,0.005088141653686762,0.014317993074655533
1772527351812247600,2.31224755859375,-0.003294513560831547,0.013041405007243156,0.009093114174902439
1772527351822245600,2.32224560546875,-0.005048737861216068,0.021829303354024887,0.0049242014065384865
1772527351832243500,2.332243408203125,-0.010606716386973858,0.022953301668167114,0.002013944089412689
1772527351842240500,2.342240478515625,-0.014724229462444782,0.02310510352253914,0.0016022194176912308
1772527351852238600,2.352238525390625,-0.0130909513682127,0.02112569659948349,0.004774265922605991
1772527351862236400,2.362236328125,-0.014107747003436089,0.02298271842300892,0.007840363308787346
1772527351872234500,2.372234375,-0.010004349052906036,0.025715861469507217,0.00900234654545784
1772527351882232300,2.382232421875,-0.007215220481157303,0.02458508312702179,0.0068822032772004604
1772527351892230400,2.39223046875,0.000551966018974781,0.02156013622879982,0.008782368153333664
1772527351902227700,2.402227783203125,0.0026023336686193943,0.01601756550371647,0.002326865680515766
1772527351912225500,2.4122255859375,0.00544365867972374,0.0061910804361104965,0.008281627669930458
1772527351922223600,2.4222236328125,0.0039120749570429325,0.0005638208240270615,0.01527535542845726
1772527351932221700,2.4322216796875,0.001092778518795967,0.008900455199182034,0.024130385369062424
1772527351942219500,2.442219482421875,-0.0012340256944298744,0.01583532616496086,0.018310848623514175
1772527351952217600,2.452217529296875,-0.004417454823851585,0.02486126869916916,0.010621324181556702
1772527351962215400,2.46221533203125,-0.0076073892414569855,0.028733769431710243,0.004608705639839172
1772527351972212500,2.47221240234375,-0.010364027693867683,0.02805572934448719,0.0014989320188760757
1772527351982210600,2.48221044921875,-0.013971278443932533,0.02228492684662342,0.0034118806943297386
1772527351992208400,2.49220849609375,-0.013566328212618828,0.013316715136170387,0.00323740066960454
1772527352002206500,2.50220654296875,-0.011209962889552116,0.007001029327511787,0.007902193814516068
1772527352012204500,2.51220458984375,-0.011518129147589207,0.0018351520411670208,0.001041314098984003
1772527352022202400,2.522202392578125,-0.006569442339241505,0.004994726274162531,-0.006200619973242283
1772527352032199700,2.53219970703125,-0.006465243175625801,-0.0016161175444722176,-0.015144890174269676
1772527352042197500,2.542197509765625,0.001960200257599354,-0.011350237764418125,-0.009827090427279472
1772527352052195600,2.552195556640625,0.006193492561578751,-0.017752602696418762,-0.007881652563810349
1772527352062193700,2.562193603515625,0.009550939314067364,-0.015148032456636429,-0.007533310912549496
1772527352072191500,2.57219140625,0.00922310445457697,-0.02563396282494068,-0.004913559183478355
1772527352082189600,2.582189453125,0.010794103145599365,-0.02514660358428955,-0.0017348104156553745
1772527352092186400,2.592186279296875,0.006316264159977436,-0.014011025428771973,0.0006779027171432972
1772527352102184400,2.602184326171875,0.001543613150715828,-0.010967830196022987,-0.004171713255345821
1772527352112182500,2.6121826171875,0.0003625396639108658,-0.011154478415846825,-0.0038895297329872847
1772527352122180400,2.622180419921875,0.0028398120775818825,-0.01358914002776146,-0.008946872316300869
1772527352132178400,2.632178466796875,0.004110139794647694,-0.009047651663422585,-0.012918444350361824
1772527352142176500,2.642176513671875,0.010399993509054184,-0.019471265375614166,-0.013026569038629532
1772527352152174600,2.652174560546875,0.014285850338637829,-0.02215489186346531,-0.013439737260341644
1772527352162171600,2.662171630859375,0.019547991454601288,-0.024241212755441666,-0.022340286523103714
1772527352172169500,2.67216943359375,0.017386149615049362,-0.02700924128293991,-0.01238328218460083
1772527352182167600,2.68216748046875,0.020248515531420708,-0.025151686742901802,-0.00372507912106812
1772527352192165600,2.69216552734375,0.014253889210522175,-0.01951752044260502,-0.002785293385386467
1772527352202163500,2.70216357421875,0.017289627343416214,-0.01398853212594986,0.0029309154488146305
1772527352212161500,2.71216162109375,0.009738996624946594,-0.006489153020083904,-0.0043907370418310165
1772527352222158300,2.722158447265625,0.0073618595488369465,-0.006179427728056908,-0.009607869200408459
1772527352232156400,2.732156494140625,0.006967748515307903,-0.01301311794668436,-0.018514344468712807
1772527352242154500,2.742154541015625,0.0027335891500115395,-0.026865549385547638,-0.019650716334581375
1772527352252152300,2.75215234375,0.002298962324857712,-0.032120708376169205,-0.017186803743243217
1772527352262150400,2.762150390625,-0.0035109901800751686,-0.026575474068522453,-0.017696533352136612
1772527352272148700,2.772148681640625,-0.00616075936704874,-0.02011089399456978,-0.011521106585860252
1772527352282145500,2.7821455078125,-0.01073047611862421,-0.016672220081090927,-0.010732544586062431
1772527352292143600,2.7921435546875,-0.010679574683308601,-0.007349311839789152,-0.01341654360294342
1772527352302141400,2.802141357421875,-0.011580787599086761,0.004048751201480627,-0.02022571489214897
1772527352312139500,2.812139404296875,-0.011635729111731052,0.0012624701485037804,-0.02670815959572792
1772527352322137600,2.8221376953125,-0.010672996751964092,0.0005492754280567169,-0.02743520215153694
1772527352332135400,2.832135498046875,-0.012488357722759247,0.001127774827182293,-0.02688421495258808
1772527352342133500,2.842133544921875,-0.013938982039690018,0.0005607879720628262,-0.025089245289564133
1772527352352130600,2.852130615234375,-0.014315435662865639,0.003004463855177164,-0.017703678458929062
1772527352362128400,2.86212841796875,-0.017411893233656883,0.004467871505767107,-0.010045759379863739
1772527352372126500,2.87212646484375,-0.014559153467416763,0.0017599286511540413,-0.003131548874080181
1772527352382124500,2.88212451171875,-0.008792078122496605,-0.002212708815932274,-0.0006007468327879906
1772527352392122600,2.89212255859375,-0.0008703898638486862,-0.010806608945131302,0.005270124413073063
1772527352402120700,2.90212060546875,0.0025001070462167263,-0.02162276953458786,0.009495495818555355
1772527352412117500,2.912117431640625,0.012312714010477066,-0.022969715297222137,0.014348640106618404
1772527352422115600,2.922115478515625,0.014794779941439629,-0.030216176062822342,0.01598541811108589
1772527352432113700,2.93211376953125,0.016226686537265778,-0.0352327935397625,0.016023946925997734
1772527352442111500,2.942111572265625,0.014307877980172634,-0.03332304209470749,0.01990870013833046
1772527352452109600,2.952109619140625,0.012623271904885769,-0.02830447629094124,0.011821656487882137
1772527352462107600,2.962107666015625,0.011279973201453686,-0.017935458570718765,0.0020020492374897003
1772527352472104400,2.9721044921875,0.004952725954353809,-0.01575390249490738,-0.0037569485139101744
1772527352482102500,2.9821025390625,0.0038778739981353283,-0.018431710079312325,-0.004423804115504026
1772527352492100400,2.992100341796875,-0.00015095621347427368,-0.01754823513329029,-0.0042063347063958645
1772527352502098700,3.0020986328125,-0.003438361920416355,-0.01964947022497654,-0.0010600760579109192
1772527352512096800,3.0120966796875,-0.014622307382524014,-0.010278338566422462,0.0014930958859622478
1772527352522094600,3.022094482421875,-0.018370971083641052,0.0070242187939584255,0.00006937049329280853
1772527352532092700,3.0320927734375,-0.021863939240574837,0.009983504191040993,0.0026080957613885403
1772527352542089500,3.04208935546875,-0.021070050075650215,0.006654019467532635,-0.00003748852759599686
1772527352552087600,3.052087646484375,-0.021383197978138924,0.0111505426466465,-0.005509330425411463
1772527352562085600,3.062085693359375,-0.017118945717811584,0.009900987148284912,-0.00909314677119255
1772527352572083500,3.07208349609375,-0.015611827373504639,0.007304660510271788,-0.005343460477888584
1772527352582081500,3.08208154296875,-0.009920651093125343,-0.00211387500166893,0.001763450913131237
1772527352592079600,3.09207958984375,-0.0004138872027397156,-0.003425410483032465,0.0015331110917031765
1772527352602076400,3.102076416015625,0.002842093352228403,-0.0032070311717689037,-0.002114088274538517
1772527352612074500,3.112074462890625,0.00797366350889206,-0.010583152994513512,-0.0029608409386128187
1772527352622072600,3.122072509765625,0.01591520942747593,-0.018481822684407234,0.000222702044993639
1772527352632070700,3.132070556640625,0.01563253439962864,-0.02950982376933098,-0.0018947110511362553
1772527352642068700,3.14206884765625,0.015204031020402908,-0.024066055193543434,-0.004494222346693277
1772527352652066600,3.152066650390625,0.016978494822978973,-0.039111051708459854,0.0019610137678682804
1772527352662063600,3.162063720703125,0.011005824431777,-0.028095418587327003,0.019225221127271652
1772527352672061400,3.1720615234375,0.00015215016901493073,-0.021489141508936882,0.03129056096076965
1772527352682059500,3.1820595703125,0.00462705921381712,-0.024340055882930756,0.03931466490030289
1772527352692057600,3.1920576171875,-0.004012501798570156,-0.031178520992398262,0.03693779557943344
1772527352702055400,3.202055419921875,0.0022235563956201077,-0.03140515461564064,0.029270552098751068
1772527352712053500,3.212053466796875,-0.0010799821466207504,-0.02918301150202751,0.019669082015752792
1772527352722051600,3.222051513671875,-0.004128769040107727,-0.02766714058816433,0.011910229921340942
1772527352732048400,3.23204833984375,-0.004594748839735985,-0.02534511312842369,-0.0005998811684548855
1772527352742046700,3.242046630859375,-0.0047316355630755424,-0.016508210450410843,-0.01149966660887003
1772527352752044800,3.252044921875,-0.0044774217531085014,-0.009499264881014824,-0.01595708727836609
1772527352762043000,3.26204296875,-0.006216200068593025,-0.004688797052949667,-0.021303115412592888
1772527352772041000,3.272041015625,-0.0007053501904010773,-0.00939914956688881,-0.022406067699193954
1772527352782039000,3.2820390625,0.0028361217118799686,-0.016524437814950943,-0.019954094663262367
1772527352792035800,3.292035888671875,0.005666491109877825,-0.023698927834630013,-0.013917241245508194
1772527352802034000,3.302033935546875,0.0054782056249678135,-0.025926928967237473,-0.011526787653565407
1772527352812032000,3.312031982421875,0.0055318474769592285,-0.022514456883072853,-0.008069603703916073
1772527352822029800,3.32202978515625,-0.0029591089114546776,-0.01136167161166668,-0.0003307242877781391
1772527352832028000,3.33202783203125,-0.0032622134312987328,0.003123015630990267,-0.0010118954814970493
1772527352842026000,3.34202587890625,-0.003185248002409935,0.0040362137369811535,0.002617726568132639
1772527352852022800,3.352022705078125,0.003746466711163521,0.0021882858127355576,0.005648825317621231
1772527352862020900,3.362020751953125,0.012275505810976028,-0.002441619522869587,0.009023849852383137
1772527352872018700,3.372018798828125,0.022893033921718597,-0.011352412402629852,0.004241389222443104
1772527352882017000,3.38201708984375,0.033168308436870575,-0.018701672554016113,-0.0036476925015449524
1772527352892015000,3.39201513671875,0.04064018651843071,-0.03109836019575596,-0.011559434235095978
1772527352902013000,3.402012939453125,0.04597955942153931,-0.0332145094871521,-0.016774967312812805
1772527352912011000,3.412010986328125,0.04601577669382095,-0.035147640854120255,-0.017507381737232208
1772527352922007800,3.4220078125,0.04208388924598694,-0.023479800671339035,-0.0253306832164526
1772527352932006000,3.432005859375,0.035150766372680664,-0.011422453448176384,-0.028633467853069305
1772527352942004000,3.44200390625,0.030264398083090782,-0.0011892574839293957,-0.03155895322561264
1772527352952001800,3.452001708984375,0.022127792239189148,0.0027179080061614513,-0.030194170773029327
1772527352962000000,3.461999755859375,0.012625101953744888,0.009465292096138,-0.028500666841864586
1772527352971998000,3.471998046875,-0.00147976353764534,0.01200486347079277,-0.0238090418279171
1772527352981994800,3.481994873046875,-0.005374637432396412,0.012054931372404099,-0.01352204941213131
1772527352991992800,3.491992919921875,-0.011196226812899113,0.02769261971116066,-0.015061089769005775
1772527353001991000,3.501990966796875,-0.014797353185713291,0.03365490585565567,-0.019290722906589508
1772527353011989000,3.511989013671875,-0.015281249769032001,0.03225887566804886,-0.019388994202017784
1772527353021987000,3.521987060546875,-0.012879610992968082,0.03046363964676857,-0.01947394758462906
1772527353031985000,3.53198486328125,-0.007418609224259853,0.0291509460657835,-0.026972968131303787
1772527353041983000,3.54198291015625,0.0027725095860660076,0.03269587457180023,-0.0428246334195137
1772527353051980000,3.55197998046875,0.00563407689332962,0.029258109629154205,-0.054485928267240524
1772527353061977900,3.561977783203125,0.009939342737197876,0.02417919598519802,-0.06221016123890877
1772527353071976000,3.571975830078125,0.008435646072030067,0.022538503631949425,-0.05923028290271759
1772527353081974000,3.58197412109375,0.007422579452395439,0.018404744565486908,-0.06031658872961998
1772527353091971800,3.591971923828125,0.0033839670941233635,0.016653943806886673,-0.061330050230026245
1772527353101970000,3.601969970703125,0.0063509950414299965,0.019484350457787514,-0.04864567890763283
1772527353111967000,3.611967041015625,0.006942335516214371,0.009980078786611557,-0.03280702233314514
1772527353121965000,3.621965087890625,0.010479279793798923,-0.001418516505509615,-0.02538692019879818
1772527353131963100,3.631963134765625,0.016166456043720245,-0.003550067311152816,-0.015284018591046333
1772527353141961000,3.6419609375,0.020059730857610703,-0.007580495439469814,-0.01294816005975008
1772527353151959000,3.651958984375,0.018772706389427185,-0.0034005811903625727,-0.020075000822544098
1772527353161957000,3.66195703125,0.012769141234457493,-0.0035489192232489586,-0.01954663172364235
1772527353171954000,3.671953857421875,0.008613089099526405,-0.007394710555672646,-0.016754794865846634
1772527353181952000,3.681951904296875,-0.0039200130850076675,-0.0007091108709573746,-0.014490841887891293
1772527353191949800,3.69194970703125,-0.012493756599724293,-0.0007206848822534084,-0.007145799230784178
1772527353201948000,3.701947998046875,-0.0167742557823658,0.0016322177834808826,-0.010612435638904572
1772527353211946000,3.711946044921875,-0.01651684381067753,0.008465501479804516,-0.004937704652547836
1772527353221943800,3.72194384765625,-0.013864334672689438,0.007413286715745926,-0.00428203446790576
1772527353231942000,3.73194189453125,-0.006578989326953888,0.0032273903489112854,-0.0036224147770553827
1772527353241939000,3.74193896484375,0.001616089604794979,0.0016108513809740543,-0.01019296608865261
1772527353251937000,3.75193701171875,0.008188161998987198,-0.005342046730220318,-0.010371597483754158
1772527353261935000,3.76193505859375,0.011999944224953651,-0.0005041486583650112,-0.012709319591522217
1772527353271933000,3.771932861328125,0.007645484525710344,-0.0003465176559984684,-0.009026013314723969
1772527353281931000,3.781930908203125,0.00620338274165988,-0.0007894011214375496,-0.009875028394162655
1772527353291929000,3.79192919921875,-0.004338890314102173,0.0004966459237039089,-0.010911509394645691
1772527353301926000,3.80192578125,-0.007985024712979794,0.0007629622705280781,-0.007363379467278719
1772527353311924000,3.811924072265625,-0.01206430234014988,0.005264279432594776,0.00021508941426873207
1772527353321921800,3.821921875,-0.016539745032787323,0.011351998895406723,-0.0006943801417946815
1772527353331920000,3.831919921875,-0.02003122866153717,0.02033715695142746,-0.004690762609243393
1772527353341918000,3.84191796875,-0.02483716979622841,0.016153328120708466,-0.0006094682030379772
1772527353351915800,3.851915771484375,-0.024813426658511162,0.012176159769296646,0.003190017770975828
1772527353361913000,3.8619130859375,-0.025682149454951286,0.021398155018687248,0.006605522241443396
1772527353371911000,3.871910888671875,-0.02826785109937191,0.019827648997306824,0.00416884059086442
1772527353381909000,3.881908935546875,-0.024631036445498466,0.013962836936116219,0.002290512900799513
1772527353391907000,3.891906982421875,-0.022364802658557892,0.00793721154332161,0.007791982498019934
1772527353401905000,3.90190478515625,-0.013639486394822598,-0.0012461659498512745,0.016344724223017693
1772527353411903000,3.911903076171875,-0.0011978065595030785,-0.01309528574347496,0.022738508880138397
1772527353421901000,3.921901123046875,0.005173007026314735,-0.013542696833610535,0.03280659019947052
1772527353431897900,3.93189794921875,0.011338453739881516,-0.015097327530384064,0.04490768164396286
1772527353441896000,3.94189599609375,0.022395631298422813,-0.023999743163585663,0.059561993926763535
1772527353451893800,3.951893798828125,0.02965468540787697,-0.02832176722586155,0.06423939764499664
1772527353461891800,3.961891845703125,0.03074205480515957,-0.019816694781184196,0.061879295855760574
1772527353471890000,3.971889892578125,0.03338044881820679,-0.02597525529563427,0.058764200657606125
1772527353481887700,3.9818876953125,0.034692585468292236,-0.026721738278865814,0.06150885298848152
1772527353491885000,3.991885009765625,0.03307007625699043,-0.023026930168271065,0.05956849828362465
1772527353501883100,4.001883056640625,0.027381829917430878,-0.015751175582408905,0.049310531467199326
1772527353511881000,4.011880859375,0.022336509078741074,-0.007608785759657621,0.030448846518993378
1772527353521879000,4.021879150390625,0.014362473040819168,0.0011359700001776218,0.015943141654133797
1772527353531876900,4.031876953125,0.00789760984480381,0.018197471275925636,0.005601932294666767
1772527353541875000,4.041875,0.003735089208930731,0.027816008776426315,-0.00469810888171196
1772527353551872000,4.0518720703125,0.0029900511726737022,0.02589486725628376,-0.007092313375324011
1772527353561869800,4.061869873046875,0.0008118515834212303,0.03212559595704079,-0.008114168420433998
1772527353571868000,4.071867919921875,-0.001777161844074726,0.03693809360265732,-0.00421197060495615
1772527353581866000,4.081865966796875,-0.009091533720493317,0.0332845002412796,0.007746155373752117
1772527353591863800,4.09186376953125,-0.009985134936869144,0.038098327815532684,0.013518644496798515
1772527353601862000,4.10186181640625,-0.013018474914133549,0.041480276733636856,0.016000976786017418
1772527353611859700,4.111859619140625,-0.018337227404117584,0.05263253301382065,0.010200368240475655
1772527353621857000,4.12185693359375,-0.029769646003842354,0.06837420910596848,0.0033962582238018513
1772527353631855000,4.131855224609375,-0.043169986456632614,0.08156824856996536,-0.013760602101683617
1772527353641853000,4.14185302734375,-0.04327145218849182,0.09117241203784943,-0.020430490374565125
1772527353651851000,4.15185107421875,-0.046890996396541595,0.08364813029766083,-0.02890162728726864
1772527353661849000,4.16184912109375,-0.039432279765605927,0.07532176375389099,-0.03467189893126488
1772527353671847000,4.171846923828125,-0.0298369862139225,0.06287402659654617,-0.029798025265336037
1772527353681844000,4.181843994140625,-0.01773424819111824,0.04086992144584656,-0.021723054349422455
1772527353691841800,4.191841796875,-0.005595638416707516,0.017850542441010475,-0.0076560149900615215
1772527353701840000,4.20183984375,0.010433661751449108,0.012761509045958519,-0.003647957695648074
1772527353711838000,4.211837890625,0.014697764068841934,-0.0008147954940795898,0.0005865562707185745
1772527353721835800,4.221835693359375,0.02904767543077469,-0.020120317116379738,0.009690038859844208
1772527353731833900,4.231833740234375,0.03575720638036728,-0.03981544077396393,0.015524027869105339
1772527353741830100,4.241830078125,0.03716681897640228,-0.060137223452329636,0.02773941494524479
1772527353751828200,4.251828125,0.03356184437870979,-0.07271162420511246,0.036931004375219345
1772527353761826300,4.261826416015625,0.030666988343000412,-0.07118616998195648,0.041014961898326874
1772527353771824000,4.27182421875,0.02816791832447052,-0.06931871175765991,0.04603251442313194
1772527353781822200,4.281822265625,0.027702931314706802,-0.07165350764989853,0.04919954389333725
1772527353791820000,4.291820068359375,0.02976992353796959,-0.08067787438631058,0.054452139884233475
1772527353801818000,4.301818115234375,0.034980665892362595,-0.09133052080869675,0.06395722925662994
1772527353811815200,4.311815185546875,0.038389623165130615,-0.09798315912485123,0.07161734253168106
1772527353821813000,4.32181298828125,0.04485950246453285,-0.09818742424249649,0.07369860261678696
1772527353831811000,4.33181103515625,0.04504052549600601,-0.10181732475757599,0.07431663572788239
1772527353841809200,4.34180908203125,0.0417720302939415,-0.10130147635936737,0.07831457257270813
1772527353851807200,4.35180712890625,0.042106326669454575,-0.09480360895395279,0.07091986387968063
1772527353861805300,4.361805419921875,0.04706992954015732,-0.09559617191553116,0.07562246918678284
1772527353871802000,4.371802001953125,0.04732947796583176,-0.09834705293178558,0.07182489335536957
1772527353881800200,4.38180029296875,0.048572905361652374,-0.09400929510593414,0.062345635145902634
1772527353891798300,4.39179833984375,0.0481373630464077,-0.08816270530223846,0.05997895821928978
1772527353901796000,4.401796142578125,0.04520948603749275,-0.0833090990781784,0.06258565187454224
1772527353911794200,4.411794189453125,0.039085015654563904,-0.07239839434623718,0.057776790112257004
1772527353921792300,4.421792236328125,0.03145692124962807,-0.05518319085240364,0.049580108374357224
1772527353931789000,4.4317890625,0.014443812891840935,-0.048824869096279144,0.04395025223493576
1772527353941787100,4.441787109375,0.004451366141438484,-0.038005243986845016,0.033139683306217194
1772527353951785000,4.451784912109375,-0.0038820086047053337,-0.021542996168136597,0.018763629719614983
1772527353961783300,4.461783203125,-0.01110769808292389,0.0027117421850562096,-0.0010082107037305832
1772527353971781400,4.471781494140625,-0.014192511327564716,0.021135469898581505,-0.013798929750919342
1772527353981779200,4.481779296875,-0.015735015273094177,0.026088684797286987,-0.01710178144276142
1772527353991777300,4.49177734375,-0.01391996257007122,0.02386733889579773,-0.0172202680259943
1772527354001774000,4.501774169921875,-0.010975038632750511,0.01569303125143051,-0.014485202729701996
1772527354011772200,4.511772216796875,-0.013188994489610195,0.010971823707222939,-0.00618026964366436
1772527354021770200,4.521770263671875,-0.016836460679769516,0.012995027005672455,-0.0018419800326228142
1772527354031768000,4.53176806640625,-0.021442359313368797,0.013269692659378052,0.0018817619420588017
1772527354041766100,4.54176611328125,-0.020750470459461212,0.011156739667057991,0.005164906848222017
1772527354051764200,4.55176416015625,-0.01901218667626381,0.011369453743100166,0.003973653540015221
1772527354061761000,4.561760986328125,-0.01691361516714096,0.012875471264123917,0.006359313614666462
1772527354071759000,4.571759033203125,-0.011613774113357067,0.007403945550322533,0.006951356306672096
1772527354081757200,4.581757080078125,-0.0054879700765013695,0.0017806803807616234,0.006833910942077637
1772527354091755300,4.59175537109375,0.0018278476782143116,-0.0005204956978559494,-0.0015635909512639046
1772527354101753300,4.60175341796875,0.012446137145161629,0.0002238578163087368,-0.008011369965970516
1772527354111751200,4.611751220703125,0.015427013859152794,0.0010976409539580345,-0.014944643713533878
1772527354121748200,4.621748291015625,0.01967528834939003,0.004311010707169771,-0.015480738133192062
1772527354131746000,4.63174609375,0.018641944974660873,-0.0009047705680131912,-0.0120537169277668
1772527354141744000,4.641744140625,0.012184045277535915,0.0007629008032381535,-0.011411627754569054
1772527354151742200,4.6517421875,0.0052914791740477085,0.002028984483331442,-0.008131345734000206
1772527354161740000,4.661739990234375,-0.002605592831969261,0.012340212240815163,-0.011205965653061867
1772527354171738000,4.671738037109375,-0.014880329370498657,0.021776041015982628,-0.013234295882284641
1772527354181735200,4.681735107421875,-0.02205062285065651,0.026829389855265617,-0.005752410739660263
1772527354191733200,4.691733154296875,-0.02150338515639305,0.032392263412475586,-0.0011123842559754848
1772527354201731300,4.7017314453125,-0.023086365312337875,0.042238499969244,-0.003969157114624977
1772527354211729200,4.711729248046875,-0.016643648967146873,0.04537022486329079,-0.008073710836470127
1772527354221727200,4.721727294921875,-0.008603831753134727,0.04173421114683151,-0.021522674709558487
1772527354231725300,4.731725341796875,0.011018645949661732,0.049094587564468384,-0.017836881801486015
1772527354241722000,4.74172216796875,0.019537031650543213,0.019123636186122894,-0.012554767541587353
1772527354251720200,4.75172021484375,0.025185521692037582,0.015670929104089737,-0.024284061044454575
1772527354261718300,4.76171826171875,0.019198201596736908,0.016186518594622612,-0.032474346458911896
1772527354271716000,4.771716064453125,0.011546939611434937,0.012964891269803047,-0.0255298875272274
1772527354281714200,4.781714111328125,0.005497036501765251,0.008416213095188141,-0.011209804564714432
1772527354291712300,4.791712158203125,-0.0021197954192757607,0.014372659847140312,-0.0016377819702029228
1772527354301710000,4.8017099609375,-0.004930495284497738,0.019934670999646187,0.0041684419848024845
1772527354311707100,4.81170703125,-0.0039307428523898125,0.026516733691096306,0.0031132521107792854
1772527354321705200,4.821705322265625,0.0067442720755934715,0.017892885953187943,0.0023382725194096565
1772527354331703300,4.831703369140625,0.012825943529605865,0.015776390209794044,0.003287622705101967
1772527354341701400,4.841701416015625,0.017172489315271378,0.01081811636686325,-0.0022703949362039566
1772527354351699200,4.85169921875,0.01637852191925049,0.009104927070438862,0.00031990790739655495
1772527354361697300,4.861697265625,0.008040164597332478,-0.001394585706293583,-0.00450760405510664
1772527354371694000,4.871694091796875,0.006077568978071213,0.002355305477976799,-0.005935236345976591
1772527354381692200,4.881692138671875,-0.004083455540239811,0.005000090226531029,-0.009747818112373352
1772527354391690200,4.891690185546875,-0.010341848246753216,0.010944884270429611,-0.008618814870715141
1772527354401688000,4.90168798828125,-0.0179813914000988,0.0012674895115196705,-0.00902840867638588
1772527354411686100,4.91168603515625,-0.019040225073695183,-0.008308873511850834,-0.006553156767040491
1772527354421684200,4.921684326171875,-0.020426668226718903,-0.013685530051589012,-0.006858621723949909
1772527354431682000,4.93168212890625,-0.01966884545981884,-0.011873099952936172,-0.009230632334947586
1772527354441679400,4.941679443359375,-0.01660620979964733,-0.01152688916772604,-0.006252418737858534
1772527354451677200,4.95167724609375,-0.0123002203181386,-0.013200279325246811,-0.005384473130106926
1772527354461675300,4.96167529296875,-0.010709247551858425,-0.009782378561794758,-0.010496944189071655
1772527354471673300,4.97167333984375,-0.016567327082157135,-0.0031139070633798838,-0.011440834030508995
1772527354481671200,4.981671142578125,-0.012122511863708496,0.004509391728788614,-0.010396076366305351
1772527354491669200,4.991669189453125,-0.014021998271346092,0.011686163023114204,-0.016863983124494553
1772527354501666000,5.001666015625,-0.01473173126578331,0.016574395820498466,-0.019525546580553055
1772527354511664000,5.0116640625,-0.014749836176633835,0.013494614511728287,-0.014940803870558739
1772527354521662200,5.021662109375,-0.02056378312408924,0.015118610113859177,-0.01644362509250641
1772527354531660000,5.031659912109375,-0.02586495503783226,0.01507665403187275,-0.015984565019607544
1772527354541658000,5.041658203125,-0.03267279267311096,0.006702077575027943,-0.019584359601140022
1772527354551656200,5.05165625,-0.036400459706783295,0.007266095373779535,-0.009032005444169044
1772527354561653200,5.0616533203125,-0.04426663741469383,0.01383611373603344,-0.006971783470362425
1772527354571651300,5.0716513671875,-0.044572409242391586,0.025390198454260826,-0.012681489810347557
1772527354581649200,5.081649169921875,-0.04170338436961174,0.028865089640021324,-0.014306817203760147
1772527354591647200,5.091647216796875,-0.03560896962881088,0.014086451381444931,-0.006753404159098864
1772527354601645300,5.101645263671875,-0.02583703026175499,-0.001974540762603283,0.0071174041368067265
1772527354611643100,5.11164306640625,-0.019411254674196243,-0.014156173914670944,0.01391705684363842
1772527354621640200,5.12164013671875,-0.008775654248893261,-0.01653091423213482,0.02090279571712017
1772527354631638000,5.131637939453125,-0.0031920988112688065,-0.01569449156522751,0.0286162830889225
1772527354641636000,5.141635986328125,0.0011142324656248093,-0.020364610478281975,0.027148347347974777
1772527354651634200,5.15163427734375,0.008851784281432629,-0.020393844693899155,0.02374584972858429
1772527354661632000,5.161632080078125,0.013979701325297356,-0.02843872271478176,0.026077978312969208
1772527354671630000,5.171630126953125,0.01461573876440525,-0.03113674744963646,0.02547965571284294
1772527354681628200,5.181628173828125,0.01382957398891449,-0.020152008160948753,0.02721017599105835
1772527354691625200,5.191625244140625,0.014958411455154419,-0.015002112835645676,0.023563265800476074
1772527354701623300,5.201623291015625,0.009308782406151295,-0.012228164821863174,0.018885957077145576
1772527354711621400,5.211621337890625,0.010328389704227448,-0.013824747875332832,0.015143373981118202
1772527354721619200,5.221619140625,0.007255367934703827,-0.009732267819344997,0.0038044326938688755
1772527354731617300,5.2316171875,0.0020200908184051514,-0.01518463995307684,-0.00546505581587553
1772527354741616000,5.2416162109375,-0.0031469743698835373,-0.005921100731939077,-0.004184075631201267
1772527354751613000,5.251613037109375,-0.008508032187819481,-0.000022955704480409622,0.00030512735247612
1772527354761611000,5.261611083984375,-0.009172758087515831,0.011150868609547615,-0.0008341730572283268
1772527354771609000,5.271609130859375,-0.009299565106630325,0.015519578009843826,-0.012672722339630127
1772527354781607000,5.28160693359375,-0.005614549852907658,0.011144004762172699,-0.018731413409113884
1772527354791605000,5.29160498046875,-0.0040548453107476234,0.01366804726421833,-0.02576393634080887
1772527354801602800,5.301602783203125,-0.007329467684030533,0.019154157489538193,-0.032299865037202835
1772527354811600000,5.311599853515625,-0.009365576319396496,0.01883668825030327,-0.03686962649226189
1772527354821598000,5.321597900390625,-0.01275578048080206,0.00963679887354374,-0.03606508672237396
1772527354831595800,5.331595703125,-0.00961933471262455,0.004580829292535782,-0.029004357755184174
1772527354841593900,5.34159375,-0.013261474668979645,0.003817567601799965,-0.026143856346607208
1772527354851592000,5.351592041015625,-0.012449816800653934,0.00866929441690445,-0.021405115723609924
1772527354861590000,5.361590087890625,-0.007290207780897617,0.011659225448966026,-0.02030017226934433
1772527354871588000,5.371588134765625,0.009784344583749771,0.005319427698850632,-0.023936761543154716
1772527354881585000,5.3815849609375,0.025504453107714653,-0.011815350502729416,-0.025085916742682457
1772527354891583000,5.3915830078125,0.036742422729730606,-0.018239570781588554,-0.0351918563246727
1772527354901581000,5.4015810546875,0.040106259286403656,-0.018921872600913048,-0.0349457822740078
1772527354911579000,5.411578857421875,0.043882813304662704,-0.023030618205666542,-0.0323474258184433
1772527354921577000,5.421576904296875,0.044796813279390335,-0.03083927370607853,-0.02892153523862362
1772527354931575000,5.431574951171875,0.040855638682842255,-0.04028642922639847,-0.019463539123535156
1772527354941571800,5.44157177734375,0.03955361992120743,-0.046949125826358795,-0.004252629354596138
1772527354951570000,5.45156982421875,0.03161180764436722,-0.046662136912345886,0.0111392205581069
1772527354961568000,5.461568115234375,0.027989372611045837,-0.04131530970335007,0.028886791318655014
1772527354971566000,5.471566162109375,0.024142172187566757,-0.034253671765327454,0.03877590596675873
1772527354981564200,5.481564208984375,0.027369922026991844,-0.027652494609355927,0.04031281918287277
1772527354991562000,5.49156201171875,0.034228235483169556,-0.03187033161520958,0.029540445655584335
1772527355001559000,5.50155908203125,0.042532503604888916,-0.038518380373716354,0.018695522099733353
1772527355011556900,5.511556884765625,0.04362749308347702,-0.03820795565843582,0.012282716110348701
1772527355021555000,5.521554931640625,0.0439089871942997,-0.041848231106996536,0.00914231687784195
1772527355031553000,5.531552978515625,0.04207387566566467,-0.04563059285283089,0.010394513607025146
1772527355041550800,5.54155078125,0.03731986880302429,-0.03848985955119133,0.01288004219532013
1772527355051549000,5.551548828125,0.02580386772751808,-0.02860107086598873,0.015073154121637344
1772527355061547000,5.561547119140625,0.014465459622442722,-0.010712884366512299,0.010611560195684433
1772527355071543800,5.571543701171875,0.007422114256769419,-0.0024695848114788532,0.006028373260051012
1772527355081542000,5.5815419921875,0.0015628938563168049,0.004977945238351822,-0.000038840342313051224
1772527355091540000,5.5915400390625,0.0009337496012449265,0.014626212418079376,-0.009077522903680801
1772527355101538000,5.6015380859375,-0.0063180383294820786,0.01586271822452545,-0.012291692197322845
1772527355111536000,5.6115361328125,-0.008725842460989952,0.010599156841635704,-0.010461922734975815
1772527355121534000,5.621533935546875,-0.007103977724909782,0.007069138344377279,-0.008909832686185837
1772527355131531000,5.631531005859375,-0.004772567190229893,0.003985059447586536,-0.002652757801115513
1772527355141528800,5.64152880859375,-0.007110822945833206,0.011152423918247223,-0.009547415189445019
1772527355151527000,5.65152685546875,-0.009875832125544548,0.012817475944757462,-0.014261031523346901
1772527355161525000,5.66152490234375,-0.0034038182348012924,0.01570514217019081,-0.012137427926063538
1772527355171522800,5.671522705078125,-0.007281608879566193,0.01178953517228365,-0.012501593679189682
1772527355181521000,5.68152099609375,-0.004303128458559513,0.012314711697399616,-0.008409379981458187
1772527355191518000,5.69151806640625,-0.00991517212241888,0.019106285646557808,-0.006405416876077652
1772527355201516000,5.70151611328125,-0.012744779698550701,0.01803755760192871,-0.005565189756453037
1772527355211514000,5.71151416015625,-0.013449303805828094,0.019843753427267075,0.003937147092074156
1772527355221512000,5.721511962890625,-0.017916223034262657,0.028169861063361168,0.0036897393874824047
1772527355231510000,5.731510009765625,-0.01880662702023983,0.03828710317611694,0.0131347281858325
1772527355241508000,5.741508056640625,-0.02387382462620735,0.04139474779367447,0.019401945173740387
1772527355251506000,5.751505859375,-0.02145906165242195,0.0363592654466629,0.02546844631433487
1772527355261503000,5.7615029296875,-0.010512136854231358,0.024956142529845238,0.02319570630788803
1772527355271501000,5.7715009765625,-0.004873963072896004,0.021434318274259567,0.016812153160572052
1772527355281499000,5.781498779296875,-0.0013215718790888786,0.02037198282778263,0.01154309045523405
1772527355291497000,5.7914970703125,-0.0017517441883683205,0.020131804049015045,-0.002593901939690113
1772527355301495000,5.8014951171875,-0.0035951845347881317,0.022361669689416885,-0.006552690640091896
1772527355311492900,5.811492919921875,-0.012604126706719398,0.028152387589216232,-0.012289361096918583
1772527355321490200,5.821490234375,-0.018319537863135338,0.022316869348287582,-0.017085447907447815
1772527355331488000,5.831488037109375,-0.03314505144953728,0.024568714201450348,-0.021288670599460602
1772527355341486000,5.841486083984375,-0.045413170009851456,0.03216777741909027,-0.022816525772213936
1772527355351484200,5.851484130859375,-0.05133451521396637,0.03150053322315216,-0.01948249340057373
1772527355361482000,5.86148193359375,-0.05919722840189934,0.03571072220802307,-0.009478595107793808
1772527355371480000,5.87147998046875,-0.06090370938181877,0.031650058925151825,0.003872609231621027
1772527355381476900,5.881476806640625,-0.05643279477953911,0.025281377136707306,0.011583259329199791
1772527355391475000,5.891474853515625,-0.04532881826162338,0.012750016525387764,0.023933157324790955
1772527355401473000,5.90147314453125,-0.030905406922101974,-0.0019674114882946014,0.03207949921488762
1772527355411470800,5.911470947265625,-0.007423940114676952,-0.017645174637436867,0.038866590708494186
1772527355421469000,5.921468994140625,0.0052705504931509495,-0.045427270233631134,0.0471213236451149
1772527355431467000,5.931467041015625,0.018444526940584183,-0.06353211402893066,0.05598159506917
1772527355441464000,5.941464111328125,0.03183463588356972,-0.08752400428056717,0.06549307703971863
1772527355451462100,5.951462158203125,0.03848112374544144,-0.10506360232830048,0.06111982837319374
1772527355461460000,5.9614599609375,0.04309185594320297,-0.09153980016708374,0.05015825852751732
1772527355471458000,5.9714580078125,0.03432202711701393,-0.0722775086760521,0.034699585288763046
1772527355481456000,5.9814560546875,0.02733096294105053,-0.06394820660352707,0.024713797494769096
1772527355491454000,5.991453857421875,0.023558825254440308,-0.05990556627511978,0.02536718174815178
1772527355501452000,6.0014521484375,0.013750402256846428,-0.05701657012104988,0.027215149253606796
1772527355511448800,6.01144873046875,0.013274496421217918,-0.05101194232702255,0.02698904648423195
1772527355521447000,6.021447021484375,0.015779465436935425,-0.034538425505161285,0.036582283675670624
1772527355531445000,6.031445068359375,0.016454339027404785,-0.03720193728804588,0.0416896753013134
1772527355541442800,6.04144287109375,0.019106581807136536,-0.037517257034778595,0.04089418798685074
1772527355551441000,6.05144091796875,0.02589426189661026,-0.04523341357707977,0.04133551940321922
1772527355561439000,6.06143896484375,0.02680080197751522,-0.04167729243636131,0.04571561887860298
1772527355571436000,6.07143603515625,0.020948659628629684,-0.050023481249809265,0.03757815435528755
1772527355581434000,6.08143408203125,0.035458095371723175,-0.042978353798389435,0.028378529474139214
1772527355591432000,6.091431884765625,0.03191494941711426,-0.03171965479850769,0.021398870274424553
1772527355601430000,6.101429931640625,0.03673979640007019,-0.027344346046447754,0.0014171735383570194
1772527355611428000,6.111427978515625,0.03138646483421326,-0.019995518028736115,-0.011008469387888908
1772527355621426000,6.121426025390625,0.02748946100473404,-0.01052078977227211,-0.00536283478140831
1772527355631423000,6.131423095703125,0.018571142107248306,-0.0031656501814723015,-0.00032351259142160416
1772527355641420800,6.1414208984375,0.011113226413726807,0.010255617089569569,0.006122935563325882
1772527355651419000,6.1514189453125,0.009770803153514862,0.029914990067481995,0.014372275210916996
1772527355661417000,6.1614169921875,0.012057127431035042,0.03723788261413574,0.017831988632678986
1772527355671414800,6.171414794921875,0.02209397219121456,0.03302298113703728,0.012482297606766224
1772527355681412900,6.181412841796875,0.031123418360948563,0.03994480147957802,0.0061495667323470116
1772527355691411000,6.191410888671875,0.03403014689683914,0.04654165729880333,-0.0070066931657493114
1772527355701408000,6.201407958984375,0.03761635720729828,0.049156080931425095,-0.011636864393949509
1772527355711406000,6.211406005859375,0.03592479228973389,0.05219434201717377,-0.017017537727952003
1772527355721404200,6.221404052734375,0.03541985899209976,0.06119529530405998,-0.024183835834264755
1772527355731402000,6.231402099609375,0.029435966163873672,0.0690162181854248,-0.022762175649404526
1772527355741400000,6.241400146484375,0.019340720027685165,0.06828145682811737,-0.020155474543571472
1772527355751398100,6.251398193359375,0.008878795430064201,0.07116233557462692,-0.013997934758663177
1772527355761395000,6.26139501953125,0.001024334691464901,0.0714544802904129,-0.0021066544577479362
1772527355771393000,6.27139306640625,-0.006488177925348282,0.0744469165802002,0.0018882430158555508
1772527355781391000,6.28139111328125,-0.012308517470955849,0.08506813645362854,-0.00797290913760662
1772527355791389000,6.291388916015625,-0.01992972195148468,0.08377449214458466,-0.019200041890144348
1772527355801387000,6.301386962890625,-0.02214360609650612,0.0814434289932251,-0.019127337262034416
1772527355811385000,6.311385009765625,-0.018192656338214874,0.07036887854337692,-0.018052995204925537
1772527355821382100,6.321382080078125,-0.011858061887323856,0.06272507458925247,-0.016493182629346848
1772527355831380200,6.331380126953125,-0.00966776255518198,0.05332593619823456,-0.01725635677576065
1772527355841378000,6.3413779296875,-0.005130002275109291,0.04123278707265854,-0.01262085884809494
1772527355851376000,6.351376220703125,-0.001520809717476368,0.038052257150411606,-0.0015151668339967728
1772527355861374200,6.361374267578125,0.001181500032544136,0.032995712012052536,0.0038926484994590282
1772527355871372000,6.3713720703125,0.009326547384262085,0.0332714319229126,0.011503253132104874
1772527355881370000,6.3813701171875,0.00993321556597948,0.0307608712464571,0.019831491634249687
1772527355891367000,6.391366943359375,0.015385501086711884,0.02265927381813526,0.029428748413920403
1772527355901365000,6.401364990234375,0.02114219032227993,0.01043562963604927,0.0461355522274971
1772527355911363000,6.411363037109375,0.025331459939479828,0.004327727481722832,0.06093655899167061
1772527355921361000,6.42136083984375,0.03589435666799545,-0.0006633023731410503,0.06679658591747284
1772527355931359000,6.43135888671875,0.03544268757104874,-0.0003337063826620579,0.06224827840924263
1772527355941357000,6.441357177734375,0.03605734556913376,0.010253957472741604,0.06147489324212074
1772527355951354000,6.45135400390625,0.0330687090754509,0.01037898100912571,0.06133450195193291
1772527355961352200,6.461352294921875,0.0315680131316185,0.011294309049844742,0.054583922028541565
1772527355971350000,6.47135009765625,0.03057515062391758,0.017129521816968918,0.05417923256754875
1772527355981348000,6.48134814453125,0.02215769700706005,0.021403629332780838,0.0484560988843441
1772527355991346200,6.49134619140625,0.015432529151439667,0.029512055218219757,0.04173201695084572
1772527356001344000,6.501343994140625,0.009895284660160542,0.04138043150305748,0.038167908787727356
1772527356011341000,6.511341064453125,0.00365569069981575,0.04803501442074776,0.03366426005959511
1772527356021339000,6.5213388671875,0.0017707054503262043,0.046522337943315506,0.03206769376993179
1772527356031337000,6.5313369140625,-0.00030172988772392273,0.04251745715737343,0.033779509365558624
1772527356041335000,6.5413349609375,-0.004275432787835598,0.03110421448945999,0.039377737790346146
1772527356051332900,6.551332763671875,-0.011540956795215607,0.028765324503183365,0.03681351616978645
1772527356061331000,6.5613310546875,-0.014664310961961746,0.032798949629068375,0.03298149257898331
1772527356071329000,6.5713291015625,-0.01823180727660656,0.038017965853214264,0.025733523070812225
1772527356081326000,6.581326171875,-0.027559794485569,0.03424959257245064,0.01457221433520317
1772527356091324200,6.59132421875,-0.03219784051179886,0.03967835754156113,0.004077382851392031
1772527356101322000,6.601322021484375,-0.04235167056322098,0.042191050946712494,-0.0028124807868152857
1772527356111320000,6.611320068359375,-0.04223905876278877,0.04455467313528061,-0.011024604551494122
1772527356121318100,6.621318115234375,-0.040457405149936676,0.045907292515039444,-0.015504308044910431
1772527356131316000,6.63131591796875,-0.031863950192928314,0.04335317760705948,-0.014745883643627167
1772527356141313000,6.64131298828125,-0.02570965327322483,0.030867211520671844,-0.01109468936920166
1772527356151311000,6.65131103515625,-0.01255862321704626,0.013401690870523453,0.0027272053994238377
1772527356161309000,6.661308837890625,-0.007830181159079075,0.004546413663774729,0.004889158997684717
1772527356171307000,6.67130712890625,0.0012251371517777443,-0.0006136870943009853,0.00500862393528223
1772527356181304800,6.681304931640625,0.006659051403403282,-0.019835319370031357,0.008751430548727512
1772527356191303000,6.691302978515625,0.004964976105839014,-0.022862572222948074,0.002439317759126425
1772527356201301000,6.701301025390625,0.006040094420313835,-0.02415766753256321,-0.008058330975472927
1772527356211298000,6.711298095703125,0.006805905140936375,-0.0185893252491951,-0.015108760446310043
1772527356221296000,6.721296142578125,0.004989895503968,-0.014928278513252735,-0.018846774473786354
1772527356231294200,6.731294189453125,0.001791287213563919,-0.01405150443315506,-0.021055888384580612
1772527356241292000,6.7412919921875,0.00155692920088768,-0.013371599838137627,-0.009494573809206486
1772527356251290000,6.7512900390625,0.0037678098306059837,-0.021136600524187088,0.00945665780454874
1772527356261288000,6.761287841796875,0.009559120051562786,-0.031414538621902466,0.01912393420934677
1772527356271285000,6.771284912109375,0.01742522232234478,-0.03869191184639931,0.026494674384593964
1772527356281283000,6.781282958984375,0.024238653481006622,-0.03553872928023338,0.02814503386616707
1772527356291281000,6.791281005859375,0.02422567643225193,-0.03190142288804054,0.028107352554798126
1772527356301279000,6.801279052734375,0.02736368030309677,-0.022541744634509087,0.020045697689056396
1772527356311277000,6.811277099609375,0.021979760378599167,-0.02287699654698372,0.003919323906302452
1772527356321275000,6.82127490234375,0.019620466977357864,-0.02818947099149227,0.004546232521533966
1772527356331272200,6.831272216796875,0.01661679893732071,-0.025257861241698265,-0.00004263734444975853
1772527356341270000,6.84127001953125,0.007499201223254204,-0.018460407853126526,-0.007736776024103165
1772527356351268000,6.85126806640625,0.0040414282120764256,-0.011568393558263779,-0.005369669757783413
1772527356361266200,6.86126611328125,0.0005164677277207375,-0.007806412409991026,-0.0037454075645655394
1772527356371264000,6.871263916015625,-0.0032209372147917747,-0.0015671281144022942,-0.006443079560995102
1772527356381262000,6.881261962890625,0.0003114799037575722,0.0017453120090067387,-0.004572208970785141
1772527356391260200,6.89126025390625,0.004999673925340176,-0.00006317207589745522,-0.0018469966016709805
1772527356401257000,6.901257080078125,0.008115571923553944,-0.006273397710174322,0.003955232445150614
1772527356411255000,6.911255126953125,0.013092830777168274,-0.007924535311758518,0.008783632889389992
1772527356421252900,6.9212529296875,0.014417486265301704,-0.011537646874785423,0.01126889418810606
1772527356431251000,6.9312509765625,0.01582390069961548,-0.0165412537753582,0.014558477327227592
1772527356441249000,6.9412490234375,0.017678525298833847,-0.013045055791735649,0.011861493811011314
1772527356451247000,6.9512470703125,0.018900765106081963,-0.006731806788593531,0.005400752183049917
1772527356461244200,6.961244140625,0.017093012109398842,-0.0025844660121947527,-0.00114103639498353
1772527356471242000,6.971241943359375,0.01819658651947975,0.00048335175961256027,-0.00918116420507431
1772527356481240000,6.981239990234375,0.018464235588908195,0.0008969404734671116,-0.010523663833737373
1772527356491238100,6.991238037109375,0.011255094781517982,0.0035446356050670147,-0.006213403306901455
1772527356501236000,7.001236083984375,0.011398372240364552,0.008613429963588715,-0.007040314842015505
1772527356511234000,7.011234130859375,0.005888635758310556,0.01651015318930149,-0.006630521267652512
1772527356521230800,7.02123095703125,0.0029817954637110233,0.024169137701392174,-0.0005095116794109344
1772527356531229000,7.03122900390625,0.003290567547082901,0.022903768345713615,0.004886453039944172
1772527356541227000,7.04122705078125,-0.007239304482936859,0.030493242666125298,0.010287875309586525
1772527356551224800,7.051224853515625,-0.01638292521238327,0.04079773277044296,0.019330039620399475
1772527356561223000,7.061222900390625,-0.02022133767604828,0.04233144596219063,0.015669524669647217
1772527356571221000,7.071220947265625,-0.021665606647729874,0.046742990612983704,0.006146659608930349
1772527356581219000,7.081218994140625,-0.01406787522137165,0.03961557149887085,-0.0010484028607606888
1772527356591216000,7.091216064453125,-0.00540115125477314,0.0237477645277977,-0.007809213828295469
1772527356601214000,7.1012138671875,-0.0015470245853066444,0.0183937456458807,-0.010560525581240654
1772527356611212000,7.1112119140625,0.002490210346877575,0.013366270810365677,-0.014082111418247223
1772527356621210000,7.121210205078125,0.004601031541824341,0.006000233348459005,-0.018360480666160583
1772527356631208000,7.1312080078125,0.002850273624062538,0.004312383476644754,-0.017683550715446472
1772527356641206000,7.1412060546875,-0.007200230844318867,0.011021420359611511,-0.020598912611603737
1772527356651203000,7.151203125,-0.017338542267680168,0.017063619568943977,-0.01557929627597332
1772527356661201000,7.161200927734375,-0.0235463697463274,0.025895994156599045,-0.01242451649159193
1772527356671199000,7.171198974609375,-0.02423628233373165,0.02632317505776882,-0.009262234903872013
1772527356681197000,7.181197021484375,-0.022818947210907936,0.022309524938464165,-0.0011108317412436008
1772527356691195100,7.191195068359375,-0.017404701560735703,0.0196276493370533,-0.0000700904056429863
1772527356701193200,7.201193115234375,-0.014668038114905357,0.020203424617648125,0.0013392549008131027
1772527356711191000,7.21119091796875,-0.0029787784442305565,0.014138888567686081,0.010572478175163269
1772527356721188000,7.22118798828125,0.0030876360833644867,0.006727576721459627,0.013720069080591202
1772527356731186200,7.231186279296875,0.006661029066890478,0.0026837382465600967,0.017142118886113167
1772527356741183700,7.241183837890625,0.009834185242652893,0.009165072813630104,0.01409706100821495
1772527356751181800,7.251181884765625,0.02080225758254528,-0.00966187845915556,0.022012265399098396
1772527356761180000,7.261179931640625,0.02080332301557064,-0.02739720046520233,0.026233907788991928
1772527356771177700,7.271177734375,0.025170911103487015,-0.026868337765336037,0.03168918937444687
1772527356781174800,7.2811748046875,0.02207551896572113,-0.029344812035560608,0.0282121691852808
1772527356791172900,7.2911728515625,0.028821079060435295,-0.028416555374860764,0.02675679698586464
1772527356801171000,7.3011708984375,0.03149142861366272,-0.034628380089998245,0.020243771374225616
1772527356811169000,7.3111689453125,0.0330217182636261,-0.0326615534722805,0.010130239650607109
1772527356821166800,7.321166748046875,0.029496757313609123,-0.023421980440616608,0.008496388792991638
1772527356831165000,7.3311650390625,0.02049919404089451,-0.01836417056620121,0.006096325349062681
1772527356841161700,7.34116162109375,0.012698262929916382,-0.0076851616613566875,0.001100767869502306
1772527356851159800,7.351159912109375,0.007431063335388899,-0.004852414131164551,0.0011476841755211353
1772527356861158000,7.361157958984375,0.0013486696407198906,0.0006251754239201546,0.0070340693928301334
1772527356871155700,7.37115576171875,-0.0016167610883712769,0.006390709895640612,0.0031796316616237164
1772527356881153800,7.38115380859375,-0.0006889151409268379,0.013388164341449738,-0.0003674328327178955
1772527356891152000,7.39115185546875,0.005105852149426937,0.014052940532565117,-0.0004457728937268257
1772527356901149700,7.401149658203125,0.015661291778087616,0.011216940358281136,-0.009621161967515945
1772527356911146800,7.411146728515625,0.02029276266694069,0.009108426049351692,-0.018187064677476883
1772527356921144800,7.421144775390625,0.021894119679927826,0.004370662849396467,-0.018621958792209625
1772527356931143000,7.431142822265625,0.02371557056903839,0.001169812399893999,-0.02389845810830593
1772527356941141000,7.44114111328125,0.016516778618097305,-0.004484344739466906,-0.023864636197686195
1772527356951138800,7.451138916015625,0.017065878957509995,-0.007071812171489,-0.01750260964035988
1772527356961137000,7.461136962890625,0.006981820333749056,-0.0053990804590284824,-0.009657202288508415
1772527356971134000,7.471134033203125,0.005407099146395922,0.0033105844631791115,-0.0029391583520919085
1772527356981131800,7.4811318359375,0.007299541495740414,0.00468690600246191,-0.000057085417211055756
1772527356991129900,7.4911298828125,0.012276380322873592,0.004444699268788099,-0.000924987718462944
1772527357001127700,7.501127685546875,0.01770336925983429,0.008510546758770943,-0.014597922563552856
1772527357011125800,7.511125732421875,0.01570078730583191,0.006684745196253061,-0.023426590487360954
1772527357021123800,7.521123779296875,0.020297937095165253,-0.003633672371506691,-0.030578242614865303
1772527357031121700,7.53112158203125,0.023755932226777077,-0.008613801561295986,-0.035934168845415115
1772527357041119000,7.541118896484375,0.02076680026948452,-0.014855719171464443,-0.03416077047586441
1772527357051117000,7.551116943359375,0.011433795094490051,-0.015063343569636345,-0.030771788209676743
1772527357061115000,7.561114990234375,0.0052579240873456,-0.009855532087385654,-0.021225420758128166
1772527357071113000,7.571113037109375,-0.004353995434939861,0.0035710204392671585,-0.018645506352186203
1772527357081110800,7.58111083984375,-0.014215147122740746,0.011577813886106014,-0.017917398363351822
1772527357091108900,7.59110888671875,-0.023808997124433517,0.02118578366935253,-0.02388068102300167
1772527357101106000,7.60110595703125,-0.026088129729032516,0.02791718766093254,-0.027231471613049507
1772527357111103700,7.611103759765625,-0.031222399324178696,0.024159030988812447,-0.024241428822278976
1772527357121101800,7.621101806640625,-0.027554694563150406,0.02165752463042736,-0.021763622760772705
1772527357131100000,7.631099853515625,-0.026140252128243446,0.022270727902650833,-0.020733201876282692
1772527357141097700,7.64109765625,-0.021392101421952248,0.018622729927301407,-0.017875896766781807
1772527357151095800,7.651095703125,-0.013375681824982166,0.011179016903042793,-0.020525652915239334
1772527357161092900,7.6610927734375,-0.010012908838689327,0.007926763966679573,-0.017103491351008415
1772527357171091000,7.671091064453125,-0.010746533051133156,0.007376575376838446,-0.015262625180184841
1772527357181089000,7.681089111328125,-0.010866641998291016,0.007116385269910097,-0.010756822302937508
1772527357191086800,7.6910869140625,-0.00961320474743843,0.0027518318966031075,-0.010817943140864372
1772527357201085000,7.7010849609375,-0.007149249315261841,-0.006131674163043499,-0.0013232412748038769
1772527357211083000,7.7110830078125,-0.0024641016498208046,-0.015153869986534119,-0.0016164770349860191
1772527357221080800,7.721080810546875,0.00021637044847011566,-0.010258980095386505,-0.0029421986546367407
1772527357231078000,7.731077880859375,0.0052572013810276985,-0.004333712626248598,-0.0025666928850114346
1772527357241075700,7.74107568359375,0.006196232046931982,-0.0008929083123803139,-0.011440079659223557
1772527357251073800,7.75107373046875,0.006796508561819792,-0.006543071009218693,-0.016801021993160248
1772527357261072000,7.76107177734375,0.004860124085098505,-0.011143947951495647,-0.015577300451695919
1772527357271069700,7.771069580078125,0.0053914999589324,-0.0096949003636837,-0.01105622947216034
1772527357281067800,7.78106787109375,0.008073036558926105,-0.006175799760967493,-0.00725296838209033
1772527357291064800,7.79106494140625,0.0038067656569182873,-0.008174339309334755,-0.006885052192956209
1772527357301063000,7.80106298828125,0.0033811922185122967,-0.008097905665636063,-0.0032365217339247465
1772527357311061000,7.81106103515625,-0.002175075002014637,-0.0025923007633537054,0.0025885426439344883
1772527357321058800,7.821058837890625,-0.0025308728218078613,0.00023570982739329338,0.005669820588082075
1772527357331057000,7.831056884765625,-0.0020154351368546486,0.004396640695631504,0.004820560570806265
1772527357341055000,7.841054931640625,0.0004322761669754982,0.0047846632078289986,0.0019792341627180576
1772527357351052800,7.851052734375,0.004345561843365431,-0.0014493325725197792,0.0023752464912831783
1772527357361049900,7.8610498046875,0.0068318890407681465,-0.005045132711529732,-0.00015449058264493942
1772527357371047700,7.871047607421875,0.01101898867636919,-0.016856389120221138,-0.0018299082294106483
1772527357381045800,7.881045654296875,0.008900177665054798,-0.025546282529830933,-0.005061920266598463
1772527357391043800,7.8910439453125,0.009527579881250858,-0.021155303344130516,-0.006493524182587862
1772527357401041700,7.901041748046875,0.004377026576548815,-0.008327122777700424,-0.010894663631916046
1772527357411039700,7.911039794921875,0.0003298213705420494,-0.0009071282111108303,-0.015488240867853165
1772527357421036800,7.921036865234375,-0.004889442585408688,0.00027877744287252426,-0.018093077465891838
1772527357431035000,7.931034912109375,-0.009636183269321918,-0.004746052902191877,-0.017135582864284515
1772527357441033000,7.941032958984375,-0.014086325652897358,-0.00035103829577565193,-0.010822558775544167
1772527357451030800,7.95103076171875,-0.0166255384683609,0.004836755339056253,-0.00656167883425951
1772527357461028900,7.96102880859375,-0.014787957072257996,0.004617310594767332,-0.0019546765834093094
1772527357471027000,7.97102685546875,-0.011976344510912895,0.006339530926197767,-0.0032289105001837015
1772527357481023700,7.981023681640625,-0.008442863821983337,0.003785559441894293,-0.009812244214117527
1772527357491021800,7.991021728515625,-0.0018923589959740639,-0.00008212029933929443,-0.010824933648109436
1772527357501019600,8.00101953125,0.0013971775770187378,-0.011808817274868488,-0.007833405397832394
1772527357511017700,8.011017822265625,0.0035292659886181355,-0.022451113909482956,-0.00007843505591154099
1772527357521015800,8.021015869140625,0.010824996046721935,-0.027869582176208496,0.00784260407090187
1772527357531013600,8.031013671875,0.018994811922311783,-0.03290227800607681,0.019042307510972023
1772527357541011700,8.04101171875,0.02661225199699402,-0.03768718242645264,0.021520644426345825
1772527357551009000,8.051009033203124,0.03431708365678787,-0.03962070122361183,0.020888676866889
1772527357561006800,8.0610068359375,0.04476972296833992,-0.044087886810302734,0.018923263996839523
1772527357571005000,8.0710048828125,0.05251564085483551,-0.05529952794313431,0.020130230113863945
1772527357581003000,8.0810029296875,0.05673062801361084,-0.05848493427038193,0.019714776426553726
1772527357591000800,8.091000732421875,0.05773870646953583,-0.06198488548398018,0.017551379278302193
1772527357600999000,8.1009990234375,0.05011487752199173,-0.06234734132885933,0.02433205395936966
1772527357610995700,8.11099560546875,0.04033434018492699,-0.05203784629702568,0.022393830120563507
1772527357620993800,8.120993896484375,0.02724383771419525,-0.044489648193120956,0.023156292736530304
1772527357630992000,8.130991943359374,0.013092714361846447,-0.03706591576337814,0.02147703617811203
1772527357640989700,8.14098974609375,0.002339668571949005,-0.024940811097621918,0.01763249561190605
1772527357650987800,8.15098779296875,-0.0022623101249337196,-0.021441081538796425,0.02340010367333889
1772527357660985900,8.16098583984375,-0.0052762096747756,-0.022462936118245125,0.02303125709295273
1772527357670983700,8.170983642578125,-0.004767128266394138,-0.022528940811753273,0.01944655179977417
1772527357680981000,8.18098095703125,-0.004633170552551746,-0.021940115839242935,0.014976169914007187
1772527357690978800,8.190978759765626,-0.0062745921313762665,-0.02072380855679512,0.015951598063111305
1772527357700977000,8.200976806640625,-0.0023594796657562256,-0.018948012962937355,0.015815777704119682
1772527357710975000,8.21097509765625,-0.002647099085152149,-0.011715606786310673,0.011727246455848217
1772527357720972800,8.220972900390626,-0.002873999997973442,-0.007924863137304783,0.0035846317186951637
1772527357730971000,8.230970947265625,-0.0035633062943816185,0.0019589574076235294,0.0004499582573771477
1772527357740967400,8.240967529296874,-0.0027790050953626633,-0.003948732279241085,0.0018909950740635395
1772527357750965200,8.25096533203125,-0.0018860455602407455,-0.007781713269650936,0.005350329913198948
1772527357760963300,8.26096337890625,-0.002452765591442585,-0.005948126781731844,0.004997461102902889
1772527357770961400,8.27096142578125,-0.0022928984835743904,-0.0016718665137887,0.003350650891661644
1772527357780959500,8.28095947265625,-0.0011259010061621666,-0.0011341739445924759,0.007132872007787228
1772527357790957600,8.29095751953125,-0.0009461026638746262,-0.0005741892382502556,0.00578316068276763
1772527357800955600,8.30095556640625,0.0011109225451946259,0.0007102531380951405,0.0019202460534870625
1772527357810952400,8.310952392578125,0.0015672375448048115,0.002163983415812254,-0.0012026885524392128
1772527357820950500,8.320950439453124,0.005658385343849659,-0.005391670390963554,-0.006233932450413704
1772527357830948400,8.3309482421875,0.006291991099715233,-0.006781590171158314,-0.0056305271573364735
1772527357840946400,8.340946533203125,0.011953072622418404,-0.027113493531942368,0.0024191434495151043
1772527357850944500,8.350944580078124,0.00619916059076786,-0.00942663848400116,-0.006896304897964001
1772527357860942300,8.3609423828125,0.003957843873649836,-0.004322957247495651,-0.0045782895758748055
1772527357870939400,8.370939453125,-0.002080339938402176,0.010338868945837021,-0.013963846489787102
1772527357880937500,8.3809375,-0.003116842359304428,0.00870768167078495,-0.014124169014394283
1772527357890935300,8.390935302734375,-0.0027322061359882355,0.008784830570220947,-0.014753274619579315
1772527357900933600,8.40093359375,-0.0010940954089164734,-0.00015034154057502747,-0.004289980977773666
1772527357910931500,8.410931396484376,-0.001138227991759777,0.00015434669330716133,-0.0037066596560180187
1772527357920929500,8.420929443359375,0.002234931569546461,0.003172773402184248,-0.0037671132013201714
1772527357930927600,8.430927734375,0.008118918165564537,-0.0042032236233353615,0.0029526855796575546
1772527357940924400,8.44092431640625,0.011706728488206863,-0.0074653299525380135,0.0014168405905365944
1772527357950922500,8.450922607421875,0.02107344940304756,-0.004477361682802439,0.004961108323186636
1772527357960920600,8.460920654296874,0.022165877744555473,0.00033976417034864426,0.008053038269281387
1772527357970918400,8.47091845703125,0.02700662985444069,-0.005260410252958536,0.014170009642839432
1772527357980916500,8.48091650390625,0.029512397944927216,-0.004307797644287348,0.01229567639529705
1772527357990914300,8.490914306640626,0.0318167507648468,-0.006548233330249786,0.01305580884218216
1772527358000911400,8.500911376953125,0.03447778522968292,-0.0007550586014986038,0.012228365987539291
1772527358010909400,8.510909423828124,0.026654863730072975,0.007863315753638744,0.009435441344976425
1772527358020907500,8.520907470703126,0.023957081139087677,0.00880154687911272,0.012508729472756386
1772527358030905600,8.530905517578125,0.018511220812797546,0.007866064086556435,0.016404224559664726
1772527358040903700,8.540903564453124,0.013018983416259289,0.014312513172626495,0.01641940325498581
1772527358050901500,8.550901611328126,0.00559979397803545,0.01940278336405754,0.01819988340139389
1772527358060898600,8.560898681640625,0.00032007694244384766,0.025729389861226082,0.013206987641751766
1772527358070896400,8.570896484375,0.0030150790698826313,0.03000272810459137,0.007348723243921995
1772527358080894500,8.58089453125,0.0035873926244676113,0.02386680617928505,0.00859082117676735
1772527358090892500,8.590892578125,0.004354501608759165,0.02665095217525959,0.0016460944898426533
1772527358100890400,8.600890380859376,0.0023994753137230873,0.034316591918468475,-0.0012165368534624577
1772527358110888400,8.610888427734375,0.002513460349291563,0.029421277344226837,-0.006468934006989002
1772527358120886500,8.620886474609375,0.003333181142807007,0.017858898267149925,-0.010528656654059887
1772527358130883300,8.63088330078125,0.004820404574275017,0.0101288091391325,-0.011179511435329914
1772527358140881700,8.640881591796875,0.005921621806919575,0.009147700853645802,-0.00859331525862217
1772527358150879500,8.65087939453125,0.00004851352423429489,0.013241957873106003,-0.011077867820858955
1772527358160877600,8.660877685546875,-0.004781927913427353,0.01748783513903618,-0.01236816868185997
1772527358170875600,8.670875732421875,-0.004349126480519772,0.02229274809360504,-0.01168278232216835
1772527358180873500,8.68087353515625,-0.00620668102055788,0.024364687502384186,-0.00744063314050436
1772527358190870500,8.69087060546875,-0.004063939675688744,0.023857850581407547,-0.008205914869904518
1772527358200868400,8.700868408203124,-0.0016716215759515762,0.018649771809577942,-0.008110839873552322
1772527358210866400,8.710866455078126,-0.0020869243890047073,0.008624667301774025,-0.011172275990247726
1772527358220864500,8.720864501953125,-0.0013771913945674896,0.003788899164646864,0.000017527025192975998
1772527358230862300,8.7308623046875,-0.0006111888214945793,-0.003060887800529599,0.004467114340513945
1772527358240860400,8.7408603515625,-0.0009289039298892021,-0.0041109723970294,0.00510121276602149
1772527358250858500,8.7508583984375,-0.002943280152976513,-0.00034128548577427864,0.008176831528544426
1772527358260855600,8.76085546875,0.0030078189447522163,-0.006548314820975065,0.0128360316157341
1772527358270853600,8.770853515625,0.004062773659825325,-0.004139035474509001,0.014156361110508442
1772527358280851500,8.7808515625,0.004716846160590649,-0.00332117872312665,0.017704490572214127
1772527358290849500,8.790849609375,0.005270515568554401,-0.015481649897992611,0.014323030598461628
1772527358300847600,8.80084765625,0.007977086119353771,-0.021600794047117233,0.014238341711461544
1772527358310845400,8.810845458984375,0.010692520998418331,-0.02471076510846615,0.013196269050240517
1772527358320842500,8.820842529296876,0.015018293634057045,-0.028103632852435112,0.018070919439196587
1772527358330840300,8.83084033203125,0.015113750472664833,-0.03223077580332756,0.015582283958792686
1772527358340838400,8.84083837890625,0.01200078148394823,-0.030226213857531548,0.016173237934708595
1772527358350836500,8.85083642578125,0.014833241701126099,-0.024786673486232758,0.01365135982632637
1772527358360834300,8.860834228515625,0.009454455226659775,-0.02245773933827877,0.01058073528110981
1772527358370832400,8.870832275390624,0.005667476914823055,-0.025108611211180687,0.012837918475270271
1772527358380830500,8.88083056640625,0.002452774904668331,-0.018716227263212204,0.011583035811781883
1772527358390827500,8.89082763671875,-0.00481141172349453,-0.01570381224155426,0.009641236625611782
1772527358400825600,8.90082568359375,-0.008619199506938457,-0.013463295064866543,0.0061913784593343735
1772527358410823400,8.910823486328125,-0.011400986462831497,-0.006345259491354227,-0.0005575823597609997
1772527358420821500,8.920821533203124,-0.012161850929260254,0.00044047459959983826,-0.004219428636133671
1772527358430819600,8.930819580078126,-0.011962608434259892,-0.0015408769249916077,-0.00824837014079094
1772527358440817400,8.9408173828125,-0.01134821679443121,-0.0007419288158416748,-0.005833681672811508
1772527358450814500,8.950814453125,-0.009442610666155815,-0.005152595229446888,0.0027834856882691383
1772527358460812500,8.9608125,-0.0039743417873978615,-0.015467816963791847,0.012523463927209377
1772527358470810400,8.970810302734375,-0.0005957046523690224,-0.026714246720075607,0.01879827119410038
1772527358480808400,8.980808349609376,0.0006983252242207527,-0.028214139863848686,0.022370636463165283
1772527358490806300,8.99080615234375,-0.00047232676297426224,-0.021186523139476776,0.018347689881920815
1772527358500804400,9.000804443359375,0.0008872170001268387,-0.006635810248553753,0.008761374279856682
1772527358510802400,9.010802490234376,-0.0007416456937789917,-0.000538892112672329,-0.004568524658679962
1772527358520799500,9.020799560546875,-0.00011926423758268356,-0.0014012237079441547,-0.012103939428925514
1772527358530797600,9.030797607421874,0.00430538784712553,-0.006515108048915863,-0.014637470245361328
1772527358540795600,9.040795654296875,0.005676915869116783,-0.008492238819599152,-0.0154574578627944
1772527358550793500,9.05079345703125,0.007414240390062332,-0.011962026357650757,-0.005948174279183149
1772527358560791600,9.06079150390625,0.004667456261813641,-0.010032566264271736,-0.0043401578441262245
1772527358570789600,9.07078955078125,0.001924025360494852,-0.01376798003911972,-0.0026157614775002003
1772527358580786400,9.080786376953125,-0.004452913999557495,-0.008457371033728123,0.0020098830573260784
1772527358590784500,9.090784423828126,-0.0040221670642495155,0.0005531818605959415,0.0040770722553133965
1772527358600782300,9.1007822265625,-0.00757136195898056,0.005081621464341879,0.007366875186562538
1772527358610780400,9.110780517578124,-0.006499779410660267,0.009562047198414803,0.004714854992926121
1772527358620778500,9.120778564453126,-0.0037279613316059113,0.012422813102602959,-0.002016817219555378
1772527358630776300,9.1307763671875,-0.0007011676207184792,0.0053011029958724976,-0.006209764163941145
1772527358640773600,9.140773681640624,-0.0034775128588080406,0.0007697348482906818,-0.007085145451128483
1772527358650771500,9.150771484375,-0.003693454898893833,0.008552647195756435,-0.001287088729441166
1772527358660769500,9.16076953125,-0.0001301448792219162,0.007029584608972073,0.0007124124094843864
1772527358670767600,9.170767578125,0.001729002222418785,0.010287376120686531,-0.007760367356240749
1772527358680765400,9.180765380859375,-0.0017850389704108238,0.011028800159692764,-0.010274125263094902
1772527358690763500,9.190763427734375,0.0016005649231374264,0.01051926240324974,-0.00838785246014595
1772527358700761600,9.20076171875,0.004175309091806412,0.007173534017056227,-0.0014106370508670807
1772527358710758400,9.21075830078125,0.005286838859319687,0.005038933828473091,-0.005938321817666292
1772527358720756500,9.220756591796874,0.0038870815187692642,0.006606736220419407,-0.005664815194904804
1772527358730754300,9.23075439453125,0.002447033766657114,0.009532729163765907,-0.00674827815964818
1772527358740752400,9.24075244140625,-0.004747229628264904,0.010434474796056747,-0.0053170956671237946
1772527358750750500,9.25075048828125,-0.010371675714850426,0.018614472821354866,-0.004595511592924595
1772527358760748500,9.26074853515625,-0.0065431147813797,0.025957873091101646,-0.0049324012361466885
1772527358770745600,9.27074560546875,-0.008605733513832092,0.028768839314579964,-0.005177944898605347
1772527358780743700,9.28074365234375,-0.011252116411924362,0.03056381084024906,-0.009599324315786362
1772527358790741500,9.290741455078125,-0.010846403427422047,0.03065149113535881,-0.009085090830922127
1772527358800739600,9.300739501953124,-0.014212903566658497,0.027245309203863144,-0.011259561404585838
1772527358810737700,9.310737548828126,-0.018331101164221764,0.03296897932887077,-0.007836312055587769
1772527358820735500,9.320735595703125,-0.0226315725594759,0.03900263458490372,-0.00968028511852026
1772527358830733600,9.330733642578124,-0.024772338569164276,0.042799074202775955,-0.006534426473081112
1772527358840730400,9.34073046875,-0.028598234057426453,0.045695263892412186,-0.01061651948839426
1772527358850728400,9.350728515625,-0.02644183486700058,0.03793751075863838,-0.008943632245063782
1772527358860726500,9.3607265625,-0.023361891508102417,0.02752242051064968,-0.012311466038227081
1772527358870724400,9.370724365234375,-0.01865673065185547,0.01690487004816532,-0.015782075002789497
1772527358880722400,9.380722412109375,-0.012235850095748901,0.011283734813332558,-0.016303256154060364
1772527358890720500,9.390720458984376,-0.010429083369672298,0.00547870434820652,-0.01704470068216324
1772527358900717600,9.400717529296875,-0.011412057094275951,0.009764262475073338,-0.020922530442476273
1772527358910715600,9.410715576171874,-0.012923209927976131,0.01813546009361744,-0.027154261246323586
1772527358920713500,9.42071337890625,-0.013645193539559841,0.01963641680777073,-0.028844038024544716
1772527358930711600,9.430711669921875,-0.018129119649529457,0.019986500963568687,-0.021681154146790504
1772527358940709600,9.440709716796874,-0.018468938767910004,0.01777581125497818,-0.014920453540980816
1772527358950707500,9.45070751953125,-0.02264701947569847,0.0086736548691988,-0.004653190728276968
1772527358960705500,9.46070556640625,-0.0237777978181839,0.010565564036369324,0.00018364237621426582
1772527358970702600,9.47070263671875,-0.025202322751283646,0.014820924028754234,0.003954789135605097
1772527358980700400,9.480700439453125,-0.02329336851835251,0.0068375649861991405,0.009390568360686302
1772527358990698500,9.490698486328125,-0.015794631093740463,0.0016143308021128178,0.0006030229851603508
1772527359000696600,9.500696533203126,-0.006977437064051628,0.0026287282817065716,-0.002060137689113617
1772527359010694400,9.5106943359375,0.0019624140113592148,-0.009743314236402512,-0.002495010383427143
1772527359020692500,9.5206923828125,-0.00007756706327199936,-0.022534210234880447,0.0022512758150696754
1772527359030689500,9.530689453125,0.00375099154189229,-0.02890060283243656,0.0043829805217683315
1772527359040687600,9.5406875,0.009061601012945175,-0.030730461701750755,0.0011999704875051975
1772527359050685700,9.550685791015624,0.011441551148891449,-0.03642713278532028,0.005245712585747242
1772527359060683500,9.56068359375,0.0035471422597765923,-0.018795141950249672,0.007586897350847721
1772527359070681600,9.570681640625,-0.007278183475136757,0.009827440604567528,0.011709959246218204
1772527359080679700,9.5806796875,-0.0010466529056429863,-0.011286899447441101,0.00870005413889885
1772527359090677500,9.590677490234375,-0.005622876808047295,-0.01945151761174202,0.00399171793833375
1772527359100674600,9.600674560546874,-0.007695348002016544,-0.023746397346258163,0.0021291025914251804
1772527359110672400,9.61067236328125,-0.008760728873312473,-0.02516837790608406,0.004759840667247772
1772527359120670500,9.62067041015625,-0.013602622784674168,-0.013937562704086304,0.007289311848580837
1772527359130668500,9.63066845703125,-0.0135654890909791,-0.012926879338920116,0.005104764364659786
1772527359140666400,9.640666259765625,-0.011692489497363567,-0.01535301934927702,0.00791919231414795
1772527359150664400,9.65066455078125,-0.015242025256156921,-0.015399007126688957,0.008786117658019066
1772527359160661500,9.66066162109375,-0.011070717126131058,-0.015201933681964874,0.0036592665128409863
1772527359170659600,9.67065966796875,-0.013120436109602451,-0.015688221901655197,0.0011623096652328968
1772527359180657700,9.68065771484375,-0.012056770734488964,-0.01384345069527626,-0.005723293405026197
1772527359190655500,9.690655517578126,-0.013939321041107178,-0.0120435431599617,-0.009602675214409828
1772527359200653600,9.700653564453125,-0.014558771625161171,-0.014414820820093155,-0.011616824194788933
1772527359210651600,9.710651611328124,-0.013947461731731892,-0.011185145005583763,-0.011488482356071472
1772527359220650500,9.720650390625,-0.01714938133955002,-0.005542172584682703,-0.013650702312588692
1772527359230648600,9.730648681640625,-0.023502808064222336,0.010349893011152744,-0.015642546117305756
1772527359240646700,9.740646728515625,-0.025402437895536423,0.003091180697083473,-0.019539017230272293
1772527359250644500,9.75064453125,-0.020140912383794785,-0.007415490690618753,-0.024691035971045494
1772527359260641500,9.7606416015625,-0.01896539330482483,-0.006690045818686485,-0.025774942710995674
1772527359270639600,9.7706396484375,-0.013888606801629066,-0.011692952364683151,-0.014551429077982903
1772527359280637400,9.780637451171875,-0.012188445776700974,-0.01667093299329281,0.0031396844424307346
1772527359290635500,9.790635498046875,-0.0052179619669914246,-0.02007053606212139,0.010109133087098598
1772527359300633300,9.80063330078125,-0.005796666257083416,-0.008706295862793922,0.013479095883667469
1772527359310631400,9.81063134765625,0.010777929797768593,-0.017137177288532257,0.014339652843773365
1772527359320628700,9.820628662109375,0.014481321908533573,-0.017841318622231483,0.014880807138979435
1772527359330626600,9.83062646484375,0.020488541573286057,-0.023723676800727844,0.015530196949839592
1772527359340624600,9.840624755859375,0.02381190098822117,-0.025224901735782623,0.01545562781393528
1772527359350622700,9.850622802734375,0.024606922641396523,-0.028599532321095467,0.0166575126349926
1772527359360620500,9.86062060546875,0.024487081915140152,-0.030102619901299477,0.013617249205708504
1772527359370618600,9.87061865234375,0.020885884761810303,-0.027283258736133575,0.013247335329651833
1772527359380615400,9.880615478515624,0.02129601314663887,-0.026151414960622787,0.012108035385608673
1772527359390613500,9.890613525390625,0.01608751341700554,-0.026569150388240814,0.008189125917851925
1772527359400611600,9.900611572265625,0.008322268724441528,-0.024364320561289787,0.0032486962154507637
1772527359410609400,9.910609375,0.0031245420686900616,-0.018695341423153877,-0.0025565731339156628
1772527359420607500,9.920607421875,-0.0025096414610743523,-0.0030082573648542166,-0.020694296807050705
1772527359430605600,9.93060546875,-0.014800929464399815,0.014918971806764603,-0.026577642187476158
1772527359440603400,9.940603271484376,-0.020540840923786163,0.025944726541638374,-0.028788331896066666
1772527359450600700,9.9506005859375,-0.02948719635605812,0.03264870122075081,-0.02958781272172928
1772527359460598500,9.9605986328125,-0.0383339524269104,0.04140118137001991,-0.033001188188791275
1772527359470596600,9.9705966796875,-0.04295704513788223,0.04929259791970253,-0.03154468163847923
1772527359480594700,9.9805947265625,-0.042914703488349915,0.049200452864170074,-0.02239033207297325
1772527359490592500,9.990592529296874,-0.0389973483979702,0.047247402369976044,-0.014748191460967064
1772527359500590600,10.000590576171875,-0.03178337961435318,0.0398174487054348,-0.013235248625278473
1772527359510587400,10.01058740234375,-0.025100018829107285,0.03229054808616638,-0.009882374666631222
1772527359520585500,10.02058544921875,-0.010770615190267563,0.023344192653894424,0.0006538894958794117
1772527359530583600,10.03058349609375,-0.0021490510553121567,0.014559073373675346,0.0033926181495189667
1772527359540581400,10.040581298828124,0.005934175103902817,0.008475081995129585,-0.0012207762338221073
1772527359550579500,10.050579345703126,0.012118151411414146,0.0010099811479449272,-0.0009102290496230125
1772527359560577500,10.06057763671875,0.016421020030975342,-0.007672989275306463,-0.002124896738678217
1772527359570575400,10.070575439453124,0.019199155271053314,-0.013066178187727928,-0.006273126229643822
1772527359580572700,10.08057275390625,0.014079493470489979,-0.008800060488283634,-0.0029870516154915094
1772527359590570500,10.090570556640625,0.013296334072947502,-0.01494554989039898,-0.0005320603959262371
1772527359600568600,10.100568603515624,0.011217470280826092,-0.005464429967105389,0.002418722026050091
1772527359610566700,10.110566650390625,0.006952112540602684,0.010824544355273247,-0.0009999116882681847
1772527359620564500,10.120564453125,0.0001440076157450676,0.012602737173438072,0.0021663205698132515
1772527359630562600,10.1305625,-0.003333205357193947,0.01649896427989006,0.0069150920026004314
1772527359640559400,10.140559326171875,-0.0013912282884120941,0.013862434774637222,0.006809098180383444
1772527359650557400,10.150557373046874,0.0011191051453351974,0.007766974624246359,0.003401783760637045
1772527359660555500,10.160555419921875,0.0038336655125021935,0.001900829840451479,0.0014004181139171124
1772527359670553300,10.17055322265625,0.0036262436769902706,-0.009125255048274994,-0.0006158612668514252
1772527359680551400,10.180551513671874,0.0038464870303869247,-0.015868378803133965,-0.004336031153798103
1772527359690549500,10.190549560546875,0.0029358756728470325,-0.015417156741023064,-0.0061301360838115215
1772527359700547600,10.200547607421875,-0.006715154275298119,-0.01491088978946209,-0.01341388188302517
1772527359710544600,10.210544677734376,-0.01394301000982523,-0.0007198466919362545,-0.017595088109374046
1772527359720542500,10.22054248046875,-0.020747121423482895,0.007317840121686459,-0.02021430805325508
1772527359730540500,10.23054052734375,-0.02888752892613411,0.008505099453032017,-0.025140000507235527
1772527359740538000,10.2405380859375,-0.024938594549894333,0.015757685527205467,-0.019708218052983284
1772527359750536000,10.250535888671875,-0.02763177454471588,0.006590628996491432,-0.014714480377733707
1772527359760534000,10.260533935546874,-0.01721348986029625,0.00025283824652433395,-0.014870009385049343
1772527359770530800,10.27053076171875,-0.015269417315721512,0.000044912565499544144,-0.008650995790958405
1772527359780529000,10.28052880859375,-0.014362344518303871,-0.0072886343114078045,-0.0022578109055757523
1772527359790527200,10.29052734375,-0.004542471840977669,-0.010043352842330933,0.003087374847382307
1772527359800525000,10.300525146484375,0.001604369841516018,-0.01711990498006344,0.003370735328644514
1772527359810523100,10.310523193359375,0.001419851090759039,-0.02008891850709915,0.006590008735656738
1772527359820521200,10.320521240234376,0.006714481860399246,-0.024066615849733353,0.005355900153517723
1772527359830519000,10.33051904296875,0.007737250998616219,-0.02801911160349846,0.004954162519425154
1772527359840516000,10.34051611328125,0.0076967705972492695,-0.031137673184275627,0.00661783991381526
1772527359850514000,10.350513916015625,0.008551642298698425,-0.0271103885024786,0.0022355634719133377
1772527359860512000,10.360511962890625,0.005091396626085043,-0.02651224285364151,-0.0025626537390053272
1772527359870510000,10.370510009765624,0.003706670831888914,-0.025737682357430458,-0.003946254961192608
1772527359880508000,10.3805078125,0.002225154545158148,-0.026935305446386337,0.001588592305779457
1772527359890506000,10.390506103515625,-0.0015327949076890945,-0.024502260610461235,-0.0009550587274134159
1772527359900503000,10.4005029296875,-0.0026454636827111244,-0.01791146956384182,-0.003320744726806879
1772527359910501000,10.410501220703125,-0.002939971163868904,-0.014053307473659515,-0.0034060771577060223
1772527359920499200,10.420499267578125,-0.0017652511596679688,-0.008193554356694221,-0.0024428116157650948
1772527359930497000,10.4304970703125,-0.002883823588490486,-0.01167780626565218,0.0009975936263799667
1772527359940495000,10.4404951171875,-0.0020135026425123215,-0.01725340075790882,0.01112772524356842
1772527359950493200,10.4504931640625,-0.0035568345338106155,-0.017709745094180107,0.014301612973213196
1772527359960491000,10.460490966796876,-0.0036716172471642494,-0.014764023013412952,0.012212097644805908
1772527359970488000,10.470488037109375,-0.00363151915371418,-0.0030235876329243183,0.006707964930683374
1772527359980486100,10.480486083984376,-0.0051521845161914825,0.0025304346345365047,0.0012564747594296932
1772527359990484000,10.49048388671875,-0.0018979515880346298,-0.003491232870146632,0.0029449407011270523
1772527360000482000,10.50048193359375,-0.0011434778571128845,-0.006453999318182468,0.007677378132939339
1772527360010479900,10.51047998046875,-0.002015969716012478,-0.012101968750357628,0.008037171326577663
1772527360020478000,10.52047802734375,-0.003556874580681324,-0.007461676839739084,0.0038392310962080956
1772527360030475300,10.530475341796874,-0.00026033632457256317,-0.002006539609283209,-0.002816874533891678
1772527360040473000,10.54047314453125,0.000949004665017128,-0.00014605512842535973,-0.010758686810731888
1772527360050471200,10.55047119140625,0.004059271886944771,-0.011929137632250786,-0.008742120116949081
1772527360060469200,10.56046923828125,0.0027442029677331448,-0.015938259661197662,-0.006346873007714748
1772527360070467000,10.570467041015625,0.008098337799310684,-0.014302805997431278,0.00037416862323880196
1772527360080465200,10.580465087890625,0.0059462375938892365,-0.018272779881954193,-0.0008961590938270092
1772527360090463200,10.590463134765624,0.0052625276148319244,-0.00042925216257572174,-0.0018100887537002563
1772527360100460000,10.6004599609375,-0.0028302865102887154,0.008117896504700184,-0.001408217940479517
1772527360110458000,10.6104580078125,-0.008861661888659,0.013354511931538582,0.0032391762360930443
1772527360120456000,10.6204560546875,-0.014054027386009693,0.01569436490535736,0.010416662320494652
1772527360130454000,10.6304541015625,-0.013369408436119556,0.0142291821539402,0.013604821637272835
1772527360140452000,10.6404521484375,-0.013120402581989765,0.008239999413490295,0.01693989709019661
1772527360150450000,10.650449951171876,-0.0059151072055101395,0.00026069628074765205,0.01448124460875988
1772527360160447200,10.660447265625,0.0006559761241078377,-0.010532030835747719,0.015225065872073174
1772527360170445000,10.670445068359374,0.008580897934734821,-0.010403193533420563,0.008368246257305145
1772527360180443100,10.680443115234375,0.02022210694849491,-0.015038957819342613,0.005399621557444334
1772527360190441200,10.690441162109375,0.022073160856962204,-0.021460218355059624,-0.005680927541106939
1772527360200439000,10.70043896484375,0.026785358786582947,-0.015200991183519363,-0.004722455516457558
1772527360210437000,10.71043701171875,0.022251438349485397,-0.008580951020121574,-0.0011531985364854336
1772527360220435200,10.720435302734375,0.021945174783468246,0.00040854932740330696,0.0038892305456101894
1772527360230432000,10.730431884765625,0.012088818475604057,0.013088071718811989,0.04805700108408928
1772527360240430000,10.74043017578125,-0.0006075352430343628,0.016300110146403313,0.019397925585508347
1772527360250428000,10.750427978515624,-0.006758296862244606,0.020489444956183434,-0.012817866168916225
1772527360260426000,10.760426025390625,-0.006689054891467094,-0.002146091777831316,0.008335355669260025
1772527360270424000,10.770424072265625,-0.008904426358640194,-0.008783266879618168,0.02224273979663849
1772527360280422000,10.780421875,-0.006817040033638477,0.017746610566973686,0.010859589092433453
1772527360290419200,10.790419189453125,-0.003118211403489113,0.013771272264420986,-0.0012030885554850101
1772527360300417000,10.8004169921875,0.000303417444229126,0.005525326356291771,-0.01736581325531006
1772527360310415000,10.8104150390625,-0.0012084590271115303,0.008390887640416622,-0.022952325642108917
1772527360320413200,10.8204130859375,-0.0025277892127633095,0.007124021649360657,-0.027690889313817024
1772527360330411000,10.830410888671874,-0.009112494066357613,0.005321184638887644,-0.02633458562195301
1772527360340409000,10.8404091796875,-0.018794415518641472,0.002270533237606287,-0.01519697904586792
1772527360350407200,10.8504072265625,-0.021488163620233536,0.006700312718749046,-0.010991004295647144
1772527360360404000,10.860404052734374,-0.029826520010828972,0.020525582134723663,-0.017238512635231018
1772527360370402000,10.870402099609375,-0.022366095334291458,0.027803262695670128,-0.002771180123090744
1772527360380399900,10.88039990234375,-0.015865584835410118,0.020573046058416367,-0.0017839460633695126
