time,seconds_elapsed,z,y,x
1772567403475792400,0.08079248046875,0.015262939967215061,0.9862546920776367,0.41503599286079407
1772567403485821400,0.090821533203125,0.06264142692089081,0.9689911007881165,0.23072613775730133
1772567403495850200,0.100850341796875,0.15509384870529175,0.8526296019554138,0.07863674312829971
1772567403505878500,0.11087841796875,0.1683560609817505,0.6225165724754333,-0.03333580866456032
1772567403515907600,0.120907470703125,0.06942521035671234,0.4013814926147461,-0.11111316084861755
1772567403525935400,0.130935302734375,-0.028371475636959076,0.26805177330970764,-0.1283699870109558
1772567403535964400,0.14096435546875,-0.007323448080569506,0.1643269956111908,-0.08129994571208954
1772567403545992400,0.150992431640625,0.1606212854385376,0.2950615882873535,0.07011458277702332
1772567403556021500,0.161021484375,0.40578868985176086,0.46953460574150085,0.2456802874803543
1772567403566050600,0.171050537109375,0.678611695766449,0.48658299446105957,0.3802602291107178
1772567403576078300,0.181078369140625,0.9003547430038452,0.24081476032733917,0.43746253848075867
1772567403586107400,0.191107421875,1.0667724609375,-0.22295232117176056,0.39407312870025635
1772567403596135400,0.201135498046875,1.1379560232162476,-0.852017879486084,0.27139943838119507
1772567403606164500,0.21116455078125,1.0948560237884521,-1.4001086950302124,0.12429091334342957
1772567403616193300,0.221193359375,0.915843665599823,-1.6525547504425049,0.00013488251715898514
1772567403626221300,0.23122119140625,0.6688159108161926,-1.6186158657073975,-0.137121319770813
1772567403636250400,0.24125048828125,0.4010331928730011,-1.4278672933578491,-0.31420233845710754
1772567403646278400,0.2512783203125,0.15416166186332703,-1.1118874549865723,-0.5553195476531982
1772567403656307500,0.261307373046875,-0.02315773442387581,-0.7250005602836609,-0.8482867479324341
1772567403666336300,0.271336181640625,-0.08831145614385605,-0.3389800190925598,-1.1747740507125854
1772567403676364500,0.281364501953125,-0.0363803505897522,0.011499699205160141,-1.4764548540115356
1772567403686393600,0.2913935546875,0.09540557861328125,0.31385523080825806,-1.6988290548324585
1772567403696421400,0.30142138671875,0.20981764793395996,0.5257342457771301,-1.7937568426132202
1772567403706450400,0.311450439453125,0.2524265944957733,0.6262998580932617,-1.7782256603240967
1772567403716479200,0.321479248046875,0.2447526752948761,0.6615278720855713,-1.6818150281906128
1772567403726507500,0.331507568359375,0.1796232908964157,0.6342976093292236,-1.5331308841705322
1772567403736536600,0.34153662109375,0.06794150173664093,0.5120446681976318,-1.346582055091858
1772567403746564400,0.351564453125,-0.050674133002758026,0.32385140657424927,-1.1289613246917725
1772567403756593400,0.361593505859375,-0.14364507794380188,0.12195637077093124,-0.8812550902366638
1772567403766621400,0.371621337890625,-0.19386468827724457,-0.011316522024571896,-0.5944796800613403
1772567403776650500,0.381650390625,-0.18758176267147064,-0.08063327521085739,-0.3013676404953003
1772567403786679600,0.391679443359375,-0.13842003047466278,-0.07104582339525223,-0.0235411636531353
1772567403796707300,0.401707275390625,-0.05461034178733826,0.018069669604301453,0.20858687162399292
1772567403806736400,0.411736328125,0.0547381266951561,0.14479374885559082,0.37893247604370117
1772567403816764400,0.421764404296875,0.16877707839012146,0.26559656858444214,0.48237285017967224
1772567403826793500,0.43179345703125,0.2690824568271637,0.40756797790527344,0.5450567007064819
1772567403836822500,0.441822509765625,0.3438991904258728,0.5753676891326904,0.5786131024360657
1772567403846850300,0.451850341796875,0.3662128448486328,0.7353423833847046,0.5679365396499634
1772567403856879400,0.46187939453125,0.34416666626930237,0.8362404704093933,0.518587589263916
1772567403866907400,0.471907470703125,0.30584102869033813,0.9305318593978882,0.45074692368507385
1772567403876936400,0.4819365234375,0.2915683388710022,0.990545928478241,0.3834536373615265
1772567403886965500,0.491965576171875,0.2816923260688782,1.030099868774414,0.33071309328079224
1772567403896993300,0.5019931640625,0.2618770897388458,1.0403889417648315,0.29010626673698425
1772567403907022600,0.512022705078125,0.2326892614364624,1.0354323387145996,0.27625760436058044
1772567403917050400,0.52205029296875,0.1820993274450302,0.8865571618080139,0.3163253962993622
1772567403927079400,0.532079345703125,0.13523630797863007,0.6752064228057861,0.43854326009750366
1772567403937107200,0.542107177734375,0.15918904542922974,0.5599714517593384,0.6541000008583069
1772567403947136500,0.552136474609375,0.2541946768760681,0.477760910987854,0.9181103706359863
1772567403957165600,0.56216552734375,0.36383169889450073,0.3747570514678955,1.1852316856384277
1772567403967193300,0.572193359375,0.4058457016944885,0.22173641622066498,1.4140081405639648
1772567403977222400,0.582222412109375,0.3821326494216919,0.05781911313533783,1.6011955738067627
1772567403987250400,0.59225048828125,0.345242440700531,-0.05593385547399521,1.7485591173171997
1772567403997279500,0.602279541015625,0.39147382974624634,-0.2111591398715973,1.7839349508285522
1772567404007308500,0.61230859375,0.594707727432251,-0.37176722288131714,1.6511988639831543
1772567404017336300,0.62233642578125,0.8673168420791626,-0.48636624217033386,1.3695663213729858
1772567404027365400,0.632365478515625,1.085534930229187,-0.52149498462677,1.0209161043167114
1772567404037393400,0.642393310546875,1.1712905168533325,-0.41770920157432556,0.6738998889923096
1772567404047422500,0.65242236328125,1.1207150220870972,-0.29635995626449585,0.3480585813522339
1772567404057451500,0.662451416015625,1.0213228464126587,-0.19320079684257507,0.06787723302841187
1772567404067479300,0.672479248046875,0.9194203615188599,-0.04387405514717102,-0.15338945388793945
1772567404077508400,0.68250830078125,0.8216147422790527,0.11561467498540878,-0.3363723158836365
1772567404087536400,0.692536376953125,0.7373175621032715,0.2333475798368454,-0.4851148724555969
1772567404097565400,0.7025654296875,0.6592568159103394,0.25736474990844727,-0.6052982807159424
1772567404107593200,0.71259326171875,0.5944865942001343,0.13722938299179077,-0.6885941028594971
1772567404117622300,0.722622314453125,0.5518057346343994,-0.11474534124135971,-0.7050838470458984
1772567404127651300,0.7326513671875,0.5441716909408569,-0.47359684109687805,-0.639613151550293
1772567404137679400,0.742679443359375,0.5572086572647095,-0.9049112200737,-0.5193666219711304
1772567404147708400,0.75270849609375,0.573296308517456,-1.2988653182983398,-0.37524497509002686
1772567404157736200,0.762736083984375,0.5716683268547058,-1.6000134944915771,-0.23473019897937775
1772567404167765500,0.772765625,0.542005717754364,-1.7974451780319214,-0.10680285841226578
1772567404177798100,0.782798095703125,0.49232256412506104,-1.8498735427856445,0.0054922630079090595
1772567404187826200,0.792826171875,0.44984716176986694,-1.7795029878616333,0.09483889490365982
1772567404197855200,0.802855224609375,0.44459620118141174,-1.612762212753296,0.1677360087633133
1772567404207883300,0.81288330078125,0.45760291814804077,-1.3129124641418457,0.23757827281951904
1772567404217912300,0.822912353515625,0.470179945230484,-0.9279108047485352,0.29751643538475037
1772567404227941400,0.83294140625,0.4530770778656006,-0.5171877145767212,0.33759522438049316
1772567404237969200,0.84296923828125,0.3934270441532135,-0.10668189823627472,0.3465884327888489
1772567404247998200,0.852998291015625,0.2660615146160126,0.2713276445865631,0.33692193031311035
1772567404258026200,0.863026123046875,0.10434877872467041,0.6046259999275208,0.30871614813804626
1772567404268055300,0.87305517578125,-0.06426580250263214,0.8965233564376831,0.2820184826850891
1772567404278083300,0.883083251953125,-0.22967100143432617,1.1478021144866943,0.26583418250083923
1772567404288112000,0.893112060546875,-0.4087686240673065,1.3433705568313599,0.2732034921646118
1772567404298141200,0.90314111328125,-0.5929281115531921,1.4767019748687744,0.31175169348716736
1772567404308169500,0.91316943359375,-0.7672802209854126,1.5616191625595093,0.36754268407821655
1772567404318198300,0.9231982421875,-0.9056045413017273,1.5854440927505493,0.4084400534629822
1772567404328226300,0.933226318359375,-0.9952242970466614,1.5511225461959839,0.42515110969543457
1772567404338255000,0.943255126953125,-1.0279500484466553,1.4665008783340454,0.4165336489677429
1772567404348284200,0.9532841796875,-1.0141675472259521,1.3552464246749878,0.3812240958213806
1772567404358312200,0.963312255859375,-0.9578688144683838,1.1771485805511475,0.30954059958457947
1772567404368341200,0.97334130859375,-0.8645168542861938,0.86298006772995,0.18735991418361664
1772567404378369300,0.983369384765625,-0.7377673983573914,0.33886733651161194,0.040019989013671875
1772567404388398000,0.993398193359375,-0.5684323906898499,-0.4974271357059479,-0.0897897258400917
1772567404398427100,1.00342724609375,-0.36723804473876953,-1.6017215251922607,-0.10619080811738968
1772567404408455200,1.013455078125,-0.23350608348846436,-2.636532783508301,0.1742994338274002
1772567404418484200,1.023484130859375,-0.24595928192138672,-3.2185840606689453,0.801923394203186
1772567404428512300,1.03351220703125,-0.4590632915496826,-2.737964153289795,1.7128878831863403
1772567404438541000,1.043541015625,-0.8145555853843689,-1.268070936203003,2.723550319671631
1772567404448569300,1.0535693359375,-1.1220545768737793,0.47353044152259827,3.465981960296631
1772567404458598100,1.06359814453125,-1.2234212160110474,1.69797945022583,3.583836317062378
1772567404468627200,1.073627197265625,-1.0675716400146484,2.3810031414031982,3.0170156955718994
1772567404478655200,1.0836552734375,-0.7577898502349854,2.979914426803589,2.0266425609588623
1772567404488684300,1.093684326171875,-0.4849453270435333,3.292365074157715,0.8113062977790833
1772567404498712300,1.10371240234375,-0.24643342196941376,3.0186989307403564,-0.44788262248039246
1772567404508741000,1.1137412109375,-0.045749589800834656,2.1233317852020264,-1.6165268421173096
1772567404518770200,1.123770263671875,0.1365155428647995,0.6468110680580139,-2.5425496101379395
1772567404528798500,1.133798583984375,0.2428690791130066,-1.1024601459503174,-3.0851006507873535
1772567404538827300,1.1438271484375,0.2569689452648163,-2.4069840908050537,-3.026172399520874
1772567404548855300,1.153855224609375,0.21104295551776886,-3.1366684436798096,-2.356290578842163
1772567404558884000,1.163884033203125,0.15547317266464233,-2.961730718612671,-1.2336663007736206
1772567404568912400,1.173912353515625,0.11993953585624695,-2.100677251815796,0.059916019439697266
1772567404578941400,1.18394140625,0.15367938578128815,-1.1297435760498047,1.138419270515442
1772567404588970200,1.19397021484375,0.2335459142923355,-0.5089676380157471,1.7050164937973022
1772567404598998300,1.203998291015625,0.32770225405693054,-0.25642403960227966,1.707443118095398
1772567404609027000,1.214027099609375,0.38998520374298096,-0.14498598873615265,1.2558344602584839
1772567404619055400,1.224055419921875,0.4206554889678955,-0.04122977331280708,0.5838502049446106
1772567404629084400,1.23408447265625,0.3999587595462799,0.06512000411748886,-0.12131885439157486
1772567404639113200,1.24411328125,0.3387435972690582,0.189188152551651,-0.7743027806282043
1772567404649141200,1.254141357421875,0.28070423007011414,0.24809099733829498,-1.3209160566329956
1772567404659170000,1.264170166015625,0.22583621740341187,0.1829545944929123,-1.725106954574585
1772567404669198300,1.2741982421875,0.19842712581157684,0.06340943276882172,-1.938344120979309
1772567404679227400,1.284227294921875,0.21711693704128265,0.06194629147648811,-1.9429775476455688
1772567404689255200,1.294255126953125,0.2707212567329407,0.2408730834722519,-1.7459027767181396
1772567404699284200,1.3042841796875,0.3304985761642456,0.5841801166534424,-1.4078648090362549
1772567404709313300,1.314313232421875,0.35197749733924866,0.9950503706932068,-1.0272542238235474
1772567404719341300,1.32434130859375,0.32363373041152954,1.397398591041565,-0.6709800958633423
1772567404729370400,1.334370361328125,0.21426549553871155,1.6939609050750732,-0.41533002257347107
1772567404739398100,1.344398193359375,0.012491903267800808,1.8399473428726196,-0.262199342250824
1772567404749427200,1.35442724609375,-0.2537630796432495,1.8438862562179565,-0.19010870158672333
1772567404759456300,1.364456298828125,-0.5344594717025757,1.7105801105499268,-0.20928587019443512
1772567404769484300,1.374484375,-0.7514844536781311,1.4767000675201416,-0.2860742509365082
1772567404779513300,1.384513427734375,-0.9024321436882019,1.2365186214447021,-0.4015665054321289
1772567404789541000,1.394541015625,-0.9840055704116821,1.0217227935791016,-0.5023766160011292
1772567404799570400,1.4045703125,-0.982450544834137,0.7838886380195618,-0.6063192486763
1772567404809599200,1.41459912109375,-0.8964730501174927,0.5921196341514587,-0.6938588619232178
1772567404819627300,1.424627197265625,-0.732520580291748,0.5313409566879272,-0.7311505675315857
1772567404829656300,1.43465625,-0.5327186584472656,0.583978533744812,-0.6729859709739685
1772567404839684400,1.444684326171875,-0.3429037034511566,0.6769276261329651,-0.515972912311554
1772567404849713400,1.45471337890625,-0.14805692434310913,0.6402994394302368,-0.3227349817752838
1772567404859741200,1.4647412109375,0.07934346795082092,0.4732270836830139,-0.125435471534729
1772567404869770200,1.474770263671875,0.31373488903045654,0.16924206912517548,0.061789363622665405
1772567404879799300,1.48479931640625,0.49527138471603394,-0.4344121217727661,0.16036733984947205
1772567404889827300,1.494827392578125,0.6033404469490051,-1.3134105205535889,0.129267156124115
1772567404899856400,1.5048564453125,0.6699133515357971,-2.257941722869873,0.1395709216594696
1772567404909884200,1.51488427734375,0.7502143979072571,-2.6127045154571533,0.39378583431243896
1772567404919913200,1.524913330078125,0.845637321472168,-2.475303888320923,0.8654342889785767
1772567404929942000,1.53494189453125,0.9605703949928284,-1.8462854623794556,1.3802194595336914
1772567404939970300,1.54497021484375,1.0729891061782837,-0.8656630516052246,1.6598089933395386
1772567404949999400,1.554999267578125,1.134129524230957,0.13728122413158417,1.4947543144226074
1772567404960027100,1.565027099609375,1.124668836593628,0.9197256565093994,0.8842220306396484
1772567404970056200,1.57505615234375,1.0368835926055908,1.4251179695129395,0.036693405359983444
1772567404980084200,1.585084228515625,0.8813723921775818,1.54925537109375,-0.8213006258010864
1772567404990113300,1.59511328125,0.6720861792564392,1.2444109916687012,-1.5428252220153809
1772567405000142300,1.605142333984375,0.42863601446151733,0.7210595607757568,-2.0412042140960693
1772567405010170000,1.615170166015625,0.1391853541135788,0.2519160509109497,-2.281876802444458
1772567405020199400,1.625199462890625,-0.19066765904426575,-0.08327420800924301,-2.257197618484497
1772567405030227200,1.635227294921875,-0.43742021918296814,-0.43283602595329285,-2.019141674041748
1772567405040256300,1.64525634765625,-0.5289067029953003,-0.8304148316383362,-1.6274080276489258
1772567405050285300,1.655285400390625,-0.46244046092033386,-1.083703875541687,-1.1417365074157715
1772567405060313300,1.665313232421875,-0.3332292139530182,-1.1755636930465698,-0.6458455324172974
1772567405070342400,1.67534228515625,-0.1606331169605255,-1.1993430852890015,-0.23645001649856567
1772567405080370200,1.6853701171875,0.035631213337183,-1.1738100051879883,0.03571678325533867
1772567405090399200,1.695399169921875,0.22392258048057556,-1.1173683404922485,0.16445225477218628
1772567405100427300,1.70542724609375,0.37292566895484924,-1.0124800205230713,0.17385855317115784
1772567405110456300,1.715456298828125,0.47880321741104126,-0.8305575847625732,0.1035638079047203
1772567405120485400,1.7254853515625,0.5237738490104675,-0.5781988501548767,-0.010502840392291546
1772567405130513200,1.73551318359375,0.5349913239479065,-0.28772085905075073,-0.13223233819007874
1772567405140542200,1.745542236328125,0.518215537071228,0.016703497618436813,-0.21862740814685822
1772567405150570200,1.7555703125,0.48319143056869507,0.32848984003067017,-0.23657652735710144
1772567405160599300,1.765599365234375,0.42796197533607483,0.6563113927841187,-0.19832953810691833
1772567405170624800,1.775624755859375,0.37912628054618835,0.9540181756019592,-0.12189601361751556
1772567405180652500,1.785652587890625,0.337721049785614,1.1986521482467651,-0.022720694541931152
1772567405190681600,1.795681640625,0.30027562379837036,1.3702356815338135,0.09837337583303452
1772567405200709600,1.805709716796875,0.2626664638519287,1.4681929349899292,0.2436610609292984
1772567405210738700,1.81573876953125,0.23024633526802063,1.4491727352142334,0.40393534302711487
1772567405220766700,1.8257666015625,0.19524893164634705,1.3206653594970703,0.5658084154129028
1772567405230795500,1.83579541015625,0.18021047115325928,1.1461060047149658,0.7062317728996277
1772567405240824600,1.845824462890625,0.19526639580726624,0.9938040971755981,0.8239778876304626
1772567405250852600,1.8558525390625,0.2228856086730957,0.8759568929672241,0.9060092568397522
1772567405260881700,1.865881591796875,0.2560589909553528,0.7940537929534912,0.9597188234329224
1772567405270909400,1.875909423828125,0.2957318425178528,0.718911349773407,0.9858781695365906
1772567405280938800,1.885938720703125,0.3221866190433502,0.6605931520462036,0.9996011853218079
1772567405290967800,1.8959677734375,0.3187529444694519,0.6690647006034851,1.0019134283065796
1772567405300995600,1.90599560546875,0.27579057216644287,0.7015566229820251,0.9782052636146545
1772567405311024600,1.916024658203125,0.202634796500206,0.7244192361831665,0.9176735877990723
1772567405321052700,1.926052734375,0.1105344295501709,0.757770299911499,0.8408451080322266
1772567405331081700,1.936081787109375,0.0006802724674344063,0.6977760791778564,0.768608033657074
1772567405341109800,1.94610986328125,-0.05428950488567352,0.35720595717430115,0.7316532135009766
1772567405351138600,1.956138671875,-0.002429377753287554,-0.09964142739772797,0.7735471725463867
1772567405361167600,1.966167724609375,0.18684068322181702,-0.5450940132141113,0.9147160053253174
1772567405371195600,1.976195556640625,0.5416469573974609,-0.9681311249732971,1.1073908805847168
1772567405381224700,1.986224609375,1.0065739154815674,-1.2903655767440796,1.2800164222717285
1772567405391252700,1.996252685546875,1.4683232307434082,-1.3482242822647095,1.3960187435150146
1772567405401281500,2.006281494140625,1.7850208282470703,-1.1837506294250488,1.3790887594223022
1772567405411310600,2.016310546875,1.8500230312347412,-0.8858072757720947,1.1798242330551147
1772567405421338600,2.026338623046875,1.6336393356323242,-0.3154233992099762,0.8043280839920044
1772567405431367700,2.03636767578125,1.2098835706710815,0.49088576436042786,0.31604138016700745
1772567405441395700,2.046395751953125,0.7008588910102844,1.3654124736785889,-0.1894470900297165
1772567405451424500,2.056424560546875,0.23062880337238312,2.1239943504333496,-0.6324047446250916
1772567405461452800,2.066452880859375,-0.13238534331321716,2.6063711643218994,-0.9640838503837585
1772567405471481600,2.076481689453125,-0.4107251763343811,2.7170424461364746,-1.2013312578201294
1772567405481510700,2.0865107421875,-0.591854453086853,2.291684865951538,-1.3937395811080933
1772567405491538700,2.09653857421875,-0.6591283082962036,1.3698810338974,-1.5914877653121948
1772567405501567500,2.1065673828125,-0.630561351776123,0.13095778226852417,-1.7818574905395508
1772567405511595800,2.116595703125,-0.5336034297943115,-1.0856043100357056,-1.9297250509262085
1772567405521624600,2.12662451171875,-0.4512358009815216,-2.068631172180176,-1.9753189086914062
1772567405531653600,2.136653564453125,-0.3883485198020935,-2.6430819034576416,-1.87177312374115
1772567405541681700,2.146681640625,-0.34930363297462463,-2.7623252868652344,-1.6415977478027344
1772567405551710700,2.156710693359375,-0.3255966007709503,-2.522463798522949,-1.3827757835388184
1772567405561738800,2.16673876953125,-0.27710896730422974,-2.0345170497894287,-1.156790852546692
1772567405571767600,2.176767578125,-0.16971974074840546,-1.464409589767456,-1.018848180770874
1772567405581795600,2.186795654296875,-0.033482007682323456,-0.9131283760070801,-0.9662183523178101
1772567405591825000,2.196824951171875,0.07820450514554977,-0.44261834025382996,-0.9556347727775574
1772567405601853700,2.206853759765625,0.13409918546676636,-0.09656184911727905,-0.941156268119812
1772567405611881700,2.2168818359375,0.14412111043930054,0.13810057938098907,-0.8664377331733704
1772567405621910500,2.22691064453125,0.11361060291528702,0.25128841400146484,-0.7172945737838745
1772567405631938800,2.236938720703125,0.07784252613782883,0.227677121758461,-0.5021280646324158
1772567405641967900,2.2469677734375,0.037148091942071915,0.1038941964507103,-0.22591295838356018
1772567405651996700,2.25699658203125,0.021061226725578308,-0.011050816625356674,0.06606094539165497
1772567405662024700,2.267024658203125,0.030124496668577194,-0.05332610011100769,0.33046117424964905
1772567405672053500,2.277053466796875,0.061834223568439484,0.011261679232120514,0.527377724647522
1772567405682081800,2.287081787109375,0.1202051192522049,0.2002294659614563,0.6276771426200867
1772567405692110800,2.29711083984375,0.19697865843772888,0.48774832487106323,0.65281081199646
1772567405702138600,2.307138671875,0.25423288345336914,0.7930536866188049,0.6554803848266602
1772567405712167700,2.317167724609375,0.24971015751361847,1.0548490285873413,0.6691668033599854
1772567405722196500,2.327196533203125,0.1968008577823639,1.2174224853515625,0.7087046504020691
1772567405732224800,2.337224853515625,0.10720095038414001,1.1721054315567017,0.7654435634613037
1772567405742253800,2.34725390625,0.005023187026381493,0.9680172204971313,0.8566771149635315
1772567405752281600,2.357281494140625,-0.08963269740343094,0.6554263830184937,0.9712168574333191
1772567405762310700,2.367310546875,-0.15398532152175903,0.29448845982551575,1.0688176155090332
1772567405772339500,2.37733935546875,-0.17462363839149475,-0.02372380532324314,1.115109920501709
1772567405782367700,2.38736767578125,-0.17122970521450043,-0.15333719551563263,1.1155180931091309
1772567405792396500,2.397396484375,-0.1615377962589264,-0.08029793202877045,1.0998064279556274
1772567405802424600,2.407424560546875,-0.10724285244941711,0.0875704437494278,1.0642393827438354
1772567405812453600,2.41745361328125,0.03672688454389572,0.14183402061462402,0.978095293045044
1772567405822481700,2.427481689453125,0.27294740080833435,0.08097012341022491,0.8700114488601685
1772567405832510700,2.4375107421875,0.5193894505500793,0.07800876349210739,0.8763599395751953
1772567405842539500,2.44753955078125,0.6063677668571472,0.3214307427406311,1.0990849733352661
1772567405852567600,2.457567626953125,0.5152912139892578,0.49687251448631287,1.4152030944824219
1772567405862596900,2.467596923828125,0.33868208527565,0.7198440432548523,1.7315000295639038
1772567405872624600,2.477624755859375,0.2787438929080963,0.8965457677841187,1.9131509065628052
1772567405882653700,2.48765380859375,0.46865230798721313,0.8221988081932068,1.888907551765442
1772567405892682500,2.4976826171875,0.7519149780273438,0.6391581892967224,1.7190791368484497
1772567405902710800,2.507710693359375,0.8696339130401611,0.37126925587654114,1.4634058475494385
1772567405912739800,2.51773974609375,0.7426230311393738,0.054842546582221985,1.1649965047836304
1772567405922767600,2.527767578125,0.464389830827713,-0.18888036906719208,0.8374968767166138
1772567405932796700,2.537796630859375,0.14940595626831055,-0.2867806851863861,0.4808092415332794
1772567405942825500,2.547825439453125,-0.12892793118953705,-0.2683148682117462,0.14048071205615997
1772567405952853800,2.557853759765625,-0.33230060338974,-0.19299113750457764,-0.17474570870399475
1772567405962882800,2.5678828125,-0.44467294216156006,-0.10926588624715805,-0.46579912304878235
1772567405972910600,2.57791064453125,-0.49413585662841797,-0.07523654401302338,-0.7166957855224609
1772567405982939600,2.587939697265625,-0.49025189876556396,-0.060183025896549225,-0.8954394459724426
1772567405992967700,2.5979677734375,-0.4352952837944031,-0.07715032994747162,-0.9908156991004944
1772567406002996700,2.607996826171875,-0.34153124690055847,-0.15644408762454987,-1.029162883758545
1772567406013025800,2.61802587890625,-0.23335754871368408,-0.2952774465084076,-1.0619840621948242
1772567406023053600,2.628053466796875,-0.1159805878996849,-0.47981053590774536,-1.0935004949569702
1772567406033082600,2.63808251953125,-0.030880391597747803,-0.7932100892066956,-1.0966230630874634
1772567406043110700,2.648110595703125,0.0067761726677417755,-1.1915956735610962,-1.0603188276290894
1772567406053139700,2.6581396484375,0.021105799823999405,-1.5940700769424438,-1.008995532989502
1772567406063167500,2.66816748046875,0.06422264128923416,-1.8908812999725342,-0.9305318593978882
1772567406073196500,2.678196533203125,0.1733412891626358,-2.005286455154419,-0.8524290919303894
1772567406083225600,2.6882255859375,0.3256991505622864,-1.8336737155914307,-0.7656491994857788
1772567406093253600,2.698253662109375,0.5264362096786499,-1.5977706909179688,-0.7151913642883301
1772567406103282700,2.70828271484375,0.7592825293540955,-1.3061840534210205,-0.6945436000823975
1772567406113310500,2.718310546875,1.008811593055725,-0.9024903774261475,-0.6558569669723511
1772567406123339800,2.72833984375,1.2244839668273926,-0.43991905450820923,-0.5874752402305603
1772567406133368800,2.738368896484375,1.3442965745925903,-0.004503874573856592,-0.5032444000244141
1772567406143396600,2.748396728515625,1.3603790998458862,0.3975287973880768,-0.4247719645500183
1772567406153425700,2.75842578125,1.288654088973999,0.7404279708862305,-0.38916876912117004
1772567406163453700,2.76845361328125,1.1251287460327148,1.000771164894104,-0.3999660313129425
1772567406173482200,2.778482177734375,0.8643159866333008,1.2184325456619263,-0.3935900926589966
1772567406183510300,2.78851025390625,0.5215030312538147,1.3781743049621582,-0.3274688720703125
1772567406193539000,2.7985390625,0.13867364823818207,1.4251259565353394,-0.2137015461921692
1772567406203568000,2.808568115234375,-0.20634952187538147,1.3488855361938477,-0.08490601181983948
1772567406213596400,2.818596435546875,-0.46475949883461,1.1557645797729492,0.030375637114048004
1772567406223625200,2.828625244140625,-0.6250253319740295,0.9508105516433716,0.11084172129631042
1772567406233653200,2.8386533203125,-0.7076027393341064,0.8107688426971436,0.14734238386154175
1772567406243682000,2.84868212890625,-0.7502878904342651,0.7791025638580322,0.13588999211788177
1772567406253711000,2.858711181640625,-0.7938764691352844,0.8522887229919434,0.07142525911331177
1772567406263739400,2.868739501953125,-0.8580615520477295,0.9786613583564758,-0.009237630292773247
1772567406273768200,2.878768310546875,-0.9288985729217529,1.054987907409668,-0.07659090310335159
1772567406283796200,2.888796142578125,-0.9553802013397217,0.918637216091156,-0.1124919131398201
1772567406293825000,2.898824951171875,-0.8905879855155945,0.6417232751846313,-0.09537418186664581
1772567406303853300,2.908853271484375,-0.7951844930648804,0.36302345991134644,-0.006851238198578358
1772567406313882400,2.91888232421875,-0.6966580748558044,0.07655609399080276,0.1592467725276947
1772567406323911200,2.9289111328125,-0.5930949449539185,-0.15042592585086823,0.43859589099884033
1772567406333939200,2.938939208984375,-0.49556365609169006,-0.1296670138835907,0.831816554069519
1772567406343968300,2.94896826171875,-0.354536771774292,0.06904847919940948,1.2170279026031494
1772567406353996300,2.958996337890625,-0.13473400473594666,0.35474148392677307,1.4155538082122803
1772567406364025300,2.969025390625,0.11790889501571655,0.5951886773109436,1.3143789768218994
1772567406374054100,2.97905419921875,0.3451206088066101,0.7683956623077393,0.9469926953315735
1772567406384082400,2.98908251953125,0.46232497692108154,0.7762727737426758,0.45897239446640015
1772567406394111200,2.999111328125,0.44010308384895325,0.637474536895752,0.03734331578016281
1772567406404139300,3.00913916015625,0.3120971918106079,0.45239999890327454,-0.18649537861347198
1772567406414168300,3.019168212890625,0.1468016803264618,0.2988368570804596,-0.22977666556835175
1772567406424196400,3.0291962890625,0.009092545136809349,0.17614051699638367,-0.18730191886425018
1772567406434225400,3.039225341796875,-0.08510297536849976,0.04570043832063675,-0.1666317731142044
1772567406444254200,3.049254150390625,-0.13628920912742615,-0.08107348531484604,-0.22041404247283936
1772567406454282200,3.0592822265625,-0.1493203490972519,-0.27396804094314575,-0.3626518249511719
1772567406464311300,3.069311279296875,-0.11738237738609314,-0.5520654320716858,-0.538442075252533
1772567406474339300,3.07933935546875,-0.05443781986832619,-0.7997110486030579,-0.692612886428833
1772567406484368400,3.089368408203125,-0.006486007012426853,-0.9379863142967224,-0.7997097969055176
1772567406494397200,3.099397216796875,0.02642674744129181,-0.9496177434921265,-0.8588092923164368
1772567406504425200,3.10942529296875,0.050708916038274765,-0.8846112489700317,-0.887557327747345
1772567406514454300,3.119454345703125,0.05658241733908653,-0.7875743508338928,-0.9032865166664124
1772567406524482300,3.129482421875,0.035302963107824326,-0.6937112212181091,-0.9141575694084167
1772567406534511400,3.139511474609375,-0.010244763456285,-0.5975294709205627,-0.9113046526908875
1772567406544540200,3.1495400390625,-0.07260934263467789,-0.4836108982563019,-0.8826256394386292
1772567406554568200,3.159568115234375,-0.1264192909002304,-0.37813812494277954,-0.8131468892097473
1772567406564597200,3.16959716796875,-0.16858725249767303,-0.2856276333332062,-0.6985358595848083
1772567406574625300,3.179625244140625,-0.21112805604934692,-0.1857854574918747,-0.5361642837524414
1772567406584654300,3.189654296875,-0.270827054977417,-0.08177810162305832,-0.3370380997657776
1772567406594682000,3.19968212890625,-0.34096431732177734,0.02367926761507988,-0.14271801710128784
1772567406604711200,3.209711181640625,-0.39641904830932617,0.11541292071342468,0.0350506454706192
1772567406614740200,3.219740234375,-0.4199088215827942,0.19881197810173035,0.1814597249031067
1772567406624768300,3.229768310546875,-0.3996301591396332,0.28187674283981323,0.2848958373069763
1772567406634797300,3.23979736328125,-0.34380799531936646,0.3383588194847107,0.34800246357917786
1772567406644825300,3.249825439453125,-0.24430884420871735,0.3418893814086914,0.3813670873641968
1772567406654854400,3.2598544921875,-0.12985500693321228,0.30759674310684204,0.3911682963371277
1772567406664882200,3.269882080078125,-0.04398084059357643,0.2532336413860321,0.40040573477745056
1772567406674911200,3.2799111328125,0.002508072182536125,0.26366424560546875,0.4445650577545166
1772567406684940300,3.289940185546875,0.028575891628861427,0.30960750579833984,0.5101187229156494
1772567406694968300,3.29996826171875,0.02059607021510601,0.34311243891716003,0.5660445690155029
1772567406704997400,3.309997314453125,-0.028766419738531113,0.3907225728034973,0.6251899003982544
1772567406715025200,3.320025146484375,-0.1122438833117485,0.5005918741226196,0.6791228652000427
1772567406725054200,3.33005419921875,-0.2100657820701599,0.5605457425117493,0.7069600820541382
1772567406735083300,3.340083251953125,-0.31092631816864014,0.5321661829948425,0.6999450922012329
1772567406745111300,3.350111328125,-0.4083130657672882,0.4606377184391022,0.6673887372016907
1772567406755140400,3.360140380859375,-0.4789082705974579,0.2627220153808594,0.6324552893638611
1772567406765168000,3.370168212890625,-0.5086539387702942,-0.11104997992515564,0.6374844312667847
1772567406775197200,3.380197265625,-0.49822068214416504,-0.7169933319091797,0.702200174331665
1772567406785225200,3.39022509765625,-0.441581130027771,-1.4293901920318604,0.868221640586853
1772567406795254300,3.400254150390625,-0.3260955810546875,-1.8134827613830566,1.1504899263381958
1772567406805283300,3.410283447265625,-0.1537019908428192,-1.6235636472702026,1.522054672241211
1772567406815311000,3.42031103515625,0.07846752554178238,-0.8222565650939941,1.8650950193405151
1772567406825340200,3.430340087890625,0.2808493971824646,0.2097795605659485,1.9097591638565063
1772567406835368200,3.4403681640625,0.40492233633995056,0.9719229936599731,1.4831911325454712
1772567406845397200,3.450397216796875,0.45390239357948303,1.464404821395874,0.7080605626106262
1772567406855426300,3.46042626953125,0.3666875958442688,1.5276120901107788,-0.14952446520328522
1772567406865454000,3.4704541015625,0.08298768103122711,1.293923258781433,-0.7961719036102295
1772567406875483400,3.4804833984375,-0.3370918333530426,1.032984972000122,-1.045628309249878
1772567406885511200,3.49051123046875,-0.7548656463623047,0.8483871221542358,-0.9371740221977234
1772567406895540200,3.500540283203125,-1.0044572353363037,0.7262145280838013,-0.6333264112472534
1772567406905569300,3.5105693359375,-1.0066252946853638,0.5890558362007141,-0.31450819969177246
1772567406915597300,3.520597412109375,-0.8386847972869873,0.34712910652160645,-0.1072530746459961
1772567406925626400,3.53062646484375,-0.6417770385742188,0.06310164928436279,-0.06317323446273804
1772567406935654100,3.540654052734375,-0.5511847138404846,-0.09903918206691742,-0.19862383604049683
1772567406945683200,3.55068310546875,-0.5920935273170471,-0.09734007716178894,-0.4750112295150757
1772567406955711500,3.56071142578125,-0.7444659471511841,0.07516269385814667,-0.781385064125061
1772567406965740300,3.570740234375,-0.9718692302703857,0.4201400578022003,-1.0221292972564697
1772567406975769300,3.580769287109375,-1.240731954574585,0.8858834505081177,-1.1398098468780518
1772567406985797000,3.590797119140625,-1.5281535387039185,1.349125862121582,-1.1320067644119263
1772567406995826200,3.600826171875,-1.7654935121536255,1.7469512224197388,-1.0224467515945435
1772567407005854200,3.610854248046875,-1.8934600353240967,2.0023927688598633,-0.8383387327194214
1772567407015883300,3.62088330078125,-1.911045789718628,2.033050537109375,-0.6264896988868713
1772567407025911300,3.630911376953125,-1.84552001953125,1.8348259925842285,-0.38578227162361145
1772567407035940000,3.640940185546875,-1.6989470720291138,1.3906835317611694,-0.07596717029809952
1772567407045969200,3.65096923828125,-1.452972412109375,0.8530808091163635,0.2616409659385681
1772567407055997200,3.6609970703125,-1.092734456062317,0.30066338181495667,0.5854128003120422
1772567407066026200,3.671026123046875,-0.6705507636070251,-0.22378337383270264,0.8824098706245422
1772567407076054300,3.68105419921875,-0.24865077435970306,-0.6378635168075562,1.1568729877471924
1772567407086083000,3.6910830078125,0.11788114905357361,-0.8978937268257141,1.3949886560440063
1772567407096112000,3.701112060546875,0.3806875944137573,-1.0617907047271729,1.575037956237793
1772567407106140200,3.71114013671875,0.5420818328857422,-1.1313157081604004,1.6856269836425781
1772567407116169200,3.721169189453125,0.613098680973053,-1.0848125219345093,1.7447285652160645
1772567407126197200,3.731197265625,0.595385730266571,-0.9685251116752625,1.7508524656295776
1772567407136226300,3.741226318359375,0.5206107497215271,-0.8376725316047668,1.7211962938308716
1772567407146254300,3.75125439453125,0.4228847622871399,-0.7024121880531311,1.6825283765792847
1772567407156283100,3.761283203125,0.32651036977767944,-0.5746530294418335,1.648967981338501
1772567407166312200,3.771312255859375,0.23862233757972717,-0.5023612380027771,1.630860447883606
1772567407176340500,3.781340576171875,0.16444137692451477,-0.5098468661308289,1.6268417835235596
1772567407186369500,3.79136962890625,0.09716221690177917,-0.6230160593986511,1.6395272016525269
1772567407196397800,3.801397705078125,0.054672665894031525,-0.8684446811676025,1.6549996137619019
1772567407206426600,3.811426513671875,0.05110909044742584,-1.2068475484848022,1.6764721870422363
1772567407216455700,3.82145556640625,0.07008474320173264,-1.5686779022216797,1.69289231300354
1772567407226483500,3.8314833984375,0.11161008477210999,-1.8419888019561768,1.7053172588348389
1772567407236512800,3.8415126953125,0.19625526666641235,-2.025254964828491,1.6967469453811646
1772567407246540500,3.85154052734375,0.3473678231239319,-2.1046078205108643,1.652237057685852
1772567407256569600,3.861569580078125,0.5659942626953125,-2.083204507827759,1.5529826879501343
1772567407266597600,3.87159765625,0.8098934292793274,-2.026383638381958,1.3568092584609985
1772567407276626700,3.881626708984375,1.0630393028259277,-1.8453562259674072,1.0694959163665771
1772567407286655700,3.89165576171875,1.2808212041854858,-1.3225289583206177,0.7628049254417419
1772567407296683500,3.90168359375,1.34921395778656,-0.6658342480659485,0.4420754313468933
1772567407306712600,3.911712646484375,1.2382265329360962,-0.28637266159057617,0.018236272037029266
1772567407316740900,3.921740966796875,0.9730501174926758,-0.15403412282466888,-0.4785342216491699
1772567407326769700,3.931769775390625,0.5535138249397278,-0.15252330899238586,-0.9869346022605896
1772567407336798700,3.941798828125,0.02462979406118393,-0.20649085938930511,-1.4493955373764038
1772567407346826500,3.951826416015625,-0.48002806305885315,-0.30072465538978577,-1.8028826713562012
1772567407356855600,3.96185546875,-0.8361439108848572,-0.3656966984272003,-1.9664486646652222
1772567407366883800,3.9718837890625,-0.9846790432929993,-0.346364289522171,-1.9394506216049194
1772567407376912600,3.98191259765625,-0.9400497674942017,-0.36844831705093384,-1.7660999298095703
1772567407386940700,3.991940673828125,-0.7306646108627319,-0.39483121037483215,-1.509601354598999
1772567407396968700,4.00196875,-0.4074860215187073,-0.4422561526298523,-1.2416599988937378
1772567407406997800,4.011997802734375,-0.06216618791222572,-0.5443913340568542,-1.0208895206451416
1772567407417025500,4.022025634765625,0.23723800480365753,-0.6872252821922302,-0.9183459877967834
1772567407427054600,4.0320546875,0.43013739585876465,-0.7926254868507385,-0.9933587312698364
1772567407437083000,4.042082763671875,0.48163917660713196,-0.822376012802124,-1.237384557723999
1772567407447111700,4.052111572265625,0.4184809923171997,-0.8151944875717163,-1.6144460439682007
1772567407457139700,4.0621396484375,0.2645694613456726,-0.8090441823005676,-2.0558290481567383
1772567407467168500,4.07216845703125,0.033143673092126846,-0.8092788457870483,-2.4760828018188477
1772567407477197600,4.082197509765625,-0.25726351141929626,-0.7943696975708008,-2.774418830871582
1772567407487225900,4.092225830078125,-0.5589954257011414,-0.7820435166358948,-2.908844232559204
1772567407497254700,4.102254638671875,-0.8196005821228027,-0.7945879697799683,-2.8658573627471924
1772567407507282700,4.11228271484375,-0.9892902970314026,-0.8146154880523682,-2.6303586959838867
1772567407517311500,4.1223115234375,-1.0673291683197021,-0.7603920698165894,-2.221384048461914
1772567407527339800,4.13233984375,-1.075559377670288,-0.5787016153335571,-1.7142654657363892
1772567407537368800,4.142368896484375,-1.0054937601089478,-0.29050391912460327,-1.218815565109253
1772567407547397600,4.152397705078125,-0.8702601194381714,0.08161213994026184,-0.8245462775230408
1772567407557425700,4.16242578125,-0.715518057346344,0.4342728853225708,-0.5855401158332825
1772567407567454500,4.172454345703125,-0.5998572111129761,0.6893560886383057,-0.48180678486824036
1772567407577482800,4.182482666015625,-0.49518561363220215,0.8978100419044495,-0.4476398825645447
1772567407587511800,4.19251171875,-0.37125834822654724,1.0813791751861572,-0.4153115153312683
1772567407597540600,4.20254052734375,-0.2348843663930893,1.1490122079849243,-0.37398868799209595
1772567407607568600,4.212568603515625,-0.13578814268112183,1.1115028858184814,-0.28383269906044006
1772567407617597700,4.22259765625,-0.07192742079496384,1.0543491840362549,-0.13152103126049042
1772567407627625700,4.232625732421875,-0.035635460168123245,1.001525640487671,0.06447616964578629
1772567407637654800,4.24265478515625,-0.026543261483311653,0.9038805961608887,0.26729536056518555
1772567407647682600,4.2526826171875,-0.04361226037144661,0.764433741569519,0.45306602120399475
1772567407657711900,4.2627119140625,-0.038230687379837036,0.6442142724990845,0.6285164952278137
1772567407667740700,4.27274072265625,0.009958945214748383,0.45512691140174866,0.7823148369789124
1772567407677768700,4.282768798828125,0.08530635386705399,0.1539398729801178,0.9091790318489075
1772567407687797500,4.292797607421875,0.18204382061958313,-0.18730959296226501,1.0289772748947144
1772567407697825800,4.30282568359375,0.3105473220348358,-0.4186386466026306,1.1794354915618896
1772567407707854800,4.312854736328125,0.45960739254951477,-0.3729505240917206,1.3708189725875854
1772567407717883600,4.322883544921875,0.5954192280769348,0.009538261219859123,1.5756744146347046
1772567407727911700,4.33291162109375,0.6740168333053589,0.6195656657218933,1.6926274299621582
1772567407737940500,4.3429404296875,0.7448393702507019,1.2047137022018433,1.6656527519226074
1772567407747968800,4.35296875,0.8597182631492615,1.6279704570770264,1.5124226808547974
1772567407757997800,4.362997802734375,1.0172266960144043,1.7259981632232666,1.280288815498352
1772567407768025600,4.373025634765625,1.1753095388412476,1.4310450553894043,1.0470904111862183
1772567407778054700,4.3830546875,1.327647089958191,0.9116286635398865,0.9036270976066589
1772567407788083500,4.39308349609375,1.4782885313034058,0.2970925569534302,0.8477166891098022
1772567407798111700,4.40311181640625,1.6059008836746216,-0.35096532106399536,0.8198067545890808
1772567407808140800,4.413140869140625,1.6490142345428467,-0.9203984141349792,0.7742539048194885
1772567407818168600,4.42316845703125,1.562891960144043,-1.2221759557724,0.6935572624206543
1772567407828197600,4.43319775390625,1.3328460454940796,-1.175026774406433,0.5705282688140869
1772567407838226400,4.443226318359375,1.0078097581863403,-0.8068659901618958,0.3855854868888855
1772567407848254700,4.453254638671875,0.6886267066001892,-0.2556990087032318,0.12992657721042633
1772567407858283800,4.46328369140625,0.4590921103954315,0.3037768006324768,-0.18360157310962677
1772567407868311600,4.4733115234375,0.335132896900177,0.7686126232147217,-0.5109338760375977
1772567407878340600,4.483340576171875,0.28474533557891846,1.015946865081787,-0.811829686164856
1772567407888368600,4.49336865234375,0.2891102731227875,0.9938727021217346,-1.0628571510314941
1772567407898397700,4.503397705078125,0.3329941928386688,0.7378331422805786,-1.2569161653518677
1772567407908426800,4.5134267578125,0.3808080554008484,0.307246595621109,-1.348065972328186
1772567407918454500,4.52345458984375,0.4005774259567261,-0.11562370508909225,-1.2977310419082642
1772567407928483800,4.53348388671875,0.3772047460079193,-0.44150033593177795,-1.1353975534439087
1772567407938511600,4.54351171875,0.33248117566108704,-0.6953191757202148,-0.9257686734199524
1772567407948540700,4.553540771484375,0.30232754349708557,-0.8938416242599487,-0.736602783203125
1772567407958568400,4.563568359375,0.30955755710601807,-1.0175094604492188,-0.5809791684150696
1772567407968597800,4.57359765625,0.334859162569046,-1.03556489944458,-0.4748205542564392
1772567407978626800,4.583626708984375,0.3439561426639557,-0.9078336358070374,-0.43528398871421814
1772567407988654600,4.593654541015625,0.33213144540786743,-0.6511339545249939,-0.4326826333999634
1772567407998683600,4.60368359375,0.3073558509349823,-0.3064234256744385,-0.44792553782463074
1772567408008711700,4.613711669921875,0.24849654734134674,0.044847529381513596,-0.474470853805542
1772567408018740700,4.62374072265625,0.1559445858001709,0.34104451537132263,-0.4927976727485657
1772567408028769800,4.633769775390625,0.03335580602288246,0.5884639024734497,-0.46286001801490784
1772567408038797600,4.643797607421875,-0.09439271688461304,0.7510544657707214,-0.40636831521987915
1772567408048826600,4.65382666015625,-0.20584999024868011,0.8210217952728271,-0.32250508666038513
1772567408058854700,4.663854736328125,-0.2971612215042114,0.7980550527572632,-0.22035227715969086
1772567408068883700,4.6738837890625,-0.37692078948020935,0.7183517217636108,-0.07890592515468597
1772567408078911700,4.683911865234375,-0.44961977005004883,0.6285839080810547,0.09414815902709961
1772567408088940500,4.6939404296875,-0.49481362104415894,0.5701563358306885,0.27521753311157227
1772567408098969600,4.703969482421875,-0.5123916864395142,0.5084441304206848,0.44821885228157043
1772567408108997600,4.71399755859375,-0.4952062964439392,0.4787251353263855,0.6013988256454468
1772567408119026700,4.724026611328125,-0.43911728262901306,0.47801467776298523,0.7261958718299866
1772567408129054500,4.734054443359375,-0.361452579498291,0.5180875062942505,0.8198462128639221
1772567408139083500,4.74408349609375,-0.2857469320297241,0.5783571600914001,0.8770145177841187
1772567408149112600,4.754112548828125,-0.2552436292171478,0.6196931004524231,0.9074661731719971
1772567408159140600,4.764140625,-0.2871599495410919,0.6239374876022339,0.9259344935417175
1772567408169169700,4.774169677734375,-0.3611675798892975,0.5521253943443298,0.9342257380485535
1772567408179197000,4.784197021484375,-0.4445408880710602,0.4515395164489746,0.9438778758049011
1772567408189225700,4.794225830078125,-0.4986419379711151,0.2939360439777374,0.9392527341842651
1772567408199253800,4.804253662109375,-0.46760809421539307,0.05664265900850296,0.9380923509597778
1772567408209282800,4.81428271484375,-0.34246349334716797,-0.22846870124340057,0.9438014030456543
1772567408219311600,4.8243115234375,-0.17105159163475037,-0.5126326084136963,0.9538315534591675
1772567408229340000,4.83433984375,-0.004506280645728111,-0.7073320746421814,0.9873687028884888
1772567408239368700,4.84436865234375,0.1657063364982605,-0.6755895614624023,1.0566823482513428
1772567408249396700,4.854396728515625,0.35714101791381836,-0.5140746831893921,1.0670859813690186
1772567408259425800,4.86442578125,0.5486937761306763,-0.46036234498023987,0.9121797680854797
1772567408269453800,4.874453857421875,0.6942871809005737,-0.5216318368911743,0.5581673979759216
1772567408279483000,4.88448291015625,0.728858232498169,-0.5371890068054199,0.09560881555080414
1772567408289511700,4.89451171875,0.6182992458343506,-0.4946780204772949,-0.37022680044174194
1772567408299539700,4.904539794921875,0.41448596119880676,-0.43774041533470154,-0.7538819313049316
1772567408309568800,4.91456884765625,0.20297026634216309,-0.3406924307346344,-0.9804660677909851
1772567408319596800,4.9245966796875,0.05565651133656502,-0.18840593099594116,-1.0444146394729614
1772567408329625900,4.9346259765625,-0.004523472394794226,0.008434431627392769,-0.9972359538078308
1772567408339654700,4.944654541015625,0.027418218553066254,0.18250925838947296,-0.9325249791145325
1772567408349682700,4.9546826171875,0.1512613296508789,0.22932469844818115,-0.9386388063430786
1772567408359712000,4.9647119140625,0.3328585624694824,0.15749597549438477,-1.025998830795288
1772567408369739800,4.97473974609375,0.5438441038131714,0.03646250069141388,-1.147121548652649
1772567408379768800,4.984768798828125,0.7507553696632385,-0.140726238489151,-1.2510257959365845
1772567408389796600,4.994796630859375,0.9372080564498901,-0.4084596633911133,-1.2998521327972412
1772567408399826000,5.004825927734375,1.0871084928512573,-0.755034863948822,-1.2717684507369995
1772567408409855000,5.01485498046875,1.188750982284546,-1.1228523254394531,-1.1511940956115723
1772567408419882800,5.0248828125,1.2572007179260254,-1.4819707870483398,-0.9547855854034424
1772567408429911800,5.034911865234375,1.295696496963501,-1.7872684001922607,-0.7145399451255798
1772567408439939800,5.04493994140625,1.3056648969650269,-1.991912841796875,-0.4808186888694763
1772567408449969000,5.054968994140625,1.2938625812530518,-2.077963352203369,-0.28851741552352905
1772567408459996700,5.06499658203125,1.2669156789779663,-2.0229032039642334,-0.1395772099494934
1772567408470025700,5.075025634765625,1.2179208993911743,-1.8321136236190796,-0.037659093737602234
1772567408480054800,5.0850546875,1.1394500732421875,-1.5275958776474,0.02961920201778412
1772567408490082800,5.095082763671875,1.0142420530319214,-1.1258012056350708,0.04164017736911774
1772567408500112000,5.10511181640625,0.8352887034416199,-0.6760721206665039,0.03206878527998924
1772567408510139600,5.1151396484375,0.6111858487129211,-0.21172119677066803,0.002781736198812723
1772567408520168700,5.125168701171875,0.3546212315559387,0.24241463840007782,-0.028048023581504822
1772567408530197800,5.13519775390625,0.0843101367354393,0.6488891839981079,-0.0453772097826004
1772567408540225800,5.145225830078125,-0.16832417249679565,0.9887036085128784,-0.03867269307374954
1772567408550254800,5.1552548828125,-0.3943740725517273,1.226487159729004,-0.007680688519030809
1772567408560282600,5.16528271484375,-0.5913791656494141,1.3424710035324097,0.058410439640283585
1772567408570311700,5.175311767578125,-0.7564730644226074,1.3664077520370483,0.14441457390785217
1772567408580339700,5.185339599609375,-0.8883427381515503,1.2978320121765137,0.2381117194890976
1772567408590368800,5.19536865234375,-0.9845747351646423,1.1443250179290771,0.3162986636161804
1772567408600397800,5.205397705078125,-1.0531392097473145,0.9648385047912598,0.36522960662841797
1772567408610425600,5.215425537109375,-1.095803141593933,0.8214022517204285,0.38360780477523804
1772567408620455000,5.225454833984375,-1.109151005744934,0.7310687303543091,0.38224026560783386
1772567408630482700,5.235482666015625,-1.0870674848556519,0.6794564127922058,0.39184892177581787
1772567408640511700,5.24551171875,-1.0335766077041626,0.6172665953636169,0.4509090483188629
1772567408650539800,5.255539794921875,-0.9490606784820557,0.46473753452301025,0.5613213181495667
1772567408660568800,5.26556884765625,-0.8539215326309204,0.2945534288883209,0.7290430068969727
1772567408670598000,5.275597900390625,-0.7432418465614319,0.05911322310566902,0.9199234843254089
1772567408680625700,5.285625732421875,-0.6101556420326233,-0.19098620116710663,1.1189717054367065
1772567408690654700,5.29565478515625,-0.4628216326236725,-0.24509258568286896,1.3217895030975342
1772567408700682800,5.305682861328125,-0.3676382303237915,-0.06039735674858093,1.458056926727295
1772567408710711800,5.3157119140625,-0.3772117793560028,0.22430148720741272,1.4465888738632202
1772567408720740900,5.325740966796875,-0.4907027781009674,0.42257195711135864,1.2413182258605957
1772567408730768600,5.3357685546875,-0.6059502959251404,0.49244293570518494,0.9102281928062439
1772567408740797700,5.345797607421875,-0.5840356945991516,0.40126824378967285,0.5316124558448792
1772567408750826000,5.355825927734375,-0.42735186219215393,0.09952545911073685,0.18417008221149445
1772567408760854800,5.365854736328125,-0.24986962974071503,-0.20765964686870575,-0.05237279087305069
1772567408770882800,5.3758828125,-0.13879424333572388,-0.3484213054180145,-0.1542014181613922
1772567408780911600,5.38591162109375,-0.10801616311073303,-0.3778257668018341,-0.15965808928012848
1772567408790940700,5.395940673828125,-0.12404093146324158,-0.32627469301223755,-0.136272594332695
1772567408800969000,5.405968994140625,-0.12960991263389587,-0.25323301553726196,-0.14115452766418457
1772567408810997800,5.415997802734375,-0.0955028086900711,-0.1695738285779953,-0.18898862600326538
1772567408821025800,5.42602587890625,-0.03619784861803055,-0.032330892980098724,-0.2737026512622833
1772567408831054600,5.4360546875,0.04496757686138153,0.08209635317325592,-0.4019511938095093
1772567408841083000,5.446082763671875,0.15786442160606384,0.07494086772203445,-0.5936741828918457
1772567408851112000,5.45611181640625,0.30492258071899414,-0.10596153885126114,-0.8284664154052734
1772567408861140700,5.466140625,0.4582377076148987,-0.3271324336528778,-1.034263253211975
1772567408871168800,5.476168701171875,0.5740290284156799,-0.4680810272693634,-1.1442408561706543
1772567408881197600,5.486197509765625,0.6220095157623291,-0.5088478326797485,-1.136763095855713
1772567408891225900,5.496225830078125,0.6379935145378113,-0.5008378028869629,-1.058698058128357
1772567408901255000,5.5062548828125,0.6270735859870911,-0.4924303889274597,-0.9630889296531677
1772567408911282700,5.51628271484375,0.6025493741035461,-0.4843713939189911,-0.8803895115852356
1772567408921311700,5.526311767578125,0.5548801422119141,-0.4517141580581665,-0.8265683650970459
1772567408931340800,5.5363408203125,0.4689599275588989,-0.38752585649490356,-0.8090676665306091
1772567408941368800,5.546368896484375,0.3668001890182495,-0.30493274331092834,-0.8026615381240845
1772567408951398000,5.55639794921875,0.25188133120536804,-0.20171740651130676,-0.8066160678863525
1772567408961425700,5.56642578125,0.11613702028989792,-0.08639247715473175,-0.8078938722610474
1772567408971455000,5.576455078125,-0.04053540900349617,0.05938895791769028,-0.7967017292976379
1772567408981483800,5.58648388671875,-0.20558081567287445,0.2261771410703659,-0.7814028859138489
1772567408991511800,5.59651171875,-0.36190253496170044,0.4026925265789032,-0.7706378698348999
1772567409001540900,5.606540771484375,-0.4747627079486847,0.5888547897338867,-0.7484674453735352
1772567409011569000,5.61656884765625,-0.5207440257072449,0.7738195657730103,-0.7020485401153564
1772567409021598000,5.626597900390625,-0.5075492858886719,0.939106285572052,-0.6250062584877014
1772567409031625700,5.636625732421875,-0.4564823806285858,1.058344841003418,-0.5196596384048462
1772567409041654800,5.64665478515625,-0.3889929950237274,1.115555763244629,-0.37734171748161316
1772567409051683800,5.656683837890625,-0.34068724513053894,1.110188603401184,-0.21486839652061462
1772567409061712000,5.6667119140625,-0.33076170086860657,1.027403712272644,-0.05304909870028496
1772567409071741000,5.676740966796875,-0.38750913739204407,0.8892088532447815,0.04954944923520088
1772567409081768700,5.686768798828125,-0.5063081979751587,0.7510039806365967,0.07399283349514008
1772567409091797800,5.6967978515625,-0.6524004340171814,0.6566734910011292,0.04727547615766525
1772567409101825800,5.70682568359375,-0.8107926845550537,0.5328068137168884,-0.015559808351099491
1772567409111854800,5.716854736328125,-0.9580076932907104,0.2970118820667267,-0.073543481528759
1772567409121884000,5.7268837890625,-1.0703994035720825,-0.016727151349186897,-0.03608445078134537
1772567409131911700,5.73691162109375,-1.0556691884994507,-0.29864299297332764,0.10539066046476364
1772567409141940700,5.746940673828125,-0.9523220062255859,-0.44757792353630066,0.32929715514183044
1772567409151968800,5.75696875,-0.8384489417076111,-0.3543643355369568,0.576093852519989
1772567409161997800,5.766997802734375,-0.7777246832847595,0.02934391051530838,0.7934319376945496
1772567409172025600,5.777025634765625,-0.8115857243537903,0.4019441306591034,0.9156979322433472
1772567409182055400,5.787055419921875,-0.8735953569412231,0.45196402072906494,0.8783793449401855
1772567409192084500,5.79708447265625,-0.8229867815971375,0.2636660039424896,0.7386970520019531
1772567409202112500,5.807112548828125,-0.5706953406333923,0.21745117008686066,0.5914374589920044
1772567409212141600,5.8171416015625,-0.2446746528148651,0.26958227157592773,0.42058077454566956
1772567409222169300,5.82716943359375,-0.016685161739587784,0.3457835614681244,0.2049022912979126
1772567409232198400,5.837198486328125,0.0631960853934288,0.4562986195087433,-0.04410913214087486
1772567409242227500,5.8472275390625,0.040486663579940796,0.4671351909637451,-0.2951042056083679
1772567409252255500,5.85725537109375,-0.03608693927526474,0.38158753514289856,-0.48404911160469055
1772567409262284500,5.867284423828125,-0.1355534940958023,0.22508855164051056,-0.5444911122322083
1772567409272312300,5.877312255859375,-0.22814814746379852,0.13237085938453674,-0.4087207615375519
1772567409282341400,5.88734130859375,-0.32373496890068054,0.14496859908103943,-0.11519437283277512
1772567409292369700,5.89736962890625,-0.38641539216041565,0.16073158383369446,0.23695914447307587
1772567409302398500,5.9073984375,-0.37527695298194885,0.16739821434020996,0.5418843030929565
1772567409312427500,5.917427490234375,-0.28026309609413147,0.1828453540802002,0.726987898349762
1772567409322455300,5.927455322265625,-0.1305341124534607,0.16296954452991486,0.7468470931053162
1772567409332484600,5.937484619140625,0.04281610623002052,0.0671900138258934,0.5898750424385071
1772567409342512600,5.9475126953125,0.20993278920650482,-0.09822097420692444,0.29133448004722595
1772567409352541400,5.95754150390625,0.3339630961418152,-0.29369086027145386,-0.10212438553571701
1772567409362569500,5.967569580078125,0.40009990334510803,-0.4485400319099426,-0.5178787112236023
1772567409372598500,5.9775986328125,0.4179438650608063,-0.5597400665283203,-0.8718152046203613
1772567409382627600,5.987627685546875,0.4227074980735779,-0.6266672611236572,-1.1123508214950562
1772567409392655600,5.997655517578125,0.43808141350746155,-0.6641326546669006,-1.2223933935165405
1772567409402684400,6.007684326171875,0.48132818937301636,-0.7088635563850403,-1.2174701690673828
1772567409412712400,6.01771240234375,0.5542106628417969,-0.7998773455619812,-1.12002432346344
1772567409422741500,6.027741455078125,0.6654021739959717,-0.893423855304718,-0.9491350054740906
1772567409432769500,6.03776953125,0.756307065486908,-0.9658360481262207,-0.7045207023620605
1772567409442798600,6.047798583984375,0.7704309225082397,-0.954673171043396,-0.4112970530986786
1772567409452827400,6.057827392578125,0.6902809739112854,-0.8262866735458374,-0.13018949329853058
1772567409462855700,6.067855712890625,0.5497451424598694,-0.6197501420974731,0.08551102876663208
1772567409472884500,6.077884521484375,0.3763967752456665,-0.3995908498764038,0.22262468934059143
1772567409482912500,6.08791259765625,0.2210473120212555,-0.14253824949264526,0.2876853346824646
1772567409492941300,6.09794140625,0.10101012140512466,0.13716691732406616,0.31379789113998413
1772567409502969600,6.107969482421875,0.027907414361834526,0.40646442770957947,0.31580138206481934
1772567409512998700,6.11799853515625,0.0015738122165203094,0.6254111528396606,0.3213021457195282
1772567409523027500,6.12802734375,0.04351479932665825,0.7987041473388672,0.34820279479026794
1772567409533055500,6.138055419921875,0.14654770493507385,0.9390644431114197,0.38781625032424927
1772567409543084300,6.148084228515625,0.2895033657550812,1.0094188451766968,0.419059693813324
1772567409553112600,6.158112548828125,0.42825406789779663,1.0083884000778198,0.4234802722930908
1772567409563141600,6.1681416015625,0.5347954630851746,0.9663257598876953,0.3924412727355957
1772567409573169400,6.17816943359375,0.5816753506660461,0.8986340761184692,0.330965131521225
1772567409583198500,6.188198486328125,0.5231219530105591,0.8089226484298706,0.244058758020401
1772567409593227300,6.198227294921875,0.369360089302063,0.6730833053588867,0.14630423486232758
1772567409603255600,6.208255615234375,0.1349637508392334,0.46798378229141235,0.05242246761918068
1772567409613284600,6.21828466796875,-0.0943107157945633,0.21346494555473328,-0.02675197832286358
1772567409623312400,6.2283125,-0.23571628332138062,0.0066674211993813515,-0.054224155843257904
1772567409633341400,6.238341552734375,-0.32437291741371155,-0.05138549581170082,0.016484368592500687
1772567409643369500,6.248369384765625,-0.4042014479637146,0.056163936853408813,0.25151219964027405
1772567409653398500,6.2583984375,-0.4185657501220703,0.5273503661155701,0.5943326354026794
1772567409663427600,6.268427490234375,-0.44496142864227295,1.0325207710266113,0.9591522216796875
1772567409673455400,6.278455322265625,-0.4452213644981384,1.38611900806427,1.2229259014129639
1772567409683484700,6.288484619140625,-0.3629768192768097,1.488566517829895,1.3048927783966064
1772567409693512400,6.298512451171875,-0.1340664029121399,1.326130986213684,1.2173341512680054
1772567409703541500,6.30854150390625,0.17828989028930664,0.9663845896720886,1.014732837677002
1772567409713570600,6.318570556640625,0.3848249614238739,0.20454905927181244,0.6710254549980164
1772567409723598600,6.3285986328125,0.3047892153263092,-1.0614718198776245,0.16319045424461365
1772567409733627600,6.338627685546875,-0.039303723722696304,-2.386624336242676,-0.4049778878688812
1772567409743655400,6.348655517578125,-0.5023289322853088,-3.1537423133850098,-0.8658812046051025
1772567409753684500,6.3586845703125,-0.9731497764587402,-3.2162466049194336,-1.0912789106369019
1772567409763712500,6.36871240234375,-1.390189290046692,-2.573998212814331,-1.0773425102233887
1772567409773741600,6.378741455078125,-1.617854118347168,-1.4049311876296997,-0.8802960515022278
1772567409783770600,6.3887705078125,-1.5171928405761719,-0.27260878682136536,-0.621331512928009
1772567409793798400,6.39879833984375,-1.1764440536499023,0.41807910799980164,-0.4514116942882538
1772567409803827500,6.408827392578125,-0.8009483218193054,0.5931950211524963,-0.42940837144851685
1772567409813855500,6.41885546875,-0.49775567650794983,0.4555618464946747,-0.49370959401130676
1772567409823884500,6.428884521484375,-0.2394530326128006,0.21986712515354156,-0.5655023455619812
1772567409833912600,6.43891259765625,-0.00750236539170146,-0.07264543324708939,-0.6306970715522766
1772567409843941400,6.44894140625,0.1925758272409439,-0.4035710096359253,-0.6854276061058044
1772567409853970400,6.458970458984375,0.3400166630744934,-0.7153424620628357,-0.724391758441925
1772567409863998500,6.46899853515625,0.4026689827442169,-0.9416978359222412,-0.7641507983207703
1772567409874027500,6.479027587890625,0.3774999976158142,-1.0626509189605713,-0.8183557391166687
1772567409884055600,6.4890556640625,0.29011625051498413,-1.0559364557266235,-0.8752797842025757
1772567409894084400,6.49908447265625,0.1997315138578415,-0.9286051392555237,-0.9208576083183289
1772567409904112600,6.509112548828125,0.138193279504776,-0.6907352209091187,-0.9573513269424438
1772567409914141400,6.519141357421875,0.10033909976482391,-0.37948939204216003,-0.9599572420120239
1772567409924170500,6.52917041015625,0.08155861496925354,-0.09945954382419586,-0.9189642667770386
1772567409934198300,6.5391982421875,0.09150099009275436,0.10301259905099869,-0.8234236240386963
1772567409944227600,6.5492275390625,0.14154095947742462,0.21235783398151398,-0.6696511507034302
1772567409954255600,6.559255615234375,0.22593653202056885,0.25351831316947937,-0.49030083417892456
1772567409964284400,6.569284423828125,0.3106781244277954,0.2623947560787201,-0.315822035074234
1772567409974312400,6.5793125,0.3666202127933502,0.2579589784145355,-0.16558222472667694
1772567409984341500,6.589341552734375,0.3861384093761444,0.26456937193870544,-0.06267942488193512
1772567409994370600,6.59937060546875,0.3618397116661072,0.3050749897956848,-0.001795831136405468
1772567410004398600,6.609398681640625,0.3033931255340576,0.4026971161365509,0.03319041058421135
1772567410014427400,6.619427490234375,0.2220255583524704,0.5460050106048584,0.0524866096675396
1772567410024455400,6.629455322265625,0.1264541745185852,0.702946126461029,0.06332335621118546
1772567410034484500,6.639484375,0.05054982379078865,0.8323195576667786,0.06475666910409927
1772567410044512500,6.649512451171875,0.017531806603074074,0.9467878937721252,0.06959301233291626
1772567410054541600,6.65954150390625,0.0037526115775108337,1.034502387046814,0.07788662612438202
1772567410064570400,6.6695703125,-0.031064994633197784,1.08612060546875,0.09086013585329056
1772567410074598700,6.6795986328125,-0.05698900297284126,1.1347211599349976,0.14582939445972443
1772567410084627500,6.68962744140625,-0.047066137194633484,1.1604068279266357,0.24323731660842896
1772567410094655500,6.699655517578125,0.011911427602171898,1.043735146522522,0.35779184103012085
1772567410104684500,6.7096845703125,0.04101303964853287,0.7586541771888733,0.45056334137916565
1772567410114712600,6.719712646484375,0.07330653071403503,0.3873901069164276,0.5164811015129089
1772567410124741600,6.72974169921875,0.11809909343719482,-0.012104337103664875,0.537652850151062
1772567410134770400,6.7397705078125,0.13655665516853333,-0.4266914129257202,0.520853579044342
1772567410144798500,6.749798583984375,0.09913314133882523,-0.7935546040534973,0.49506112933158875
1772567410154827500,6.75982763671875,-0.015485312789678574,-0.9391195178031921,0.4919010400772095
1772567410164855600,6.76985546875,-0.18948577344417572,-0.9586867094039917,0.5586738586425781
1772567410174884600,6.779884521484375,-0.3468114733695984,-1.0035911798477173,0.692653477191925
1772567410184912400,6.789912353515625,-0.4341209828853607,-1.1127697229385376,0.8725923895835876
1772567410194941400,6.79994140625,-0.46396490931510925,-1.1530625820159912,1.0495445728302002
1772567410204970500,6.809970458984375,-0.42534253001213074,-1.0756250619888306,1.1676369905471802
1772567410214998500,6.81999853515625,-0.3519865572452545,-0.936686635017395,1.164880394935608
1772567410225027600,6.830027587890625,-0.30768680572509766,-0.7938870787620544,0.9810422658920288
1772567410235055400,6.840055419921875,-0.32992950081825256,-0.6370556950569153,0.6366963386535645
1772567410245084400,6.85008447265625,-0.4046325385570526,-0.4960854649543762,0.203469917178154
1772567410255112400,6.860112548828125,-0.5156051516532898,-0.38825085759162903,-0.22716642916202545
1772567410265141500,6.8701416015625,-0.6843079328536987,-0.3444420099258423,-0.5967409014701843
1772567410275170600,6.880170654296875,-0.8546184301376343,-0.4348802864551544,-0.8798567652702332
1772567410285198300,6.8901982421875,-0.9639660120010376,-0.7057214379310608,-1.0518492460250854
1772567410295227600,6.9002275390625,-0.9729126691818237,-1.1013907194137573,-1.0907233953475952
1772567410305255400,6.91025537109375,-0.8900976777076721,-1.5013959407806396,-0.9846315383911133
1772567410315284500,6.920284423828125,-0.7536638975143433,-1.7639799118041992,-0.7272948026657104
1772567410325312500,6.9303125,-0.5951095819473267,-1.839301347732544,-0.3714725375175476
1772567410335341600,6.940341552734375,-0.4448484480381012,-1.7688016891479492,0.017986007034778595
1772567410345370600,6.95037060546875,-0.33409082889556885,-1.6442968845367432,0.33780255913734436
1772567410355398400,6.9603984375,-0.29765239357948303,-1.5159794092178345,0.5123250484466553
1772567410365427500,6.970427490234375,-0.3407316505908966,-1.3510475158691406,0.5013225078582764
1772567410375455500,6.98045556640625,-0.4276846647262573,-1.1206893920898438,0.3063085079193115
1772567410385484500,6.990484619140625,-0.5109421610832214,-0.8071640133857727,-0.01949428953230381
1772567410395513600,7.000513671875,-0.5680190324783325,-0.4113037586212158,-0.4062635898590088
1772567410405541400,7.010541259765625,-0.5943704843521118,0.05342264100909233,-0.7677722573280334
1772567410415570400,7.0205703125,-0.6223123669624329,0.4798536002635956,-1.0493985414505005
1772567410425598500,7.030598388671875,-0.6494977474212646,0.7668752074241638,-1.212117314338684
1772567410435627500,7.04062744140625,-0.6318665742874146,0.926459789276123,-1.2358589172363281
1772567410445655600,7.050655517578125,-0.555378258228302,0.9607985615730286,-1.1425915956497192
1772567410455684400,7.060684326171875,-0.42455369234085083,0.9099324941635132,-0.960702121257782
1772567410465713400,7.07071337890625,-0.2794867157936096,0.8287108540534973,-0.7208733558654785
1772567410475741400,7.080741455078125,-0.1549738049507141,0.7377545833587646,-0.4614138603210449
1772567410485770500,7.0907705078125,-0.07819125056266785,0.678377628326416,-0.18895940482616425
1772567410495798500,7.100798583984375,-0.0534379668533802,0.6367921233177185,0.08867432922124863
1772567410505827300,7.110827392578125,-0.0714300200343132,0.5637413263320923,0.3373752236366272
1772567410515855600,7.120855712890625,-0.08740072697401047,0.46927663683891296,0.5228824615478516
1772567410525884400,7.130884521484375,-0.03399326652288437,0.4090345501899719,0.6501215100288391
1772567410535912400,7.140912353515625,0.06354421377182007,0.35501232743263245,0.7363256216049194
1772567410545941500,7.15094140625,0.18270014226436615,0.3508852422237396,0.799710214138031
1772567410555970300,7.16097021484375,0.3067009150981903,0.4331321716308594,0.8582456707954407
1772567410565998600,7.17099853515625,0.3742890954017639,0.5487263202667236,0.9357334971427917
1772567410576027400,7.18102734375,0.33892473578453064,0.6873369216918945,1.0194904804229736
1772567410586055400,7.191055419921875,0.26475363969802856,0.8524700999259949,1.059497356414795
1772567410596084500,7.20108447265625,0.24384863674640656,1.0261389017105103,1.031603217124939
1772567410606112500,7.211112548828125,0.3000085651874542,1.199893832206726,0.9124030470848083
1772567410616141600,7.2211416015625,0.3826989233493805,1.3648873567581177,0.6803929805755615
1772567410626170400,7.23117041015625,0.4722355604171753,1.415865182876587,0.3547303080558777
1772567410636198400,7.241198486328125,0.5605981349945068,1.207389235496521,-0.0019487016834318638
1772567410646227700,7.251227783203125,0.6401160955429077,0.8012887239456177,-0.28998860716819763
1772567410656255500,7.26125537109375,0.646080493927002,0.3239207863807678,-0.4143853783607483
1772567410666284500,7.271284423828125,0.6067850589752197,-0.07610788941383362,-0.33581721782684326
1772567410676313300,7.281313232421875,0.6332781910896301,-0.23943689465522766,-0.0446210652589798
1772567410686341600,7.291341552734375,0.7975626587867737,0.017392784357070923,0.35045933723449707
1772567410696370700,7.30137060546875,1.0719201564788818,0.4123600721359253,0.6937639713287354
1772567410706398500,7.3113984375,1.3344311714172363,0.5968343615531921,0.8662866950035095
1772567410716427500,7.321427490234375,1.4376037120819092,0.5076578855514526,0.8370015025138855
1772567410726455600,7.33145556640625,1.3566625118255615,0.13256211578845978,0.6096324324607849
1772567410736484600,7.341484619140625,1.1643476486206055,-0.48997950553894043,0.2646811902523041
1772567410746512400,7.351512451171875,0.9506664276123047,-1.0992316007614136,-0.07970890402793884
1772567410756541400,7.36154150390625,0.7478113174438477,-1.4771581888198853,-0.35147276520729065
1772567410766570500,7.371570556640625,0.5321180820465088,-1.5552767515182495,-0.5456897020339966
1772567410776598500,7.3815986328125,0.35011494159698486,-1.3015658855438232,-0.7082656025886536
1772567410786627600,7.391627685546875,0.2834494411945343,-0.8521934151649475,-0.8735458254814148
1772567410796655400,7.4016552734375,0.2998553216457367,-0.3560097813606262,-1.0573066473007202
1772567410806684400,7.411684326171875,0.31739434599876404,0.13955989480018616,-1.1958436965942383
1772567410816713500,7.42171337890625,0.24542613327503204,0.566994845867157,-1.2716151475906372
1772567410826741500,7.431741455078125,0.11911765486001968,0.9053295254707336,-1.3237463235855103
1772567410836770600,7.4417705078125,-0.05680970475077629,1.0709482431411743,-1.3605588674545288
1772567410846798300,7.45179833984375,-0.2725216746330261,1.037800908088684,-1.3963632583618164
1772567410856827400,7.461827392578125,-0.505795419216156,0.8264130353927612,-1.3952977657318115
1772567410866855400,7.47185546875,-0.7436540722846985,0.45832136273384094,-1.3464986085891724
1772567410876884500,7.481884521484375,-0.9925262331962585,0.057281527668237686,-1.2370808124542236
1772567410886912500,7.49191259765625,-1.1828186511993408,-0.2006671130657196,-1.066792607307434
1772567410896941300,7.50194140625,-1.2345795631408691,-0.23473240435123444,-0.8506752848625183
1772567410906970600,7.511970703125,-1.101766586303711,-0.062379226088523865,-0.6140857934951782
1772567410916998400,7.521998291015625,-0.8109893798828125,0.15757444500923157,-0.3699929416179657
1772567410927027500,7.53202734375,-0.4729839861392975,0.3540004789829254,-0.13922818005084991
1772567410937055500,7.542055419921875,-0.21096622943878174,0.503052294254303,0.06128440424799919
1772567410947084500,7.55208447265625,-0.08484356105327606,0.5880491733551025,0.22854670882225037
1772567410957112600,7.562112548828125,-0.04822057485580444,0.5708851218223572,0.3336520791053772
1772567410967141400,7.572141357421875,-0.08933845907449722,0.4563170373439789,0.37244462966918945
1772567410977170400,7.58217041015625,-0.19784948229789734,0.30957871675491333,0.3323318362236023
1772567410987198500,7.592198486328125,-0.30425524711608887,0.20672592520713806,0.24495382606983185
1772567410997227500,7.6022275390625,-0.37367987632751465,0.18129752576351166,0.14019574224948883
1772567411007255600,7.612255615234375,-0.3724253177642822,0.26163122057914734,0.06260456889867783
1772567411017284400,7.622284423828125,-0.2988360524177551,0.3867012560367584,0.018151884898543358
1772567411027312600,7.632312744140625,-0.21247267723083496,0.4598815143108368,0.030097607523202896
1772567411037341700,7.642341796875,-0.1204759031534195,0.4836510121822357,0.09526995569467545
1772567411047370500,7.65237060546875,-0.0065552713349461555,0.5139383673667908,0.22595913708209991
1772567411057398500,7.6623984375,0.12483364343643188,0.475545734167099,0.4260895550251007
1772567411067427300,7.67242724609375,0.22354067862033844,0.3382332921028137,0.6613562703132629
1772567411077455600,7.68245556640625,0.23732919991016388,0.16720320284366608,0.8793290853500366
1772567411087484700,7.692484619140625,0.17145037651062012,-0.06306640803813934,0.9969756007194519
1772567411097512400,7.702512451171875,0.0654861181974411,-0.44134393334388733,0.9704297184944153
1772567411107541500,7.71254150390625,-0.027209028601646423,-0.8983678221702576,0.8408304452896118
1772567411117570300,7.7225703125,-0.032567042857408524,-1.2709614038467407,0.7176368832588196
1772567411127598600,7.7325986328125,0.07305176556110382,-1.4981542825698853,0.7017653584480286
1772567411137627600,7.742627685546875,0.2461593747138977,-1.5474376678466797,0.83780837059021
1772567411147655400,7.752655517578125,0.41128066182136536,-1.385127067565918,1.1114574670791626
1772567411157684500,7.7626845703125,0.5259787440299988,-0.9226405620574951,1.4602242708206177
1772567411167712500,7.77271240234375,0.6006627082824707,-0.23409104347229004,1.759464979171753
1772567411177741600,7.782741455078125,0.6644856333732605,0.3400627672672272,1.858216404914856
1772567411187771100,7.792771240234375,0.7525494694709778,0.6496857404708862,1.7055730819702148
1772567411197799000,7.802798828125,0.8414995670318604,0.7866523861885071,1.3532909154891968
1772567411207828000,7.812827880859375,0.8456921577453613,0.9067030549049377,0.8918421268463135
1772567411217856000,7.82285595703125,0.7715750336647034,1.0116442441940308,0.41554558277130127
1772567411227885000,7.832885009765625,0.644929051399231,0.9653822183609009,-0.014795791357755661
1772567411237912800,7.842912841796875,0.49022841453552246,0.7326951622962952,-0.3817905783653259
1772567411247942000,7.85294189453125,0.326282262802124,0.3052842319011688,-0.6743897795677185
1772567411257971000,7.862970947265625,0.12460987269878387,-0.26236721873283386,-0.9124223589897156
1772567411267999000,7.8729990234375,-0.11314553767442703,-0.7783368825912476,-1.0835459232330322
1772567411278028000,7.883028076171875,-0.3358638286590576,-1.0975056886672974,-1.1752593517303467
1772567411288055800,7.893055908203125,-0.49615034461021423,-1.2208424806594849,-1.1945102214813232
1772567411298084900,7.9030849609375,-0.5343145728111267,-1.174223780632019,-1.149930715560913
1772567411308113200,7.913113037109375,-0.4535965919494629,-1.0214180946350098,-1.063879370689392
1772567411318142000,7.923141845703125,-0.2938101291656494,-0.8082586526870728,-0.9528902769088745
1772567411328171000,7.9331708984375,-0.10660748928785324,-0.5980976223945618,-0.8348018527030945
1772567411338198800,7.94319873046875,0.05888959392905235,-0.44335728883743286,-0.7165415287017822
1772567411348228000,7.95322802734375,0.18960972130298615,-0.31657323241233826,-0.6094785928726196
1772567411358256000,7.963256103515625,0.2754966914653778,-0.2249879240989685,-0.5317893624305725
1772567411368285000,7.973284912109375,0.30143630504608154,-0.15316727757453918,-0.48460638523101807
1772567411378313000,7.98331298828125,0.2731783092021942,-0.10542265325784683,-0.45836493372917175
1772567411388342000,7.993342041015625,0.18745705485343933,-0.10398384928703308,-0.42884349822998047
1772567411398370000,8.0033701171875,0.11308135092258453,-0.056117791682481766,-0.3625435531139374
1772567411408399000,8.013399169921875,0.07964621484279633,-0.012985916808247566,-0.26067718863487244
1772567411418428000,8.023427978515626,0.05343378335237503,0.02274411916732788,-0.1326715648174286
1772567411428456200,8.033456298828124,0.013609961606562138,0.10567671060562134,0.01036845613270998
1772567411438485000,8.043485107421875,-0.03622763603925705,0.2554989755153656,0.15930253267288208
1772567411448513000,8.053512939453125,-0.0714910477399826,0.4549189805984497,0.3090144395828247
1772567411458542000,8.0635419921875,-0.10250143706798553,0.6390677690505981,0.4328194856643677
1772567411468570000,8.073570068359375,-0.13150069117546082,0.7762289047241211,0.529326856136322
1772567411478599200,8.08359912109375,-0.1546936333179474,0.8391245007514954,0.572073221206665
1772567411488628000,8.0936279296875,-0.18014870584011078,0.8424805998802185,0.5610175728797913
1772567411498656000,8.103656005859374,-0.22223544120788574,0.8137879967689514,0.4861082136631012
1772567411508685000,8.11368505859375,-0.26635509729385376,0.770875871181488,0.34528324007987976
1772567411518713000,8.123713134765625,-0.29728931188583374,0.7116873860359192,0.1741493195295334
1772567411528742100,8.1337421875,-0.3097150921821594,0.5776875615119934,0.015964597463607788
1772567411538770000,8.14377001953125,-0.3069203495979309,0.3841599225997925,-0.08084690570831299
1772567411548799000,8.153799072265626,-0.25537270307540894,0.17547503113746643,-0.07184112817049026
1772567411558828000,8.163828125,-0.15946990251541138,-0.10695639252662659,0.08274711668491364
1772567411568856000,8.17385595703125,-0.0425422266125679,-0.29916971921920776,0.37072283029556274
1772567411578885000,8.183885009765625,0.0819440484046936,-0.26459017395973206,0.7128692269325256
1772567411588913000,8.193912841796875,0.1808144450187683,-0.12570776045322418,1.0102388858795166
1772567411598942000,8.20394189453125,0.24288687109947205,-0.04739884287118912,1.1606955528259277
1772567411608970000,8.213969970703126,0.30546092987060547,-0.11353820562362671,1.1664611101150513
1772567411618999000,8.2239990234375,0.40754812955856323,-0.2921540439128876,1.126212477684021
1772567411629028000,8.234028076171874,0.5359991788864136,-0.5978102684020996,1.138819694519043
1772567411639056000,8.244055908203125,0.6855071783065796,-0.8694362044334412,1.2382804155349731
1772567411649085000,8.2540849609375,0.80061274766922,-1.0092031955718994,1.3597184419631958
1772567411659113000,8.264113037109375,0.8597386479377747,-0.9697194695472717,1.4345972537994385
1772567411669142000,8.27414208984375,0.9056383967399597,-0.8142582178115845,1.373967170715332
1772567411679169800,8.284169677734376,0.9862264394760132,-0.7074840664863586,1.1392284631729126
1772567411689198800,8.29419873046875,1.0674519538879395,-0.7071924805641174,0.7744560241699219
1772567411699228200,8.304228271484375,1.0391072034835815,-0.7745158672332764,0.4000896215438843
1772567411709256000,8.314255859375,0.8502116799354553,-0.8571221828460693,0.09246644377708435
1772567411719285000,8.324284912109375,0.5346270799636841,-0.8650890588760376,-0.12625232338905334
1772567411729313000,8.33431298828125,0.18969927728176117,-0.6931838989257812,-0.2938897907733917
1772567411739342000,8.344342041015626,-0.10237200558185577,-0.37309882044792175,-0.4608473479747772
1772567411749370000,8.3543701171875,-0.30820947885513306,-0.0024114269763231277,-0.6499516367912292
1772567411759399000,8.36439892578125,-0.4576687514781952,0.36502784490585327,-0.8824011087417603
1772567411769428000,8.374427978515625,-0.5550139546394348,0.6874696016311646,-1.1245102882385254
1772567411779456000,8.3844560546875,-0.5955467224121094,0.9085202217102051,-1.3285290002822876
1772567411789485000,8.394485107421875,-0.5889847278594971,0.9940812587738037,-1.4584463834762573
1772567411799513000,8.40451318359375,-0.5593101978302002,0.8863987922668457,-1.4939557313919067
1772567411809542000,8.4145419921875,-0.5112019181251526,0.6239848732948303,-1.4382333755493164
1772567411819570200,8.424570068359374,-0.4496823251247406,0.278097003698349,-1.2919461727142334
1772567411829599000,8.434598876953125,-0.3869214951992035,-0.1429181843996048,-1.0717511177062988
1772567411839627000,8.444626953125,-0.34504061937332153,-0.6334876418113708,-0.8057918548583984
1772567411849656000,8.454656005859375,-0.30594468116760254,-1.0072470903396606,-0.5262694954872131
1772567411859684900,8.464684814453125,-0.2714631259441376,-1.1697078943252563,-0.29743796586990356
1772567411869713200,8.474713134765626,-0.25225284695625305,-1.1201550960540771,-0.14491014182567596
1772567411879742000,8.484741943359374,-0.25364062190055847,-0.8549517393112183,-0.08891479671001434
1772567411889770000,8.49477001953125,-0.23958954215049744,-0.41605955362319946,-0.09516672044992447
1772567411899799000,8.504799072265625,-0.2137044072151184,0.07297060638666153,-0.14532308280467987
1772567411909827000,8.5148271484375,-0.1956692487001419,0.5045469403266907,-0.19371546804904938
1772567411919856000,8.524856201171875,-0.19313658773899078,0.8437860012054443,-0.20718175172805786
1772567411929885000,8.534885009765626,-0.19327104091644287,1.061036467552185,-0.17622752487659454
1772567411939913000,8.544912841796876,-0.203384667634964,1.114387035369873,-0.09654121845960617
1772567411949942000,8.55494189453125,-0.2348932921886444,1.047932744026184,0.02301066927611828
1772567411959970000,8.564969970703125,-0.2883285582065582,0.929351270198822,0.15611384809017181
1772567411969999000,8.5749990234375,-0.3371298015117645,0.8074840903282166,0.2701125144958496
1772567411980027000,8.58502685546875,-0.34127557277679443,0.7362594604492188,0.3486515283584595
1772567411990056000,8.595055908203125,-0.3197373151779175,0.7455558180809021,0.39488717913627625
1772567412000085000,8.6050849609375,-0.2802002727985382,0.809522807598114,0.4100022315979004
1772567412010113000,8.615113037109374,-0.22170774638652802,0.8891658782958984,0.40279364585876465
1772567412020142000,8.62514208984375,-0.16671107709407806,0.9744887948036194,0.38225027918815613
1772567412030169900,8.635169921875,-0.13494658470153809,0.9903329014778137,0.3595784902572632
1772567412040199200,8.64519921875,-0.12661941349506378,0.9030637741088867,0.33193889260292053
1772567412050227000,8.65522705078125,-0.12883147597312927,0.748709499835968,0.31105658411979675
1772567412060256000,8.665256103515626,-0.12929673492908478,0.5195934772491455,0.3105582892894745
1772567412070285000,8.67528515625,-0.14664027094841003,0.2371019870042801,0.33221957087516785
1772567412080313000,8.68531298828125,-0.19649676978588104,0.000874013639986515,0.4276968240737915
1772567412090342100,8.695342041015625,-0.26419568061828613,0.027497945353388786,0.6353095173835754
1772567412100370000,8.705369873046875,-0.2827552556991577,0.38057130575180054,0.9387761950492859
1772567412110399000,8.71539892578125,-0.18927983939647675,0.888286828994751,1.3099530935287476
1772567412120427000,8.725427001953125,0.03418494388461113,1.2294975519180298,1.6573724746704102
1772567412130456000,8.7354560546875,0.3065071105957031,1.124801516532898,1.8587653636932373
1772567412140485000,8.745485107421874,0.5897566676139832,0.5716346502304077,1.8413217067718506
1772567412150513000,8.755512939453125,0.7928629517555237,-0.13883064687252045,1.6586079597473145
1772567412160542000,8.7655419921875,0.887647807598114,-0.6852833032608032,1.385609745979309
1772567412170570000,8.775570068359375,0.8877778649330139,-1.057297945022583,1.0532573461532593
1772567412180599000,8.78559912109375,0.8337801694869995,-1.2655915021896362,0.7001544833183289
1772567412190627000,8.795626953125,0.7262045741081238,-1.3199995756149292,0.3559815287590027
1772567412200656000,8.80565576171875,0.580348551273346,-1.2139226198196411,0.03584478422999382
1772567412210684200,8.81568408203125,0.42429929971694946,-0.9335978627204895,-0.21905355155467987
1772567412220713200,8.825713134765625,0.2940931022167206,-0.5397322773933411,-0.3964501619338989
1772567412230742000,8.835741943359375,0.2051456868648529,-0.17681561410427094,-0.5057872533798218
1772567412240770000,8.84577001953125,0.12648282945156097,0.0005873953923583031,-0.6058427691459656
1772567412250798800,8.855798828125,0.045667339116334915,-0.004762559197843075,-0.7165278792381287
1772567412260827100,8.8658271484375,-0.03925074636936188,-0.12308147549629211,-0.833726704120636
1772567412270856200,8.875856201171874,-0.08513329923152924,-0.2838197350502014,-0.9390945434570312
1772567412280884000,8.885884033203125,-0.07227130234241486,-0.39762139320373535,-1.0204086303710938
1772567412290913000,8.8959130859375,-0.03363660350441933,-0.4627823531627655,-1.06304931640625
1772567412300941800,8.90594189453125,0.0034729493781924248,-0.4698871076107025,-1.0750617980957031
1772567412310970000,8.91597021484375,0.01648886501789093,-0.4584789276123047,-1.0478713512420654
1772567412320999200,8.925999267578124,0.012118084356188774,-0.45065802335739136,-1.0015645027160645
1772567412331027000,8.93602685546875,0.011015436612069607,-0.4565088152885437,-0.9453117847442627
1772567412341056000,8.946055908203125,0.013996846042573452,-0.4517372250556946,-0.8798739314079285
1772567412351084000,8.956083984375,-0.007851239293813705,-0.4141079783439636,-0.8006895780563354
1772567412361113000,8.966113037109375,-0.08587386459112167,-0.33357664942741394,-0.7160812020301819
1772567412371142100,8.97614208984375,-0.20830866694450378,-0.19202977418899536,-0.6531824469566345
1772567412381170000,8.986169921875,-0.33990609645843506,-0.01225787028670311,-0.6144942045211792
1772567412391199200,8.99619921875,-0.44600141048431396,0.18213583528995514,-0.5846271514892578
1772567412401227000,9.00622705078125,-0.5023914575576782,0.37683477997779846,-0.5509698390960693
1772567412411256000,9.016256103515625,-0.5019477009773254,0.5486628413200378,-0.4888721704483032
1772567412421283800,9.026283935546875,-0.4663279354572296,0.6892558932304382,-0.39337360858917236
1772567412431313200,9.036313232421875,-0.4243628680706024,0.8183413743972778,-0.27962690591812134
1772567412441341000,9.0463408203125,-0.38561466336250305,0.9381599426269531,-0.1619357019662857
1772567412451370000,9.056369873046876,-0.33116209506988525,1.0270475149154663,-0.07114945352077484
1772567412461399000,9.06639892578125,-0.2533964514732361,1.0467565059661865,0.008068138733506203
1772567412471427000,9.076427001953125,-0.1905597597360611,1.0031338930130005,0.07186884433031082
1772567412481456000,9.0864560546875,-0.16544242203235626,0.8770566582679749,0.09951245784759521
1772567412491484000,9.09648388671875,-0.17724204063415527,0.6816154718399048,0.07944203168153763
1772567412501513000,9.106512939453125,-0.21475613117218018,0.45468512177467346,0.026938073337078094
1772567412511541200,9.116541259765626,-0.2573356330394745,0.24651364982128143,-0.07965974509716034
1772567412521570000,9.126570068359374,-0.27311673760414124,0.023663794621825218,-0.17191803455352783
1772567412531599000,9.13659912109375,-0.23124916851520538,-0.18554159998893738,-0.17798496782779694
1772567412541627000,9.146626953125,-0.2007269412279129,-0.298503577709198,-0.0722886323928833
1772567412551656000,9.156656005859375,-0.20026622712612152,-0.26066508889198303,0.13322627544403076
1772567412561684200,9.166684326171875,-0.2242189645767212,-0.09664125740528107,0.3935300409793854
1772567412571713000,9.176713134765626,-0.265555739402771,0.2653562128543854,0.6754044890403748
1772567412581741000,9.186740966796876,-0.3050895631313324,0.7378254532814026,0.9384462237358093
1772567412591769900,9.196769775390624,-0.28461527824401855,1.0945403575897217,1.1068931818008423
1772567412601799000,9.206798828125,-0.19276151061058044,1.217410683631897,1.1593763828277588
1772567412611827200,9.2168271484375,-0.07310032844543457,1.0597808361053467,1.092520833015442
1772567412621856000,9.22685595703125,0.06419920176267624,0.6706498861312866,0.9497029781341553
1772567412631884000,9.236884033203125,0.24905453622341156,0.2648698091506958,0.7659435868263245
1772567412641912800,9.246912841796876,0.4754905700683594,-0.08646450936794281,0.6066482067108154
1772567412651941000,9.256941162109374,0.6874247789382935,-0.38773682713508606,0.4849092662334442
1772567412661970200,9.26697021484375,0.7936449646949768,-0.6373922228813171,0.39706674218177795
1772567412671998000,9.276998046875,0.8045303821563721,-0.8661043643951416,0.32592299580574036
1772567412682027000,9.287027099609375,0.773287296295166,-1.09206223487854,0.2725987732410431
1772567412692056000,9.29705615234375,0.7080749273300171,-1.2908833026885986,0.2020493745803833
1772567412702084000,9.307083984375,0.5691229104995728,-1.4468483924865723,0.0872652530670166
1772567412712113200,9.317113037109374,0.3434544801712036,-1.510486125946045,-0.0900687426328659
1772567412722141000,9.327140869140624,0.059472568333148956,-1.3625837564468384,-0.3263965845108032
1772567412732170000,9.337169921875,-0.20689167082309723,-1.0270236730575562,-0.5990186929702759
1772567412742198000,9.347197998046875,-0.39633405208587646,-0.5942256450653076,-0.8704659342765808
1772567412752227000,9.35722705078125,-0.47300124168395996,-0.1481209248304367,-1.081007957458496
1772567412762256100,9.367256103515626,-0.46943020820617676,0.1744035929441452,-1.2142161130905151
1772567412772284000,9.377283935546876,-0.4183681011199951,0.309339314699173,-1.2344346046447754
1772567412782313200,9.387313232421874,-0.3120560348033905,0.27379435300827026,-1.1299856901168823
1772567412792341000,9.397341064453125,-0.13132300972938538,0.06427579373121262,-0.9061556458473206
1772567412802370000,9.4073701171875,0.09422355890274048,-0.26904571056365967,-0.5929023623466492
1772567412812398000,9.417398193359375,0.280447393655777,-0.6211705207824707,-0.2712455689907074
1772567412822427100,9.42742724609375,0.3352437913417816,-0.8751042485237122,-0.03181886672973633
1772567412832456200,9.437456298828126,0.2724931240081787,-0.948144793510437,0.07819917798042297
1772567412842484000,9.44748388671875,0.1379488855600357,-0.8518022298812866,0.05810030177235603
1772567412852513000,9.457512939453125,-0.018485406413674355,-0.6184607148170471,-0.04250088334083557
1772567412862541000,9.467541015625,-0.1614135205745697,-0.26580095291137695,-0.1557352989912033
1772567412872570000,9.477570068359375,-0.2709968686103821,0.1561998575925827,-0.22748705744743347
1772567412882598000,9.487597900390625,-0.3281826674938202,0.5772906541824341,-0.24331581592559814
1772567412892627000,9.497626953125,-0.3362140357494354,0.9241037368774414,-0.19957883656024933
1772567412902656000,9.507656005859374,-0.3029130697250366,1.1492587327957153,-0.1174999549984932
1772567412912684000,9.51768408203125,-0.2499466836452484,1.2480733394622803,-0.001669714692980051
1772567412922713000,9.527713134765625,-0.18974512815475464,1.2534838914871216,0.1266443133354187
1772567412932740900,9.537740966796875,-0.12401820719242096,1.163482427597046,0.2502489686012268
1772567412942770000,9.54777001953125,-0.07971438765525818,0.9808558821678162,0.3463760316371918
1772567412952798200,9.557798095703125,-0.0760960578918457,0.7836740016937256,0.41278180480003357
1772567412962827000,9.567826904296876,-0.11196590960025787,0.588344156742096,0.4412773549556732
1772567412972855000,9.57785498046875,-0.15919417142868042,0.4422989785671234,0.43646588921546936
1772567412982883800,9.5878837890625,-0.16465844213962555,0.36163583397865295,0.4095189869403839
1772567412992913000,9.597912841796875,-0.14616861939430237,0.3522869050502777,0.3952914774417877
1772567413002941200,9.607941162109375,-0.09818750619888306,0.41857993602752686,0.4183933436870575
1772567413012970000,9.617969970703125,-0.013476734049618244,0.5271446704864502,0.47682467103004456
1772567413022998000,9.627998046875,0.10511115938425064,0.6067734360694885,0.5895431637763977
1772567413033026800,9.63802685546875,0.23628085851669312,0.5306479334831238,0.7021316289901733
1772567413043055000,9.64805517578125,0.3782377541065216,0.2647632360458374,0.7600015997886658
1772567413053084200,9.658084228515625,0.4458472728729248,-0.2361660897731781,0.7038486003875732
1772567413063112000,9.66811181640625,0.3782708942890167,-0.8223728537559509,0.5400596857070923
1772567413073141000,9.67814111328125,0.19216200709342957,-1.2180185317993164,0.3890792429447174
1772567413083170000,9.688170166015626,0.06017442047595978,-1.404316782951355,0.3220040500164032
1772567413093198000,9.698197998046876,0.10225992649793625,-1.6899571418762207,0.27973639965057373
1772567413103227100,9.70822705078125,0.2082473486661911,-2.243533134460449,0.22440338134765625
1772567413113255000,9.7182548828125,0.24949398636817932,-2.7705373764038086,0.17689266800880432
1772567413123284200,9.7282841796875,0.1635599136352539,-2.9618377685546875,0.1838107407093048
1772567413133312000,9.73831201171875,-0.012988250702619553,-2.717180013656616,0.2543083131313324
1772567413143341000,9.748341064453125,-0.14525601267814636,-2.1265411376953125,0.3377251923084259
1772567413153370000,9.7583701171875,-0.16041474044322968,-1.3945144414901733,0.38191497325897217
1772567413163398100,9.768398193359374,-0.06647466868162155,-0.7317913174629211,0.32914552092552185
1772567413173427200,9.77842724609375,0.07048013061285019,-0.23334407806396484,0.17792582511901855
1772567413183454000,9.788453857421874,0.2198251336812973,0.08721290528774261,-0.020488452166318893
1772567413193483000,9.79848291015625,0.3741893172264099,0.18038049340248108,-0.2479913830757141
1772567413203511000,9.808510986328125,0.45076853036880493,0.08241984248161316,-0.5214328169822693
1772567413213540000,9.8185400390625,0.39604151248931885,-0.09704156219959259,-0.8664718270301819
1772567413223568000,9.82856787109375,0.2433137446641922,-0.29061609506607056,-1.2879271507263184
1772567413233597000,9.838596923828124,0.08171357214450836,-0.4540051817893982,-1.7180577516555786
1772567413243626000,9.8486259765625,-0.05221572890877724,-0.5499647259712219,-2.0875563621520996
1772567413253654000,9.858654052734375,-0.17442913353443146,-0.6340180039405823,-2.324181079864502
1772567413263683000,9.86868310546875,-0.2598617374897003,-0.6925404071807861,-2.395172119140625
1772567413273710800,9.8787109375,-0.2785675525665283,-0.7400332689285278,-2.296191692352295
1772567413283740200,9.888740234375,-0.2318439930677414,-0.7245408892631531,-2.0511507987976074
1772567413293768000,9.898767822265626,-0.1502152681350708,-0.5432426333427429,-1.7019797563552856
1772567413303797000,9.908796875,-0.059588976204395294,-0.24019703269004822,-1.2994838953018188
1772567413313826000,9.918825927734375,0.006249492987990379,0.11267826706171036,-0.868718147277832
1772567413323854000,9.92885400390625,0.05019111931324005,0.5370556116104126,-0.4548642337322235
1772567413333883100,9.938883056640625,0.06509849429130554,1.0106480121612549,-0.1322052776813507
1772567413343911000,9.948910888671875,0.09893422573804855,1.4555591344833374,0.08498775959014893
1772567413353940000,9.95893994140625,0.13798944652080536,1.9377344846725464,0.29740065336227417
1772567413363968000,9.968968017578124,0.0147804394364357,2.148242235183716,0.5447052717208862
1772567413373997000,9.9789970703125,-0.18880213797092438,1.6610592603683472,0.5275546312332153
1772567413384025000,9.989025146484375,-0.3224845826625824,1.0689953565597534,0.29208138585090637
1772567413394054000,9.999053955078125,-0.3417280614376068,0.7742810249328613,0.04470646008849144
1772567413404083000,10.0090830078125,-0.33165305852890015,0.7048654556274414,-0.04803519323468208
1772567413414111000,10.019111083984376,-0.30567172169685364,0.7145889401435852,0.10320423543453217
1772567413424140000,10.02914013671875,-0.2273058146238327,0.6278945207595825,0.46258050203323364
