time,seconds_elapsed,z,y,x
1772565879217132500,0.077132568359375,0.13926701639294622,0.003799401416117325,0.06680756405554711
1772565879227160600,0.08716064453125,0.09518003738522529,-0.007550657408148981,0.052342327786237
1772565879237189600,0.097189697265625,0.11447335139811038,0.009133337189443409,-0.07557492660996504
1772565879247217700,0.1072177734375,0.08896481613218783,0.0014674239377491175,-0.06601586568858474
1772565879257245400,0.117245361328125,0.11947568973004817,-0.01568204644685611,0.02317601893143728
1772565879267274500,0.1272744140625,0.11842530389428138,-0.0022088808216620234,0.07603537459541111
1772565879277302500,0.137302490234375,0.10590133788585662,-0.015261884806025772,-0.006318772959057241
1772565879287331600,0.14733154296875,0.12036942369937896,0.00488124640265014,-0.05915507654100656
1772565879297359400,0.157359375,0.10657704519033431,0.0025126221417449413,-0.013762787088379263
1772565879307388700,0.167388671875,0.12453472668528556,-0.00769058190206997,0.07074389885747805
1772565879317416700,0.177416748046875,0.09735913498997688,0.010410805212776176,0.02308034000461921
1772565879327445500,0.187445556640625,0.11410510260760784,-0.008291675900644621,-0.052263554328447204
1772565879337473500,0.1974736328125,0.10024784216880797,-0.010376491951220668,-0.05376971197454258
1772565879347502600,0.207502685546875,0.11806114675700664,0.011556650779652409,0.03321585824023932
1772565879357530600,0.217530517578125,0.11108137087225914,-0.015793525731004773,0.055088082830421624
1772565879367559700,0.2275595703125,0.1020551838517189,0.003317864976869896,-0.015520398744894191
1772565879377587500,0.23758740234375,0.10699556286334991,0.00878938258998096,-0.06378058091718704
1772565879387616500,0.247616455078125,0.10121873302757739,-0.0019407770705409347,0.0038426834354177114
1772565879397644500,0.25764453125,0.1245370647728443,0.007316026668366975,0.062181402092240746
1772565879407673600,0.267673583984375,0.09257716141045093,-0.002276721893483773,0.02091061301641166
1772565879417701400,0.277701416015625,0.11013444541096687,-0.00935404443514999,-0.06378294640420935
1772565879427730700,0.287730712890625,0.10037176080942153,0.011988315628608689,-0.0387683412682265
1772565879437758700,0.2977587890625,0.1218751520872116,-0.006892042802367359,0.046182837042119354
1772565879447787500,0.30778759765625,0.11994564532935618,0.008756932491948827,0.051430108312144875
1772565879457815600,0.317815673828125,0.10368716896772384,0.004746911399299279,-0.028417207520548254
1772565879467844600,0.3278447265625,0.10008826769292355,-0.007504060053755529,-0.05606206069542095
1772565879477872600,0.33787255859375,0.10601648869812488,0.010227379503846168,0.01434853282077238
1772565879487901700,0.347901611328125,0.11602467249333857,-0.006063368859305046,0.05379281885549426
1772565879497929500,0.357929443359375,0.09438625665903091,-0.0005829418539535254,0.0028894560975022614
1772565879507958500,0.36795849609375,0.1119236669152975,0.011343784347106702,-0.05307453278461471
1772565879517986600,0.377986572265625,0.10215279900729655,0.001332075154245831,-0.025666611904464662
1772565879528015600,0.388015625,0.1086912608653307,0.00907583484854549,0.03689617245448753
1772565879538043400,0.39804345703125,0.10841595105528831,0.0040382927724858745,0.03982375033898279
1772565879548072700,0.40807275390625,0.09963292514085768,-0.003805013739573769,-0.030344613652862607
1772565879558100500,0.4181005859375,0.1066471878170967,0.009377758670877664,-0.04476906125405803
1772565879568129500,0.428129638671875,0.1119938095420599,-0.00487037794876378,0.008377038929425179
1772565879578156500,0.438156494140625,0.11573358059227466,-0.0013817823477555065,0.04717677998291328
1772565879588185600,0.448185546875,0.10724340014457702,0.004220343941659667,-0.002567585465684533
1772565879598213600,0.458213623046875,0.11160334891974925,-0.007514914807910099,-0.050044371308479454
1772565879608242400,0.468242431640625,0.11396657091975211,-0.002188523020222783,-0.015454210774041712
1772565879618270700,0.478270751953125,0.10750935760438442,-0.006404606345295906,0.04147111568721011
1772565879628299500,0.488299560546875,0.10498773017227649,-0.006708210668060928,0.03243407847909257
1772565879638327600,0.49832763671875,0.10500818843841551,0.008818951177760027,-0.035102704033302144
1772565879648356600,0.508356689453125,0.09497720828950404,-0.007377100072684697,-0.04266812518574297
1772565879658384600,0.518384521484375,0.10692542023658752,-0.003140996872889809,0.013990714092738925
1772565879668413700,0.52841357421875,0.11500760440528392,-0.0025161018736194816,0.03959759516660124
1772565879678441500,0.53844140625,0.1090437275648117,-0.009120363543438724,-0.004712671202979982
1772565879688470500,0.548470458984375,0.10755027413666247,-0.0012690609545912594,-0.04511955519216135
1772565879698498600,0.55849853515625,0.10738543896377085,-0.005755723115662113,-0.011282715509366244
1772565879708527600,0.568527587890625,0.10288578945696353,-0.010525631798058748,0.0333176746468991
1772565879718555600,0.5785556640625,0.11307225242853164,0.005400132877333089,0.015112521196901797
1772565879728584400,0.58858447265625,0.10231704965829849,-0.005942902551102452,-0.033593377182586114
1772565879738612700,0.59861279296875,0.09782032276093959,0.0007770487871021032,-0.02555224654348567
1772565879748640500,0.608640625,0.10483633900284767,-0.004179057516623288,0.018522694966569542
1772565879758669600,0.618669677734375,0.12189736391901969,-0.005427619105880148,0.028656130842957643
1772565879768697600,0.628697509765625,0.10545710124969482,0.00199029703438282,-0.004009463970223441
1772565879778726700,0.6387265625,0.10351648857593536,-0.003423448809771798,-0.032046987990802155
1772565879788754400,0.64875439453125,0.10275719464123248,0.00080634338024538,0.004515121070574969
1772565879798783500,0.658783447265625,0.1052928505986929,-0.002937743085483089,0.03143960581533611
1772565879808811800,0.668811767578125,0.12027297758758067,-0.0007560333985369652,0.012822017373237758
1772565879818840600,0.678840576171875,0.1140016422331333,0.004431822134717368,-0.030868226535012942
1772565879828868600,0.68886865234375,0.10575929906666279,0.0012538222862640395,-0.023695585826132445
1772565879838897400,0.6988974609375,0.11008709913790225,-0.006598357085417956,0.01843039530692622
1772565879848925700,0.70892578125,0.10514905821382999,0.0006563724163454026,0.03257940523391589
1772565879858954800,0.718954833984375,0.10336334384083748,-0.0010611629581078886,-0.01648905198080465
1772565879868982500,0.728982421875,0.09842471839487552,-0.003381166870892048,-0.03324553185929544
1772565879879011600,0.739011474609375,0.10096037435233593,-0.002231800472945906,0.008972794599179178
1772565879889039600,0.74903955078125,0.11831366021335124,-0.006388801421388052,0.03590224778000265
1772565879899068700,0.759068603515625,0.1093441718161106,-0.005812376073189079,0.009806962134689092
1772565879909096400,0.769096435546875,0.10216565848886966,0.0010115607958752662,-0.020430318686179817
1772565879919125500,0.77912548828125,0.11068974120616912,-0.0008763170436490327,-0.019723558656312524
1772565879929153800,0.78915380859375,0.10873568452894687,-0.001785755472187884,0.02297360996082425
1772565879939182600,0.7991826171875,0.10679507185518741,-0.00010921882840339094,0.026531704301200807
1772565879949210600,0.809210693359375,0.1069523082435131,-0.0011346437528496607,-0.01150006632078439
1772565879959239400,0.819239501953125,0.10665069494843482,0.0016147828194545582,-0.017495160283427683
1772565879969267700,0.829267822265625,0.11247779366672038,-0.0005823481989093124,0.0025008038397878406
1772565879979296800,0.839296875,0.11831307569146156,0.00495176348874811,0.015592139673698692
1772565879989324500,0.849324462890625,0.10784487316906452,0.00648967711313162,-0.003883618234004825
1772565879999353600,0.859353515625,0.10889701257050037,0.003137033083825372,-0.024266864641755818
1772565880009381600,0.869381591796875,0.10215279900729655,0.0006161089046159759,-0.009628208034299313
1772565880019410700,0.87941064453125,0.09914835649430752,0.004416291205445304,0.014370068799145519
1772565880029438500,0.8894384765625,0.1144160682529211,0.004431045816582628,0.00857444293135777
1772565880039467500,0.899467529296875,0.11217734941542148,0.0003868667260045185,-0.01478188273673877
1772565880049495600,0.90949560546875,0.10633914478123187,-0.005044702469208277,-0.019099983397871254
1772565880059524600,0.919524658203125,0.11036708512306213,0.005603802223270758,0.00875845772875473
1772565880069552600,0.929552734375,0.11066636033058166,-0.0029942316462285815,0.021658088649157435
1772565880079581400,0.93958154296875,0.10873743809461593,-0.005133682227181271,0.007647354681696742
1772565880089609700,0.949609619140625,0.10425006354749203,0.000584147430351004,-0.021667714994028208
1772565880099638500,0.959638427734375,0.10722469544410705,-0.0018938326562754808,-0.0027819771350361404
1772565880109666600,0.96966650390625,0.10572130514383316,-0.0015783278331626205,0.014798596409521997
1772565880119695600,0.979695556640625,0.10363806912899017,-0.000838304854510352,0.005058160172402858
1772565880129723600,0.9897236328125,0.10544716437757015,-0.004638162928353995,-0.013248334760218857
1772565880139752700,0.999752685546875,0.11441489920914172,-0.002537619585683569,-0.01589300405010581
1772565880149780500,1.009780517578125,0.1054185228049755,0.0019633724948391316,0.004617832526378333
1772565880159809500,1.0198095703125,0.10930617789328098,0.00541863664840348,0.008628091081045567
1772565880169837600,1.029837646484375,0.11066928294003009,-0.0059197682706872,-0.010241426295507698
1772565880179866600,1.03986669921875,0.11141864000260829,-0.004949114873935468,-0.01987279440127313
1772565880189894700,1.049894775390625,0.10826572892963886,0.0030778867751127107,-0.00495603323848918
1772565880199922700,1.059922607421875,0.1117015485972166,0.0031928183916723352,0.014190017790812998
1772565880209951700,1.06995166015625,0.11799568030536174,-0.002147839383385144,0.0069258172078058115
1772565880219979500,1.0799794921875,0.1138145952284336,0.005276844424381852,-0.011687241189647465
1772565880230008600,1.090008544921875,0.10303834967017172,0.003760777305625379,-0.013500665553472936
1772565880240036600,1.10003662109375,0.0971972224265337,-0.005512977568083443,0.003003036007191986
1772565880250065700,1.110065673828125,0.10722761805355548,-0.002751860557985492,0.0026091230524703858
1772565880260093700,1.12009375,0.10977964062392712,-0.005477043171599507,-0.007824190819635988
1772565880270122500,1.13012255859375,0.10992752466201781,-0.002320003912784159,-0.015065649847872554
1772565880280150500,1.140150634765625,0.10842238079607486,-0.0053434022879926485,-0.0017478848469443618
1772565880290179600,1.1501796875,0.103183311098814,-0.0010913389006629586,0.012210570944007485
1772565880300207600,1.16020751953125,0.10782558394670486,-0.007094657268957235,-0.00248520441185683
1772565880310236700,1.170236572265625,0.10543605846166611,0.006539886630140245,-0.012021076253894716
1772565880320264700,1.1802646484375,0.10348901604712009,0.005920978413661942,-0.008431362932547926
1772565880330293800,1.190293701171875,0.10318857179582118,0.001502531783748418,0.002680635652411729
1772565880340321500,1.200321533203125,0.10663082120418547,0.0038609269115841014,0.013659856436867266
1772565880350350600,1.2103505859375,0.10020166493952273,0.0076802203382598236,-0.011168879871349782
1772565880360378600,1.220378662109375,0.10454057092666626,-0.003649590282421559,-0.011964359364286064
1772565880370407700,1.23040771484375,0.10633154599666594,-0.00284137917207554,-0.0028819851770997044
1772565880380435500,1.240435546875,0.11576105312108993,0.012329452649899758,0.007535692734457552
1772565880390464500,1.250464599609375,0.10888181500136851,0.004739467878360301,0.0021442089544609186
1772565880400492500,1.260492431640625,0.1177104336231947,-0.006670504439598881,-0.010661788865737617
1772565880410521600,1.270521484375,0.1114227316558361,-0.0028995299669448285,-0.006195913764368743
1772565880420549600,1.280549560546875,0.11291326247453688,-0.009714899937063455,0.005791260219924151
1772565880430578400,1.290578369140625,0.11067103650569915,0.005907214749790728,0.007927925188746302
1772565880440606700,1.300606689453125,0.10917992116510868,-0.0013398748682113364,-0.0016613208083435893
1772565880450635800,1.3106357421875,0.11052724412083625,0.001220605003251694,-0.010361198483966291
1772565880460663600,1.32066357421875,0.1075315694361925,-0.0003350132411811501,0.005917590013332664
1772565880470692600,1.330692626953125,0.10124679007828236,-0.00395389785808511,0.008317783022858202
1772565880480720600,1.340720703125,0.11471709702610969,-0.0031351014216430485,-0.0054167460854165255
1772565880490749700,1.350749755859375,0.11187398255467414,0.0021408296872861684,-0.014338833410665393
1772565880500777500,1.360777587890625,0.11710954512059688,-0.0029169149265857413,-0.002403060820046812
1772565880510806500,1.370806640625,0.11186872185766697,0.002845425159530714,0.007895283294469117
1772565880520834600,1.38083447265625,0.10842822601497172,-0.00036273236516863106,0.0005101597455330193
1772565880530863600,1.390863525390625,0.10603636244237423,0.0023580800340045243,-0.018231402136106044
1772565880540891600,1.4008916015625,0.10274316611588001,0.003283789177332073,-0.018435911732260137
1772565880550920400,1.41092041015625,0.11291560056209564,-0.005096309358859435,0.0027587789225392042
1772565880560948700,1.42094873046875,0.1144160682529211,0.0036253189242677762,0.0033098917329683897
1772565880570977800,1.430977783203125,0.11157646091282367,-0.0012768743682885543,-0.0035283019903115925
1772565880581006000,1.441006103515625,0.10424304928481579,-0.0008992503946647048,-0.007586619204096496
1772565880591035100,1.45103515625,0.10409282715916633,-0.003403232572227716,0.0033998715713620185
1772565880601063000,1.46106298828125,0.11022796891331672,-0.005021074998448603,0.0076852938055992125
1772565880611092000,1.471092041015625,0.10334639270603656,0.004178285765065811,0.005439761634822934
1772565880621120000,1.4811201171875,0.10350012196302413,0.005967826929804868,-0.0068893576549366115
1772565880631148000,1.49114794921875,0.1084340712338686,0.003725185402436182,-0.0032367534315213557
1772565880641177000,1.501177001953125,0.10663608190119266,-0.0002909275042824447,0.006074168814532458
1772565880651205000,1.511205078125,0.10484101517796515,0.004668115108623169,0.00035822058683261275
1772565880661234200,1.521234130859375,0.10080430700778961,-0.0042261434947839,-0.004064308563154191
1772565880671262000,1.531261962890625,0.10693886424005031,0.0009870656754355877,-0.008449318714346735
1772565880681291000,1.541291015625,0.11008066939711571,-0.0006291008169297128,0.007505443726666271
1772565880691319000,1.551319091796875,0.1073836853981018,-0.0007485305120935663,0.007498447730299085
1772565880701348000,1.56134814453125,0.10513912134170532,-0.005933920093625784,0.0031906492674723267
1772565880711376100,1.571376220703125,0.10020224946141243,-0.005797050639893859,-0.008249814086873085
1772565880721405000,1.581405029296875,0.11277005461156367,0.0027363752944860606,-0.006817479728814214
1772565880731433200,1.59143310546875,0.11127075596451759,0.0010402160682016983,0.001910272334422916
1772565880741462000,1.6014619140625,0.10349369222223759,0.0027007103260606527,-0.0014857998446561396
1772565880751490000,1.611489990234375,0.11262392413914203,0.006042705097189173,-0.010177877806313336
1772565880761519000,1.62151904296875,0.1072358013600111,-0.0053284467474557454,-0.0035434630268253386
1772565880771547100,1.631547119140625,0.1004991865813732,-0.002795366339571774,0.006908482480514794
1772565880781576200,1.641576171875,0.11157178473770618,0.004570262491027825,0.0006538425325416028
1772565880791604000,1.65160400390625,0.10154664980769157,0.001125127005833201,-0.0030359518961049613
1772565880801633000,1.661633056640625,0.1105254905551672,-0.0045101891671307385,-0.0034155075319111344
1772565880811661000,1.6716611328125,0.10798165129125117,-0.00048399325781501825,-0.005721738647669553
1772565880821690000,1.681690185546875,0.11202362015843391,-0.0021484969705110415,0.003071078008413315
1772565880831718000,1.6917177734375,0.11426935325860976,0.0013964821599656715,0.008403652941714971
1772565880841747000,1.701746826171875,0.10917992116510868,-0.0025705720072146505,-0.001479370103869587
1772565880851775200,1.711775146484375,0.11231880371272564,0.0009556887230603024,-0.00315455504078418
1772565880861804000,1.721803955078125,0.10887655430436134,0.0027694236141396684,0.009054152739699929
1772565880871832000,1.73183203125,0.11261690987646579,-0.007488150098570622,0.014609613176062703
1772565880881860900,1.74186083984375,0.1130652381658554,-0.002281051008729264,-0.003606938450783491
1772565880891889200,1.75188916015625,0.10034837993383407,0.006142434578039683,-0.010511822468414903
1772565880901918200,1.761918212890625,0.10992226396501063,0.0027230911212274803,-0.005002794989664107
1772565880911946000,1.771946044921875,0.1147077446758747,-0.0058007404343225055,0.0019681400015018878
1772565880921975000,1.78197509765625,0.11246201157569885,-0.00571638661911711,0.000996317560970783
1772565880932003000,1.792003173828125,0.11545593269467354,-0.003453332491382025,0.0013320705876685678
1772565880942032100,1.8020322265625,0.10872048695981502,0.003248124208906665,-0.011468502138741314
1772565880952060000,1.812059814453125,0.1064730002939701,-0.0015839629895053804,-0.006309018750023096
1772565880962089000,1.8220888671875,0.10497779330015182,0.004753240675386041,0.006292871332820505
1772565880972117200,1.8321171875,0.10318155753314494,0.0038072559290099886,-0.006221523129660636
1772565880982146000,1.84214599609375,0.10423135884702205,0.0008742209846852347,-0.015815701030194758
1772565880992174000,1.852174072265625,0.11111410409808158,-0.0009808368640486151,-0.010211232086643577
1772565881002203000,1.862202880859375,0.10647533838152885,-0.0012245048602344468,-0.0021049363899976014
1772565881012231200,1.872231201171875,0.11111410409808158,0.005207012324873358,-0.0020145364264957605
1772565881022260200,1.88226025390625,0.10587737248837947,0.0012765547078801317,-0.011653229322191327
1772565881032288000,1.8922880859375,0.10243570760190486,0.000867498982953839,-0.005541176182683557
1772565881042316000,1.90231591796875,0.10527823755145073,-0.0003161852431250736,0.001599434553273022
1772565881052345000,1.912344970703125,0.11575345433652401,-0.0010917590257711709,0.010265683953929692
1772565881062373000,1.922373046875,0.11455869159400463,-0.0007706738452427089,-0.012217366010975093
1772565881072402000,1.93240185546875,0.10363573104143142,-0.002148848596960306,0.006029599020443857
1772565881082430200,1.94243017578125,0.1012403603374958,0.0030868920654756947,0.006856569630187004
1772565881092459000,1.952458984375,0.10976853470802307,-0.0016619783954694865,0.010826149114593862
1772565881102487000,1.962487060546875,0.09809913970232009,0.002413513715402223,-0.000726834703516215
1772565881112516000,1.97251611328125,0.10513269160091876,-0.0018791648101061582,-0.009394344479497522
1772565881122544000,1.982544189453125,0.10617898578345775,-0.0019515404931502417,-0.00044071123851463197
1772565881132573200,1.9925732421875,0.10797171441912651,-0.001208832367067225,0.0020789068995974956
1772565881142601000,2.00260107421875,0.108573187443614,0.0008159468922298402,-0.0004160334549844265
1772565881152630000,2.012630126953125,0.10318564918637275,-0.0012805778624489902,-0.011073895064275712
1772565881162658000,2.022657958984375,0.11201192972064018,0.002284599239262752,0.004258515961002558
1772565881172687000,2.03268701171875,0.11380465835630893,-0.0031655650585656983,0.009426657580211759
1772565881182715100,2.042715087890625,0.11230769779682159,-0.003461401633406058,0.0005678082169033587
1772565881192744000,2.052743896484375,0.10317805040180683,0.003446190364542417,-0.007638806049060076
1772565881202772200,2.062772216796875,0.10976035140156745,-0.0002612721515353769,-0.007028035473264753
1772565881212801000,2.072801025390625,0.11095394510030746,-0.004829749110853299,-0.009498827767278999
1772565881222829000,2.0828291015625,0.11364449935853481,0.00202114883037284,0.00035414719991385936
1772565881232858000,2.092858154296875,0.10616145012676716,0.0006685834439471364,-0.004072692799009382
1772565881242886100,2.10288623046875,0.10810498540997504,0.0013373312846757471,-0.014180062652379274
1772565881252915200,2.112915283203125,0.10241583385765551,0.0011700986587209626,-0.003862009190395474
1772565881262943000,2.12294287109375,0.10705927574932575,-0.005500935503840446,-0.0003805968154221773
1772565881272972000,2.132971923828125,0.11154781934022903,-0.001911432245047763,0.00827597144143656
1772565881283000000,2.143,0.11544131964743137,-0.010347028394718653,-0.00753682524561882
1772565881293029000,2.153029052734375,0.10826046823263168,-0.0019217664093943313,-0.006402633583918214
1772565881303057200,2.16305712890625,0.10511749403178691,-0.0036805334099568425,0.001768544042482972
1772565881313086000,2.1730859375,0.10676350767314434,-0.0006052130512660369,0.0006323796194046736
1772565881323114200,2.1831142578125,0.10886018769145012,0.007724561803485267,-0.0035980062256567177
1772565881333143000,2.19314306640625,0.11065525441467762,0.004924738484504632,-0.004038224273826926
1772565881343171000,2.203171142578125,0.10571721349060535,-0.0031216163189848882,-0.003818334445450455
1772565881353199900,2.213199951171875,0.11753683062195777,-0.005123845819756389,-0.001053637238778174
1772565881363228200,2.223228271484375,0.1033230118304491,0.002866102621378377,-0.010245043024700135
1772565881373257200,2.23325732421875,0.10586685109436511,0.0007374245961895212,0.00037811259739100933
1772565881383285000,2.243284912109375,0.10736264261007308,-0.003220994173386134,-0.001029160384647548
1772565881393314000,2.25331396484375,0.10751228021383284,-0.004678175278333947,-0.002380209667421877
1772565881403342000,2.263342041015625,0.10586392848491669,0.0011712540027685463,-0.00022757994448766112
1772565881413371100,2.27337109375,0.11319441750347614,0.003377577541163191,0.0031000118419528006
1772565881423399000,2.28339892578125,0.11648644478619098,0.0008316604845924302,-0.012826383021101355
1772565881433428000,2.293427978515625,0.10795710137188434,-0.0035188446087995543,-0.01713544185925275
1772565881443456300,2.303456298828125,0.10466682765483856,0.000014270553947426379,0.0019795929772779344
1772565881453485000,2.313485107421875,0.10436813696920871,0.0013556204266147688,-0.006273344648443162
1772565881463513000,2.32351318359375,0.10840835227072239,-0.0041096729416865855,-0.006591306290123612
1772565881473541000,2.333541015625,0.11095452962219715,-0.005021011066366918,-0.005292918776348233
1772565881483570200,2.343570068359375,0.10496785642802715,0.0031088436023797837,0.0009429616722278297
1772565881493598000,2.353597900390625,0.10032616810202598,-0.005123206498939543,0.0013721468697302042
1772565881503627000,2.363626953125,0.10930325528383254,-0.004908198341657407,0.00432569944569841
1772565881513655300,2.3736552734375,0.10735972000062464,-0.0008712344431551172,-0.0030534510201774535
1772565881523684000,2.38368408203125,0.1090045645982027,-0.004182436783798039,-0.005502743868436664
1772565881533712100,2.393712158203125,0.11529051299989222,0.005966881648311391,0.0015622443480417132
1772565881543741000,2.403740966796875,0.10556406875550746,-0.0007284238724038004,-0.000541778726503253
1772565881553769200,2.413769287109375,0.09868307707011699,0.002241709945606999,-0.007725735413841903
1772565881563798300,2.42379833984375,0.10571662896871566,-0.0043564279441023245,-0.016812219520565122
1772565881573825800,2.43382568359375,0.10721183596253395,0.000353749907691963,-0.004147858660761267
1772565881583854800,2.443854736328125,0.10975567522644997,0.0026973858578130602,-0.0014121683528646827
1772565881593883000,2.4538828125,0.10736264261007308,0.00044507231980096546,-0.009289660262316465
1772565881603912000,2.463911865234375,0.11484452279806136,-0.007209168760408647,0.0018089856507256625
1772565881613939700,2.473939697265625,0.1115536645591259,0.0035239043764071537,-0.006791304107941687
1772565881623968800,2.48396875,0.10751637186706066,0.007218717473465949,-0.003366444225795567
1772565881633996800,2.493996826171875,0.112603465873003,0.002885620172601193,-0.0020530966049060223
1772565881644025900,2.50402587890625,0.10796645372211933,0.0049338259732583534,-0.0022787951195612547
1772565881654054000,2.514053955078125,0.11140870313048362,0.0025321442595450205,-0.013175159926153718
1772565881664082700,2.524082763671875,0.10856617318093777,0.0007200350699713453,-0.0009484598312526941
1772565881674111000,2.534111083984375,0.11185878498554229,0.0021536252367775886,-0.0008752849971875548
1772565881684139800,2.544139892578125,0.11186053855121135,0.0037829252053517845,-0.014282591445092111
1772565881694167800,2.554167724609375,0.11320786150693893,-0.008589087944640778,-0.00483390469616279
1772565881704196900,2.56419677734375,0.10378127699196338,-0.0009518664978910237,-0.0016650654016993939
1772565881714225000,2.574224853515625,0.10408230576515197,0.006977839655987918,-0.0014725202379748225
1772565881724254000,2.58425390625,0.10842238079607486,0.0031577470782911403,-0.009243757027667015
1772565881734281700,2.59428173828125,0.10812369011044502,0.0019635231918888165,-0.007631024601403623
1772565881744310800,2.604310791015625,0.11141688643693923,-0.0002206615799339488,-0.0064096113139763475
1772565881754338800,2.6143388671875,0.10662965216040611,0.0013566981388488783,0.002922627714741975
1772565881764368000,2.624367919921875,0.09660743983983992,0.0006901787878246978,-0.0071517714507877824
1772565881774396000,2.63439599609375,0.11336685146093368,0.005585083823068999,-0.009155110629834234
1772565881784424700,2.6444248046875,0.10798106676936149,-0.002895634676539339,-0.00514728149427101
1772565881794453000,2.654452880859375,0.10349135413467883,-0.0012778059500502422,-0.008537490188144146
1772565881804481800,2.664481689453125,0.11022563082575797,0.0025552831065375355,-0.002743197760917246
1772565881814509800,2.674509765625,0.10947627376317977,0.0016203494771383701,0.003093417704384774
1772565881824538600,2.68453857421875,0.11246961036026477,0.000897314165905118,-0.00017475377870723605
1772565881834567000,2.69456689453125,0.10633154599666594,0.000969137293100357,-0.0023259039306081832
1772565881844594700,2.7045947265625,0.10468845496475696,0.007247043952229432,0.001847016106173396
1772565881854623700,2.714623779296875,0.10828034197688102,0.0005944815946975722,0.00003684314535930752
1772565881864652000,2.724652099609375,0.10753215395808219,-0.00022611863976344465,-0.005960935964714736
1772565881874680800,2.734680908203125,0.1180062016993761,-0.001216773644927889,-0.002239175495225936
1772565881884708900,2.744708984375,0.11725567559301853,0.005771180979697965,0.00034333354495465755
1772565881894737700,2.754737548828125,0.1031879872739315,0.0025084071909310295,0.002959562191646546
1772565881904766000,2.764765869140625,0.1123158811032772,-0.003965250369161367,0.003351977309025824
1772565881914795000,2.774794921875,0.11171791521012782,0.004955677045462653,-0.0018224479204975068
1772565881924822800,2.78482275390625,0.1012450365126133,0.0029427023883908986,0.006404460214823484
1772565881934851800,2.794851806640625,0.11216916610896586,0.0017311300749657675,0.0025408618555404243
1772565881944879900,2.8048798828125,0.10079846178889273,0.006177588089811615,0.00026915406389161944
1772565881954909000,2.814908935546875,0.10274258159399031,0.003472644546627998,0.0013244535367935896
1772565881964936700,2.824936767578125,0.10289105015397071,0.0045721850200556215,0.000976279419939965
1772565881974965800,2.8349658203125,0.10558686510920524,0.0012336288816062733,-0.004371365218330175
1772565881984994000,2.844994140625,0.10857961718440055,0.007993181577837094,0.007098178100027144
1772565881995022800,2.85502294921875,0.11815583930313586,0.0001406688460148871,-0.003562606118712574
1772565882005051000,2.86505078125,0.11650982566177845,0.0017629317190265281,-0.004284929043892771
1772565882015079700,2.87507958984375,0.11276537843644618,-0.007970663785352371,-0.0005483728640712797
1772565882025108000,2.88510791015625,0.10872691670060157,-0.0012798426435096189,-0.008728281786199658
1772565882035137000,2.895136962890625,0.09989712903499602,-0.005794324393267743,-0.002252272438816726
1772565882045164800,2.905164794921875,0.11156886212825774,0.004239199339179322,-0.0019162271511740981
1772565882055193900,2.91519384765625,0.11680500921607016,0.003880796089256182,-0.0004551050900481641
1772565882065222000,2.925221923828125,0.10049158779680728,-0.0021189786150818688,0.003920059520564973
1772565882075251000,2.9352509765625,0.10857084935605525,-0.005065863988245837,-0.00599147723345086
1772565882085278700,2.94527880859375,0.09974339977800846,-0.005369577908865176,-0.001743044275045395
1772565882095307800,2.955307861328125,0.10213818596005439,-0.0003761215697042644,-0.004273950992152094
1772565882105335800,2.965335693359375,0.1037847841233015,-0.0051904082499444485,0.0008800159712322056
1772565882115364900,2.97536474609375,0.10573182653784752,-0.0015374295671936123,-0.004736746198311448
1772565882125393000,2.985392822265625,0.10542904419898987,0.006418634870648384,-0.0074938080877996974
1772565882135421700,2.995421630859375,0.11066343772113323,0.0004460358676034957,-0.0023733598015271127
1772565882145450000,3.005449951171875,0.10318097301125526,0.0008070648994529619,0.0051849283572286365
1772565882155478800,3.015478759765625,0.10153788197934627,0.0018696206636261193,0.004113810260687023
1772565882165506800,3.0255068359375,0.1179974338710308,0.00265887134517543,-0.00015451470827683805
1772565882175535900,3.035535888671875,0.11470599111020564,0.006009816607739776,-0.0101678496026434
1772565882185564000,3.04556396484375,0.10423252789080142,-0.0027016738738631827,-0.005327149839513003
1772565882195593000,3.055593017578125,0.09914543388485908,0.0020728287852602076,-0.002975216418504715
1772565882205620700,3.065620849609375,0.09510463406145572,-0.0018443629247834905,0.0003055222852155566
1772565882215649800,3.07564990234375,0.10752397065162658,0.003291333162970841,-0.0044713549940846855
1772565882225677800,3.085677734375,0.11485270610451698,-0.002615100702107884,-0.013967497613932936
1772565882235707000,3.095706787109375,0.11260521943867206,-0.0014359054214786737,-0.006292012816295028
1772565882245735000,3.10573486328125,0.11305354772806167,0.0020697417790303007,0.002539765876997262
1772565882255762700,3.1157626953125,0.11021043325662612,-0.004387713564932346,-0.003932809404283762
1772565882265792000,3.1257919921875,0.1061719715207815,0.002285736317001283,0.004275887220911681
1772565882275819800,3.13581982421875,0.10826748249530792,0.0014731869582552462,-0.0026696210680529475
1772565882285848800,3.145848876953125,0.10482406404316424,0.004133291279291734,0.0010792283377610147
1772565882295876900,3.155876953125,0.10467033478617667,0.00014054554842878131,-0.00848174141291529
1772565882305906000,3.165906005859375,0.11170388668477535,-0.0014982757337391375,-0.0055991169149987394
1772565882315934000,3.175933837890625,0.11649345904886722,-0.005346608025231399,-0.004512015798036009
1772565882325962800,3.185962646484375,0.10212824908792972,0.0033583568174624812,-0.0037835919256322082
1772565882335990800,3.19599072265625,0.10945932262837886,0.0003670843133004382,-0.001824365882948041
1772565882346019800,3.206019775390625,0.10287351449728012,-0.002096305558970198,-0.002026446059998125
1772565882356048000,3.2160478515625,0.11155308003723621,0.002164635254559107,-0.007080295383464544
1772565882366076700,3.22607666015625,0.10452128170430659,0.0002747572541935369,-0.009120295044779778
1772565882376104700,3.236104736328125,0.1096107137978077,0.0026099678692640734,-0.002580061354767531
1772565882386134000,3.246134033203125,0.11140811860859394,-0.002967535435548052,0.002414440730586648
1772565882396161800,3.256161865234375,0.1096107137978077,-0.0069038428380154065,0.001119560348149389
1772565882406190800,3.26619091796875,0.10497253260314464,-0.007840338236838579,-0.0016054076363332568
1772565882416219000,3.276218994140625,0.11320084724426269,-0.006217157481797039,0.0013437610254622995
1772565882426248000,3.286248046875,0.11694120281636715,-0.005212871243502013,-0.007659867103397846
1772565882436275700,3.296275634765625,0.10541735376119613,-0.0002719716420629993,-0.00626488734735176
1772565882446304800,3.3063046875,0.10990472830832004,-0.000770418116915971,-0.005513009534124285
1772565882456332800,3.316332763671875,0.10526303998231887,-0.00011920593287795782,-0.0067379116865806275
1772565882466361900,3.32636181640625,0.10122048659324645,0.0019296391885960473,-0.003607175912801176
1772565882476390000,3.336389892578125,0.10466332052350044,-0.001298743706801906,-0.0062813635581173
1772565882486418700,3.346418701171875,0.11947861233949661,0.0044721039127558464,-0.001272157093975693
1772565882496446700,3.35644677734375,0.11080021584331988,-0.006213243925082497,0.0007975801184773445
1772565882506476000,3.36647607421875,0.11064940919578074,-0.004810450755339116,-0.0034695027414709326
1772565882516503800,3.37650390625,0.10795651684999465,0.006160353827220387,-0.004068820341490209
1772565882526532900,3.386532958984375,0.11184709454774856,0.003129041573614813,-0.014438622257020323
1772565882536561000,3.396560791015625,0.1091524486362934,-0.006639515646290965,-0.011627492092736065
1772565882546590000,3.40658984375,0.11184592550396918,-0.003814457421354018,-0.0021956834133714438
1772565882556617700,3.41661767578125,0.11304477989971637,-0.003619907530210912,0.00208420412922278
1772565882566646800,3.426646728515625,0.10601239704489707,0.00267633850320708,-0.00012561740735545754
1772565882576674800,3.4366748046875,0.09927870487570763,0.0034462268971605222,-0.00567702272310853
1772565882586702800,3.446702880859375,0.10167349105775356,0.0049389770724112166,-0.006696045306231826
1772565882596732000,3.45673193359375,0.10900514912009239,0.005328181885974482,-0.0008482325934804976
1772565882606759700,3.466759765625,0.11304477989971637,-0.0023458142074756325,-0.004188756926730275
1772565882616789000,3.4767890625,0.10331892017722129,-0.0015472248754231257,-0.0029494791890494524
1772565882626816800,3.486816650390625,0.10197276626527309,0.003599513196153566,-0.010215871729142963
1772565882636845800,3.496845703125,0.1048176343023777,-0.00292480597209651,-0.0067096719727851445
1772565882646873900,3.506873779296875,0.10541618471741676,0.0038255496375262737,-0.003473393465299159
1772565882656903000,3.51690283203125,0.11170213311910629,-0.003321449740021489,-0.005363499794527888
1772565882666931000,3.526930908203125,0.11873568501770496,-0.003661700845323503,-0.0004157411940395832
1772565882676959700,3.536959716796875,0.10781097089946269,0.007258643058477901,-0.002093209419585764
1772565882686987800,3.54698779296875,0.10332125826478004,-0.004136739045125432,0.005633347978163511
1772565882697016800,3.557016845703125,0.10556640684306622,-0.007579011286376044,-0.0043634376402013
1772565882707044900,3.567044921875,0.10990531283020973,-0.007554383735195733,-0.0052720221187919376
1772565882717074000,3.577073974609375,0.1194832885146141,-0.0014652913461672141,-0.00006453486988320947
1772565882727101700,3.587101806640625,0.11020400351583957,0.0005076252951519563,0.0049038463935256
1772565882737131000,3.597131103515625,0.11304419537782669,0.002173439615522511,-0.005393164280429482
1772565882747158800,3.60715869140625,0.1001724388450384,0.0029761434336891394,-0.006746588183380663
1772565882757187800,3.617187744140625,0.10690379292666911,-0.0031932796159759164,-0.00784494134671986
1772565882767215900,3.6272158203125,0.11393792934715748,0.004866094499290921,-0.0031439971141517162
1772565882777245000,3.637244873046875,0.10361293468773364,-0.003569752812129445,0.0019189853638410567
1772565882787273000,3.64727294921875,0.10451134483218193,-0.0018224159544566645,-0.004146068562474101
1772565882797301800,3.6573017578125,0.11244272235333919,-0.0030567115563433617,-0.0064758814832195635
1772565882807329800,3.667329833984375,0.11019815829694271,-0.0033468901419546455,-0.003199672824144363
1772565882817358800,3.67735888671875,0.09717734868228435,0.003251384745072573,0.003447126512881368
1772565882827387000,3.687386962890625,0.11363690057396889,0.0031255344422766937,-0.0022606384083628654
1772565882837416000,3.697416015625,0.10241524933576583,0.002283558059646748,-0.002980056990403682
1772565882847443700,3.707443603515625,0.10346154351830482,0.000722898313915357,-0.0033778972015716135
1772565882857473000,3.71747314453125,0.10959551622867583,0.0005034697098424658,-0.0035721959309652444
1772565882867500800,3.727500732421875,0.09987141007184981,0.003650964822177775,-0.00328241920415312
1772565882877529900,3.73752978515625,0.11169336529076099,-0.0025342311853542923,-0.00313544848151505
1772565882887558000,3.747557861328125,0.10989654500186442,0.0005558483510510996,-0.00035668621687218546
1772565882897587000,3.7575869140625,0.11228899309635161,-0.007302587231481447,-0.00514194773202762
1772565882907615000,3.767614990234375,0.10944587862491607,-0.008062511353846639,-0.0007671849802136421
1772565882917643800,3.777643798828125,0.11662673003971576,-0.002326155092357658,-0.00620460852747783
1772565882927671800,3.787671875,0.10794716449975966,0.0006771868755109608,-0.0027458463757298883
1772565882937699800,3.797699951171875,0.10360767399072647,-0.0010967183286789803,0.0024760895236395296
1772565882947729000,3.80772900390625,0.10300912357568741,-0.002919116016826592,-0.004973824623506516
1772565882957756700,3.817756591796875,0.11423077481389045,0.0030797956044087186,-0.0003627871640957892
1772565882967785700,3.82778564453125,0.11393442221581936,0.00652275739882607,-0.00009956965064629912
1772565882977814000,3.83781396484375,0.11707914998233318,0.006069620503578335,-0.01167370585463941
1772565882987842800,3.8478427734375,0.10959551622867583,0.003341834940924309,-0.010568831618968396
1772565882997870800,3.857870849609375,0.10794891806542872,-0.0030032049705507233,-0.004810852614138275
1772565883007899600,3.867899658203125,0.1107908634930849,-0.006516510321130044,-0.003650083472765982
1772565883017928000,3.877927978515625,0.10974398478865623,-0.004003879046230577,-0.0059188321223482485
1772565883027957000,3.88795703125,0.10914601889550685,-0.0007908672499004751,-0.007100351790804415
1772565883037984800,3.89798486328125,0.10764847381412983,0.006298364925268106,-0.004655972579680383
1772565883048013800,3.908013916015625,0.1072001455247402,0.0005777359558735043,-0.005816942650452256
1772565883058041900,3.918041748046875,0.10854629943668842,0.0033051470591919496,-0.006241926596872508
1772565883068071000,3.92807080078125,0.10809563305974006,-0.0008124443274689837,-0.006017214462906122
1772565883078098700,3.9380986328125,0.1072001455247402,-0.0055403359324671326,-0.0012790800251066684
1772565883088127700,3.948127685546875,0.11183832671940326,-0.0037372411664109676,-0.00724633613275364
1772565883098156000,3.958156005859375,0.11468261023461818,0.008713326245662756,0.0003124269500374794
1772565883108184800,3.968184814453125,0.10869769060611724,0.0006504997979849576,0.004220850831735879
1772565883118212900,3.978212890625,0.10570318496525287,0.0014490160648012534,0.0006516688417643309
1772565883128241700,3.98824169921875,0.11423135933578013,0.00443426982013043,-0.000010557926632463932
1772565883138270000,3.99827001953125,0.11138941390812396,-0.0049581703966483474,-0.0005568118988536298
1772565883148299000,4.008299072265625,0.10286007049381732,-0.0011516770860413089,0.0004719466269947588
1772565883158326800,4.018326904296875,0.10240881959497929,0.005034464202984236,-0.0011244374526664614
1772565883168355800,4.02835595703125,0.11931728429794311,-0.0035014824820449575,-0.005410754736047238
1772565883178384000,4.0383837890625,0.10929273388981818,-0.0011526178009575233,-0.006385043128300458
1772565883188413000,4.048412841796875,0.10106091211736201,-0.0013176402035169302,-0.0018356179293245076
1772565883198440700,4.058440673828125,0.10345336021184921,0.0036626506933942434,0.0060275531938299536
1772565883208469800,4.0684697265625,0.11078384923040867,-0.0033625261025037614,0.003117931091133505
1772565883218497800,4.078497802734375,0.1119803655385971,-0.0019205516998423262,-0.012153105135727673
1772565883228526800,4.08852685546875,0.11033201380968093,0.005191449429560452,-0.005961557019222527
1772565883238555000,4.098554931640625,0.10928396606147289,-0.003761791085777804,-0.004907609253190458
1772565883248583700,4.108583740234375,0.10299801765978336,-0.001151626853691414,-0.0069112954921089105
1772565883258612000,4.118612060546875,0.10209902299344539,-0.004717064250307157,-0.00818909687558189
1772565883268639700,4.1286396484375,0.10853110186755656,-0.0037942777164280414,-0.003999645829107612
1772565883278668800,4.138668701171875,0.11736088953316211,0.0027947635513730345,-0.0037848888335749505
1772565883288697900,4.14869775390625,0.11766016474068164,-0.0028425116832368072,-0.005733904009498655
1772565883298726000,4.158725830078125,0.10299743313789367,0.003961656472855247,-0.009618581689428538
1772565883308754000,4.16875390625,0.11182663628160953,-0.0026139453580603,-0.0073169354172423475
1772565883318782700,4.17878271484375,0.1124251866966486,-0.011197763472539372,-0.0064664378014393144
1772565883328811000,4.18881103515625,0.10374737472236156,-0.003749520692671649,-0.0037358437937684355
1772565883338839800,4.19883984375,0.10629413659572601,0.0022532725192373616,-0.0028099793868139383
1772565883348867800,4.208867919921875,0.10210662177801132,0.004662991408933885,-0.0038942674921825524
1772565883358897000,4.21889697265625,0.10988719265162944,-0.0012095538862748072,-0.000010229133069515227
1772565883368925000,4.228925048828125,0.09956102894842624,0.005750352820800617,-0.005204655971005559
1772565883378954000,4.2389541015625,0.1056932480931282,-0.0004507074761437252,-0.002678096635453403
1772565883388981800,4.248981689453125,0.10778759002387522,0.001761141620739363,-0.0005879924884065985
1772565883399010800,4.2590107421875,0.11183014341294764,0.003192215603473596,-0.005661057968996465
1772565883409038800,4.269038818359375,0.10928630414903164,0.006483544199867174,-0.015550108896568417
1772565883419068000,4.27906787109375,0.11317688184678554,0.005096966945985332,-0.02164490037402138
1772565883429096000,4.289095947265625,0.10629296755194663,-0.007211264819372445,0.0008259659627452492
1772565883439124700,4.299124755859375,0.10793898119330406,0.0029511459897505117,0.01190499385986477
1772565883449153000,4.309153076171875,0.10734159982204437,0.0026830331054748966,-0.004647405680734664
1772565883459181800,4.319181884765625,0.10853636256456374,0.00037267380387056616,-0.010314601129572838
1772565883469209900,4.3292099609375,0.1083855559170246,-0.0006793194670928641,-0.00783595432266593
1772565883479238700,4.33923876953125,0.10210077655911445,-0.006896887940843589,-0.009706442635972052
1772565883489267000,4.349266845703125,0.11317512828111648,-0.004563860149704851,-0.0013127448326908052
1772565883499296000,4.3592958984375,0.11078151114284991,-0.0046286142152966924,-0.008998093437217176
1772565883509323800,4.36932373046875,0.10883914490342139,-0.00016595398432109505,-0.00853197376281023
1772565883519352800,4.379352783203125,0.1098848545640707,-0.0033654076127568257,0.0006526734887622297
1772565883529380900,4.389380859375,0.10315174691677093,-0.0014776439376641064,0.005303860295470804
1772565883539410000,4.399409912109375,0.1143722291111946,0.00036386944290716196,-0.00546511527178809
1772565883549437700,4.409437744140625,0.11048340497910976,0.0036210263416403903,-0.0037810346423648297
1772565883559466800,4.419466796875,0.1077928507208824,-0.006718672696570865,-0.004432776549365371
1772565883569495000,4.4294951171875,0.11258125404119491,0.0015657651791116222,-0.008508629419840872
1772565883579523300,4.4395234375,0.12125906601548195,0.0010536235390463844,-0.006369370635133236
1772565883589551000,4.449551025390625,0.1094359417527914,-0.004152082744729705,0.00039161139978095887
1772565883599579400,4.459579345703125,0.1082376718789339,-0.004578742625005543,-0.00850841022413224
1772565883609608400,4.4696083984375,0.10599661495387554,0.011354757832270116,-0.005589454037509859
1772565883619636200,4.47963623046875,0.10943535723090171,0.0019181588133564218,-0.007691339953895658
1772565883629665300,4.489665283203125,0.10315174691677093,0.0025979075387120246,-0.004226823914796114
1772565883639693300,4.499693359375,0.10060790765285492,0.002851969064748846,-0.006891860139276832
1772565883649722400,4.509722412109375,0.11063479614853858,0.0005900246152887121,-0.004878967680595815
1772565883659750100,4.519750244140625,0.1076408750295639,-0.005198175997869111,-0.00017066212547942996
1772565883669779200,4.529779296875,0.10090601381659507,0.004780740603664889,0.002027103647124022
1772565883679807500,4.539807373046875,0.10988543908596038,0.002958160252426751,-0.0004496617299504578
1772565883689836300,4.549836181640625,0.0982125369489193,-0.001199562215222977,-0.003744940415676683
1772565883699864300,4.5598642578125,0.11138123060166835,0.0032862048967042938,-0.009200886000320315
1772565883709893000,4.56989306640625,0.10629179850816727,-0.002725178047036752,-0.004144808187149465
1772565883719921400,4.57992138671875,0.10524550432562828,-0.004512271526362747,-0.0024484891306608913
1772565883729950500,4.589950439453125,0.10464870747625828,-0.0009177815651986748,-0.0015135646344162522
1772565883739978200,4.599978271484375,0.11542144590318203,0.00462812102495227,0.0025887195852585137
1772565883750007300,4.61000732421875,0.10718962413072586,0.0022556699723005292,0.005391027122270316
1772565883760035300,4.620035400390625,0.10898585989773273,-0.004365428667888045,0.003005118366423994
1772565883770064400,4.630064453125,0.11242752478420734,-0.004730604151892475,-0.00984070000750944
1772565883780092200,4.640092041015625,0.10629179850816727,-0.0029402318700915203,-0.008155779127869755
1772565883790121200,4.650121337890625,0.12095745272040366,0.00028764870180748403,-0.005067841316200792
1772565883800149500,4.6601494140625,0.10450082343816756,-0.005123813853715546,-0.007769373626168817
1772565883810178300,4.67017822265625,0.11003624573349952,-0.001999352557095699,-0.007413838186766952
1772565883820206300,4.680206298828125,0.11033668998479843,-0.0057815105774672694,-0.004694350095000118
1772565883830235100,4.690235107421875,0.10360124424993991,-0.0017266274297842756,-0.004505165932141244
1772565883840263400,4.700263427734375,0.11392506986558437,0.004487497844710015,-0.0005382533288560808
1772565883850292500,4.71029248046875,0.11347674157619475,-0.004244985192571766,-0.0018239274915307759
1772565883860320300,4.7203203125,0.10988310099840164,-0.005192198348231613,-0.006267700358945876
1772565883870349300,4.730349365234375,0.1058417166531086,-0.002310866191680543,0.0004164170474745333
1772565883880377300,4.74037744140625,0.10704057104885578,0.0007590199400670825,-0.0032381234047003087
1772565883890406400,4.750406494140625,0.10284838005602359,-0.0012137323044706136,0.004566376333776861
1772565883900434200,4.76043408203125,0.11332359684109687,-0.00005556611213833093,-0.00915211495514959
1772565883910462500,4.77046240234375,0.11227554909288882,0.0012090378630440681,0.0008809475529938936
1772565883920491300,4.7804912109375,0.10150105710029601,-0.0010553816712927072,-0.008738565718196332
1772565883930519300,4.790519287109375,0.10614216090440749,-0.004935922032222152,0.0016698511746712028
1772565883940548400,4.80054833984375,0.11362521013617514,-0.0004935191379860043,-0.008773545700032264
1772565883950576400,4.810576416015625,0.1118283898472786,-0.0018770276519469915,-0.005554273126274347
1772565883960605400,4.82060546875,0.10509411315619945,-0.001264526343368925,-0.002968311753682792
1772565883970633200,4.83063330078125,0.11093114874660968,0.0016766371084842829,-0.010274634445365518
1772565883980662300,4.840662353515625,0.1085381161302328,-0.0004267603449756279,-0.018965689493715764
1772565883990690300,4.850690185546875,0.10704232461452484,0.005426121268537826,-0.006750003983173519
1772565884000719400,4.86071923828125,0.1044990698724985,0.004755665527912788,-0.006094152156636118
1772565884010747400,4.870747314453125,0.10883680681586265,0.0059925138464896,-0.003640384062658995
1772565884020776200,4.880776123046875,0.10644202063381672,-0.0007873053196351975,-0.014416282561048864
1772565884030804500,4.890804443359375,0.10898585989773273,-0.012622042388305998,-0.004044690547231585
1772565884040833300,4.900833251953125,0.1059936923444271,-0.00820629003897775,0.003476334341056645
1772565884050861300,4.910861328125,0.10314999335110187,-0.0005663514787564054,-0.009000449791084974
1772565884060890400,4.920890380859375,0.10883622229397297,0.0037408213629852977,-0.0077943436706438655
1772565884070918400,4.93091845703125,0.11078209566473961,-0.004016852692235261,-0.007925842829514295
1772565884080947500,4.940947509765625,0.113923900821805,-0.006374713530531153,0.0007791494126431644
1772565884090975200,4.950975341796875,0.11572013658881186,-0.004084214273444377,-0.005272898901626468
1772565884101004300,4.96100439453125,0.11362813274562358,-0.0006573587970342486,-0.009441288893762976
1772565884111032300,4.9710322265625,0.11422785220444202,-0.0031935718769207596,0.0007620704136788844
1772565884121061400,4.981061279296875,0.12365385219752788,0.002825218055141158,0.0051448703414760525
1772565884131089200,4.991089111328125,0.11153437533676623,-0.003291625423915684,0.002242043305747211
1772565884141118200,5.0011181640625,0.11183481958806514,-0.006183410475822165,-0.00621061814315617
1772565884151146500,5.011146484375,0.10614917516708373,0.002574905689037405,-0.00574919291017577
1772565884161175300,5.02117529296875,0.10001344889104366,0.0039978876968612895,-0.005376888999063521
1772565884171203300,5.031203369140625,0.10495324338078499,0.010555520046246238,-0.0016445888692513107
1772565884181232000,5.041232177734375,0.10480185221135616,-0.002968033192469738,-0.005837035590410232
1772565884191260400,5.051260498046875,0.10390461111068724,-0.0061856161326402795,0.001416369603946805
1772565884201288200,5.0612880859375,0.10719722291529178,0.0060247675816994155,-0.005287329285778105
1772565884211317200,5.071317138671875,0.11093699396550655,-0.005458872760669328,-0.00881259906878695
1772565884221345500,5.081345458984375,0.1188689560085535,-0.004592889881366863,-0.012168576699495314
1772565884231374300,5.091374267578125,0.10869476799666881,0.008894765493483283,-0.004529898514598608
1772565884241402400,5.10140234375,0.10166121609807013,-0.008922137557598762,-0.004086958786379546
1772565884251431200,5.11143115234375,0.12006664136052131,0.002206684297998436,-0.008392218232247978
1772565884261459500,5.12145947265625,0.10435644653141497,0.004493525726697407,-0.0032366073010489343
1772565884271488500,5.131488525390625,0.09956921225488186,-0.003061515595624223,0.0012302724473178385
1772565884281516300,5.141516357421875,0.10450666865706443,0.001061299955425784,-0.006439951653312891
1772565884291545300,5.15154541015625,0.10315759213566779,0.006221760591678321,-0.00555719573572278
1772565884301573400,5.161573486328125,0.10615151325464248,0.006263060716446489,-0.009388152200728654
1772565884311602400,5.1716025390625,0.1118365731537342,0.0034683610971551386,-0.0017959435060620308
1772565884321630200,5.181630126953125,0.11213701740503311,-0.0005718405046267435,-0.008282474247459322
1772565884331659300,5.1916591796875,0.10749825168848037,0.0000013106076745316386,-0.0036348311047069725
1772565884341687600,5.2016875,0.10630348894596099,0.000019170491350814698,-0.0039500345337204635
1772565884351716400,5.21171630859375,0.10136720158755778,0.004126866105082444,-0.006419109794683754
1772565884361744400,5.221744384765625,0.1064554646372795,0.001539384062262252,-0.004706460657902062
1772565884371773200,5.231773193359375,0.1027127709776163,-0.0019348268203670158,-0.004616791346762329
1772565884381801500,5.241801513671875,0.11273965947329997,-0.003062652673362754,-0.011295483659394085
1772565884391830300,5.251830322265625,0.10601005895733832,-0.0030978107517119495,-0.0022664836272597313
1772565884401858300,5.2618583984375,0.10107201803326606,0.0017286960892844943,-0.00853758151968941
1772565884411887400,5.271887451171875,0.11154665029644965,0.005966224061185493,-0.001254639703594148
1772565884421915400,5.281915283203125,0.10855506726503372,-0.003812365928967483,-0.007873144527897238
1772565884431944400,5.2919443359375,0.1043687214910984,0.002594035081192851,0.007011376599408686
1772565884441972200,5.30197216796875,0.11304887155294417,0.002294869471527636,-0.004038881860952824
1772565884452001300,5.312001220703125,0.11439327189922333,0.003823576876148581,0.002444415743742138
1772565884462029300,5.322029296875,0.11349427723288535,0.0020471463547321036,-0.0051178362040780485
1772565884472058400,5.332058349609375,0.11364216127097607,-0.003436098228790797,-0.0014493220254778861
1772565884482086400,5.34208642578125,0.10690963814556598,-0.005746758924494497,-0.005857329459767789
1772565884492115200,5.352115234375,0.109453477409482,-0.0015805197902489453,-0.0020100794470869
1772565884502143500,5.3621435546875,0.11469137806296348,0.0047020493442658335,-0.007111165445763617
1772565884512171300,5.372171142578125,0.11633622266054153,0.007713355422881431,-0.008177790030278265
1772565884522200300,5.382200439453125,0.10645897176861763,0.0009515422709053382,0.0016495573053136466
1772565884532228400,5.392228271484375,0.10017477693259716,-0.004982743148901499,-0.005216328142490238
1772565884542257400,5.40225732421875,0.10600888991355896,0.0014406044294824822,-0.0003502199434675276
1772565884552285400,5.412285400390625,0.11244096878767013,0.004909056858182884,-0.003234506675507873
1772565884562314200,5.422314208984375,0.11558335846662521,0.0031011215202277525,0.002031158767733723
1772565884572342300,5.43234228515625,0.11692892785668373,-0.0048173462870065124,-0.007804116145987063
1772565884582371600,5.44237158203125,0.11064531754255294,0.007670443296339363,-0.0035375630090013145
1772565884592399600,5.452399658203125,0.10959902336001395,0.0038618402270367367,-0.0062181986614130436
1772565884602428700,5.4624287109375,0.10211714317202568,-0.007301938777510076,-0.0042697314747609195
1772565884612456400,5.47245654296875,0.11573358059227466,0.004483346825977787,-0.006852057851850986
1772565884622485800,5.48248583984375,0.1048088664740324,0.0025714579232037067,0.0035307679420337077
1772565884632513500,5.492513427734375,0.11004442903995514,-0.006445801438787021,-0.006746679514925927
1772565884642542600,5.50254248046875,0.10630173538029193,-0.00003096139384433627,-0.0018194887784309685
1772565884652570600,5.512570556640625,0.10001870958805084,0.0009378014399204403,0.0017337101911194621
1772565884662599700,5.522599609375,0.10839724635481834,-0.0068948101481888435,-0.002424907325673848
1772565884672627700,5.532627685546875,0.09627601592838764,-0.0007314834791701287,-0.0033110973093658683
1772565884682656500,5.542656494140625,0.10330898330509662,-0.004778091988852247,-0.0031743922524154183
1772565884692684500,5.5526845703125,0.11213526383936405,-0.003862730709603056,-0.006565386397577822
1772565884702713600,5.562713623046875,0.10614859064519405,0.0004401221500476822,-0.003429389926791191
1772565884712741600,5.57274169921875,0.11452771193385124,0.001392093679215759,-0.007294760118052363
1772565884722770700,5.582770751953125,0.114677349537611,0.007267278456082567,-0.0022578984620049594
1772565884732798500,5.592798583984375,0.1083943237453699,-0.003894116795132868,-0.003066219170205295
1772565884742827800,5.602827880859375,0.11497954735457896,-0.003444939122372307,-0.008219218019209803
1772565884752855600,5.61285546875,0.1015150856256485,-0.006711366172949783,-0.00508219863511622
1772565884762884600,5.622884521484375,0.10271160193383692,-0.008688401866960339,-0.005306983834318817
1772565884772912400,5.632912353515625,0.1089957967698574,-0.004325270187435671,-0.005419924423191696
1772565884782941700,5.642941650390625,0.11124036082625388,0.003218190294946544,0.0007231083764694631
1772565884792969700,5.6529697265625,0.11243979974389076,-0.0027289180738152936,-0.004416008077654987
1772565884802998500,5.66299853515625,0.10885141986310481,0.0005588485923130065,-0.007095492952596396
1772565884813026600,5.673026611328125,0.10465922887027262,-0.0023016919379588215,-0.004536437853239476
1772565884823054600,5.6830546875,0.10944646314680576,-0.002169859418948181,-0.004497676745429635
1772565884833083600,5.693083740234375,0.09927110609114169,0.0012681156730977817,0.00417569651575759
1772565884843111400,5.703111328125,0.10315993022322655,-0.0037703442849917335,0.002531619103159755
1772565884853140500,5.713140380859375,0.11243863070011138,-0.0016774590923916547,-0.006058277125656604
1772565884863168800,5.723168701171875,0.11124152987003326,-0.00720559313041158,0.006638871758896857
1772565884873197600,5.733197509765625,0.11064414849877356,0.0009832343171117827,0.003902980521600693
1772565884883225600,5.7432255859375,0.1079500871092081,0.000699088180065155,-0.009955047102179378
1772565884893254400,5.75325439453125,0.10390870276391506,-0.008495052985637448,0.007178111468441784
1772565884903282700,5.76328271484375,0.10779694237411022,0.0038809285199968143,-0.0008739332903176546
1772565884913311700,5.773311767578125,0.10779811141788959,0.001839097661199048,-0.009507011073734611
1772565884923339500,5.783339599609375,0.10166180061995983,-0.00331134390453808,0.000794127786066383
1772565884933368600,5.79336865234375,0.10914543437361716,-0.00636634299440775,-0.0023679712403565645
1772565884943396600,5.803396728515625,0.1016629696637392,-0.00043369697583839296,-0.001925743898190558
1772565884953425700,5.81342578125,0.10465922887027262,-0.008652782564307562,-0.003979205829277634
1772565884963453400,5.823453369140625,0.10645488011538982,-0.012268840469885616,0.00792109358916059
1772565884973482500,5.833482421875,0.11618132435977459,-0.004273777462216094,-0.007662022527866065
1772565884983510800,5.8435107421875,0.11109306131005287,0.0008639918516157194,-0.002538542034290731
1772565884993539600,5.85353955078125,0.10660159510970114,-0.0031307905727066096,0.002427409810014069
1772565885003567600,5.863567626953125,0.11094225466251373,-0.0017917285552481188,-0.00003470598720014095
1772565885013596400,5.873596435546875,0.11453297263085842,-0.001263955521211028,-0.006762936529982834
1772565885023624700,5.883624755859375,0.10869710608422756,-0.0017090232744347302,-0.00946454190518707
1772565885033653500,5.893653564453125,0.1085468839585781,-0.002674059781152755,-0.0018949286348186431
1772565885043681500,5.903681640625,0.10315817665755748,-0.0019221819679252803,0.000661404784489423
1772565885053710600,5.913710693359375,0.10210895986557006,0.0009181742908433079,-0.0016713490120135246
1772565885063738600,5.923738525390625,0.11378361556828022,-0.013251462865644133,-0.007187646481767296
1772565885073766700,5.9337666015625,0.09702654203474521,-0.011053756458545103,0.0033675219380296766
1772565885083795500,5.94379541015625,0.10854863752424716,-0.004512024931190535,-0.0012526669422164558
1772565885093823700,5.95382373046875,0.11168927363753318,0.0009137081782799214,-0.00970048781922087
1772565885103852500,5.9638525390625,0.11168868911564349,0.005555752697307616,-0.0032943836365826426
1772565885113880600,5.973880615234375,0.11004092190861701,-0.0029899070975603534,-0.0033776049406267702
1772565885123909600,5.98390966796875,0.11198621075749397,-0.008459611779497936,-0.0003834280933253467
1772565885133937700,5.993937744140625,0.10764672024846077,0.0024285560209071264,0.002278594190161675
1772565885143966700,6.003966796875,0.11962065115869044,0.000427253535320051,0.004523322643339634
1772565885153994500,6.013994384765625,0.10390753372013568,-0.002166498418082483,-0.000017188596818596122
1772565885164023600,6.0240234375,0.09837211142480373,-0.006370457480521873,0.007836666708718985
1772565885174051600,6.034051513671875,0.10570318496525287,-0.005483313082181848,-0.005560264475643634
1772565885184080600,6.04408056640625,0.11572890441715716,-0.003024631351069547,-0.0025084574232809246
1772565885194108700,6.054108642578125,0.10750058977603912,-0.006251215015025809,-0.0033503881401382384
1772565885204137500,6.064137451171875,0.11169044268131255,-0.004728964750654995,-0.006701214671693742
1772565885214165800,6.074165771484375,0.11408230625391005,0.004500827683741227,0.0013875819008797405
1772565885224194600,6.084194580078125,0.11557575968205928,-0.000556040147296153,-0.0050103572416119275
1772565885234222600,6.09422265625,0.09537409865260124,0.0018704974464606493,-0.002817852166015655
1772565885244251600,6.104251708984375,0.10988602360785008,-0.0035590715879108754,-0.005818897145520896
1772565885254279700,6.11427978515625,0.10704290913641452,0.0017207730777328834,-0.010793762948643416
1772565885264308700,6.124308837890625,0.09836392811834811,0.0001400843241252005,-0.004773571077361703
1772565885274336500,6.13433642578125,0.11886369531154632,-0.0012966111152200028,-0.006419438588246703
1772565885284365600,6.144365478515625,0.10629296755194663,-0.00436072052672971,-0.00047141690403223037
1772565885294393600,6.1543935546875,0.11556991446316242,0.0032542205895530057,-0.004397467773966491
1772565885304422700,6.164422607421875,0.10614040733873843,-0.005500095253624022,-0.005840725384838878
1772565885314450400,6.174450439453125,0.1058411321312189,-0.003952888644509949,0.002114909794740379
1772565885324479500,6.1844794921875,0.11751052713692188,-0.001719060611259192,-0.0019147110475227235
1772565885334507800,6.1945078125,0.11017828455269336,-0.0024851176468888296,-0.007388685479201376
1772565885344536600,6.20453662109375,0.10613806925117969,-0.007077477805293165,-0.013473247823584824
1772565885354564600,6.214564697265625,0.11167466059029102,-0.0034892120889388023,-0.007194496347662061
1772565885364593400,6.224593505859375,0.10838380235135554,-0.0018576196985784917,-0.005223543334566056
1772565885374621700,6.23462158203125,0.11930793194770813,-0.0042822986953891815,-0.012289189138170332
1772565885384649500,6.2446494140625,0.12005495092272758,-0.00796296910266392,-0.004899919137079268
1772565885394678500,6.254678466796875,0.10718553247749806,-0.009445887437066994,-0.003747808226197958
1772565885404706800,6.264706787109375,0.10912906776070594,0.00237440554772038,0.00017776771970093248
1772565885414735600,6.274735595703125,0.11526304047107695,-0.0009848508854629471,-0.004935483640804887
1772565885424763600,6.284763671875,0.10463935512602329,-0.005602550981100648,0.0007554762761108576
1772565885434792400,6.29479248046875,0.10568740287423133,-0.0022688399811275303,0.002891282728407532
1772565885444820700,6.30482080078125,0.10179740969836712,0.00032458317871205506,0.0030389293044805524
1772565885454849800,6.314849853515625,0.11017477742135524,0.0013913904263172297,-0.00797549065751955
1772565885464877600,6.324877685546875,0.11451485245227813,-0.0018891610477352514,-0.006868917655106633
1772565885474906600,6.33490673828125,0.10104805263578891,-0.0009903627442196011,-0.004299633422680199
1772565885484934700,6.3449345703125,0.10434124896228313,0.004519399953470565,-0.001578446564171463
1772565885494963700,6.354963623046875,0.10149579640328883,-0.0011393427608534692,-0.010577270653750746
1772565885504991500,6.364991455078125,0.10583470239043236,-0.0003180803726892918,-0.004041767937783151
1772565885515020500,6.3750205078125,0.1122679503083229,-0.004755628995294682,-0.0012627316785044967
1772565885525048800,6.385048828125,0.09969605350494384,-0.0008828563822899013,-0.0031722916268743574
1772565885535077600,6.39507763671875,0.11256605647206305,0.0011855747890658676,-0.006843162159342319
1772565885545105700,6.405105712890625,0.09984802919626236,-0.0027405354463728143,-0.00286359100388363
1772565885555134500,6.415134521484375,0.10059680173695087,-0.0005646938112098723,-0.005454995736572891
1772565885565162800,6.425162841796875,0.11301496928334236,-0.001570085161202587,-0.008208550494723021
1772565885575191600,6.435191650390625,0.10179214900135994,-0.0042054066674318165,-0.0030127902162261307
1772565885585219600,6.445219482421875,0.10927578275501727,-0.00415434776705224,-0.0063526934949681155
1772565885595248400,6.455248291015625,0.10074936195015907,-0.00028841588678769767,-0.00435141840884462
1772565885605276700,6.465276611328125,0.10119944380521774,-0.0039052638102322814,0.0008917977405712008
1772565885615305700,6.4753056640625,0.10643559089303016,0.00022090360852889716,-0.004688742338120937
1772565885625333500,6.48533349609375,0.11316928306221961,-0.002490145448455587,-0.00812563971793279
1772565885635361800,6.49536181640625,0.10912906776070594,-0.0021318517963867635,-0.0115180221025832
1772565885645390600,6.505390625,0.09730945062935352,0.0013085298818768932,-0.006500029543787241
1772565885655418600,6.515418701171875,0.1044908865660429,-0.00006870872150175273,-0.011170322909764946
1772565885665447400,6.525447509765625,0.10883096159696579,-0.00022822839845903215,-0.00561046029292047
1772565885675475700,6.535475830078125,0.10149813449084759,0.003111099491547793,-0.008199526938050984
1772565885685504800,6.5455048828125,0.10404489636421203,-0.0017940027107251808,-0.016039956506434826
1772565885695532500,6.555532470703125,0.11436989102363586,0.000831911646341905,-0.007931176591757684
1772565885705561600,6.5655615234375,0.11272446190416813,0.0013399707663338631,-0.002598583392146975
1772565885715589600,6.575589599609375,0.10808744975328445,-0.005343621483701281,0.0013890980045311151
1772565885725618700,6.58561865234375,0.10554477953314781,-0.002399019399168901,-0.0015161401839926837
1772565885735646500,6.595646484375,0.1112310084760189,-0.003877188493218273,-0.0017726174294017255
1772565885745675500,6.605675537109375,0.11197919649481773,-0.003590626636799425,-0.015388525126688181
1772565885755703800,6.615703857421875,0.10718962413072586,-0.0018887500557815656,-0.009954882705397903
1772565885765732600,6.625732666015625,0.12335340794622897,-0.007221256490424275,-0.004714790094830095
1772565885775760600,6.6357607421875,0.11123217751979828,-0.007354134755628183,-0.00010850187577307224
1772565885785789400,6.64578955078125,0.11886252626776694,-0.0014006605781614779,-0.003257193431351334
1772565885795817700,6.655817626953125,0.11242577121853828,-0.004041324979788623,-0.00022292203567922115
1772565885805846800,6.6658466796875,0.10150047257840633,-0.003219861662224866,-0.0016336656164377926
1772565885815874600,6.67587451171875,0.11302315258979796,0.0023890642607351763,-0.005074435453768819
1772565885825903600,6.685903564453125,0.11616846487820148,-0.002749992827884853,-0.007781191928125917
1772565885835931600,6.695931640625,0.10808861879706382,-0.004171719026961364,-0.0017952493863180278
1772565885845960700,6.705960693359375,0.11033727450668811,-0.0033053068893961605,-0.0017233897265046833
1772565885855988500,6.715988525390625,0.11198562623560428,-0.007196761369984596,-0.011595379921421407
1772565885866017500,6.726017578125,0.11348317131698131,0.001856952978298068,-0.004528711204510182
1772565885876045600,6.736045654296875,0.10988953073918818,-0.001239035709085874,-0.004222166005987673
1772565885886074600,6.74607470703125,0.11812193703353405,0.0005334858221933245,-0.0019572350149974225
1772565885896102700,6.7561025390625,0.10555237831771373,-0.0032215238963486624,-0.004632427307311445
1772565885906130400,6.76613037109375,0.10240765055119991,0.0008233036482008174,-0.004182966506760567
1772565885916159700,6.77615966796875,0.1131786354124546,-0.0016248521223198621,-0.011533128340169787
1772565885926187500,6.7861875,0.09940905325710774,-0.002410307978163473,0.0028503844624385237
1772565885936216600,6.796216552734375,0.1030003557473421,-0.00538469327960629,-0.004457363001350313
1772565885946244400,6.806244384765625,0.10898527537584304,-0.003911835114913992,-0.007285078974254429
1772565885956273700,6.816273681640625,0.11916063243150711,0.0005441305137937889,-0.0036804238121025262
1772565885966301700,6.8263017578125,0.1143722291111946,-0.00697194877131842,-0.002181253029219806
1772565885976330500,6.83633056640625,0.107937227627635,-0.00343213443972636,-0.006522003913577646
1772565885986358500,6.846358642578125,0.10913257489204406,0.004081593058095313,-0.010679251457192004
1772565885996387600,6.8563876953125,0.11152794559597969,-0.005386761939106509,-0.0042206864349544045
1772565886006415600,6.86641552734375,0.10509411315619945,0.008015882033412344,-0.012163736127596348
1772565886016444700,6.876444580078125,0.10284838005602359,0.001993922896729782,-0.0032240583467297254
1772565886026472400,6.886472412109375,0.1037456211566925,-0.002743142961990088,0.003883325973059982
1772565886036501800,6.896501708984375,0.1064385135024786,-0.0019194648544536902,-0.00043908553700894114
1772565886046529500,6.906529541015625,0.10598901616930961,-0.00442252458340954,-0.011420699207950382
1772565886056558600,6.91655859375,0.10434417157173156,-0.005648381150513887,-0.00578800881691277
1772565886066586400,6.92658642578125,0.11257190169095993,-0.0001820146365556866,-0.0024762904530391096
1772565886076615700,6.93661572265625,0.1068868417918682,0.00046796913819853214,-0.0030296865520998834
1772565886086643500,6.9466435546875,0.09715981302559375,-0.0004411450633546337,-0.003942070422973483
1772565886096672500,6.956672607421875,0.10419102683663367,-0.005406695048860274,-0.009879534180555491
1772565886106700500,6.966700439453125,0.11167056893706322,0.0012633207669714465,-0.004939173435233533
1772565886116729600,6.9767294921875,0.11855389871001243,0.001595187636418268,-0.010380652103107423
1772565886126757600,6.986757568359375,0.1112222406476736,0.007094999762251973,-0.004850892363581806
1772565886136786400,6.996786376953125,0.1053881276667118,0.0018681730586336924,0.0025153255554847417
1772565886146814500,7.006814453125,0.11002923147082329,-0.005987988368421793,0.0027979236228391526
1772565886156842500,7.016842529296875,0.11242635574042796,-0.005073458206234499,-0.005767897610645741
1772565886166871600,7.02687158203125,0.11033376737534999,-0.007436862869327887,-0.007879775198083371
1772565886176899600,7.036899658203125,0.10599661495387554,0.00046135673432145266,-0.007191226678341627
1772565886186928400,7.046928466796875,0.1136275482237339,0.008043820353108458,-0.009281842282041907
1772565886196956700,7.056956787109375,0.11617314105331897,-0.0022917824652977288,-0.0033677594000473617
1772565886206985500,7.0669853515625,0.1136316398769617,-0.004726489665778354,0.00018363120490685105
1772565886217013500,7.077013427734375,0.11258476117253303,-0.00025414829100482163,-0.0035555187908001243
1772565886227042600,7.08704248046875,0.10944178697168827,-0.005796794911567121,0.002166877443995327
1772565886237070600,7.097070556640625,0.10809095688462257,0.005241270787501707,-0.009440613040328026
1772565886247099600,7.107099609375,0.09657119948267937,-0.003840806572162546,-0.005875120844785124
1772565886257127400,7.11712744140625,0.10420154823064803,0.0007810765082482248,-0.0029539361684583127
1772565886267156500,7.127156494140625,0.10854337682723998,0.0034417059856699777,-0.004275046970695257
1772565886277184500,7.1371845703125,0.10989011526107788,-0.004009537035459652,0.0018536467763595281
1772565886287213600,7.147213623046875,0.09896657018661499,0.0024964473250787705,-0.00580468595707789
1772565886297241600,7.15724169921875,0.10480185221135616,-0.0007770031213294714,-0.003475183563586324
1772565886307270400,7.1672705078125,0.11004092190861701,-0.011817320142989047,-0.0043983810894191264
1772565886317298700,7.177298583984375,0.11423077481389045,0.0022289737616199997,0.00248830968439579
1772565886327327500,7.187327392578125,0.11228840857446193,0.003989160967711359,0.0012762852798216045
1772565886337355500,7.19735546875,0.10854980656802654,-0.001653032470610924,-0.004191076747979969
1772565886347384600,7.207384521484375,0.10630582703351973,-0.003110044612199999,-0.005680018397793174
1772565886357412600,7.21741259765625,0.10884966629743575,-0.0020632800722029058,-0.012989610758796333
1772565886367441700,7.227441650390625,0.1049567505121231,-0.0026298416135134175,-0.0016274550713598727
1772565886377469400,7.237469482421875,0.10570493853092193,-0.0015921006301883606,-0.008960282177478074
1772565886387498500,7.24749853515625,0.11468494832217693,-0.003222989767650142,-0.005712203634344041
1772565886397526500,7.257526611328125,0.1151344456553459,0.004151078097731806,-0.004141191457957029
1772565886407555600,7.2675556640625,0.11408990503847598,0.0026801515952218323,-0.002995583353098482
1772565886417583400,7.277583251953125,0.10720657526552677,-0.001969441476021893,-0.00559318036455661
1772565886427611600,7.287611572265625,0.11528992847800254,0.00002404759586788714,-0.00306645663222298
1772565886437640700,7.297640625,0.10227087242901324,0.0015047146076802164,0.0001371799809858203
1772565886447668500,7.30766845703125,0.11543898155987262,0.0008292127991793677,-0.0031035555059090256
1772565886457697500,7.317697509765625,0.11708499520123004,0.0020188792414730415,-0.0017719415759667753
1772565886467725600,7.3277255859375,0.11020224995017051,-0.000812321029882878,0.0038049269746057686
1772565886477754600,7.337754638671875,0.11319675559103488,-0.00411177813380491,-0.008715477103553712
1772565886487782400,7.347782470703125,0.10900631816387175,-0.004927903122548013,-0.003024754648655653
1772565886497811500,7.3578115234375,0.10736088904440402,0.0026224209254607556,-0.006841134599037468
1772565886507839700,7.36783984375,0.1094575690627098,0.0011026685788528992,-0.0035116796490736305
1772565886517868500,7.37786865234375,0.10676175410747528,0.0004594661713344976,-0.00035129765570163723
1772565886527896600,7.387896484375,0.10735855095684528,0.0011025681141531094,-0.005097268340084701
1772565886537925400,7.39792529296875,0.11125088222026824,0.003164085487532429,-0.00511710555171594
1772565886547953700,7.40795361328125,0.10481646525859832,-0.00041177283839788283,-0.0037833909962326287
1772565886557982700,7.417982666015625,0.11080196940898894,-0.0045247108828276395,-0.0015822642227634786
1772565886568010500,7.428010498046875,0.10287292997539042,0.00013255860479548573,-0.00745055346796289
1772565886578039600,7.43803955078125,0.10586802013814449,-0.0018337501992238684,-0.007953260559402407
1772565886588067600,7.448067626953125,0.10542086089253425,-0.003958158474671654,-0.01313601522585377
1772565886598096400,7.458096435546875,0.11155541812479496,-0.004412505512894131,0.0008529453012160956
1772565886608124400,7.46812451171875,0.10063187305033207,0.002868801468540914,-0.0009350340940989554
1772565886618153200,7.4781533203125,0.10886311030089854,0.002011778213828802,0.0047643648575991385
1772565886628181500,7.488181396484375,0.10347615656554698,0.004466952813602983,0.002984404371958226
1772565886638210600,7.49821044921875,0.11260405039489269,-0.00018082275988999752,0.008099628493841738
1772565886648238300,7.50823828125,0.10392448485493659,0.001154293734813109,-0.0035393531072884796
1772565886658267400,7.518267333984375,0.11395137335062026,-0.0007628512983908877,-0.006899641586933285
1772565886668295400,7.52829541015625,0.11709259398579597,-0.0016966387168969959,-0.004867039780784398
1772565886678323500,7.538323486328125,0.11484919897317886,-0.0005302298526046797,-0.00036653175745159387
1772565886688352300,7.548352294921875,0.11245499731302261,-0.0033862266384996472,-0.004256342270225286
1772565886698380500,7.558380615234375,0.10901274790465831,-0.0020104950056178492,-0.003970273604150861
1772565886708409600,7.56840966796875,0.11140636504292488,0.0021371398928575216,-0.00910721636749804
1772565886718437400,7.578437255859375,0.10467091930806637,-0.001772553497320041,-0.008313070315122604
1772565886728466400,7.588466552734375,0.10287351449728012,-0.004155635541840457,-0.0018341931572183965
1772565886738494500,7.598494384765625,0.10526713163554668,-0.00005517338649369776,-0.010421130243968218
1772565886748523500,7.6085234375,0.11424655690491199,0.004273156407708302,-0.0037723398792557416
1772565886758551300,7.61855126953125,0.11439560998678207,0.006878548566554673,-0.004107526650372892
1772565886768580400,7.628580322265625,0.10511632498800753,0.0014865441967500373,-0.008121621129941194
1772565886778608600,7.638608642578125,0.10990531283020973,0.00231309011480771,-0.008662395209446548
1772565886788637400,7.648637451171875,0.11544307321310043,0.005600107862264849,-0.007813395430985838
1772565886798665500,7.65866552734375,0.10362287155985832,-0.0017118043199880048,-0.002600994544941932
1772565886808694300,7.6686943359375,0.10601882678568363,0.004377945656166411,0.0014978008097037672
1772565886818722600,7.67872265625,0.11873743858337402,-0.0004299797819461673,-0.005282397382333874
1772565886828751600,7.688751708984375,0.10841127488017081,-0.008365471789217553,0.0035030396848917005
1772565886838779400,7.698779296875,0.1001771150201559,-0.0029700242201564832,-0.0024490736525505778
1772565886848808400,7.708808349609375,0.10346797325909138,0.0011574401065474376,-0.012367387207224965
1772565886858836500,7.71883642578125,0.109453477409482,-0.002049260680004954,0.003508921436406672
1772565886868865500,7.728865478515625,0.1055628997117281,0.005127467115526087,-0.001989566382020712
1772565886878893300,7.738893310546875,0.10735796643495558,-0.007555274217762052,-0.011560801798384635
1772565886888922400,7.74892236328125,0.10556173066794872,-0.003399857871630229,-0.005288754057884216
1772565886898950400,7.758950439453125,0.10660919389426708,0.002912307250127196,-0.003031841976568103
1772565886908979500,7.7689794921875,0.10735679739117622,0.008279990029428154,-0.007130253738723695
1772565886919007500,7.779007568359375,0.10571195279359817,0.0008342223344370722,0.00027494448386132715
1772565886929035500,7.789035400390625,0.11259586708843708,-0.001192831080337055,-0.007803933482896536
1772565886939064600,7.799064697265625,0.10451485196352005,0.0067610733664594585,-0.00650907136676833
1772565886949092400,7.80909228515625,0.10211831221580504,0.005501666156202554,-0.0021372677570208904
1772565886959121400,7.819121337890625,0.10660627128481864,0.009266845642309635,-0.016426946530025452
1772565886969149400,7.8291494140625,0.10196809009015559,0.00462763240118511,0.0002996953326277435
1772565886979178500,7.839178466796875,0.1054097549766302,-0.0031537650229176506,-0.00538983981218189
1772565886989206500,7.84920654296875,0.11573358059227466,0.005129033451527357,-0.0010828450669534504
1772565886999235300,7.8592353515625,0.11184241837263106,-0.0007648971250047906,-0.0018995500110089779
1772565887009263600,7.869263671875,0.10600479826033114,0.001967646811157465,-0.007701970945764332
1772565887019292400,7.87929248046875,0.10286416214704514,0.0009914358898764476,-0.0021928338691592215
1772565887029320400,7.889320556640625,0.1079547632843256,0.0022030584356514736,-0.003191599115543067
1772565887039349500,7.899349609375,0.11423778907656669,-0.001232532903063111,-0.008399999679904431
1772565887049377500,7.90937744140625,0.107056937661767,-0.010191084347758441,-0.011646196793206035
1772565887059406600,7.919406494140625,0.1016717374920845,0.000696603962033987,0.00041079102428629994
1772565887069434400,7.929434326171875,0.1060112280011177,0.006558180338656529,-0.0003752630531787872
1772565887079463400,7.93946337890625,0.10975158357322215,0.00034298191850539296,0.0011341003301553428
1772565887089491500,7.949491455078125,0.10376666394472121,0.001785107018216513,0.000719327250495553
1772565887099520500,7.9595205078125,0.10421440771222114,0.0006554317014291882,-0.0035621677272953092
1772565887109548500,7.969548583984375,0.1036146882534027,0.0022816355306189504,-0.0040496407169848675
1772565887119577300,7.979577392578125,0.10945055480003356,0.0004134533388307318,-0.0014194200775586067
1772565887129605600,7.989605712890625,0.10645897176861763,-0.0005616433375980705,-0.010334219145495444
1772565887139634400,7.999634521484375,0.10900514912009239,0.00003053670215886086,-0.003768083829246461
1772565887149662500,8.009662353515624,0.10885375795066356,0.0038821797621669245,-0.008023914642818271
1772565887159690500,8.0196904296875,0.10735621286928652,-0.000010306764882989227,-0.004670183768123388
1772565887169719600,8.029719482421875,0.10406477010846138,-0.005380190634424798,-0.0022307547267526387
1772565887179747300,8.039747314453125,0.10646014081239699,0.000661066857771948,0.0014099946620874106
1772565887189776400,8.0497763671875,0.10376783298850059,0.013446958038280717,-0.0002873473077081144
1772565887199804700,8.0598046875,0.11574001033306121,0.0008519041216000914,-0.0061895022898912425
1772565887209833500,8.06983349609375,0.11424480333924293,0.0017264675995800644,-0.013897811644896865
1772565887219861500,8.079861572265624,0.10586392848491669,0.0069937176451319825,0.0005403539543971419
1772565887229890300,8.089890380859375,0.11065233180522918,-0.00009776585262734443,-0.0037934739988297224
1772565887239918600,8.099918701171875,0.09883154563009738,0.00249431930007413,-0.003921283363271504
1772565887249947600,8.10994775390625,0.10122574729025363,-0.005305563628789968,-0.011787304030638187
1772565887259975400,8.119975341796875,0.10825813014507293,-0.003694525402691215,0.001139488891325891
1772565887270004500,8.13000439453125,0.11035247207581997,-0.005780286734760738,-0.009545315523818135
1772565887280032500,8.140032470703124,0.10466741217672824,-0.00173086064690724,-0.003923694516066461
1772565887290061600,8.1500615234375,0.10586685109436511,0.0033621151105500758,-0.008188110494893043
1772565887300089300,8.16008935546875,0.09703940151631832,0.006433215951849706,-0.0027390695750713345
1772565887310118400,8.170118408203125,0.11035597920715808,0.005079691584198735,-0.006250548294745385
1772565887320146700,8.180146728515625,0.11110533626973629,0.005417695933487266,0.0014148352339863777
1772565887330175500,8.190175537109376,0.10167875175476074,0.002381830802350305,0.004306428489647805
1772565887340203500,8.20020361328125,0.11260112778544425,4.886237671598792e-7,-0.0046008083263412115
1772565887350232300,8.210232421875,0.11125555839538574,0.005027157679363153,0.0011354703033342956
1772565887360260600,8.220260498046875,0.10856032796204089,0.00465139686926268,-0.0062577817531302565
1772565887370289700,8.23028955078125,0.0980856956988573,0.003910976598388515,-0.0044254334931261834
1772565887380317400,8.2403173828125,0.11080547654032706,0.00380566219354514,-0.004918313310295343
1772565887390345200,8.25034521484375,0.11589023245871066,0.01043230465853121,-0.009530519813485443
1772565887400374500,8.26037451171875,0.10841069035828113,-0.0040861094030085945,-0.005152158598788082
1772565887410402600,8.270402587890626,0.11574234842061996,-0.00679353716422338,-0.003836198895704001
1772565887420431400,8.280431396484374,0.1087082120001316,-0.0024222130450885743,-0.0025787096478976307
1772565887430459400,8.29045947265625,0.09868307707011699,0.000514087001979351,-0.002259469364583492
1772565887440488400,8.300488525390625,0.10556757588684558,-0.002377972044562921,-0.005016001531109214
1772565887450516500,8.3105166015625,0.1117015485972166,-0.008015836367639712,-0.004810743016283959
1772565887460545500,8.320545654296875,0.11185293976664543,0.006215472414786927,0.00016335560185834765
1772565887470573300,8.3305732421875,0.10856032796204089,0.004637482508341782,-0.0032617417423054574
1772565887480602600,8.3406025390625,0.10721183596253395,0.0014964719357201828,-0.008311444613616914
1772565887490630400,8.35063037109375,0.10526888520121573,0.010831784270936623,-0.0019183825756423174
1772565887500659500,8.360659423828125,0.10108078586161136,0.001768000619788654,-0.0021365188383497295
1772565887510687200,8.370687255859375,0.11499942109882831,0.004173559357598423,-0.015865933380089698
1772565887520716500,8.380716552734375,0.11290215655863284,-0.0030461079639382657,-0.010897935709170997
1772565887530744600,8.39074462890625,0.10317571231424807,-0.0042634524310240516,-0.009902513197343796
1772565887540773400,8.4007734375,0.10152911415100097,0.0017288467863341792,-0.004866930182930082
1772565887550801400,8.410801513671874,0.11439560998678207,0.0020645906798774376,-0.002269333171471953
1772565887560830500,8.42083056640625,0.10945698454082012,0.0020316976238507777,-0.007379150465875863
1772565887570858500,8.4308583984375,0.11364625292420387,0.007503968722210265,-0.003306037541758269
1772565887580887600,8.440887451171875,0.11050210967957973,-0.004759853079263121,-0.004631166931986809
1772565887590915300,8.450915283203125,0.1021247419565916,0.006798697396530769,-0.014217307656537741
1772565887600943600,8.460943603515625,0.09449380868673324,-0.002849936937866732,-0.0031320326817221938
1772565887610972400,8.470972412109376,0.108259883710742,-0.005226548142405227,-0.00586503784218803
1772565887621000400,8.48100048828125,0.10871055008769034,0.004974975400976836,0.00035701501043513417
1772565887631029500,8.491029541015624,0.1040723688930273,-0.0024180665929336097,-0.009128770612180233
1772565887641057500,8.5010576171875,0.109610129275918,0.009654479553294367,-0.0031087796702980995
1772565887651086600,8.511086669921875,0.10213058717548847,0.0018393853555666282,-0.0005532865012064576
1772565887661114400,8.5211142578125,0.09629588967263698,-0.0019892238887259735,-0.004012852370552719
1772565887671143400,8.531143310546875,0.10751637186706066,0.002480802231375128,0.005190207320544868
1772565887681171500,8.54117138671875,0.11469839232563972,0.002566320523782633,-0.009039685822930186
1772565887691200500,8.551200439453124,0.10661971528828143,0.006198457347904331,-0.007011029539536685
1772565887701228300,8.561228271484374,0.10871522626280784,0.0025254907564725725,-0.00403696389850229
1772565887711257300,8.57125732421875,0.1040764605462551,0.005025531977857463,-0.006096417178958654
1772565887721285600,8.58128564453125,0.10841536653339862,0.004946694587985984,0.0011467040834017097
1772565887731314400,8.591314453125,0.1063210246026516,0.003085015202220529,-0.010010996806807816
1772565887741342500,8.601342529296875,0.11455284637510776,-0.00231677077608183,-0.001828640199266374
1772565887751371300,8.611371337890626,0.10572715036273002,-0.00023953524376265704,-0.006287519304268061
1772565887761399600,8.621399658203124,0.1084212117522955,-0.004610996360215358,-0.0030933811717666682
1772565887771428600,8.6314287109375,0.10961831258237362,0.001974473844165914,0.003931841289903968
1772565887781456400,8.641456298828125,0.10587561892271041,-0.0010967320284107698,-0.0011157792221754789
1772565887791485400,8.6514853515625,0.09435469247698783,0.00219889828376472,-0.004204575550369918
1772565887801513500,8.661513427734375,0.10467851809263229,-0.0020640883563784883,-0.004835822658613324
1772565887811541500,8.67154150390625,0.10946516784727572,0.00014320329639595002,0.0001904993371106684
1772565887821570300,8.6815703125,0.10572481227517128,-0.0025391265561804173,-0.00980255995420739
1772565887831598600,8.6915986328125,0.1001858828485012,0.0008937887682579457,-0.0052170770611613985
1772565887841627600,8.701627685546875,0.10721943474709987,0.0038538258839398622,-0.005821618825569749
1772565887851655400,8.711655517578125,0.1036275477349758,0.0051146852657664565,0.00042330344598740335
1772565887861684500,8.7216845703125,0.10766834755837917,0.0015285064752213655,0.0019308949973434208
1772565887871712500,8.73171240234375,0.1100631337404251,0.00877605731752701,-0.0007506539705209433
1772565887881741600,8.741741455078126,0.10198387218117713,0.008871060390910132,-0.002729918154235929
1772565887891769300,8.751769287109376,0.11739537632465362,-0.006133150726463646,0.0004935191379860043
1772565887901798400,8.76179833984375,0.11545008747577666,-0.004104293513670564,0.004430657657515258
1772565887911826700,8.77182666015625,0.11305763938128947,0.004488000168208964,0.0012122253339737652
1772565887921855500,8.78185546875,0.12203531108498572,-0.00011689981136005371,-0.011488522013463079
1772565887931883500,8.791883544921875,0.10721943474709987,0.0034142471565864977,-0.006097823684755713
1772565887941912300,8.801912353515625,0.1096142209291458,-0.003984754220652394,-0.012027834788244218
1772565887951940600,8.811940673828126,0.1063210246026516,0.006359675791603512,-0.00548131748791784
1772565887961969400,8.821969482421874,0.09988368503153323,0.004209964111540466,-0.0006828311650082468
1772565887971997400,8.83199755859375,0.10407412245869636,0.00004899937403388321,-0.0017010134979151188
1772565887982026500,8.842026611328125,0.11051029298603535,-0.0016038184674456715,-0.00009363310020416974
1772565887992054500,8.852054443359375,0.1197878244191408,-0.0015674822121625766,-0.008876220623217523
1772565888002083600,8.86208349609375,0.1097626894891262,-0.0004929894150234759,-0.000713737759925425
1772565888012111400,8.872111328125,0.11215806019306182,-0.0010592175961937754,-0.007608337845560162
1772565888022140400,8.882140380859376,0.09794365687966346,-0.00317328714071773,0.00219424037495628
1772565888032168400,8.89216845703125,0.10078560230731963,0.0014276627495186402,-0.0029613157573156056
1772565888042196500,8.902196533203124,0.10467501096129417,-0.007111987429670989,-0.005123498759884387
1772565888052225500,8.9122255859375,0.10302899731993674,-0.006373617551987991,-0.004738828557543456
1772565888062253600,8.922253662109375,0.10991466518044471,0.0013817138490965588,-0.00308022942924872
1772565888072282600,8.93228271484375,0.1135053831487894,-0.00043815852182451634,-0.0010302015642635525
1772565888082310400,8.942310302734375,0.10886661743223666,-0.00013763207213487476,-0.0075472187754698095
1772565888092339500,8.95233935546875,0.11320727698504925,0.01084357060685288,-0.003610244652722031
1772565888102367500,8.962367431640626,0.10138649080991745,0.001841038456535898,0.00011463935561478137
1772565888112396500,8.972396484375,0.1054272906333208,0.00685174732459709,-0.004200776158086956
1772565888122424600,8.982424560546875,0.11006547182798385,0.0009718270071083679,-0.003382883903943002
1772565888132453400,8.992453369140625,0.10767068564593792,0.0008649782323045655,-0.011154979210160672
1772565888142481700,9.002481689453125,0.10796937633156775,-0.0057901688079582524,-0.004499393778480589
1772565888152510500,9.012510498046876,0.11305880842506885,0.0019744281783932818,0.0009379384372383355
1772565888162538500,9.02253857421875,0.1049783778220415,0.006854487270954996,0.0014107435807585716
1772565888172567600,9.032567626953124,0.10677286002337932,-0.0034018488993169736,-0.006397226756438613
1772565888182595600,9.042595703125,0.10707271975278854,-0.00594655124633573,-0.0038430670279078183
1772565888192624600,9.052624755859375,0.10438041192889214,-0.0031197577220387755,0.004047521825134754
1772565888202652400,9.06265234375,0.1097673656642437,0.008518137033702805,-0.0005883578145876526
1772565888212681500,9.072681396484375,0.10468260974586009,-0.00497477903815452,-0.0034553098193369804
1772565888222709500,9.08270947265625,0.0992974095761776,0.001460911998571828,-0.0008069507350213825
1772565888232738600,9.092738525390626,0.11097031171321868,-0.00025649094514083116,-0.004334996997006237
1772565888242766300,9.102766357421874,0.10678162785172461,0.006832280005724169,-0.006920702641271054
1772565888252794600,9.112794677734374,0.10139350507259369,-0.0001341934394557029,-0.008451346274651586
1772565888262823700,9.12282373046875,0.11336275980770587,-0.005684562142170034,-0.007673219775315374
1772565888272851500,9.1328515625,0.1171042844235897,-0.001842586526228115,-0.0034218276748433705
1772565888282880500,9.142880615234375,0.10677870524227619,0.0025390763238305226,-0.005235288571286946
1772565888292908500,9.152908447265625,0.10468377878963947,0.006708146735979244,-0.00953853872315958
1772565888302937600,9.1629375,0.11336334432959556,0.0015819719618186353,-0.001331869658268988
1772565888312965400,9.17296533203125,0.1067781207203865,-0.0014552677090745418,0.004590871454216539
1772565888322994400,9.182994384765625,0.10034311923682689,0.00127971477934625,-0.004725603749789298
1772565888333022700,9.193022705078125,0.112163320890069,0.003337843752396293,-0.008965031417831778
1772565888343051500,9.203051513671875,0.10393500624895095,-0.0009627349517773836,0.0035554822581820187
1772565888353079600,9.21307958984375,0.1015408045887947,-0.00182555775961373,-0.005138458866998553
1772565888363108400,9.2231083984375,0.1121674125432968,0.0004945511844474822,0.002346453528292477
1772565888373136600,9.23313671875,0.10902385382056236,-0.002789795115310699,-0.001753017679788172
1772565888383165700,9.243165771484374,0.10124152938127517,-0.007167786437249742,0.00426176736401394
1772565888393193500,9.253193359375,0.11336334432959556,0.0038035844008903947,-0.0006789221748709678
1772565888403222500,9.263222412109375,0.10408698194026947,-0.00610683354169596,-0.011896700955554841
1772565888413250600,9.27325048828125,0.0997457378655672,-0.00026924996201414613,-0.010930577603448182
1772565888423279600,9.283279541015625,0.10273615185320377,0.003083252503396943,-0.00035166298188269135
1772565888433307400,9.293307373046876,0.11575520790219307,-0.00321509415556211,-0.005285411323327571
1772565888443336400,9.30333642578125,0.10752689326107501,0.0039453081262530755,-0.0007609013698995113
1772565888453364700,9.31336474609375,0.10393792885839938,-0.0034788002927787598,0.0022148995704948903
1772565888463392500,9.323392578125,0.10363982269465923,0.0018550989479292183,-0.011496887983009218
1772565888473421600,9.333421630859375,0.10558744963109493,-0.001389015806140378,-0.009181450647488236
1772565888483449300,9.343449462890625,0.11636018805801868,0.004227865094412118,-0.004132332298066467
1772565888493478700,9.353478759765625,0.10333937844336032,0.0015516179227503017,-0.0038616803968325253
1772565888503506400,9.36350634765625,0.10363806912899017,-0.0020311131019610912,-0.0037641017738729715
1772565888513535500,9.373535400390624,0.10902502286434174,-0.005577320641721599,0.0016285327835939823
1772565888523563300,9.383563232421874,0.09825169991552829,-0.003921087000449188,-0.0013464644392021
1772565888533592600,9.393592529296875,0.10214110856950283,0.005272935434244573,-0.01021031877119094
1772565888543620600,9.40362060546875,0.11680734730362892,0.0017311072420794515,-0.003845076321903616
1772565888553649400,9.4136494140625,0.10693126545548438,-0.0000437295438721776,0.0019860044517554343
1772565888563677400,9.423677490234375,0.113513566455245,-0.005417654834291898,0.000012567220628261566
1772565888573706500,9.43370654296875,0.11291326247453688,-0.002628412274830043,-0.0023543811064213513
1772565888583734800,9.44373486328125,0.11171557712256908,0.0013322715170681475,-0.004353226773440837
1772565888593763800,9.453763916015625,0.11425766282081604,0.0025997981016989795,0.0016495938379317522
1772565888603791600,9.46379150390625,0.10991875683367251,0.001011017373180948,-0.007325849376060068
1772565888613820700,9.473820556640625,0.10004092141985893,0.003818211147864349,0.00785391010446474
1772565888623849000,9.483848876953125,0.11305822390317916,-0.0006891284750541671,0.003427271034941077
1772565888633877800,9.493877685546876,0.10632394721210002,0.0037695131679298353,-0.002637344499956816
1772565888643905800,9.50390576171875,0.10662497598528861,-0.0038538304505171253,0.0008521415836177766
1772565888653934600,9.5139345703125,0.10662497598528861,-0.004565284921810962,-0.007827478755265474
1772565888663963000,9.523962890625,0.10108663108050822,0.0007200716025894507,-0.005410791268665343
1772565888673990700,9.53399072265625,0.10811901393532752,0.0036846250631846485,0.0045772630539722735
1772565888684019700,9.544019775390625,0.10467559548318385,0.005308723700256086,-0.0021532873100601137
1772565888694048000,9.554048095703125,0.11036182442605495,0.00242398944364395,0.0010910283734090625
1772565888704076800,9.564076904296876,0.10542202993631362,-0.0004500224895542487,-0.0018472170355729757
1772565888714104800,9.574104736328126,0.10527180781066417,0.00012916107131168245,-0.005750288888718933
1772565888724133600,9.584133544921874,0.10018179119527339,0.002558155483636074,0.006187237267568707
1772565888734162000,9.594161865234375,0.11095511414408683,0.006526785119972191,0.0019278079911135137
1772565888744191000,9.60419091796875,0.11798925056457518,0.0012667456999188287,-0.009207151344325393
1772565888754218800,9.61421875,0.10616963343322276,0.002887026678398251,-0.00893217032784596
1772565888764247800,9.624247802734375,0.11589549315571784,0.004559846128290519,-0.00743765745377168
1772565888774275800,9.63427587890625,0.10766425590515136,-0.003388893519621342,-0.0003986621950753033
1772565888784305000,9.644304931640624,0.11050561681091785,0.001724051880207844,0.0024717604083940386
1772565888794332700,9.654332763671874,0.10212532647848128,0.0014219316950533538,0.001402651605848223
1772565888804361700,9.66436181640625,0.10885960316956042,-0.0020401594915194434,0.004266297408659011
1772565888814390000,9.67439013671875,0.09793722713887691,0.003914451763685793,-0.005817454107105732
1772565888824418800,9.684418701171875,0.10826339084208011,0.0035834205778781324,-0.005123425694648176
1772565888834446800,9.69444677734375,0.11006196469664573,-0.0009699181778123602,-0.0058616037760861215
1772565888844475600,9.7044755859375,0.11320669246315955,-0.0035088346714386713,-0.0008488171153701841
1772565888854504000,9.71450390625,0.10303308897316456,0.004975925249047577,-0.001015698114875704
1772565888864532700,9.72453271484375,0.11156418595314026,-0.002255532974982634,0.0019700762302614747
1772565888874560800,9.734560791015625,0.11246318061947821,0.0020801444420358163,0.0006633958121761679
1772565888884588800,9.7445888671875,0.10677695167660713,0.00015311733563430605,-0.00578780788751319
1772565888894617900,9.754617919921875,0.10962065066993236,0.000756156696123071,0.008962839460745454
1772565888904646000,9.76464599609375,0.10213760143816471,-0.0017080460269004105,-0.004531743411812931
1772565888914674700,9.7746748046875,0.10602993270158767,0.0043838913397630675,-0.007754906709399074
1772565888924703000,9.784702880859374,0.10169102671444416,0.0018979562755441293,0.0024119747788645327
1772565888934731800,9.794731689453124,0.11276537843644618,-0.0026672738473396745,0.00403959424700588
1772565888944759800,9.804759765625,0.10318915631771088,0.0009891982670174912,-0.001874890493787825
1772565888954788900,9.814788818359375,0.10453764831721782,0.0025971494868863372,-0.005247179938480257
1772565888964817000,9.82481689453125,0.11935177108943462,-0.00008879252830520271,0.0031094555237330492
1772565888974846000,9.834845947265626,0.10857903266251087,-0.0029765452924882994,0.00001910655926913023
1772565888984873700,9.844873779296876,0.1093313123345375,0.006586045593116432,-0.0015839447231963276
1772565888994902800,9.85490283203125,0.11082768837213515,-0.0004951722389552742,-0.0020224640046246347
1772565889004930800,9.864930908203124,0.11292261482477188,0.006699205377697944,-0.0018705796448513865
1772565889014959900,9.8749599609375,0.09705985978245735,0.0009062463910318911,-0.008046784061752259
1772565889024988000,9.88498779296875,0.11097732597589492,-0.0006455359284998849,-0.008729797889851032
1772565889035016700,9.8950166015625,0.10723755492568016,-0.0036061758323805405,-0.005854425116628408
1772565889045045000,9.905044921875,0.11936053891777991,-0.00045454796762205656,-0.00636615576473996
1772565889055073800,9.91507373046875,0.32431320266425606,0.025354102756036445,-0.03705477881599217
1772565889065101800,9.925101806640624,0.13452011412680148,-0.010198669432592577,0.037347295489162206
1772565889075129900,9.9351298828125,-0.07379413500726223,-0.0054528311789501455,0.03381062752930447
1772565889085159000,9.945158935546875,0.04487199190557003,0.009263863667356782,-0.058787174810376014
1772565889095186700,9.955186767578125,0.0685275927811861,-0.010468997106840834,-0.07972657552985474
1772565889105215700,9.9652158203125,0.12031798577308654,0.015009193253167904,0.04631572444047779
1772565889115244000,9.975244140625,0.11120938116610049,-0.0031736022345488888,0.09191458758218213
1772565889125272800,9.98527294921875,0.10508885245919226,-0.008426549760112539,-0.001315229050721973
1772565889135300900,9.99530078125,0.10914777246117591,0.014039142644614911,-0.08097801862936467
1772565889145329700,10.00532958984375,0.1100590420871973,0.007436666506505571,-0.007764861847832798
1772565889155358000,10.01535791015625,0.15794892050921916,0.0021417932350886984,0.06977993092983961
1772565889165387000,10.025386962890625,0.09271101692318916,0.006181035855645314,0.026330117314495145
