time,seconds_elapsed,z,y,x
1772608921192052500,0.080052490234375,-0.053492769598960876,-0.00006100581958889961,-0.07522713392972946
1772608921202049500,0.090049560546875,-0.059575170278549194,0.07096736133098602,-0.08329039067029953
1772608921212047400,0.10004736328125,-0.07655399292707443,0.10397359728813171,-0.06543949246406555
1772608921222045400,0.11004541015625,-0.07483412325382233,0.06974531710147858,-0.04156399145722389
1772608921232043300,0.120043212890625,-0.05452432483434677,0.005060422699898481,-0.020524146035313606
1772608921242041300,0.130041259765625,-0.02171364799141884,-0.05079485476016998,-0.014962134882807732
1772608921252039400,0.140039306640625,0.01139978040009737,-0.060411784797906876,-0.007784655783325434
1772608921262037200,0.150037353515625,0.03013991191983223,-0.04936259612441063,-0.0037787288893014193
1772608921272035300,0.160035400390625,0.038756776601076126,-0.048242125660181046,0.0059252455830574036
1772608921282033400,0.170033447265625,0.04329799860715866,-0.044321153312921524,0.01600850559771061
1772608921292031200,0.18003125,0.04516765475273132,-0.08035069704055786,0.012181214988231659
1772608921302029300,0.190029296875,0.03893905133008957,-0.12639328837394714,-0.004711749963462353
1772608921312026400,0.2000263671875,0.033004727214574814,-0.1200307309627533,-0.02729056216776371
1772608921322024400,0.2100244140625,0.012382008135318756,-0.0887732058763504,-0.06654874980449677
1772608921332022500,0.2200224609375,-0.0026923371478915215,-0.05763988196849823,-0.10477419942617416
1772608921342020400,0.230020263671875,-0.018522964790463448,-0.04301833361387253,-0.12560677528381348
1772608921352018400,0.240018310546875,-0.04500570148229599,-0.03718201071023941,-0.13397441804409027
1772608921362016500,0.2500166015625,-0.060328200459480286,-0.018691951408982277,-0.1299101710319519
1772608921372014300,0.260014404296875,-0.07329502701759338,0.00816425122320652,-0.13078929483890533
1772608921382012400,0.270012451171875,-0.07091149687767029,-0.008032561279833317,-0.13972686231136322
1772608921392010500,0.280010498046875,-0.05872200056910515,-0.045884422957897186,-0.12641562521457672
1772608921402008300,0.29000830078125,-0.06887955963611603,-0.05450880527496338,-0.08842988312244415
1772608921412005400,0.30000537109375,-0.0897194892168045,-0.06962783634662628,-0.03580377995967865
1772608921422003200,0.310003173828125,-0.08619692921638489,-0.0324019119143486,0.01588737592101097
1772608921432001300,0.320001220703125,-0.07037796080112457,-0.005679037421941757,0.045174792408943176
1772608921441999400,0.329999267578125,-0.053541190922260284,-0.030219534412026405,0.051789019256830215
1772608921451997200,0.3399970703125,-0.03866477310657501,-0.08071732521057129,0.04557160288095474
1772608921461995300,0.349995361328125,-0.035557664930820465,-0.12789656221866608,0.030984938144683838
1772608921471993300,0.359993408203125,-0.03881354629993439,-0.1433902233839035,0.002226560842245817
1772608921481991200,0.3699912109375,-0.044865310192108154,-0.12713082134723663,-0.045665863901376724
1772608921491989200,0.3799892578125,-0.038384873420000076,-0.11656488478183746,-0.08436734229326248
1772608921501987600,0.389987548828125,-0.03360955789685249,-0.11556966602802277,-0.09888476878404617
1772608921511985400,0.3999853515625,-0.03392930328845978,-0.10105279088020325,-0.08715091645717621
1772608921521982500,0.409982421875,-0.06187012046575546,-0.0846562385559082,-0.0644296258687973
1772608921531980300,0.419980224609375,-0.09197714924812317,-0.05837997421622276,-0.028095973655581474
1772608921541978400,0.429978271484375,-0.11638635396957397,-0.011665202677249908,0.016169492155313492
1772608921551976400,0.4399765625,-0.1376822292804718,0.017408430576324463,0.05753807723522186
1772608921561974300,0.449974365234375,-0.15071706473827362,0.04452367126941681,0.09589292109012604
1772608921571972400,0.459972412109375,-0.16767799854278564,0.0005774293094873428,0.10790747404098511
1772608921581970200,0.46997021484375,-0.16260839998722076,-0.0436566099524498,0.10635059326887131
1772608921591968300,0.47996826171875,-0.15000498294830322,-0.05041748657822609,0.1080833226442337
1772608921601966000,0.489966064453125,-0.14252708852291107,-0.026803769171237946,0.11603525280952454
1772608921611964200,0.499964111328125,-0.1440781205892563,-0.017438039183616638,0.12944968044757843
1772608921621962200,0.509962158203125,-0.14582276344299316,-0.0147975143045187,0.13460956513881683
1772608921631959300,0.519959228515625,-0.15613457560539246,-0.009919418022036552,0.14456886053085327
1772608921641957400,0.529957275390625,-0.1725178062915802,-0.008967071771621704,0.1484094113111496
1772608921651955500,0.53995556640625,-0.1978466510772705,0.00457395613193512,0.14548145234584808
1772608921661953300,0.549953369140625,-0.23192445933818817,0.04765778034925461,0.12019660323858261
1772608921671951400,0.559951416015625,-0.2662701904773712,0.06619000434875488,0.10360544919967651
1772608921681949200,0.56994921875,-0.2906636595726013,0.0604863166809082,0.1295987069606781
1772608921691947300,0.579947265625,-0.2865234911441803,0.02954242192208767,0.20794372260570526
1772608921701945300,0.5899453125,-0.255426287651062,-0.027353618294000626,0.32382798194885254
1772608921711943200,0.599943115234375,-0.19309765100479126,-0.0843329206109047,0.45669662952423096
1772608921721941200,0.609941162109375,-0.11362199485301971,-0.08950824290513992,0.612479031085968
1772608921731939300,0.619939208984375,-0.034507472068071365,-0.04831455647945404,0.7774066925048828
1772608921741936000,0.62993603515625,0.024823497980833054,0.019224269315600395,0.926835298538208
1772608921751934200,0.639934326171875,0.050517819821834564,0.060398947447538376,1.04206120967865
1772608921761932000,0.64993212890625,0.04525674507021904,0.07343805581331253,1.1136094331741333
1772608921771930000,0.65993017578125,0.009623452089726925,0.08695094287395477,1.12660551071167
1772608921781928200,0.66992822265625,-0.02749248966574669,0.07476325333118439,1.044873595237732
1772608921791926300,0.67992626953125,-0.04626314714550972,0.031268589198589325,0.8680741190910339
1772608921801924400,0.68992431640625,-0.052733298391103745,-0.05500611290335655,0.6262114644050598
1772608921811922400,0.69992236328125,-0.05290411040186882,-0.1907799243927002,0.3661665916442871
1772608921821920300,0.709920166015625,-0.022084679454565048,-0.31515514850616455,0.13173601031303406
1772608921831918300,0.71991845703125,0.043348707258701324,-0.40309014916419983,-0.05801886320114136
1772608921841916400,0.72991650390625,0.12929503619670868,-0.48634642362594604,-0.12290678173303604
1772608921851913200,0.739913330078125,0.2062247097492218,-0.5006306171417236,-0.03587400168180466
1772608921861911300,0.749911376953125,0.24820439517498016,-0.4293316900730133,0.19532567262649536
1772608921871909000,0.7599091796875,0.22692562639713287,-0.3845911920070648,0.49173471331596375
1772608921881907200,0.7699072265625,0.15752844512462616,-0.3974052667617798,0.7571567893028259
1772608921891905300,0.7799052734375,0.07208932936191559,-0.4112684428691864,0.9097439646720886
1772608921901903000,0.789903076171875,0.004644779022783041,-0.43656501173973083,0.8928176760673523
1772608921911901200,0.799901123046875,-0.042347922921180725,-0.49149447679519653,0.716133713722229
1772608921921899300,0.809899169921875,-0.07040832191705704,-0.5154810547828674,0.4521351158618927
1772608921931897000,0.81989697265625,-0.05479090288281441,-0.4245915412902832,0.13167798519134521
1772608921941895200,0.829895263671875,-0.03327043354511261,-0.24885591864585876,-0.20159931480884552
1772608921951893200,0.839893310546875,-0.02710825949907303,-0.03439750894904137,-0.4837840497493744
1772608921961890300,0.849890380859375,-0.05171719938516617,0.11401353031396866,-0.6760499477386475
1772608921971888400,0.859888427734375,-0.11023658514022827,0.1337117999792099,-0.7388389706611633
1772608921981886200,0.86988623046875,-0.18932315707206726,0.09617800265550613,-0.675571084022522
1772608921991884300,0.87988427734375,-0.2721138596534729,-0.0054977647960186005,-0.5445556044578552
1772608922001882400,0.88988232421875,-0.33249491453170776,-0.14869140088558197,-0.41484153270721436
1772608922011880200,0.899880126953125,-0.3587125241756439,-0.24516788125038147,-0.3512251377105713
1772608922021878300,0.909878173828125,-0.38498032093048096,-0.2747449576854706,-0.38918155431747437
1772608922031876400,0.91987646484375,-0.45499587059020996,-0.2393333464860916,-0.5208085179328918
1772608922041874200,0.929874267578125,-0.5704423189163208,-0.13868077099323273,-0.687345564365387
1772608922051872300,0.939872314453125,-0.6760690212249756,0.041378043591976166,-0.8067114353179932
1772608922061870300,0.949870361328125,-0.7459884285926819,0.23197010159492493,-0.8509039282798767
1772608922071867100,0.9598671875,-0.7603275179862976,0.3358575999736786,-0.7971899509429932
1772608922081865200,0.969865234375,-0.7241665720939636,0.35818687081336975,-0.6314572095870972
1772608922091863000,0.979863037109375,-0.6436898708343506,0.35235002636909485,-0.3854236900806427
1772608922101861000,0.989861083984375,-0.535601794719696,0.3133344352245331,-0.1369052231311798
1772608922111859200,0.999859130859375,-0.4239175021648407,0.2718738317489624,0.06107300892472267
1772608922121857300,1.009857177734375,-0.30636876821517944,0.26011356711387634,0.17656737565994263
1772608922131855400,1.01985546875,-0.19189096987247467,0.2586624324321747,0.2328519970178604
1772608922141853400,1.029853515625,-0.10859953612089157,0.2617087960243225,0.25279533863067627
1772608922151851300,1.039851318359375,-0.04737161844968796,0.2154243141412735,0.22096015512943268
1772608922161849300,1.049849365234375,0.034529902040958405,0.16875268518924713,0.11832378804683685
1772608922171847400,1.059847412109375,0.13932247459888458,0.1738893985748291,-0.01321550365537405
1772608922181845200,1.06984521484375,0.24537675082683563,0.19759872555732727,-0.11739517003297806
1772608922191842300,1.07984228515625,0.33096200227737427,0.18821649253368378,-0.15135492384433746
1772608922201840000,1.089840087890625,0.3858952820301056,0.165876567363739,-0.10565134882926941
1772608922211838200,1.099838134765625,0.4009906053543091,0.12298261374235153,0.01456400752067566
1772608922221836300,1.109836181640625,0.38295578956604004,0.05848991870880127,0.1793525665998459
1772608922231834000,1.119834228515625,0.3451145589351654,0.016753025352954865,0.38064420223236084
1772608922241832200,1.129832275390625,0.2950247824192047,0.023919325321912766,0.5705640316009521
1772608922251830300,1.139830322265625,0.25797584652900696,0.05418580397963524,0.7050238251686096
1772608922261828000,1.149828125,0.2563140392303467,0.09770318865776062,0.8007979989051819
1772608922271826200,1.159826171875,0.27125340700149536,0.15148819983005524,0.8616286516189575
1772608922281824300,1.16982421875,0.2768963575363159,0.1860312670469284,0.8928219676017761
1772608922291821300,1.1798212890625,0.2707999050617218,0.1904488354921341,0.8887367844581604
1772608922301819400,1.1898193359375,0.25463053584098816,0.166154682636261,0.882041871547699
1772608922311817200,1.199817138671875,0.24519841372966766,0.1416066437959671,0.88648921251297
1772608922321815300,1.209815185546875,0.26041093468666077,0.13680097460746765,0.8879270553588867
1772608922331813400,1.2198134765625,0.2816365957260132,0.10105841606855392,0.8808502554893494
1772608922341811200,1.229811279296875,0.2704297602176666,0.07910650968551636,0.896568238735199
1772608922351809300,1.239809326171875,0.23107020556926727,0.14518842101097107,0.9106491208076477
1772608922361807400,1.249807373046875,0.15553443133831024,0.27763378620147705,0.8923236727714539
1772608922371805200,1.25980517578125,0.06190705671906471,0.39341047406196594,0.7980008125305176
1772608922381803300,1.26980322265625,-0.01444497425109148,0.4019131362438202,0.5943281650543213
1772608922391801300,1.27980126953125,-0.04995140805840492,0.30297207832336426,0.3200814425945282
1772608922401798100,1.289798095703125,-0.001111963763833046,0.07934939116239548,0.017919987440109253
1772608922411796200,1.299796142578125,0.13849158585071564,-0.17443138360977173,-0.2304835021495819
1772608922421794300,1.309794189453125,0.2842048406600952,-0.2260088324546814,-0.4004350006580353
1772608922431792400,1.31979248046875,0.3658026456832886,-0.13453155755996704,-0.4831863343715668
1772608922441790500,1.32979052734375,0.3215782046318054,-0.07175366580486298,-0.465800940990448
1772608922451788300,1.339788330078125,0.14906683564186096,-0.10469642281532288,-0.3217577636241913
1772608922461786400,1.349786376953125,-0.08255814015865326,-0.2221471667289734,-0.16184985637664795
1772608922471784400,1.359784423828125,-0.27820661664009094,-0.41060230135917664,-0.10474719107151031
1772608922481782300,1.3697822265625,-0.3998377323150635,-0.5696297883987427,-0.1846870332956314
1772608922491780400,1.3797802734375,-0.49334946274757385,-0.6020330190658569,-0.37594324350357056
1772608922501778400,1.3897783203125,-0.588108479976654,-0.4469478726387024,-0.567574143409729
1772608922511776300,1.3997763671875,-0.6664994359016418,-0.11956202238798141,-0.7036851048469543
1772608922521773300,1.409773193359375,-0.678528904914856,0.2720949649810791,-0.7758083343505859
1772608922531771100,1.419771240234375,-0.660494327545166,0.5662561655044556,-0.7388964295387268
1772608922541769200,1.429769287109375,-0.6121307611465454,0.665134847164154,-0.613948404788971
1772608922551767300,1.439767333984375,-0.5313810706138611,0.6014359593391418,-0.4360693097114563
1772608922561765000,1.44976513671875,-0.4143814742565155,0.36285078525543213,-0.23486773669719696
1772608922571762700,1.4597626953125,-0.2801220715045929,0.014174834825098515,-0.05095396563410759
1772608922581760800,1.4697607421875,-0.16569989919662476,-0.287405788898468,0.07519438862800598
1772608922591758800,1.4797587890625,-0.11113050580024719,-0.46768271923065186,0.11134126782417297
1772608922601757000,1.4897568359375,-0.10436447709798813,-0.5647075176239014,0.057073500007390976
1772608922611755000,1.499755126953125,-0.12025241553783417,-0.6228460073471069,-0.042710162699222565
1772608922621751800,1.509751708984375,-0.1032223030924797,-0.5913383960723877,-0.1619739830493927
1772608922631750000,1.51975,-0.05944174528121948,-0.49483078718185425,-0.29358556866645813
1772608922641747700,1.529747802734375,0.007276568561792374,-0.377095103263855,-0.3869136571884155
1772608922651745800,1.539745849609375,0.06851260364055634,-0.2772226333618164,-0.38992029428482056
1772608922661743900,1.549743896484375,0.10568340867757797,-0.23098699748516083,-0.3080294132232666
1772608922671741700,1.55974169921875,0.12741303443908691,-0.2329517900943756,-0.17455069720745087
1772608922681739800,1.56973974609375,0.1356579214334488,-0.23242102563381195,-0.03324417397379875
1772608922691737900,1.57973779296875,0.11647261679172516,-0.23121203482151031,0.05899020656943321
1772608922701735700,1.589735595703125,0.05348672717809677,-0.22931933403015137,0.11633817851543427
1772608922711733800,1.599733642578125,-0.05026300251483917,-0.20432288944721222,0.14506828784942627
1772608922721731800,1.60973193359375,-0.17979437112808228,-0.14931689202785492,0.14092600345611572
1772608922731729000,1.61972900390625,-0.3074917495250702,-0.05499465391039848,0.08278638869524002
1772608922741727000,1.62972705078125,-0.3956245481967926,0.10623951256275177,-0.035530127584934235
1772608922751724800,1.639724853515625,-0.42712879180908203,0.3089127242565155,-0.1847330629825592
1772608922761723000,1.649722900390625,-0.39689764380455017,0.5199000835418701,-0.2937372922897339
1772608922771721000,1.659720947265625,-0.30455195903778076,0.6577854752540588,-0.3260026276111603
1772608922781718800,1.66971875,-0.17753355205059052,0.647321879863739,-0.26180127263069153
1772608922791716900,1.679716796875,-0.04135611653327942,0.5284848213195801,-0.08804656565189362
1772608922801715000,1.68971484375,0.08203372359275818,0.37712088227272034,0.16383947432041168
1772608922811712800,1.699712646484375,0.17692002654075623,0.24177202582359314,0.4483988881111145
1772608922821710800,1.7097109375,0.23249781131744385,0.09374634921550751,0.7173233032226562
1772608922831709000,1.719708984375,0.24511000514030457,-0.045967258512973785,0.9420657753944397
1772608922841705700,1.729705810546875,0.2229064255952835,-0.11310528218746185,1.111048698425293
1772608922851703800,1.739703857421875,0.18453221023082733,-0.09851541370153427,1.176562786102295
1772608922861701600,1.74970166015625,0.14456747472286224,-0.0471225269138813,1.1341439485549927
1772608922871699700,1.75969970703125,0.11072253435850143,0.03638577461242676,1.0162471532821655
1772608922881697800,1.76969775390625,0.10748253762722015,0.10705142468214035,0.8753650784492493
1772608922891695600,1.779695556640625,0.14772199094295502,0.12852784991264343,0.7378278374671936
1772608922901693700,1.789693603515625,0.2274671494960785,0.08184690773487091,0.6079201698303223
1772608922911692000,1.799692138671875,0.3060242235660553,0.04264260455965996,0.5071918368339539
1772608922921689900,1.80968994140625,0.3269343078136444,0.07125267386436462,0.43865135312080383
1772608922931688000,1.81968798828125,0.29798781871795654,0.13429954648017883,0.394497811794281
1772608922941685800,1.829685791015625,0.21910551190376282,0.20352548360824585,0.38896644115448
1772608922951682800,1.839682861328125,0.07451359927654266,0.2887701690196991,0.4169953465461731
1772608922961681000,1.849680908203125,-0.0938493087887764,0.33554646372795105,0.41809549927711487
1772608922971678700,1.8596787109375,-0.17156748473644257,0.29446667432785034,0.3182487189769745
1772608922981676800,1.8696767578125,-0.12912654876708984,0.15062321722507477,0.10688506811857224
1772608922991675000,1.8796748046875,-0.005926159210503101,-0.03414085879921913,-0.18744134902954102
1772608923001672700,1.889672607421875,0.12456393986940384,-0.21490903198719025,-0.4611876606941223
1772608923011670800,1.8996708984375,0.2138124704360962,-0.30706390738487244,-0.6180771589279175
1772608923021668900,1.9096689453125,0.23162023723125458,-0.37476253509521484,-0.6747154593467712
1772608923031666700,1.919666748046875,0.19608072936534882,-0.4687689244747162,-0.7133809328079224
1772608923041664800,1.929664794921875,0.09191970527172089,-0.45696526765823364,-0.7594214081764221
1772608923051662600,1.93966259765625,-0.140176922082901,-0.41456401348114014,-0.844601035118103
1772608923061660000,1.949659912109375,-0.4445924758911133,-0.3575827479362488,-0.9020478129386902
1772608923071658000,1.959657958984375,-0.7177286744117737,-0.2314356565475464,-0.8869443535804749
1772608923081655800,1.96965576171875,-0.8750773072242737,-0.05236336216330528,-0.7493878602981567
1772608923091654000,1.97965380859375,-0.8905755877494812,0.2173486351966858,-0.49360543489456177
1772608923101652000,1.98965185546875,-0.7649409770965576,0.5256209373474121,-0.18158577382564545
1772608923111649800,1.99964990234375,-0.5643673539161682,0.7143276929855347,0.1103479266166687
1772608923121647900,2.00964794921875,-0.3163101375102997,0.6878036856651306,0.33523988723754883
1772608923131645700,2.019645751953125,-0.08036326617002487,0.43063879013061523,0.4851257801055908
1772608923141643800,2.029643798828125,0.11893758177757263,0.08607050031423569,0.5589051842689514
1772608923151641900,2.039641845703125,0.23643961548805237,-0.22987397015094757,0.5451284050941467
1772608923161639700,2.0496396484375,0.2538241744041443,-0.4697518050670624,0.4442918002605438
1772608923171636700,2.05963671875,0.18723489344120026,-0.5772638916969299,0.28347909450531006
1772608923181634800,2.069634765625,0.07459941506385803,-0.5889765024185181,0.05997329205274582
1772608923191632600,2.079632568359375,-0.04646848142147064,-0.5403398871421814,-0.20218993723392487
1772608923201630700,2.089630615234375,-0.14810536801815033,-0.4350443482398987,-0.5034775733947754
1772608923211628800,2.09962890625,-0.23317481577396393,-0.31566229462623596,-0.8100765943527222
1772608923221627000,2.109626953125,-0.29164984822273254,-0.18504542112350464,-1.094298243522644
1772608923231625000,2.119625,-0.3190189003944397,-0.07220746576786041,-1.3111300468444824
1772608923241622800,2.129622802734375,-0.3220226764678955,-0.0005889395251870155,-1.4445037841796875
1772608923251620900,2.139620849609375,-0.2971971035003662,0.05038289353251457,-1.465474247932434
1772608923261619000,2.149618896484375,-0.23014749586582184,0.05175841599702835,-1.368657112121582
1772608923271616800,2.15961669921875,-0.11419692635536194,-0.02901436761021614,-1.1743639707565308
1772608923281613800,2.16961376953125,0.03742029890418053,-0.20908932387828827,-0.9239897727966309
1772608923291612000,2.17961181640625,0.20317694544792175,-0.410632461309433,-0.6601797938346863
1772608923301609700,2.189609619140625,0.3403944671154022,-0.5388769507408142,-0.4106893241405487
1772608923311607800,2.19960791015625,0.42083048820495605,-0.5631621479988098,-0.1866278201341629
1772608923321605600,2.209605712890625,0.43703076243400574,-0.4975416362285614,0.004540531896054745
1772608923331603700,2.219603759765625,0.4248419404029846,-0.3724850118160248,0.14876003563404083
1772608923341601800,2.229601806640625,0.3787730038166046,-0.2159784883260727,0.24138158559799194
1772608923351599600,2.239599609375,0.31428298354148865,-0.038053929805755615,0.3047299087047577
1772608923361597700,2.24959765625,0.24505679309368134,0.14691510796546936,0.3548372685909271
1772608923371595800,2.259595703125,0.187213733792305,0.3068346679210663,0.3932860791683197
1772608923381593600,2.269593505859375,0.1428430676460266,0.4097711443901062,0.4140203893184662
1772608923391591000,2.2795908203125,0.11012385785579681,0.43543657660484314,0.4224525988101959
1772608923401588700,2.289588623046875,0.10730250179767609,0.42037051916122437,0.4217034578323364
1772608923411586800,2.2995869140625,0.12038890272378922,0.3853504955768585,0.41288214921951294
1772608923421585000,2.3095849609375,0.137674942612648,0.2989162802696228,0.4031754732131958
1772608923431582700,2.319582763671875,0.1558297574520111,0.15751191973686218,0.3938114047050476
1772608923441580800,2.329580810546875,0.17153574526309967,0.0038153002969920635,0.39148274064064026
1772608923451579000,2.339578857421875,0.1836981624364853,-0.07725238054990768,0.40054887533187866
1772608923461576700,2.34957666015625,0.1989348977804184,-0.03661147505044937,0.4255519509315491
1772608923471574800,2.35957470703125,0.2152089774608612,0.10755199939012527,0.465902715921402
1772608923481572900,2.36957275390625,0.2405814528465271,0.2859715521335602,0.5292395949363708
1772608923491570700,2.37957080078125,0.26859062910079956,0.39776191115379333,0.6208198666572571
1772608923501567700,2.389567626953125,0.26781246066093445,0.38886457681655884,0.7145034670829773
1772608923511565600,2.399565673828125,0.2317899763584137,0.27506881952285767,0.8138152360916138
1772608923521563600,2.409563720703125,0.18281178176403046,0.14955003559589386,0.8787992596626282
1772608923531561700,2.419561767578125,0.14827820658683777,0.08974627405405045,0.8305119276046753
1772608923541559800,2.429559814453125,0.16608570516109467,0.05372754856944084,0.6272181868553162
1772608923551558000,2.439557861328125,0.2774631977081299,0.012918093241751194,0.3005087375640869
1772608923561556000,2.449555908203125,0.45370185375213623,-0.07082607597112656,-0.0733594000339508
1772608923571554000,2.459553955078125,0.6389368772506714,-0.17314457893371582,-0.4034375846385956
1772608923581551900,2.4695517578125,0.7463427186012268,-0.28394725918769836,-0.6102807521820068
1772608923591550000,2.479550048828125,0.7045201063156128,-0.4216683804988861,-0.6534219980239868
1772608923601548000,2.489548095703125,0.48446419835090637,-0.5466334819793701,-0.5716802477836609
1772608923611544800,2.499544921875,0.17507459223270416,-0.5467041730880737,-0.4569317102432251
1772608923621543000,2.50954296875,-0.1386905312538147,-0.4621453881263733,-0.36798399686813354
1772608923631540700,2.519540771484375,-0.4274234175682068,-0.40302401781082153,-0.36579760909080505
1772608923641538800,2.529538818359375,-0.6315150260925293,-0.353195458650589,-0.41451722383499146
1772608923651537000,2.539536865234375,-0.7401732206344604,-0.17982935905456543,-0.4715127944946289
1772608923661534700,2.54953466796875,-0.7727202773094177,0.08503185957670212,-0.5429214835166931
1772608923671532800,2.55953271484375,-0.7404227256774902,0.32991233468055725,-0.6085347533226013
1772608923681531000,2.56953076171875,-0.6614527702331543,0.4997541010379791,-0.6393701434135437
1772608923691528700,2.57952880859375,-0.550121545791626,0.5609264373779297,-0.6479845643043518
1772608923701526800,2.58952685546875,-0.4482213258743286,0.5306987762451172,-0.6539412140846252
1772608923711524900,2.59952490234375,-0.3629920482635498,0.3412781059741974,-0.6542421579360962
1772608923721522000,2.60952197265625,-0.2837563455104828,0.11827246099710464,-0.6035653948783875
1772608923731520000,2.61952001953125,-0.2336234599351883,-0.09731584787368774,-0.5035083293914795
1772608923741517800,2.629517822265625,-0.23517687618732452,-0.2603018283843994,-0.3883631229400635
1772608923751516000,2.639515869140625,-0.2844875156879425,-0.3175477385520935,-0.2986098825931549
1772608923761514000,2.649513916015625,-0.3713129460811615,-0.1998181790113449,-0.24326568841934204
1772608923771511800,2.65951171875,-0.4650048017501831,0.013775957748293877,-0.22548207640647888
1772608923781510000,2.669510009765625,-0.5456067323684692,0.18184512853622437,-0.22418883442878723
1772608923791508000,2.679508056640625,-0.5909757018089294,0.23512424528598785,-0.20580120384693146
1772608923801505800,2.689505859375,-0.5954010486602783,0.1861332654953003,-0.17245283722877502
1772608923811503900,2.69950390625,-0.5550868511199951,0.10487758368253708,-0.16413985192775726
1772608923821502000,2.709501953125,-0.4783869981765747,0.08248412609100342,-0.16838333010673523
1772608923831498800,2.719498779296875,-0.3884420096874237,0.10463424772024155,-0.16702204942703247
1772608923841496800,2.729496826171875,-0.2660207450389862,0.10167600959539413,-0.1511528044939041
1772608923851495000,2.739494873046875,-0.12565553188323975,0.01675657369196415,-0.12186641991138458
1772608923861493000,2.749492919921875,0.020246006548404694,-0.08671389520168304,-0.07637803256511688
1772608923871491000,2.759490966796875,0.162968710064888,-0.15428316593170166,-0.029358044266700745
1772608923881489000,2.769489013671875,0.27257880568504333,-0.1706829071044922,0.02790231443941593
1772608923891487000,2.779487060546875,0.34045061469078064,-0.15985576808452606,0.10534461587667465
1772608923901485000,2.789485107421875,0.35173627734184265,-0.10849698632955551,0.18868158757686615
1772608923911483000,2.79948291015625,0.3185383975505829,-0.017400961369276047,0.26372939348220825
1772608923921481000,2.80948095703125,0.2581687867641449,0.1124798059463501,0.32484039664268494
1772608923931479000,2.81947900390625,0.17927469313144684,0.24895542860031128,0.38468819856643677
1772608923941475800,2.829475830078125,0.0900593250989914,0.35027459263801575,0.4407504200935364
1772608923951474000,2.839473876953125,0.02131553366780281,0.41443657875061035,0.47722259163856506
1772608923961471700,2.8494716796875,-0.0017892532050609589,0.44990214705467224,0.4755317270755768
1772608923971469800,2.8594697265625,0.02459670417010784,0.46667221188545227,0.45339682698249817
1772608923981468000,2.869468017578125,0.09474995732307434,0.4589828550815582,0.4389185309410095
1772608923991465700,2.8794658203125,0.20017391443252563,0.41440579295158386,0.44082269072532654
1772608924001463800,2.8894638671875,0.3215634524822235,0.3188241422176361,0.45519015192985535
1772608924011462000,2.8994619140625,0.4392683207988739,0.17164485156536102,0.47807493805885315
1772608924021459700,2.909459716796875,0.5372710227966309,0.022434864193201065,0.5216149091720581
1772608924031457800,2.919457763671875,0.5988256931304932,-0.10670457035303116,0.5790177583694458
1772608924041455900,2.929455810546875,0.6078236699104309,-0.2121170163154602,0.6514744162559509
1772608924051453000,2.939452880859375,0.5591669082641602,-0.22293999791145325,0.7461856603622437
1772608924061451000,2.949450927734375,0.4705747067928314,-0.16188488900661469,0.8319282531738281
1772608924071448800,2.95944873046875,0.38162311911582947,-0.08327335864305496,0.8995311856269836
1772608924081447000,2.969447021484375,0.300254762172699,0.004190980922430754,0.9305122494697571
1772608924091445000,2.979445068359375,0.19934669137001038,0.10206329077482224,0.9179447293281555
1772608924101442800,2.98944287109375,0.08003627508878708,0.21436771750450134,0.8525481820106506
1772608924111441000,2.99944091796875,-0.029584363102912903,0.32424941658973694,0.7088121175765991
1772608924121439000,3.00943896484375,-0.10770339518785477,0.3886619508266449,0.48870474100112915
1772608924131436800,3.019436767578125,-0.10799212753772736,0.47446128726005554,0.20025649666786194
1772608924141435000,3.029434814453125,0.0021373112685978413,0.5442779064178467,-0.18476282060146332
1772608924151433000,3.039432861328125,0.19906431436538696,0.44629186391830444,-0.5975955724716187
1772608924161429800,3.0494296875,0.3827073872089386,0.2034400999546051,-0.9129055738449097
1772608924171427800,3.059427734375,0.4512767791748047,-0.07961923629045486,-1.0087281465530396
1772608924181426000,3.069426025390625,0.39999306201934814,-0.35645243525505066,-0.8581317067146301
1772608924191424000,3.079424072265625,0.25151968002319336,-0.5350289344787598,-0.5160231590270996
1772608924201422000,3.089422119140625,0.034874726086854935,-0.5763587951660156,-0.07428646832704544
1772608924211420000,3.099419921875,-0.2119697481393814,-0.5528686046600342,0.34097179770469666
1772608924221418000,3.10941796875,-0.4188547730445862,-0.5258687138557434,0.5419275760650635
1772608924231416000,3.119416015625,-0.5440030097961426,-0.5103328824043274,0.40769320726394653
1772608924241414000,3.129413818359375,-0.5270376205444336,-0.403581440448761,0.000808552373200655
1772608924251412000,3.139411865234375,-0.4129771888256073,-0.1280829906463623,-0.43830880522727966
1772608924261409800,3.149409912109375,-0.3375425934791565,0.15821029245853424,-0.7242691516876221
1772608924271406800,3.15940673828125,-0.3438788950443268,0.34025970101356506,-0.7964947819709778
1772608924281405000,3.169405029296875,-0.37141600251197815,0.34796181321144104,-0.6907625198364258
1772608924291402800,3.17940283203125,-0.37769755721092224,0.20659753680229187,-0.4486905038356781
1772608924301400800,3.18940087890625,-0.3767465353012085,0.09583534300327301,-0.15240877866744995
1772608924311399000,3.19939892578125,-0.37391453981399536,-0.013870853930711746,0.08724116533994675
1772608924321396700,3.209396728515625,-0.3449590504169464,-0.11368560045957565,0.20757156610488892
1772608924331394800,3.219394775390625,-0.3167749345302582,-0.11720557510852814,0.21684955060482025
1772608924341393000,3.229392822265625,-0.3146236538887024,-0.05146225541830063,0.15972980856895447
1772608924351390700,3.239390625,-0.3378700017929077,0.013335304334759712,0.06517833471298218
1772608924361388800,3.249388916015625,-0.38601967692375183,0.008736822754144669,-0.04614952579140663
1772608924371387000,3.259386962890625,-0.40249186754226685,-0.09798417240381241,-0.12632471323013306
1772608924381384000,3.269384033203125,-0.3376566767692566,-0.256412148475647,-0.18194536864757538
1772608924391382000,3.279382080078125,-0.21443822979927063,-0.3823424279689789,-0.23973232507705688
1772608924401379800,3.2893798828125,-0.07290374487638474,-0.4185984432697296,-0.3158111274242401
1772608924411378000,3.2993779296875,0.05916278064250946,-0.39363813400268555,-0.4282878637313843
1772608924421376000,3.3093759765625,0.1818234622478485,-0.3892076909542084,-0.5333184599876404
1772608924431373800,3.319373779296875,0.2652914226055145,-0.41976678371429443,-0.5824711322784424
1772608924441372000,3.329371826171875,0.29176804423332214,-0.42211222648620605,-0.5612915754318237
1772608924451369700,3.33936962890625,0.2381342202425003,-0.3901287317276001,-0.5253261923789978
1772608924461367800,3.349367919921875,0.12410484254360199,-0.3329178988933563,-0.5072135329246521
1772608924471366000,3.359365966796875,0.004382445476949215,-0.21446633338928223,-0.5117584466934204
1772608924481363700,3.36936376953125,-0.10443325340747833,-0.009056458249688148,-0.5049383044242859
1772608924491361000,3.379361083984375,-0.177646666765213,0.22740501165390015,-0.47053098678588867
1772608924501359000,3.389359130859375,-0.19472098350524902,0.4282456934452057,-0.3809505105018616
1772608924511357000,3.39935693359375,-0.13879960775375366,0.5327693223953247,-0.2319936752319336
1772608924521355000,3.40935498046875,-0.017972256988286972,0.5558741092681885,-0.04638546705245972
1772608924531353000,3.41935302734375,0.12245155870914459,0.5300456285476685,0.14045292139053345
1772608924541351000,3.429350830078125,0.2548607289791107,0.4795212149620056,0.2920890748500824
1772608924551349000,3.439348876953125,0.3605208992958069,0.42269015312194824,0.3934323489665985
1772608924561346800,3.449346923828125,0.43666762113571167,0.3881974220275879,0.47132608294487
1772608924571345200,3.45934521484375,0.4694252610206604,0.327597975730896,0.5552332997322083
1772608924581343200,3.46934326171875,0.45347240567207336,0.19388626515865326,0.6491851210594177
1772608924591341000,3.479341064453125,0.400940477848053,0.008102551102638245,0.7163798809051514
1772608924601338000,3.489338134765625,0.3174367845058441,-0.13353846967220306,0.7459401488304138
1772608924611336200,3.499336181640625,0.23274755477905273,-0.1405242532491684,0.7198433876037598
1772608924621334000,3.509333984375,0.14285573363304138,-0.02202184684574604,0.6490983366966248
1772608924631332000,3.51933203125,0.07268980890512466,0.16941775381565094,0.5631963014602661
1772608924641330200,3.529330078125,0.03402577340602875,0.37474802136421204,0.492044597864151
1772608924651328000,3.539327880859375,0.009780557826161385,0.5022342205047607,0.44369781017303467
1772608924661326000,3.549326171875,0.01386930886656046,0.49787917733192444,0.41340622305870056
1772608924671324000,3.559323974609375,0.07115722447633743,0.4289945662021637,0.41017773747444153
1772608924681322000,3.569322021484375,0.16287435591220856,0.3080281913280487,0.41861623525619507
1772608924691320000,3.579320068359375,0.24319280683994293,0.1768934577703476,0.42249616980552673
1772608924701318100,3.589318115234375,0.26317906379699707,0.12484010308980942,0.4374745786190033
1772608924711315200,3.599315185546875,0.21063415706157684,0.11211966723203659,0.453288197517395
1772608924721313300,3.609313232421875,0.13207782804965973,0.024028422310948372,0.4243137836456299
1772608924731311000,3.61931103515625,0.08802171796560287,-0.12027766555547714,0.3274926245212555
1772608924741309200,3.62930908203125,0.1501053273677826,-0.22119364142417908,0.15284037590026855
1772608924751307000,3.63930712890625,0.3641626238822937,-0.32895973324775696,-0.03901249170303345
1772608924761305000,3.64930517578125,0.6478664875030518,-0.4414159953594208,-0.1544157862663269
1772608924771303200,3.65930322265625,0.8434159755706787,-0.5892661809921265,-0.13458268344402313
1772608924781301000,3.669301025390625,0.9135981202125549,-0.8210229873657227,-0.014152994379401207
1772608924791299000,3.679299072265625,0.808283805847168,-1.0118093490600586,0.14759249985218048
1772608924801297200,3.689297119140625,0.5376243591308594,-0.9554240703582764,0.225669726729393
1772608924811295000,3.699294921875,0.13537335395812988,-0.7934680581092834,0.13375933468341827
1772608924821292300,3.709292236328125,-0.34051063656806946,-0.5885598659515381,-0.1588088870048523
1772608924831290400,3.719290283203125,-0.7600175142288208,-0.3267430067062378,-0.6124646663665771
1772608924841288200,3.7292880859375,-1.0092250108718872,-0.02199482172727585,-1.0827975273132324
1772608924851286300,3.739286376953125,-1.0896100997924805,0.36319440603256226,-1.3738176822662354
1772608924861284000,3.7492841796875,-1.049972414970398,0.651549756526947,-1.3959999084472656
1772608924871282200,3.7592822265625,-0.9208443760871887,0.8497432470321655,-1.1256508827209473
1772608924881280300,3.7692802734375,-0.7434728145599365,0.9273352026939392,-0.676692008972168
1772608924891278000,3.779278076171875,-0.5910220742225647,0.8561485409736633,-0.23222756385803223
1772608924901276200,3.789276123046875,-0.4660007655620575,0.6508824825286865,0.06576977670192719
1772608924911274200,3.799274169921875,-0.3628193140029907,0.38649964332580566,0.1647326797246933
1772608924921272000,3.80927197265625,-0.2822629511356354,0.1588590145111084,0.135428324341774
1772608924931269000,3.81926904296875,-0.2459416389465332,0.023148780688643456,0.01211586408317089
1772608924941267000,3.829266845703125,-0.2543700039386749,-0.08862914890050888,-0.1713666021823883
1772608924951265000,3.83926513671875,-0.28365954756736755,-0.13944916427135468,-0.34075069427490234
1772608924961263000,3.84926318359375,-0.3210471272468567,-0.14097942411899567,-0.48310545086860657
1772608924971261000,3.859260986328125,-0.33884304761886597,-0.13675557076931,-0.5932823419570923
1772608924981259000,3.869259033203125,-0.3385263979434967,-0.1210746094584465,-0.6815019249916077
1772608924991257000,3.879257080078125,-0.31131115555763245,-0.11682412773370743,-0.7353770136833191
1772608925001255000,3.8892548828125,-0.24230438470840454,-0.09183275699615479,-0.7438653111457825
1772608925011253000,3.8992529296875,-0.12744756042957306,-0.07931610196828842,-0.6916356086730957
1772608925021251300,3.909251220703125,0.0050529600121080875,-0.1124652698636055,-0.5504769086837769
1772608925031249200,3.919249267578125,0.14102034270763397,-0.20295670628547668,-0.2947607934474945
1772608925041246200,3.92924609375,0.26057976484298706,-0.29393723607063293,0.05231408774852753
1772608925051244000,3.939244140625,0.3307584822177887,-0.3453318476676941,0.39476221799850464
1772608925061242000,3.9492421875,0.34791988134384155,-0.3918415606021881,0.6534432768821716
1772608925071240200,3.959240234375,0.3200785517692566,-0.4029534161090851,0.7816162705421448
1772608925081238000,3.969238037109375,0.2723943591117859,-0.32889464497566223,0.7750549912452698
1772608925091236000,3.979236083984375,0.23183803260326385,-0.1734146773815155,0.6474301218986511
1772608925101234200,3.989234130859375,0.20119383931159973,0.01588866487145424,0.4660089612007141
1772608925111232000,3.99923193359375,0.18683113157749176,0.19709473848342896,0.28586241602897644
1772608925121230000,4.00922998046875,0.17728503048419952,0.31397873163223267,0.15080739557743073
1772608925131228200,4.019228271484375,0.17993032932281494,0.3072855770587921,0.0963193029165268
1772608925141226000,4.02922607421875,0.18600685894489288,0.22234326601028442,0.10481558740139008
1772608925151223300,4.039223388671875,0.2159290313720703,0.12800052762031555,0.19516682624816895
1772608925161221000,4.04922119140625,0.2606871724128723,0.13205599784851074,0.37076184153556824
1772608925171219200,4.05921923828125,0.2749594748020172,0.2484939992427826,0.5876908898353577
1772608925181217300,4.06921728515625,0.24241724610328674,0.3779776990413666,0.7725547552108765
1772608925191215000,4.079215087890625,0.1767355501651764,0.4555811583995819,0.8804441094398499
1772608925201213200,4.089213134765625,0.11328280717134476,0.49082517623901367,0.9076413512229919
1772608925211211300,4.099211181640625,0.06359285861253738,0.4982939660549164,0.8668360114097595
1772608925221209000,4.109208984375,0.04324790835380554,0.496520072221756,0.7880048751831055
1772608925231207200,4.119207275390625,0.052265942096710205,0.4746669828891754,0.7018049955368042
1772608925241205200,4.129205322265625,0.07056824862957001,0.42587363719940186,0.6369724273681641
1772608925251203000,4.139203125,0.06045418605208397,0.3411410450935364,0.5815942287445068
1772608925261200100,4.1492001953125,0.017508048564195633,0.25999346375465393,0.4943397343158722
1772608925271198000,4.159197998046875,-0.033709749579429626,0.2633450925350189,0.38010817766189575
1772608925281196000,4.169196044921875,-0.07201452553272247,0.3970615863800049,0.3081386387348175
1772608925291194000,4.179194091796875,-0.06808836758136749,0.5731339454650879,0.3096963167190552
1772608925301192000,4.18919189453125,-0.020706474781036377,0.6493869423866272,0.34439143538475037
1772608925311190000,4.19918994140625,0.06125844642519951,0.47849661111831665,0.3380213677883148
1772608925321188000,4.20918798828125,0.19374299049377441,0.021352220326662064,0.2703981101512909
1772608925331186200,4.219186279296875,0.4044423997402191,-0.50235915184021,0.1452256590127945
1772608925341184300,4.229184326171875,0.660094141960144,-0.8318384885787964,-0.01313069835305214
1772608925351182300,4.239182373046875,0.8434112071990967,-0.9897441267967224,-0.1608143001794815
1772608925361180200,4.24918017578125,0.89711594581604,-1.0615897178649902,-0.2884574830532074
1772608925371177200,4.25917724609375,0.7805696725845337,-0.9808325171470642,-0.3573831021785736
1772608925381175000,4.269175048828125,0.45957937836647034,-0.7173638343811035,-0.4087653160095215
1772608925391173000,4.279173095703125,0.030699633061885834,-0.4928555488586426,-0.5052180290222168
1772608925401171200,4.289171142578125,-0.3735620975494385,-0.33601880073547363,-0.619877278804779
1772608925411169000,4.2991689453125,-0.6687690019607544,-0.08292366564273834,-0.6480637788772583
1772608925421167000,4.3091669921875,-0.855956494808197,0.1349567323923111,-0.5989475846290588
1772608925431165200,4.319165283203125,-0.9150113463401794,0.2895407974720001,-0.4498879909515381
1772608925441163000,4.3291630859375,-0.8520075678825378,0.44169437885284424,-0.2069389820098877
1772608925451161000,4.3391611328125,-0.683363139629364,0.5501789450645447,0.07246291637420654
1772608925461159200,4.3491591796875,-0.4705573618412018,0.5777069330215454,0.30545517802238464
1772608925471157000,4.359156982421875,-0.2590138614177704,0.4794491231441498,0.4224269688129425
1772608925481154300,4.369154296875,-0.06817387044429779,0.2813996970653534,0.43336644768714905
1772608925491152100,4.379152099609375,0.05801454558968544,0.03471601381897926,0.35926851630210876
1772608925501150200,4.389150146484375,0.0823233500123024,-0.2080758512020111,0.2241905927658081
1772608925511148300,4.399148193359375,0.004930281080305576,-0.4023977816104889,0.03688373416662216
1772608925521146000,4.40914599609375,-0.14541767537593842,-0.47987714409828186,-0.21319134533405304
1772608925531144200,4.419144287109375,-0.32210156321525574,-0.44572052359580994,-0.5418162941932678
1772608925541142300,4.429142333984375,-0.4935135245323181,-0.36805182695388794,-0.9307840466499329
1772608925551140000,4.43914013671875,-0.6390885710716248,-0.3039242625236511,-1.31964910030365
1772608925561138200,4.44913818359375,-0.7602983713150024,-0.26078689098358154,-1.6514281034469604
1772608925571136500,4.459136474609375,-0.8303452134132385,-0.21948862075805664,-1.8611412048339844
1772608925581134300,4.46913427734375,-0.8256511092185974,-0.1502474993467331,-1.9149376153945923
1772608925591131400,4.47913134765625,-0.7352073788642883,-0.10819722712039948,-1.7964917421340942
1772608925601129500,4.48912939453125,-0.5734655857086182,-0.09314477443695068,-1.5068566799163818
1772608925611127300,4.499127197265625,-0.33109015226364136,-0.09074369072914124,-1.0621904134750366
1772608925621125400,4.50912548828125,-0.07106124609708786,-0.14066731929779053,-0.525913417339325
1772608925631123200,4.519123291015625,0.1269090473651886,-0.23165252804756165,0.07135835289955139
1772608925641121300,4.529121337890625,0.21928611397743225,-0.3093729019165039,0.6568079590797424
1772608925651119400,4.539119384765625,0.2221585512161255,-0.3316662013530731,1.151757001876831
1772608925661117400,4.549117431640625,0.16807587444782257,-0.27181804180145264,1.49075186252594
1772608925671115500,4.559115478515625,0.07894875109195709,-0.10942606627941132,1.6503846645355225
1772608925681113600,4.569113525390625,-0.023754451423883438,0.1623484492301941,1.6531991958618164
1772608925691111400,4.579111328125,-0.13552305102348328,0.48190537095069885,1.5557295083999634
1772608925701108500,4.5891083984375,-0.22133462131023407,0.7149103879928589,1.4124757051467896
1772608925711106300,4.599106201171875,-0.29242438077926636,0.8022496700286865,1.2489013671875
1772608925721104400,4.6091044921875,-0.3461208939552307,0.702982485294342,1.0172532796859741
1772608925731102500,4.6191025390625,-0.30497393012046814,0.6118345260620117,0.7885902523994446
1772608925741100300,4.629100341796875,-0.1331598162651062,0.6908278465270996,0.6116971969604492
1772608925751098400,4.639098388671875,0.1035410687327385,0.902788519859314,0.46478071808815
1772608925761096400,4.649096435546875,0.30641964077949524,1.114988923072815,0.32537195086479187
1772608925771094300,4.65909423828125,0.4532211720943451,1.2813689708709717,0.29809191823005676
1772608925781092400,4.66909228515625,0.5793378353118896,1.3124076128005981,0.46678054332733154
1772608925791090400,4.67909033203125,0.6785680651664734,1.1662086248397827,0.8151114583015442
1772608925801088300,4.689088134765625,0.7822803258895874,0.8922303318977356,1.2367289066314697
1772608925811085600,4.69908544921875,0.8931525349617004,0.6335599422454834,1.6303843259811401
1772608925821083400,4.70908349609375,0.9490932822227478,0.47376975417137146,1.9477428197860718
1772608925831081500,4.71908154296875,0.8877676725387573,0.3738509714603424,2.1161465644836426
1772608925841079600,4.72907958984375,0.73095703125,0.2315332442522049,2.0439038276672363
1772608925851077400,4.739077392578125,0.542287290096283,0.10024075955152512,1.7453550100326538
1772608925861075500,4.749075439453125,0.36693140864372253,0.11576885730028152,1.3312691450119019
1772608925871073500,4.759073486328125,0.2718152701854706,0.3146167993545532,0.940028190612793
1772608925881071400,4.7690712890625,0.22407785058021545,0.6821510791778564,0.680308997631073
1772608925891069400,4.7790693359375,0.17479334771633148,1.0739973783493042,0.6274987459182739
1772608925901067500,4.789067626953125,0.08533643931150436,1.2792704105377197,0.6634700894355774
1772608925911064300,4.799064208984375,-0.029453527182340622,0.88010573387146,0.5906800031661987
1772608925921062400,4.8090625,-0.12045879662036896,0.024457886815071106,0.3699604272842407
1772608925931060200,4.819060302734375,-0.11716723442077637,-0.9327459335327148,-0.007400156930088997
1772608925941058300,4.829058349609375,0.02122339978814125,-1.7544714212417603,-0.5425122976303101
1772608925951056400,4.839056396484375,0.24064813554286957,-2.123562812805176,-1.0896917581558228
1772608925961054200,4.84905419921875,0.38922908902168274,-2.1345326900482178,-1.5620369911193848
1772608925971052300,4.85905224609375,0.34042587876319885,-1.8416484594345093,-1.9827754497528076
1772608925981050400,4.86905029296875,0.09245257079601288,-1.4577175378799438,-2.3591299057006836
1772608925991048400,4.87904833984375,-0.22263877093791962,-1.15265691280365,-2.6382384300231934
1772608926001046500,4.889046630859375,-0.4574606120586395,-0.7492039799690247,-2.6912178993225098
1772608926011044600,4.899044677734375,-0.610434889793396,-0.1829921454191208,-2.4063198566436768
1772608926021042400,4.90904248046875,-0.7186511158943176,0.45242929458618164,-1.8058085441589355
1772608926031039500,4.91903955078125,-0.7502390146255493,0.9441840648651123,-1.0624349117279053
1772608926041037300,4.929037353515625,-0.6543052792549133,1.2386692762374878,-0.3811911344528198
1772608926051035400,4.939035400390625,-0.46870699524879456,1.2182313203811646,0.09670888632535934
1772608926061033500,4.949033447265625,-0.2542966902256012,0.8946849703788757,0.35598066449165344
1772608926071031300,4.95903125,-0.03902783989906311,0.4707295894622803,0.4448162317276001
1772608926081029400,4.969029296875,0.1492997109889984,0.003994358237832785,0.42404651641845703
1772608926091027500,4.97902734375,0.2856782376766205,-0.4055943191051483,0.34253624081611633
1772608926101025300,4.989025390625,0.3728613555431366,-0.6617224812507629,0.23886361718177795
1772608926111023400,4.9990234375,0.42091289162635803,-0.8073482513427734,0.11169500648975372
1772608926121021400,5.009021484375,0.4385853707790375,-0.8385072350502014,-0.038053467869758606
1772608926131019300,5.019019287109375,0.4408957064151764,-0.8028309941291809,-0.2194742113351822
1772608926141016600,5.0290166015625,0.42157846689224243,-0.7843377590179443,-0.4429611265659332
1772608926151014400,5.039014404296875,0.37444478273391724,-0.7555195093154907,-0.6661704778671265
1772608926161012500,5.049012451171875,0.2748422920703888,-0.6586781740188599,-0.8576645851135254
1772608926171010600,5.059010498046875,0.16281603276729584,-0.5256437063217163,-0.9915700554847717
1772608926181008400,5.06900830078125,0.07344326376914978,-0.344073623418808,-1.0382239818572998
1772608926191006500,5.07900634765625,0.031547509133815765,-0.1799415946006775,-0.987442135810852
1772608926201004500,5.089004638671875,0.03140982612967491,-0.11669231206178665,-0.8650805354118347
1772608926211002400,5.09900244140625,0.040281765162944794,-0.189809650182724,-0.7042020559310913
1772608926221000400,5.10900048828125,0.057193905115127563,-0.3341614902019501,-0.5494388341903687
1772608926230998500,5.11899853515625,0.10691730678081512,-0.47853127121925354,-0.4340396225452423
1772608926240995300,5.128995361328125,0.19233259558677673,-0.5856390595436096,-0.35712140798568726
1772608926250993400,5.138993408203125,0.2732904851436615,-0.593681812286377,-0.31874415278434753
1772608926260991200,5.1489912109375,0.31537190079689026,-0.5214627385139465,-0.3159153461456299
1772608926270989300,5.1589892578125,0.3036728799343109,-0.40974852442741394,-0.33321744203567505
1772608926280987400,5.1689873046875,0.2716164290904999,-0.2665618062019348,-0.32616618275642395
1772608926290985500,5.1789853515625,0.2402327060699463,-0.059694789350032806,-0.27627941966056824
1772608926300983600,5.188983642578125,0.18337181210517883,0.150974839925766,-0.2160232812166214
1772608926310981600,5.198981689453125,0.11452659219503403,0.2876591980457306,-0.18617123365402222
1772608926320979500,5.2089794921875,0.06812500208616257,0.31477630138397217,-0.15246760845184326
1772608926330977500,5.2189775390625,0.04254773631691933,0.24838902056217194,-0.06125246360898018
1772608926340975600,5.2289755859375,0.033638663589954376,0.12212269008159637,0.09470810741186142
1772608926350973400,5.238973388671875,0.049705397337675095,-0.019292743876576424,0.2720113694667816
1772608926360970500,5.248970458984375,0.07773809880018234,-0.1494547426700592,0.4188697934150696
1772608926370968300,5.25896826171875,0.11299467831850052,-0.23240725696086884,0.49845317006111145
1772608926380966400,5.26896630859375,0.14404553174972534,-0.23516228795051575,0.4825948178768158
1772608926390964500,5.278964599609375,0.1542735993862152,-0.16788363456726074,0.3820827007293701
1772608926400962300,5.28896240234375,0.12105678766965866,-0.025256987661123276,0.22063228487968445
1772608926410960400,5.29896044921875,0.05657943710684776,0.14765015244483948,0.05679662898182869
1772608926420958500,5.30895849609375,0.0034733428619802,0.35052815079689026,-0.09263361245393753
1772608926430956300,5.318956298828125,-0.016933927312493324,0.547461748123169,-0.18056772649288177
1772608926440953600,5.32895361328125,-0.03222677484154701,0.6792119145393372,-0.15876677632331848
1772608926450951400,5.338951416015625,-0.07423441112041473,0.6948076486587524,-0.012946723029017448
1772608926460949500,5.348949462890625,-0.11883056163787842,0.5435374975204468,0.1911051720380783
1772608926470947600,5.358947509765625,-0.16392533481121063,0.3131234347820282,0.35552796721458435
1772608926480945400,5.3689453125,-0.19718609750270844,0.0655839592218399,0.40233567357063293
1772608926490943500,5.378943603515625,-0.2211015373468399,-0.18857242166996002,0.2746240496635437
1772608926500940300,5.388940185546875,-0.18921834230422974,-0.43456748127937317,-0.052872076630592346
1772608926510938400,5.3989384765625,-0.04126083850860596,-0.5757620930671692,-0.4732203781604767
1772608926520936400,5.4089365234375,0.19172701239585876,-0.561813235282898,-0.8135684132575989
1772608926530934300,5.418934326171875,0.49566638469696045,-0.4428335726261139,-0.9345235824584961
1772608926540932400,5.428932373046875,0.8096055388450623,-0.3172772228717804,-0.7797287702560425
1772608926550930400,5.438930419921875,0.9473152160644531,-0.19883845746517181,-0.33561843633651733
1772608926560928300,5.44892822265625,0.7765613198280334,-0.07488246262073517,0.2988321781158447
1772608926570926300,5.45892626953125,0.33337512612342834,0.026727784425020218,0.8838101625442505
1772608926580924200,5.468924072265625,-0.1252574622631073,0.038212236016988754,1.2233026027679443
1772608926590922200,5.478922119140625,-0.401590496301651,-0.10011127591133118,1.1703083515167236
1772608926600919300,5.488919189453125,-0.4397851526737213,-0.4315187633037567,0.7340467572212219
1772608926610917400,5.49891748046875,-0.33603426814079285,-0.8376457691192627,0.12001395970582962
1772608926620915500,5.50891552734375,-0.191437229514122,-1.0621428489685059,-0.41810327768325806
1772608926630913300,5.518913330078125,-0.07100482285022736,-0.8628110885620117,-0.7274848222732544
1772608926640911400,5.528911376953125,0.014821663498878479,-0.2925173044204712,-0.838813841342926
1772608926650909200,5.5389091796875,0.04125992953777313,0.38953661918640137,-0.7567623853683472
1772608926660907300,5.5489072265625,-0.027238264679908752,0.8639959096908569,-0.4881792366504669
1772608926670905300,5.5589052734375,-0.15958964824676514,1.0064536333084106,-0.12979789078235626
1772608926680903200,5.568903076171875,-0.27578026056289673,0.8547213077545166,0.18694205582141876
1772608926690901200,5.5789013671875,-0.3338816463947296,0.5235021114349365,0.3628086745738983
1772608926700899300,5.5888994140625,-0.34065139293670654,0.13966134190559387,0.39175671339035034
1772608926710896000,5.598896240234375,-0.32188570499420166,-0.2016456574201584,0.2981724739074707
1772608926720894500,5.60889453125,-0.31165871024131775,-0.44384583830833435,0.08559894561767578
1772608926730892300,5.618892333984375,-0.30269476771354675,-0.5616071224212646,-0.2037511020898819
1772608926740890400,5.628890380859375,-0.2791035771369934,-0.5195448994636536,-0.4967775344848633
1772608926750888400,5.638888427734375,-0.2544184625148773,-0.3372108042240143,-0.7283209562301636
1772608926760886300,5.64888623046875,-0.19446925818920135,-0.12000872939825058,-0.8736008405685425
1772608926770884400,5.65888427734375,-0.09121184796094894,0.11498088389635086,-0.9080573916435242
1772608926780882400,5.66888232421875,0.04274223744869232,0.2455204278230667,-0.8169395923614502
1772608926790880300,5.67888037109375,0.20220300555229187,0.17318309843540192,-0.5958372950553894
1772608926800878300,5.68887841796875,0.33721402287483215,-0.024117546156048775,-0.2523457109928131
1772608926810877400,5.69887744140625,0.38632938265800476,-0.25932422280311584,0.17347589135169983
1772608926820875500,5.70887548828125,0.35055699944496155,-0.4545704126358032,0.5870714783668518
1772608926830873300,5.718873291015625,0.2348908632993698,-0.571101725101471,0.8600721955299377
1772608926840871400,5.728871337890625,0.08811767399311066,-0.5919204354286194,0.9234945774078369
1772608926850869200,5.738869140625,-0.035370904952287674,-0.4815950095653534,0.7693653702735901
1772608926860867300,5.748867431640625,-0.10977935791015625,-0.2266913503408432,0.47376781702041626
1772608926870864400,5.758864501953125,-0.1548127979040146,0.12440349906682968,0.16075381636619568
1772608926880862200,5.7688623046875,-0.1552381068468094,0.44272634387016296,-0.08457338809967041
1772608926890860300,5.7788603515625,-0.11375083774328232,0.6437883377075195,-0.22354406118392944
1772608926900858400,5.7888583984375,-0.040617238730192184,0.7224069833755493,-0.22733080387115479
1772608926910856200,5.798856201171875,0.02758106216788292,0.6868745684623718,-0.08065810799598694
1772608926920854300,5.808854248046875,0.0740170031785965,0.5886934399604797,0.1749342381954193
1772608926930852400,5.818852294921875,0.07441812753677368,0.42290857434272766,0.4932047128677368
1772608926940850200,5.82885009765625,0.0496123731136322,0.2578168213367462,0.8149657249450684
1772608926950848300,5.83884814453125,0.0033336873166263103,0.13599549233913422,1.049971580505371
1772608926960846000,5.84884619140625,-0.05329390615224838,0.08552008122205734,1.140302062034607
1772608926970844200,5.85884423828125,-0.09732402116060257,0.10774949938058853,1.0814441442489624
1772608926980841500,5.868841552734375,-0.11944529414176941,0.21562455594539642,0.9101235270500183
1772608926990839300,5.87883935546875,-0.12479627877473831,0.3836764395236969,0.6708278059959412
1772608927000837400,5.88883740234375,-0.08443473279476166,0.5999951958656311,0.4206576347351074
1772608927010835500,5.89883544921875,-0.014802256599068642,0.7949537634849548,0.22485771775245667
1772608927020833300,5.908833251953125,0.06695758551359177,0.8362902998924255,0.13086622953414917
1772608927030831400,5.918831298828125,0.1479559987783432,0.6469811201095581,0.1708914041519165
1772608927040829200,5.9288291015625,0.2288777381181717,0.3280071020126343,0.32495445013046265
1772608927050827300,5.9388271484375,0.26652443408966064,0.024389594793319702,0.5416685342788696
1772608927060825300,5.948825439453125,0.2573024332523346,-0.2002299278974533,0.7492989897727966
1772608927070823200,5.9588232421875,0.2209433615207672,-0.31565138697624207,0.8357830047607422
1772608927080821200,5.9688212890625,0.20629677176475525,-0.3329576849937439,0.7188428044319153
1772608927090818300,5.978818359375,0.26784569025039673,-0.2598377764225006,0.4108986258506775
1772608927100816100,5.988816162109375,0.4004388749599457,-0.21038101613521576,0.01795053482055664
1772608927110814200,5.998814208984375,0.5406889915466309,-0.3115902543067932,-0.31108659505844116
1772608927120812300,6.008812255859375,0.6414920091629028,-0.630270779132843,-0.5210733413696289
1772608927130810400,6.018810302734375,0.6844462156295776,-1.0173466205596924,-0.6620378494262695
1772608927140808400,6.028808349609375,0.6699296236038208,-1.2259858846664429,-0.7383688688278198
1772608927150806300,6.03880615234375,0.4877515137195587,-1.2191959619522095,-0.8007208704948425
1772608927160804400,6.048804443359375,0.07993367314338684,-1.1245938539505005,-0.8834964036941528
1772608927170802400,6.058802490234375,-0.39472508430480957,-0.8554399609565735,-0.9400469064712524
1772608927180800300,6.06880029296875,-0.7551442384719849,-0.3784435987472534,-0.9159567356109619
1772608927190798300,6.07879833984375,-0.9282692670822144,0.21803836524486542,-0.8129086494445801
1772608927200795400,6.08879541015625,-0.9352003931999207,0.6371133923530579,-0.6411699056625366
1772608927210793200,6.098793212890625,-0.8245007395744324,0.8095580339431763,-0.3822215795516968
1772608927220791300,6.108791259765625,-0.6495485901832581,0.767436146736145,-0.07787259668111801
1772608927230789000,6.1187890625,-0.4594787657260895,0.5658694505691528,0.19721142947673798
1772608927240787200,6.128787109375,-0.2859746217727661,0.30389276146888733,0.373151034116745
1772608927250785300,6.138785400390625,-0.1509491354227066,0.051953334361314774,0.4138495624065399
1772608927260783000,6.148783203125,-0.0626477599143982,-0.17279109358787537,0.3233199119567871
1772608927270781200,6.15878125,-0.020887862890958786,-0.3334096074104309,0.1395985335111618
1772608927280779300,6.168779296875,-0.05143352225422859,-0.4071996808052063,-0.10852951556444168
1772608927290777000,6.178777099609375,-0.15356814861297607,-0.35228627920150757,-0.3737168610095978
1772608927300775200,6.188775146484375,-0.289368599653244,-0.21324582397937775,-0.6129400730133057
1772608927310772200,6.198772216796875,-0.40991756319999695,-0.07642318308353424,-0.8293461799621582
1772608927320770300,6.208770263671875,-0.4797576069831848,0.026860598474740982,-1.011955976486206
1772608927330768400,6.218768310546875,-0.4899998605251312,0.03308627009391785,-1.147172451019287
1772608927340766200,6.22876611328125,-0.44608786702156067,-0.047827742993831635,-1.244533658027649
1772608927350764300,6.238764404296875,-0.32489851117134094,-0.1669255495071411,-1.2988100051879883
1772608927360762400,6.248762451171875,-0.15051952004432678,-0.23726150393486023,-1.2711189985275269
1772608927370760200,6.25876025390625,0.03635384514927864,-0.23790296912193298,-1.159781575202942
1772608927380758300,6.26875830078125,0.1859806329011917,-0.2380230873823166,-0.9872044920921326
1772608927390756400,6.27875634765625,0.29961514472961426,-0.2655126750469208,-0.7486555576324463
1772608927400754200,6.288754150390625,0.3447954058647156,-0.26348015666007996,-0.43117454648017883
1772608927410752300,6.298752197265625,0.3108534514904022,-0.21090489625930786,-0.0703967735171318
1772608927420749300,6.308749267578125,0.2437673658132553,-0.12586857378482819,0.2646177113056183
1772608927430747400,6.318747314453125,0.19404232501983643,-0.04771104082465172,0.501780092716217
1772608927440745500,6.328745361328125,0.17242251336574554,0.03296809270977974,0.6212719082832336
1772608927450743300,6.338743408203125,0.18130552768707275,0.10437200218439102,0.6504766941070557
1772608927460741400,6.348741455078125,0.22697608172893524,0.1524612307548523,0.6276997327804565
1772608927470739500,6.358739501953125,0.30451977252960205,0.16525353491306305,0.5733898282051086
1772608927480737300,6.3687373046875,0.40525195002555847,0.15679188072681427,0.5032445788383484
1772608927490735400,6.3787353515625,0.5241318941116333,0.15759772062301636,0.41249823570251465
1772608927500733400,6.3887333984375,0.6474676728248596,0.15209883451461792,0.3292264938354492
1772608927510731300,6.398731201171875,0.7630106210708618,0.10515148192644119,0.2981109321117401
1772608927520729300,6.408729248046875,0.8292930126190186,0.00499612046405673,0.35998043417930603
1772608927530726100,6.41872607421875,0.8059871792793274,-0.12107959389686584,0.4993542730808258
1772608927540724200,6.42872412109375,0.6829275488853455,-0.22976398468017578,0.653083086013794
1772608927550722300,6.438722412109375,0.4998488128185272,-0.29286378622055054,0.7599179744720459
1772608927560720100,6.44872021484375,0.3400362432003021,-0.25466209650039673,0.8351384401321411
1772608927570718200,6.45871826171875,0.22634164988994598,-0.09959107637405396,0.8861815333366394
1772608927580716300,6.46871630859375,0.15462219715118408,0.09251764416694641,0.9340007305145264
1772608927590714400,6.47871435546875,0.11100402474403381,0.22138427197933197,0.982793927192688
1772608927600712200,6.488712158203125,0.0858595222234726,0.28119033575057983,0.9980522990226746
1772608927610710300,6.498710205078125,0.0628502145409584,0.3366185426712036,0.966821551322937
1772608927620708400,6.508708251953125,0.060151100158691406,0.44223254919052124,0.8828531503677368
1772608927630706400,6.51870654296875,0.08091817796230316,0.5617229342460632,0.7786002159118652
1772608927640703500,6.528703369140625,0.10270443558692932,0.6423059701919556,0.6521368622779846
1772608927650701300,6.538701416015625,0.10138610750436783,0.588428258895874,0.4859488606452942
1772608927660699400,6.548699462890625,0.053591422736644745,0.39162275195121765,0.2591298520565033
1772608927670697500,6.558697509765625,-0.023651693016290665,0.10836804658174515,0.005864436738193035
1772608927680695300,6.5686953125,-0.09095429629087448,-0.12481354176998138,-0.2223263829946518
1772608927690693400,6.578693359375,-0.08068650960922241,-0.20044846832752228,-0.33200424909591675
1772608927700691500,6.58869140625,-0.013354074209928513,-0.09428023546934128,-0.3184000253677368
1772608927710689300,6.598689208984375,0.06487792730331421,-0.07076209038496017,-0.32405441999435425
1772608927720687400,6.608687255859375,0.1085154116153717,-0.2789296805858612,-0.4100657105445862
1772608927730685400,6.618685546875,0.08764452487230301,-0.5822266936302185,-0.5332769155502319
1772608927740683300,6.628683349609375,-0.01145462691783905,-0.8287217020988464,-0.6632559299468994
1772608927750680300,6.638680419921875,-0.17579635977745056,-0.8792240023612976,-0.7867403626441956
1772608927760678400,6.648678466796875,-0.35613176226615906,-0.5721740126609802,-0.8558283448219299
1772608927770676500,6.658676513671875,-0.465486079454422,0.04972464591264725,-0.7934973239898682
1772608927780674600,6.668674560546875,-0.4702238440513611,0.7064518928527832,-0.5508883595466614
1772608927790672400,6.67867236328125,-0.3965822756290436,1.111451268196106,-0.1927601844072342
1772608927800670500,6.68867041015625,-0.27750569581985474,1.2160879373550415,0.1718665212392807
1772608927810668500,6.69866845703125,-0.09386343508958817,0.9938931465148926,0.412553071975708
1772608927820666400,6.708666259765625,0.12931159138679504,0.501095712184906,0.48508745431900024
1772608927830664400,6.71866455078125,0.3078548014163971,-0.10125041007995605,0.4058936834335327
1772608927840662500,6.72866259765625,0.385490745306015,-0.5972132682800293,0.22104714810848236
1772608927850660400,6.738660400390625,0.3423793911933899,-0.7938941121101379,-0.03801920637488365
1772608927860657400,6.748657470703125,0.19052809476852417,-0.720521092414856,-0.34465479850769043
1772608927870655200,6.7586552734375,-0.025678422302007675,-0.45207005739212036,-0.670534610748291
1772608927880653300,6.7686533203125,-0.2254946082830429,-0.046508174389600754,-0.9815662503242493
1772608927890651400,6.7786513671875,-0.3596828281879425,0.38779741525650024,-1.2504655122756958
1772608927900649200,6.788649169921875,-0.4335471987724304,0.7586734890937805,-1.4211238622665405
1772608927910647300,6.798647216796875,-0.48022568225860596,0.958084225654602,-1.456819772720337
1772608927920645400,6.808645263671875,-0.4909241497516632,0.9273116588592529,-1.3372688293457031
1772608927930643200,6.818643310546875,-0.45311588048934937,0.7460538148880005,-1.0421162843704224
1772608927940641300,6.828641357421875,-0.367851585149765,0.5244300961494446,-0.6351948976516724
1772608927950639400,6.838639404296875,-0.2579684853553772,0.2646602988243103,-0.19599033892154694
1772608927960637400,6.848637451171875,-0.1385427564382553,-0.015785999596118927,0.22026146948337555
1772608927970634500,6.858634521484375,-0.029618311673402786,-0.23596829175949097,0.5589333176612854
1772608927980632300,6.86863232421875,0.040133073925971985,-0.35167011618614197,0.7765961289405823
1772608927990630400,6.87863037109375,0.08620160073041916,-0.3822298049926758,0.83744877576828
1772608928000628500,6.88862841796875,0.13163352012634277,-0.3476499915122986,0.743821918964386
1772608928010626300,6.898626220703125,0.16918633878231049,-0.24092824757099152,0.5338287353515625
1772608928020624400,6.908624267578125,0.17736010253429413,-0.038906436413526535,0.2785564661026001
1772608928030622500,6.91862255859375,0.13189248740673065,0.2402394413948059,0.07760926336050034
1772608928040620300,6.928620361328125,0.032929956912994385,0.5048612952232361,0.0031898878514766693
1772608928050618400,6.938618408203125,-0.10651926696300507,0.679495096206665,0.05774228274822235
1772608928060616400,6.948616455078125,-0.26452621817588806,0.7079190015792847,0.18789495527744293
1772608928070613500,6.958613525390625,-0.3931173086166382,0.6235729455947876,0.3205617368221283
1772608928080611600,6.968611572265625,-0.4877476692199707,0.5203128457069397,0.4209040701389313
1772608928090609400,6.978609375,-0.510486900806427,0.4658464193344116,0.5092249512672424
1772608928100607500,6.988607421875,-0.47249478101730347,0.47261616587638855,0.6094136238098145
1772608928110605600,6.99860546875,-0.403740257024765,0.4899456799030304,0.695285975933075
1772608928120603400,7.008603271484375,-0.2998647391796112,0.44509005546569824,0.7377314567565918
1772608928130601500,7.0186015625,-0.1800760179758072,0.45027950406074524,0.7420747876167297
1772608928140599600,7.028599609375,-0.04439541697502136,0.5345531105995178,0.7432830929756165
1772608928150597400,7.038597412109375,0.09280038625001907,0.6471439003944397,0.7784218192100525
1772608928160595500,7.048595458984375,0.18047325313091278,0.718989372253418,0.8593742251396179
1772608928170593300,7.05859326171875,0.19840487837791443,0.6999208331108093,0.9928349852561951
1772608928180591400,7.06859130859375,0.1650828719139099,0.5625168681144714,1.1014529466629028
1772608928190588400,7.07858837890625,0.0941745936870575,0.3924473822116852,1.1151833534240723
1772608928200586200,7.088586181640625,0.023552093654870987,0.23456932604312897,1.0282127857208252
1772608928210584300,7.098584228515625,-0.01758483052253723,0.060866158455610275,0.8656571507453918
1772608928220582400,7.10858251953125,0.000919080339372158,-0.11423961073160172,0.6361600756645203
1772608928230580200,7.118580322265625,0.08173912763595581,-0.2752700448036194,0.34822702407836914
1772608928240578300,7.128578369140625,0.2081013321876526,-0.4720480740070343,-0.04017239063978195
1772608928250576400,7.138576416015625,0.35544663667678833,-0.7590252757072449,-0.4720804691314697
1772608928260574500,7.148574462890625,0.49359574913978577,-1.1074398756027222,-0.8814746737480164
1772608928270572500,7.158572509765625,0.6156141757965088,-1.2698732614517212,-1.1688238382339478
1772608928280570400,7.1685703125,0.6935585141181946,-1.1227962970733643,-1.273838758468628
1772608928290568400,7.178568359375,0.6547888517379761,-0.8984930515289307,-1.159572958946228
1772608928300565500,7.1885654296875,0.4591194987297058,-0.7052655816078186,-0.8500175476074219
1772608928310563300,7.198563232421875,0.11844100058078766,-0.6339483857154846,-0.51987624168396
1772608928320561400,7.2085615234375,-0.2713506817817688,-0.7274807095527649,-0.32306092977523804
1772608928330559500,7.2185595703125,-0.5566631555557251,-0.7545744776725769,-0.27179408073425293
1772608928340557300,7.228557373046875,-0.684734582901001,-0.6137784719467163,-0.354912668466568
1772608928350555400,7.238555419921875,-0.6945766806602478,-0.26167985796928406,-0.4972692131996155
1772608928360553200,7.24855322265625,-0.5966396927833557,0.27709680795669556,-0.6051712036132812
1772608928370551300,7.25855126953125,-0.4367069602012634,0.7901000380516052,-0.6026307344436646
1772608928380549400,7.26854931640625,-0.24301846325397491,1.0442968606948853,-0.478108286857605
1772608928390547200,7.278547119140625,-0.03964942321181297,0.9561216235160828,-0.22125579416751862
1772608928400545300,7.288545166015625,0.11129321902990341,0.6291202902793884,0.09487633407115936
1772608928410542600,7.29854248046875,0.19456399977207184,0.13114862143993378,0.3108721673488617
1772608928420540400,7.30854052734375,0.21088865399360657,-0.38093116879463196,0.35758134722709656
1772608928430538500,7.31853857421875,0.15456777811050415,-0.7205979228019714,0.23598416149616241
1772608928440536300,7.328536376953125,0.050557494163513184,-0.8139068484306335,-0.010726021602749825
1772608928450534400,7.338534423828125,-0.08555713295936584,-0.7176797986030579,-0.29542243480682373
1772608928460532500,7.348532470703125,-0.2353074848651886,-0.5428374409675598,-0.5266798734664917
1772608928470530300,7.3585302734375,-0.30377548933029175,-0.36811232566833496,-0.6514797210693359
1772608928480528400,7.3685283203125,-0.277984619140625,-0.28451812267303467,-0.6956589221954346
1772608928490526500,7.3785263671875,-0.19962254166603088,-0.3340361416339874,-0.7129629850387573
1772608928500524300,7.388524169921875,-0.12769295275211334,-0.5070814490318298,-0.8106272220611572
1772608928510522400,7.3985224609375,-0.038633424788713455,-0.6958401203155518,-1.0200419425964355
1772608928520519400,7.40851953125,0.04270856827497482,-0.718015193939209,-1.2722570896148682
1772608928530517200,7.418517333984375,0.08213258534669876,-0.584500253200531,-1.501676082611084
1772608928540515300,7.428515380859375,0.08886957913637161,-0.38314899802207947,-1.6295301914215088
1772608928550513200,7.43851318359375,0.08666573464870453,-0.11228476464748383,-1.5837109088897705
1772608928560511200,7.44851123046875,0.07095255702733994,0.13688191771507263,-1.3437597751617432
1772608928570509300,7.45850927734375,0.05426520109176636,0.2648823857307434,-0.9632309675216675
1772608928580507100,7.468507080078125,0.0317646861076355,0.2630104422569275,-0.5157501697540283
1772608928590505200,7.478505126953125,-0.006506510078907013,0.1864665150642395,-0.08157918602228165
1772608928600503300,7.48850341796875,-0.032923467457294464,0.09667777270078659,0.26423653960227966
1772608928610501000,7.498501220703125,-0.023673096671700478,0.013355694711208344,0.5143409967422485
1772608928620499200,7.508499267578125,0.017932403832674026,-0.07032348960638046,0.6587346196174622
1772608928630496000,7.51849609375,0.07834002375602722,-0.14333011209964752,0.7231983542442322
1772608928640494000,7.528494140625,0.1572532206773758,-0.17023496329784393,0.710139274597168
1772608928650492200,7.5384921875,0.2571600675582886,-0.12492723017930984,0.6496905088424683
1772608928660490000,7.548489990234375,0.361580491065979,-0.032010339200496674,0.5489463210105896
1772608928670488000,7.558488037109375,0.43686139583587646,0.03777929022908211,0.44606298208236694
1772608928680486100,7.568486083984375,0.4508584439754486,0.038008324801921844,0.3637031316757202
1772608928690484000,7.57848388671875,0.42528051137924194,-0.011880721896886826,0.3200380504131317
1772608928700482000,7.58848193359375,0.3640515208244324,-0.052313365042209625,0.31467390060424805
1772608928710480100,7.598480224609375,0.27597013115882874,-0.01542062871158123,0.3302927613258362
1772608928720478000,7.60847802734375,0.19670353829860687,0.11015008389949799,0.33207520842552185
1772608928730476000,7.61847607421875,0.1460016667842865,0.30083534121513367,0.28797122836112976
1772608928740473000,7.62847314453125,0.10700500011444092,0.46798810362815857,0.20611152052879333
1772608928750471200,7.63847119140625,0.09514536708593369,0.5557968020439148,0.13168492913246155
1772608928760469200,7.64846923828125,0.10952643305063248,0.5489756464958191,0.11264333128929138
1772608928770467000,7.658467041015625,0.1796487271785736,0.46162912249565125,0.1953304409980774
1772608928780465200,7.668465087890625,0.2799313962459564,0.35106292366981506,0.4056282937526703
1772608928790463200,7.678463134765625,0.35223567485809326,0.25815898180007935,0.6925051808357239
1772608928800461000,7.6884609375,0.37422487139701843,0.1828831285238266,0.932935893535614
1772608928810459100,7.698459228515625,0.35516685247421265,0.1084098145365715,1.0094976425170898
1772608928820457200,7.708457275390625,0.34839630126953125,0.04063369706273079,0.9226420521736145
1772608928830455000,7.718455078125,0.3320096731185913,-0.03599923849105835,0.6880268454551697
1772608928840453000,7.728453125,0.3014299273490906,-0.1312067210674286,0.342215895652771
1772608928850450000,7.738449951171875,0.3473825454711914,-0.1697971522808075,-0.011712253093719482
1772608928860448000,7.748447998046875,0.4393806457519531,-0.12455882877111435,-0.24051053822040558
1772608928870446000,7.758446044921875,0.5008617639541626,-0.16917413473129272,-0.24995501339435577
1772608928880444200,7.768444091796875,0.47531354427337646,-0.33391591906547546,-0.029147528111934662
1772608928890442200,7.778442138671875,0.327804833650589,-0.4366610050201416,0.3282472491264343
1772608928900440300,7.7884404296875,0.0728265792131424,-0.36892402172088623,0.6617085337638855
1772608928910438100,7.798438232421875,-0.20604874193668365,-0.22708652913570404,0.8120533227920532
1772608928920436200,7.808436279296875,-0.4309854805469513,-0.13723839819431305,0.6697651743888855
1772608928930434300,7.818434326171875,-0.5394465923309326,-0.082431361079216,0.3129698932170868
1772608928940432100,7.82843212890625,-0.5433502793312073,0.057756636291742325,-0.08246903121471405
1772608928950430200,7.83843017578125,-0.4758946895599365,0.2918843626976013,-0.39570918679237366
1772608928960427000,7.848427001953125,-0.3946933150291443,0.5474530458450317,-0.5974066257476807
1772608928970425000,7.858425048828125,-0.33592742681503296,0.6698293685913086,-0.7169741988182068
1772608928980423200,7.868423095703125,-0.30676183104515076,0.6136931777000427,-0.781003475189209
1772608928990421000,7.8784208984375,-0.2948358952999115,0.43116167187690735,-0.8198540210723877
1772608929000419000,7.888419189453125,-0.27568376064300537,0.2504611313343048,-0.8208452463150024
1772608929010417200,7.898417236328125,-0.26278209686279297,0.17459788918495178,-0.7857885956764221
1772608929020415000,7.9084150390625,-0.2737274169921875,0.2485930174589157,-0.7199845314025879
1772608929030413000,7.9184130859375,-0.3267463445663452,0.39511966705322266,-0.6469383239746094
1772608929040411100,7.9284111328125,-0.3982761800289154,0.4913569688796997,-0.6112703680992126
1772608929050409000,7.938408935546875,-0.446120023727417,0.5485130548477173,-0.6052175760269165
1772608929060407000,7.948406982421875,-0.47328320145606995,0.5416205525398254,-0.6309724450111389
1772608929070404000,7.958404052734375,-0.46999701857566833,0.4403219521045685,-0.6613621115684509
1772608929080402200,7.968402099609375,-0.4289608895778656,0.2853459417819977,-0.6699596047401428
1772608929090400300,7.978400146484375,-0.34539076685905457,0.1506672352552414,-0.6096929311752319
1772608929100398000,7.988398193359375,-0.20223866403102875,0.00563387107104063,-0.4845008850097656
1772608929110396200,7.998396240234375,-0.042721524834632874,-0.19449301064014435,-0.30472859740257263
1772608929120394200,8.008394287109375,0.1102837398648262,-0.43279504776000977,-0.11490166187286377
1772608929130392000,8.01839208984375,0.26930272579193115,-0.6222658157348633,0.06740590929985046
1772608929140390100,8.02839013671875,0.4160303771495819,-0.6884115934371948,0.20876462757587433
1772608929150388200,8.03838818359375,0.49852824211120605,-0.6391637325286865,0.27328187227249146
1772608929160386000,8.048385986328125,0.5111604332923889,-0.44551941752433777,0.2953365743160248
1772608929170383000,8.058383056640626,0.48868730664253235,-0.1709163933992386,0.3132740259170532
1772608929180381200,8.068381103515625,0.4424854815006256,0.07371305674314499,0.335888534784317
1772608929190379300,8.078379150390624,0.3772731125354767,0.23309914767742157,0.37457358837127686
1772608929200377300,8.08837744140625,0.30956223607063293,0.24555769562721252,0.4337458312511444
1772608929210375200,8.098375244140625,0.27084532380104065,0.143574520945549,0.5023614168167114
1772608929220373200,8.108373291015624,0.24889476597309113,0.026625797152519226,0.5638372898101807
1772608929230371300,8.118371337890625,0.2293810248374939,-0.030193815007805824,0.595867931842804
1772608929240369200,8.128369140625,0.199803426861763,-0.021486610174179077,0.5932518839836121
1772608929250367200,8.1383671875,0.17846247553825378,0.017017368227243423,0.6128748059272766
1772608929260365000,8.148364990234375,0.14718765020370483,0.10047630965709686,0.6928178668022156
1772608929270363100,8.158363037109375,0.10385693609714508,0.22320084273815155,0.791876494884491
1772608929280361200,8.168361328125,0.05499672144651413,0.3239133358001709,0.870326578617096
1772608929290358000,8.17835791015625,-0.004816431552171707,0.3267754316329956,0.9179642796516418
1772608929300356000,8.188356201171874,-0.08104568719863892,0.250609815120697,0.9013999104499817
1772608929310354200,8.198354248046876,-0.1340712308883667,0.15810056030750275,0.8405858874320984
1772608929320352000,8.20835205078125,-0.15590594708919525,0.10534734278917313,0.7624852657318115
1772608929330350000,8.21835009765625,-0.13808807730674744,0.11433098465204239,0.6964489817619324
1772608929340348200,8.22834814453125,-0.08756683766841888,0.14338074624538422,0.6599077582359314
1772608929350346000,8.238345947265625,-0.032446663826704025,0.17945531010627747,0.6349261403083801
1772608929360344000,8.248343994140624,0.0004263315349817276,0.193691223859787,0.6555275917053223
1772608929370342100,8.258342041015625,-0.012126060202717781,0.14606912434101105,0.703097403049469
1772608929380340200,8.26834033203125,-0.06696055084466934,0.03154068440198898,0.72648686170578
1772608929390338300,8.27833837890625,-0.10943828523159027,-0.08002213388681412,0.7048704028129578
1772608929400335000,8.288335205078125,-0.11986935883760452,-0.14049001038074493,0.6169639825820923
1772608929410333200,8.298333251953125,-0.103950634598732,-0.19148975610733032,0.43806660175323486
1772608929420331300,8.308331298828126,-0.07411684095859528,-0.26233971118927,0.16669607162475586
1772608929430329000,8.3183291015625,-0.06117920204997063,-0.43292316794395447,-0.17917238175868988
1772608929440327200,8.3283271484375,-0.0644194707274437,-0.6253264546394348,-0.5092560648918152
1772608929450325000,8.338324951171876,-0.0883861556649208,-0.7034833431243896,-0.7019444704055786
1772608929460323000,8.348322998046875,-0.14390960335731506,-0.6387674808502197,-0.7127417325973511
1772608929470321200,8.358321044921874,-0.26830312609672546,-0.4468950033187866,-0.6085813641548157
1772608929480319000,8.368319091796875,-0.46370431780815125,-0.15688075125217438,-0.47154226899147034
1772608929490317000,8.378317138671875,-0.6610166430473328,0.05783752351999283,-0.417740136384964
1772608929500315100,8.388315185546874,-0.7920162081718445,0.09470712393522263,-0.4758327305316925
1772608929510312200,8.398312255859375,-0.7713062167167664,0.09935841709375381,-0.5845776200294495
1772608929520310300,8.408310302734375,-0.5776321291923523,0.10403386503458023,-0.6310908198356628
1772608929530308400,8.418308349609376,-0.2865494191646576,0.05413907393813133,-0.5127047300338745
1772608929540306200,8.42830615234375,0.013861797749996185,-0.07711855322122574,-0.250076025724411
1772608929550304300,8.43830419921875,0.3008279502391815,-0.22392432391643524,0.05925041437149048
1772608929560302000,8.448302001953126,0.5311343669891357,-0.3775474429130554,0.2903438210487366
1772608929570300200,8.458300048828125,0.6253839731216431,-0.5309901833534241,0.40518733859062195
1772608929580298200,8.46829833984375,0.6100002527236938,-0.6008912324905396,0.4513721466064453
1772608929590296300,8.47829638671875,0.5379739999771118,-0.5806946754455566,0.4506511688232422
1772608929600294400,8.48829443359375,0.3936415910720825,-0.4474591016769409,0.40740063786506653
1772608929610292200,8.498292236328124,0.1390107423067093,-0.19872990250587463,0.28219422698020935
1772608929620289300,8.508289306640625,-0.17536823451519012,0.090286985039711,0.05928126350045204
1772608929630287000,8.518287109375,-0.447951078414917,0.28874829411506653,-0.22614817321300507
1772608929640285200,8.52828515625,-0.6039026379585266,0.33391281962394714,-0.5137078166007996
1772608929650283300,8.538283203125,-0.6685299277305603,0.2986690402030945,-0.7550382614135742
1772608929660281000,8.548281005859375,-0.6247172355651855,0.20678332448005676,-0.9430108070373535
1772608929670279200,8.558279052734376,-0.49181291460990906,0.09771605581045151,-1.0695953369140625
1772608929680277200,8.56827734375,-0.2894235849380493,0.03479408100247383,-1.1378929615020752
1772608929690275000,8.578275146484375,-0.03855738788843155,0.016959507018327713,-1.1393098831176758
1772608929700273200,8.588273193359376,0.2233988642692566,-0.037778571248054504,-1.0383414030075073
1772608929710271200,8.598271240234375,0.4314328730106354,-0.1260327249765396,-0.7992678880691528
1772608929720269300,8.608269287109374,0.5240456461906433,-0.19375504553318024,-0.4575595259666443
1772608929730266400,8.618266357421875,0.485350638628006,-0.2420666366815567,-0.10490471869707108
1772608929740264200,8.62826416015625,0.353132963180542,-0.2869952321052551,0.16420291364192963
1772608929750262300,8.63826220703125,0.19143840670585632,-0.29610762000083923,0.30980411171913147
1772608929760260400,8.64826025390625,0.0502149760723114,-0.17843477427959442,0.34900665283203125
1772608929770258200,8.658258056640625,-0.07717837393283844,0.03928006812930107,0.3183521330356598
1772608929780256300,8.66825634765625,-0.17496459186077118,0.2760918140411377,0.2308526337146759
1772608929790254300,8.67825439453125,-0.20578263700008392,0.47299543023109436,0.08609102666378021
1772608929800252200,8.688252197265625,-0.14457307755947113,0.6435296535491943,-0.09086963534355164
1772608929810250200,8.698250244140626,-0.03214848041534424,0.7677149176597595,-0.2309436947107315
1772608929820248300,8.708248291015625,0.08710227906703949,0.7814704179763794,-0.2784701883792877
1772608929830246100,8.71824609375,0.21901093423366547,0.654205858707428,-0.19910912215709686
1772608929840243500,8.728243408203125,0.3551621437072754,0.4364122450351715,-0.03205408900976181
1772608929850241300,8.7382412109375,0.44414275884628296,0.18439871072769165,0.1782042384147644
1772608929860239400,8.7482392578125,0.48399242758750916,-0.05326204001903534,0.40464484691619873
1772608929870237400,8.758237548828125,0.44987115263938904,-0.21082811057567596,0.5837314128875732
1772608929880235300,8.7682353515625,0.36352959275245667,-0.25377506017684937,0.7029840350151062
1772608929890233300,8.7782333984375,0.2659790813922882,-0.16665026545524597,0.7758222818374634
1772608929900231400,8.7882314453125,0.19562098383903503,-0.0012778532691299915,0.8218427896499634
1772608929910229200,8.798229248046875,0.14617857336997986,0.18787486851215363,0.8521883487701416
1772608929920227300,8.808227294921876,0.11681324243545532,0.3537229597568512,0.848504900932312
1772608929930225200,8.81822509765625,0.0912964791059494,0.463510125875473,0.8062521815299988
1772608929940223200,8.82822314453125,0.07564614713191986,0.5104720592498779,0.7458245158195496
1772608929950220300,8.83822021484375,0.07351067662239075,0.5061771273612976,0.6872885823249817
1772608929960218000,8.848218017578125,0.05204452946782112,0.4393565356731415,0.6315129399299622
1772608929970216200,8.85821630859375,0.008694098331034184,0.3066093325614929,0.5394634008407593
1772608929980214300,8.86821435546875,-0.026234323158860207,0.12620757520198822,0.36163395643234253
1772608929990212000,8.878212158203125,-0.0032659387215971947,-0.047483135014772415,0.08106587082147598
1772608930000210200,8.888210205078124,0.09822073578834534,-0.12563812732696533,-0.24906276166439056
1772608930010208300,8.898208251953125,0.24557507038116455,-0.1351710855960846,-0.5112221240997314
1772608930020206300,8.908206298828125,0.37830862402915955,-0.14902430772781372,-0.5598093867301941
1772608930030204400,8.918204345703124,0.42773470282554626,-0.15675173699855804,-0.36004799604415894
1772608930040202200,8.9282021484375,0.32161733508110046,-0.17901070415973663,-0.02875157818198204
1772608930050199300,8.93819921875,0.10242083668708801,-0.2356974184513092,0.2544308006763458
1772608930060197400,8.948197265625,-0.13187848031520844,-0.30047640204429626,0.3303772509098053
1772608930070195200,8.9581953125,-0.359190434217453,-0.3631293773651123,0.17635968327522278
1772608930080193300,8.968193359375,-0.556943953037262,-0.4068584740161896,-0.14780747890472412
1772608930090191400,8.97819140625,-0.7205847501754761,-0.37742695212364197,-0.5015897154808044
1772608930100189200,8.988189208984375,-0.8195067644119263,-0.14446613192558289,-0.7548313140869141
1772608930110187300,8.998187255859374,-0.8167158961296082,0.23879574239253998,-0.8607875108718872
1772608930120185000,9.00818505859375,-0.6881775856018066,0.6217567324638367,-0.8311145901679993
1772608930130183200,9.01818310546875,-0.4478849768638611,0.8804247379302979,-0.7108750939369202
1772608930140181200,9.02818115234375,-0.1761605143547058,0.8870072960853577,-0.515873908996582
1772608930150179000,9.038178955078125,0.09630127996206284,0.6113935112953186,-0.24445542693138123
1772608930160176400,9.04817626953125,0.3418516516685486,0.15273834764957428,0.060104742646217346
1772608930170174500,9.058174560546876,0.49731993675231934,-0.35407310724258423,0.3376534581184387
1772608930180172300,9.06817236328125,0.549560010433197,-0.7743497490882874,0.5316916108131409
1772608930190170400,9.07817041015625,0.5369977355003357,-0.9889892339706421,0.5732995271682739
1772608930200168400,9.08816845703125,0.4828855097293854,-0.9830535650253296,0.43074241280555725
1772608930210166300,9.098166259765625,0.381898432970047,-0.8039523363113403,0.15284700691699982
1772608930220164400,9.108164306640624,0.27467530965805054,-0.511971652507782,-0.1886429488658905
1772608930230162200,9.118162109375,0.18151932954788208,-0.21178977191448212,-0.5044226050376892
1772608930240160300,9.12816015625,0.11559808999300003,-0.0034839827567338943,-0.7550891637802124
1772608930250158300,9.138158447265624,0.07605968415737152,0.1240231841802597,-0.9277881383895874
1772608930260156200,9.14815625,0.054364241659641266,0.15476804971694946,-1.0167778730392456
1772608930270153200,9.1581533203125,0.053530000150203705,0.07617998123168945,-1.029928207397461
1772608930280151300,9.1681513671875,0.09403801709413528,-0.054145269095897675,-0.9680526256561279
1772608930290149000,9.178149169921875,0.1508338302373886,-0.2030649036169052,-0.8420398831367493
1772608930300147200,9.188147216796875,0.1858874261379242,-0.34800398349761963,-0.6602813005447388
1772608930310145000,9.19814501953125,0.20281267166137695,-0.4368935823440552,-0.4461277723312378
1772608930320143000,9.20814306640625,0.21975809335708618,-0.4442630708217621,-0.24319516122341156
1772608930330141200,9.21814111328125,0.2436201572418213,-0.38916015625,-0.10545691847801208
1772608930340139300,9.22813916015625,0.24982133507728577,-0.312568724155426,-0.037153229117393494
1772608930350137300,9.238137451171875,0.2203880101442337,-0.22907528281211853,-0.01117327343672514
1772608930360135400,9.248135498046874,0.1594088077545166,-0.16361424326896667,-0.029050007462501526
1772608930370133200,9.25813330078125,0.10541604459285736,-0.08724779635667801,-0.08127876371145248
1772608930380130300,9.26813037109375,0.060805972665548325,0.035296496003866196,-0.16014668345451355
1772608930390128000,9.278128173828126,0.025845985859632492,0.20188966393470764,-0.2324133664369583
1772608930400126200,9.288126220703125,0.021713558584451675,0.32593250274658203,-0.2756795883178711
1772608930410124300,9.298124267578125,0.033959195017814636,0.37705403566360474,-0.2510164678096771
1772608930420122000,9.3081220703125,0.043926339596509933,0.37472963333129883,-0.13091827929019928
1772608930430120200,9.3181201171875,0.037628423422575,0.29357725381851196,0.05994071066379547
1772608930440116200,9.3281162109375,0.03452256694436073,0.16862334311008453,0.25178107619285583
1772608930450114300,9.3381142578125,0.04124651476740837,0.057198017835617065,0.4034276008605957
1772608930460112400,9.3481123046875,0.06325747817754745,0.016273895278573036,0.5082897543907166
1772608930470110200,9.358110107421876,0.10071749985218048,0.01683289371430874,0.5821855664253235
1772608930480108300,9.3681083984375,0.12954820692539215,0.022877758368849754,0.6415063142776489
1772608930490106400,9.3781064453125,0.1278775930404663,0.055786702781915665,0.6882756948471069
1772608930500104200,9.388104248046876,0.11477289348840714,0.14813721179962158,0.7109283804893494
1772608930510102300,9.398102294921875,0.08282162249088287,0.27645018696784973,0.6766985058784485
1772608930520100400,9.408100341796874,0.03383389860391617,0.3570130169391632,0.5817025899887085
1772608930530098200,9.41809814453125,-0.019440773874521255,0.41954243183135986,0.4532465636730194
1772608930540096300,9.42809619140625,-0.061289332807064056,0.4948571026325226,0.377069354057312
1772608930550093000,9.438093017578124,-0.06999174505472183,0.5587857365608215,0.4073377847671509
1772608930560091100,9.448091064453125,-0.06970781087875366,0.5155786275863647,0.5443957448005676
1772608930570089200,9.458089111328125,-0.07476063072681427,0.3416702449321747,0.7012889981269836
1772608930580086800,9.468086669921876,-0.08151426911354065,0.10119590163230896,0.7633312344551086
1772608930590084600,9.478084716796875,-0.03421812132000923,-0.06996413320302963,0.6268929243087769
1772608930600082700,9.488082763671875,0.067790187895298,-0.21250396966934204,0.3091784119606018
1772608930610080800,9.498080810546876,0.2273087352514267,-0.30170947313308716,-0.010911956429481506
1772608930620078600,9.50807861328125,0.40999507904052734,-0.2710475027561188,-0.155020073056221
1772608930630076700,9.51807666015625,0.5152897834777832,-0.230309396982193,-0.1264299601316452
1772608930640074800,9.52807470703125,0.4770258069038391,-0.1732906997203827,0.021977173164486885
1772608930650072600,9.538072509765625,0.32140693068504333,-0.14976035058498383,0.14130009710788727
1772608930660069600,9.548069580078124,0.13746348023414612,-0.19121970236301422,0.1266462653875351
1772608930670067700,9.558067626953125,-0.041900694370269775,-0.21591493487358093,0.015869151800870895
1772608930680065500,9.5680654296875,-0.20870381593704224,-0.27009037137031555,-0.0992194265127182
1772608930690063600,9.578063720703126,-0.37693488597869873,-0.31110385060310364,-0.1882513016462326
1772608930700061400,9.5880615234375,-0.5291746258735657,-0.2927250564098358,-0.27659907937049866
1772608930710059500,9.5980595703125,-0.6268636584281921,-0.17935480177402496,-0.35030099749565125
1772608930720057600,9.6080576171875,-0.675046443939209,0.07912163436412811,-0.3384252190589905
1772608930730055700,9.6180556640625,-0.6699348092079163,0.4397466778755188,-0.1960448920726776
1772608930740053800,9.6280537109375,-0.636664092540741,0.7497894167900085,0.002611056435853243
1772608930750051800,9.6380517578125,-0.5675960779190063,0.8888207674026489,0.1665339469909668
1772608930760049700,9.648049560546875,-0.47793298959732056,0.8117926716804504,0.2546199560165405
1772608930770046700,9.658046630859374,-0.3921656310558319,0.5684407353401184,0.2784635126590729
1772608930780044500,9.66804443359375,-0.3169517517089844,0.2435162216424942,0.20064190030097961
1772608930790042600,9.678042724609375,-0.24408315122127533,-0.05109676718711853,0.026023488491773605
1772608930800040700,9.688040771484374,-0.1903972178697586,-0.24645908176898956,-0.2167849838733673
1772608930810038500,9.69803857421875,-0.15573084354400635,-0.2841140329837799,-0.4891858994960785
1772608930820036600,9.70803662109375,-0.15954609215259552,-0.20959427952766418,-0.7647239565849304
1772608930830034700,9.71803466796875,-0.19434843957424164,-0.13479645550251007,-1.0054347515106201
1772608930840032500,9.728032470703125,-0.1956792175769806,-0.08592212200164795,-1.1518752574920654
1772608930850030600,9.738030517578125,-0.144523486495018,-0.0965312048792839,-1.1694332361221313
1772608930860028700,9.748028564453126,-0.0618206188082695,-0.16655637323856354,-1.0722424983978271
1772608930870026500,9.758026611328125,0.03772813826799393,-0.2840152680873871,-0.8493350744247437
1772608930880023800,9.76802392578125,0.1402909904718399,-0.42828747630119324,-0.5462755560874939
1772608930890021600,9.778021728515625,0.24610461294651031,-0.6075119972229004,-0.2458513379096985
1772608930900019700,9.788019775390625,0.33939647674560547,-0.8025442957878113,0.00023327767848968506
1772608930910017800,9.798017822265624,0.39916670322418213,-0.9181653261184692,0.1504945307970047
1772608930920015600,9.808015625,0.3920768201351166,-0.8882489800453186,0.20873253047466278
1772608930930013700,9.818013671875,0.3395300507545471,-0.7628209590911865,0.17855224013328552
1772608930940011800,9.82801171875,0.263779878616333,-0.612090528011322,0.051881901919841766
1772608930950009600,9.838009521484375,0.18577413260936737,-0.4622960090637207,-0.10381084680557251
1772608930960007700,9.848007568359375,0.10084140300750732,-0.32852861285209656,-0.24354131519794464
1772608930970005800,9.858005859375,0.014195876196026802,-0.22656287252902985,-0.3561343848705292
1772608930980003600,9.868003662109375,-0.07065616548061371,-0.1364510953426361,-0.44181597232818604
1772608930990000600,9.878000732421874,-0.16874733567237854,-0.04133186861872673,-0.5041441321372986
1772608930999998500,9.88799853515625,-0.2666134536266327,0.03822261467576027,-0.5476202964782715
1772608931009996500,9.89799658203125,-0.33394625782966614,0.05212726071476936,-0.5757228136062622
1772608931019994600,9.90799462890625,-0.3538864254951477,0.07324506342411041,-0.55070960521698
1772608931029992700,9.91799267578125,-0.32024526596069336,0.1743270307779312,-0.4524613916873932
1772608931039990800,9.92799072265625,-0.22163905203342438,0.2661307156085968,-0.28602686524391174
1772608931049988900,9.93798876953125,-0.07733140140771866,0.24393786489963531,-0.10976127535104752
1772608931059986700,9.947986572265625,0.07449647784233093,0.15297625958919525,0.051995933055877686
1772608931069984800,9.95798486328125,0.2010815292596817,0.12165088206529617,0.19362007081508636
1772608931079982800,9.96798291015625,0.28336119651794434,0.19919386506080627,0.3077618181705475
1772608931089980700,9.977980712890625,0.26684504747390747,0.30163392424583435,0.3798397183418274
1772608931099977700,9.987977783203124,0.15626953542232513,0.3584662973880768,0.3997598886489868
1772608931109975600,9.9979755859375,0.034688800573349,0.4331364035606384,0.34911519289016724
1772608931119973600,10.0079736328125,-0.06369343400001526,0.5512310266494751,0.27208298444747925
1772608931129971700,10.0179716796875,-0.15737339854240417,0.633234977722168,0.17687645554542542
1772608931139969500,10.027969482421875,-0.21317967772483826,0.6588215231895447,0.15878106653690338
1772608931149967600,10.037967529296875,-0.1942833513021469,0.5627733469009399,0.26962098479270935
1772608931159965700,10.047965576171874,-0.09678608924150467,0.39334625005722046,0.4726598560810089
1772608931169963500,10.057963623046875,0.0725954994559288,0.32757624983787537,0.725786030292511
1772608931179961600,10.067961669921875,0.2378326654434204,0.3402464985847473,0.9546263813972473
1772608931189959700,10.077959716796874,0.3678191602230072,0.36740460991859436,1.107280969619751
1772608931199957500,10.08795751953125,0.44058549404144287,0.3376784026622772,1.1849980354309082
1772608931209954800,10.097954833984375,0.43307074904441833,0.1705186814069748,1.1583514213562012
1772608931219952600,10.10795263671875,0.3244633078575134,0.00996708869934082,1.0255459547042847
1772608931229950700,10.11795068359375,0.18104299902915955,0.016090435907244682,0.798681378364563
1772608931239948800,10.12794873046875,0.09794385731220245,0.030195865780115128,0.5455202460289001
1772608931249946600,10.137946533203126,0.0846879631280899,-0.040761061012744904,0.35117635130882263
1772608931259944700,10.14794482421875,0.14072273671627045,-0.20978736877441406,0.29715147614479065
1772608931269942800,10.15794287109375,0.18847694993019104,-0.2653369903564453,0.37703531980514526
1772608931279940600,10.167940673828125,0.14152248203754425,-0.12624114751815796,0.5114445686340332
1772608931289938700,10.177938720703125,-0.01101398654282093,0.025162316858768463,0.511529266834259
1772608931299936800,10.187936767578124,-0.1777089536190033,0.03621310368180275,0.3349456787109375
1772608931309933600,10.19793359375,-0.29181069135665894,-0.09825742989778519,0.05767025426030159
1772608931319931600,10.207931640625,-0.31699007749557495,-0.21005266904830933,-0.2337101846933365
1772608931329929500,10.217929443359376,-0.2894766926765442,-0.19242620468139648,-0.46118003129959106
1772608931339927600,10.227927490234375,-0.269242525100708,0.02927502803504467,-0.5578591823577881
1772608931349925600,10.237925537109374,-0.2521025836467743,0.34785372018814087,-0.5524174571037292
1772608931359923700,10.247923828125,-0.2061832845211029,0.7082585692405701,-0.48252174258232117
1772608931369921800,10.257921875,-0.11635087430477142,1.0198569297790527,-0.36101841926574707
1772608931379920000,10.267919921875,-0.001053042709827423,1.1558352708816528,-0.17794954776763916
1772608931389917700,10.277917724609376,0.13999271392822266,0.9831633567810059,0.0991593450307846
1772608931399915800,10.287915771484375,0.2678406834602356,0.6262779831886292,0.46427392959594727
1772608931409913900,10.297913818359374,0.3473320007324219,0.2904244363307953,0.8514341711997986
1772608931419910700,10.30791064453125,0.36581140756607056,0.03207731246948242,1.129082441329956
1772608931429908700,10.31790869140625,0.3581560254096985,-0.05861140415072441,1.2092708349227905
1772608931439906600,10.327906494140626,0.345417320728302,0.06478643417358398,1.0553232431411743
1772608931449904600,10.337904541015625,0.3313383460044861,0.3667260408401489,0.6651517748832703
1772608931459902700,10.34790283203125,0.29150626063346863,0.6689170598983765,0.22474457323551178
1772608931469900500,10.357900634765626,0.19513261318206787,0.8517006039619446,-0.15568123757839203
1772608931479898600,10.367898681640625,0.06827133893966675,0.8456778526306152,-0.3483782410621643
1772608931489896700,10.377896728515625,-0.1239783763885498,0.5844265222549438,-0.2785317897796631
1772608931499894500,10.38789453125,-0.21272023022174835,-0.01765725016593933,-0.25999459624290466
1772608931509892600,10.397892578125,-0.15395738184452057,-0.4245874583721161,-0.25927144289016724
1772608931519890700,10.407890625,-0.02339084818959236,-0.6425570845603943,-0.31646814942359924
1772608931529888500,10.417888427734376,0.03994221240282059,-0.831433892250061,-0.46523550152778625
1772608931539885800,10.4278857421875,0.015443796291947365,-0.8586681485176086,-0.6270278692245483
1772608931549883600,10.437883544921876,-0.03815314918756485,-0.7733807563781738,-0.6908718943595886
1772608931559881700,10.4478818359375,-0.07357238978147507,-0.514915406703949,-0.5855436325073242
