time,seconds_elapsed,z,y,x
1772561369351860200,0.075860107421875,-0.2710825477361679,-0.9088656336195766,0.6614012773580848
1772561369361889000,0.085888916015625,-0.9432283603399991,-0.6871377761609851,-0.19458178411871194
1772561369371919000,0.095919189453125,-1.0072633178770543,-0.15705460201799867,-0.08540814656391739
1772561369381949200,0.10594921875,-1.0570727661848067,0.005207797776162624,-0.40091348113343117
1772561369391978200,0.115978271484375,-1.0026765746086834,0.03664791504815221,-0.6021123453043401
1772561369402008300,0.12600830078125,-1.0706640691637992,0.04533917102590203,-0.37861703978180883
1772561369412038400,0.136038330078125,-0.9971779771924019,0.07938026457652449,-0.15988777961730957
1772561369422068200,0.146068115234375,-0.9375883086264133,0.016437632320821283,-0.041294425679743285
1772561369432097300,0.15609716796875,-0.8422714931190013,-0.2584570210494101,-0.05699205328822136
1772561369442127000,0.166127197265625,-0.44604865401983257,-0.5699164412289858,-0.1349807173758745
1772561369452157200,0.1761572265625,-0.11160217987596988,-0.613822949103266,-0.38793724131286145
1772561369462186200,0.186186279296875,0.12050327921211719,-0.35625527810901403,-1.2971315223649142
1772561369472216000,0.196216064453125,0.3577046001344919,-0.2645478852704167,-1.6967599321238696
1772561369482246100,0.20624609375,0.2911450925558805,-0.20024667801260948,-1.4448654844604432
1772561369492275200,0.216275146484375,-0.10948094993829727,0.006016191549599171,-1.0188184388533235
1772561369502305300,0.22630517578125,-0.7568710914701223,0.004021364470571279,-0.22273250445649026
1772561369512335400,0.23633544921875,-0.45756607333421706,-0.20420272216200827,0.08812646561190486
1772561369522364200,0.2463642578125,0.2273679091721773,-0.22628522850200533,-0.23691505132690072
1772561369532394200,0.256394287109375,0.45742637260258195,-0.22560426050052046,-0.5488632048714905
1772561369542424300,0.26642431640625,0.7419476631045341,-0.23879487372413277,-0.985807711263746
1772561369552453400,0.276453369140625,1.021588780349493,-0.24824001680910585,-1.6033815373331308
1772561369562483200,0.286483154296875,1.0194505992770195,-0.3049338178031146,-2.0098694575980303
1772561369572513300,0.29651318359375,1.3112573706120252,-0.3289106134571135,-1.9042628648750484
1772561369582542000,0.3065419921875,0.9555173485487699,-0.6121050392694771,-2.0912132773324847
1772561369592572200,0.316572265625,0.8959300180703401,-0.8087060542561113,-1.6732183130167424
1772561369602602200,0.326602294921875,0.982910382387042,-0.9000766163557767,-1.123653754942864
1772561369612631300,0.33663134765625,0.8469412384957075,-0.9618445057436823,-0.930150779036805
1772561369622661000,0.3466611328125,0.8770435312926769,-0.8925140721470117,-0.9470952649012208
1772561369632691200,0.356691162109375,1.0026783281743525,-0.7721640838004649,-1.060064056955278
1772561369642720300,0.36672021484375,1.0948094993829727,-0.7419565770633518,-1.2324603127509355
1772561369652750300,0.376750244140625,1.2713134827584027,-0.7496984233617782,-1.3263377431049943
1772561369662780200,0.3867802734375,1.3195038054317234,-0.8009706376984715,-1.3511509895831346
1772561369672809200,0.396809326171875,1.4464479313462972,-0.8991793752551078,-1.396854902268201
1772561369682839000,0.406839111328125,1.5481237604916094,-0.9697093938998878,-1.202639028852433
1772561369692869000,0.416869140625,1.5466338141947984,-1.1013267723225058,-0.8777708957191556
1772561369702899200,0.426899169921875,1.5111369688779115,-1.2718316614136098,-0.5180727106146514
1772561369712928300,0.43692822265625,1.5723060155898332,-1.4809829458937047,-0.28232465724051
1772561369722958300,0.446958251953125,1.6287866122245787,-1.6770285189546643,-0.1681369909159839
1772561369732988200,0.45698828125,1.4931950694739817,-1.6922537067458032,-0.15745266142487524
1772561369743017200,0.467017333984375,1.3857429950147866,-1.6135766220025718,-0.23751345561146736
1772561369753047300,0.47704736328125,1.3069786703795194,-1.6000502009533344,-0.3337768312539905
1772561369763077400,0.487077392578125,1.2403764927029608,-1.6416349878817795,-0.4111561312716454
1772561369773106400,0.4971064453125,1.145676932311058,-1.6625398287445305,-0.4464434254910797
1772561369783136300,0.50713623046875,1.003058267402649,-1.6623280856899916,-0.39045229287371036
1772561369793166000,0.517166015625,0.9305939196944236,-1.6480287805721163,-0.21854031346365807
1772561369803195100,0.527195068359375,0.7943056268513202,-1.6357427149727939,-0.07024557568021118
1772561369813225200,0.53722509765625,0.6383312212854624,-1.6742051320970057,0.03791333187408745
1772561369823255300,0.54725537109375,0.5592933404058218,-1.665027261646092,0.08985307020880282
1772561369833284000,0.5572841796875,0.4263315616369247,-1.5805220552712678,0.11929299010690302
1772561369843314200,0.567314208984375,0.21667349667847155,-1.5733340434633194,0.09694131143670529
1772561369853344300,0.57734423828125,0.006141571494936942,-1.605178211491555,0.12963833343461156
1772561369863373300,0.587373291015625,-0.259288065046072,-1.6043074200063943,0.27059491034969685
1772561369873403400,0.5974033203125,-0.42158173676133154,-1.5608290744163096,0.19092837617769837
1772561369883433200,0.60743310546875,-0.5164426251947879,-1.3560555666290224,0.004662913777120411
1772561369893462300,0.617462158203125,-0.6481687246888875,-1.0835752809241412,-0.22536720034163443
1772561369903492000,0.6274921875,-0.7244955930441618,-0.8386001111298799,-0.5163482614422217
1772561369913522200,0.637522216796875,-0.9446791436702012,-0.6626524464629591,-0.7075300643917173
1772561369923551200,0.64755126953125,-1.1901111173212529,-0.67018518005535,-0.6719087889775633
1772561369933580500,0.65758056640625,-1.285457158923149,-0.8662368905961513,-0.44290465690568087
1772561369943610600,0.667610595703125,-1.3186924890488385,-1.1572425746813415,-0.08602138309143482
1772561369953639400,0.677639404296875,-1.2065706692129372,-1.3961159204691647,0.2687372997842729
1772561369963669500,0.68766943359375,-1.145761103463173,-1.5391832059279082,0.5604289203070104
1772561369973699600,0.697699462890625,-1.154880813986063,-1.5387076973706484,0.7094841941341757
1772561369983728600,0.707728759765625,-1.232860125723481,-1.382996911177039,0.6331588601488619
1772561369993758700,0.7177587890625,-1.6476228301197289,-0.9880044906556605,0.38683359091989694
1772561370003788800,0.727788818359375,-2.5612586007505653,-0.6219295370608567,0.031616825545765455
1772561370013817600,0.737817626953125,-3.5861499297767874,-0.44379766022264955,-0.45756662132348863
1772561370023847700,0.74784765625,-4.24305608767271,-0.19851152478307485,-0.9058161829210817
1772561370033877500,0.75787744140625,-4.2966655127853155,0.048339083494246,-1.0555315280921758
1772561370043907600,0.767907470703125,-4.235134647023678,0.33638416420817374,-1.0086774955239146
1772561370053936600,0.7779365234375,-3.8647996978968377,0.6940998702585697,-0.6526647939991206
1772561370063966500,0.787966552734375,-3.046830871385336,0.9857777545168995,-0.26931471607973795
1772561370073996500,0.79799658203125,-2.0757062038600442,1.2606836599335074,0.013439162890892475
1772561370084025600,0.808025634765625,-1.357991064736247,1.5404317446842788,0.24618702980205415
1772561370094055700,0.8180556640625,-0.7904331693321466,1.6302777275651692,0.388595924417302
1772561370104085800,0.828085693359375,-0.30117957983613014,1.4888950341925025,0.44095483801215885
1772561370114114600,0.838114501953125,-0.029934535014629362,1.3341536775529383,0.3608949571410194
1772561370124144600,0.84814453125,0.028276246413588522,1.2533759672686458,0.17650412950590252
1772561370134174500,0.858174560546875,-0.011349077010154723,1.319303314423561,-0.06643266632854938
1772561370144203800,0.868203857421875,-0.013128361642360687,1.3968719995334744,-0.26496516083441674
1772561370154233600,0.878233642578125,-0.027529227438569066,1.405076933299005,-0.47971857617050406
1772561370164263400,0.888263427734375,-0.14988953269422053,1.3832996935158968,-0.6694051355935633
1772561370174292500,0.89829248046875,-0.24463994649052617,1.3430530233234166,-0.8245620872966944
1772561370184322600,0.908322509765625,-0.17521277452111242,1.2910443114057182,-0.8998616584308445
1772561370194352600,0.9183525390625,0.04076631015241146,1.315905196417868,-0.8911034746967256
1772561370204381700,0.928381591796875,0.3317237711817026,1.360650639334321,-0.8054289322815835
1772561370214411500,0.93841162109375,0.7045201419860124,1.3442787657260895,-0.6550827418610453
1772561370224441600,0.948441650390625,1.0679068794101476,1.28710580291301,-0.4816975480932742
1772561370234470700,0.958470703125,1.3820797963321207,1.2125640644088387,-0.320193821179308
1772561370244500700,0.968500732421875,1.6154577595740556,1.1417638505205512,-0.2346683683786541
1772561370254530600,0.978530517578125,1.7638158449172971,1.11406131234169,-0.27471023671403527
1772561370264559600,0.9885595703125,1.853271659436822,1.0824617667242884,-0.3739490845033899
1772561370274589400,0.99858935546875,1.72688341383934,1.1052888078212737,-0.5157569444855675
1772561370284619500,1.00861962890625,1.6077905859470367,1.0937962306872009,-0.5689033917289227
1772561370294648600,1.018648681640625,1.7356851444542407,0.6259767666250466,-0.22849676707163452
1772561370304678700,1.0286787109375,1.5253502031475306,0.2630956406354904,-0.18393522935472428
1772561370314708700,1.038708740234375,1.1991174305975436,0.22126403933912514,-0.2862272907022387
1772561370324737500,1.048737548828125,1.033383263039589,0.30586481504291296,-0.353203014398925
1772561370334767600,1.058767578125,0.9209434632956981,0.4393725372567773,-0.4429464502207935
1772561370344797700,1.068797607421875,0.8003069130927324,0.570820404331386,-0.4477827843360603
1772561370354826800,1.07882666015625,0.6364192501842976,0.5971849719047546,-0.3452119791124016
1772561370364856800,1.08885693359375,0.3979629607647657,0.4805290157705545,-0.25797457129471
1772561370374886400,1.098886474609375,0.18783786281645296,0.34265520730167626,-0.25437055545337495
1772561370384915700,1.108915771484375,0.1300795013308525,0.3002384995937347,-0.2605467781365849
1772561370394945500,1.118945556640625,0.19950082808136937,0.33226357714682814,-0.30980127770900723
1772561370404975600,1.1289755859375,0.3558165944308042,0.38997196201086043,-0.34253231157436964
1772561370415004400,1.13900439453125,0.4789695113688707,0.3861433436334133,-0.33893483507167543
1772561370425034500,1.149034423828125,0.5639157395094633,0.2911298949867487,-0.35564313756003973
1772561370435064600,1.159064697265625,0.6874246302783489,0.18890373848229647,-0.3441828552603721
1772561370445093600,1.16909375,0.8094184403091669,0.12369301516413687,-0.20079453942002728
1772561370455123700,1.179123779296875,0.8957733662039041,0.020845219630002975,-0.12367849344843998
1772561370465153800,1.18915380859375,0.9446130926966667,-0.11424100394695996,-0.08819653517343104
1772561370475183400,1.199183349609375,0.9793336929440498,-0.19161971944272518,-0.07937865714132786
1772561370485212700,1.209212646484375,1.0178992781817913,-0.23333178601264953,-0.13282304615164175
1772561370495242500,1.219242431640625,1.0909037241160868,-0.23843553889244792,-0.16984317377936095
1772561370505272600,1.2292724609375,1.1570464675873517,-0.246859668366611,-0.1330435205019079
1772561370515301600,1.239301513671875,1.147251049759984,-0.29987901863157745,-0.07519890550496056
1772561370525331500,1.24933154296875,1.167187922373414,-0.3595008359014988,-0.08601084343111141
1772561370535361500,1.259361572265625,1.079431897509098,-0.4056874175369739,-0.057357909192238
1772561370545390600,1.269390625,0.9812018249034881,-0.4766995206102729,0.03304377134265378
1772561370555420700,1.279420654296875,0.9151561120659112,-0.5277329577550292,0.04163554900130257
1772561370565450800,1.28945068359375,0.8087491627454757,-0.5036760826021432,0.12508309954935684
1772561370575479600,1.2994794921875,0.6922270621240139,-0.48522506463229653,0.25660918295932933
1772561370585509600,1.309509521484375,0.5295259786516427,-0.48419981323778627,0.3336472135249525
1772561370595539500,1.31953955078125,0.45906478745937346,-0.4329544869080186,0.3147790661215782
1772561370605568800,1.32956884765625,0.4224064971476793,-0.32076836966425176,0.3020122495342977
1772561370615598600,1.3395986328125,0.34259529380798337,-0.22616876251548526,0.31602716648653145
1772561370625628700,1.349628662109375,0.23463000912964344,-0.20517565884739158,0.27341175786871463
1772561370635657500,1.359657470703125,0.1620341439962387,-0.18824089065939187,0.17447651440212503
1772561370645687600,1.3696875,0.19009294826686382,-0.1827539836809039,0.0824789977768436
1772561370655717600,1.379717529296875,0.28033962090313436,-0.21667057406902313,0.10006685957871377
1772561370665746700,1.38974658203125,0.3209709064990282,-0.3377294413372874,0.24265027051065116
1772561370675776800,1.39977685546875,0.2572083361625671,-0.4953106975778937,0.40560328291747716
1772561370685806600,1.409806640625,0.11973638649284839,-0.6266054199174046,0.5096328355820849
1772561370695835600,1.419835693359375,-0.14350129296183586,-0.6456456359520554,0.45960024604294447
1772561370705865700,1.42986572265625,-0.5900590655475855,-0.47258887042105197,0.2619432557299733
1772561370715895600,1.4398955078125,-1.2647878803819417,-0.2051519857108593,-0.11171389662213622
1772561370725924600,1.449924560546875,-2.070953456375003,-0.019322832368314266,-0.6536595771901309
1772561370735954400,1.459954345703125,-2.694627206754684,0.07176964344233273,-1.0917516461823136
1772561370745984500,1.469984619140625,-3.0874335154086348,0.15453881980478762,-1.3307304251059888
1772561370756013600,1.480013671875,-3.1928198895096775,0.35096535500735043,-1.3916647862792013
1772561370766043600,1.490043701171875,-3.0812837606072425,0.5450456193447113,-1.2635352499723433
1772561370776073700,1.50007373046875,-2.683714183074236,0.60460693859905,-1.060369761903584
1772561370786102500,1.5101025390625,-1.9991677385807036,0.6266209097474813,-0.9472720827728509
1772561370796132600,1.520132568359375,-1.2670903121054171,0.7493143924802541,-0.9020655982159077
1772561370806162700,1.53016259765625,-0.5813906059235334,0.8728814431771635,-0.9451189963921904
1772561370816191700,1.540191650390625,0.009911153161525726,0.914367592036724,-1.0804145518708974
1772561370826221800,1.550221923828125,0.49829906573891636,0.9002984424129128,-1.2448141828894614
1772561370836251400,1.56025146484375,0.8344201950967312,0.8639373814821243,-1.4354514671660958
1772561370846280400,1.570280517578125,1.0231289955288172,0.798976979663223,-1.5968009898990392
1772561370856310500,1.580310546875,0.9794044200927019,0.6482463199697435,-1.5741474056728184
1772561370866340600,1.590340576171875,0.9128180245071649,0.4361630736909807,-1.5715711254440248
1772561370876369700,1.60036962890625,0.8573959970146418,0.3199136525310576,-1.7786480878680944
1772561370886399500,1.6103994140625,0.8911030363053083,0.3261794349275529,-2.021086724922061
1772561370896429600,1.6204296875,0.9307640155643224,0.33967180757671595,-2.1328375194884837
1772561370906458600,1.630458740234375,0.976560136577487,0.244794114138931,-2.0751181748390195
1772561370916488700,1.64048876953125,0.9990151294916868,0.05310410593897104,-1.86277744666785
1772561370926518300,1.650518310546875,1.031377768436074,-0.1775605066910386,-1.638486168462038
1772561370936547300,1.66054736328125,1.0250754534214734,-0.3940552858017385,-1.5018186670430003
1772561370946577400,1.670577392578125,1.1120686772197483,-0.5553180070340633,-1.4005446966968476
1772561370956607200,1.680607177734375,1.2349708342671393,-0.6080611707061528,-1.2668679015263915
1772561370966636300,1.69063623046875,1.2366653632253408,-0.6460445721417665,-1.0657628531187773
1772561370976666000,1.700666015625,1.2000836452811956,-0.6970927684642374,-0.9121743928413838
1772561370986696200,1.7106962890625,1.124087616315484,-0.7830554801709949,-0.7777116349250077
1772561370996725200,1.720725341796875,1.0048305377721787,-0.8564392808116972,-0.6706349696494639
1772561371006755300,1.73075537109375,0.9761579855173825,-0.8770971611760556,-0.6271994402877986
1772561371016785400,1.740785400390625,0.9634580784201622,-0.847862298863381,-0.6326910965066402
1772561371026814200,1.750814208984375,0.9307979178339243,-0.8417945232570171,-0.6818069365270435
1772561371036844300,1.76084423828125,0.8696323782533407,-0.8955744826309382,-0.7287281160473823
1772561371046874400,1.770874267578125,0.7724713961839675,-0.9801851952068507,-0.7192796119615436
1772561371056903400,1.7809033203125,0.6961877824485302,-1.0736161969676614,-0.7353143625698983
1772561371066933200,1.790933349609375,0.6505687715679407,-1.1784918450675903,-0.7667248884212226
1772561371076963000,1.800963134765625,0.5515303051888942,-1.2540975595414638,-0.7833667380772531
1772561371086992400,1.810992431640625,0.470751718121767,-1.3427531635940073,-0.8380509528145194
1772561371097022200,1.821022216796875,0.5192167660832405,-1.4066535349659621,-0.8669802563093603
1772561371107052300,1.83105224609375,0.5818044474214316,-1.44359385708943,-0.8259129173837602
1772561371117081000,1.8410810546875,0.695753482684493,-1.4824676314935088,-0.7558927479572594
1772561371127111200,1.851111083984375,0.769980748412013,-1.50999758958444,-0.690892817845568
1772561371137141200,1.861141357421875,0.8220277465134859,-1.534216377300769,-0.623826018331945
1772561371147171300,1.87117138671875,0.8495172264635562,-1.5718936353966593,-0.6113100894995034
1772561371157200400,1.881200439453125,0.840561766591668,-1.5589797932878136,-0.6114142439937219
1772561371167230500,1.89123046875,0.8471879067331552,-1.5432130459658802,-0.5654826600326225
1772561371177260300,1.90126025390625,0.8426011634647845,-1.5338257705479859,-0.5598813694268465
1772561371187289300,1.911289306640625,0.8242156119465828,-1.5161685333043335,-0.5911891655560583
1772561371197319200,1.921319091796875,0.8234031265199184,-1.4818993300862608,-0.5939471955599263
1772561371207349200,1.931349365234375,0.8003659498035908,-1.4827870727062225,-0.5355008152775466
1772561371217378300,1.94137841796875,0.7601946829348802,-1.5278195158705115,-0.4858222268078476
1772561371227408100,1.951408203125,0.7189291910886764,-1.5499462997436522,-0.4659510763743892
1772561371237438200,1.961438232421875,0.6725614076673984,-1.539514045317471,-0.42571204149909314
1772561371247467300,1.97146728515625,0.621522709825635,-1.476172915263474,-0.3953898954063654
1772561371257497300,1.981497314453125,0.5638508575797081,-1.384940154199302,-0.4035566160533577
1772561371267527400,1.99152734375,0.5050345114737749,-1.2149404381513595,-0.39962015338726337
1772561371277556200,2.00155615234375,0.45569618780910964,-1.0079507156193255,-0.3430499787729233
1772561371287586300,2.01158642578125,0.3803302734404802,-0.7945609167866409,-0.30344540587626395
1772561371297616100,2.0216162109375,0.3421364441245794,-0.5534789550386369,-0.3748858173642307
1772561371307645400,2.0316455078125,0.3228741097718477,-0.2409501520618796,-0.5206657227825373
1772561371317675300,2.04167529296875,0.28968495687544343,0.06076441143378615,-0.6730198189593851
1772561371327705300,2.051705322265625,0.4101934967845678,0.19702888500988483,-0.6499735821537673
1772561371337734100,2.061734130859375,0.5379395867317914,0.1266297992683947,-0.41163565841689703
1772561371347764200,2.07176416015625,0.6686258217841387,-0.018718436734378337,-0.10529073170684278
1772561371357794300,2.081794189453125,0.7757470568537712,-0.07571896559000015,0.23006175136603413
1772561371367823400,2.0918232421875,0.7281517774641514,0.030978491109609603,0.5004853968020528
1772561371377853200,2.101853271484375,0.41826165242791175,0.34337197726890445,0.5398815145798027
1772561371387883300,2.11188330078125,-0.39364451304376125,0.9177868989609181,0.38188948558121916
1772561371397912300,2.121912353515625,-1.6502648690611124,1.5790345931924878,0.18909473100975155
1772561371407942400,2.1319423828125,-2.746787017580867,1.945202193506807,-0.09624642450772225
1772561371417972200,2.14197216796875,-3.3142782774895427,2.0372902562260626,-0.3703684860702604
1772561371428001300,2.152001220703125,-3.476774193778634,2.010753400825709,-0.4647148491103202
1772561371438031000,2.162031005859375,-3.1055893498241898,1.9583416610650717,-0.396778134894371
1772561371448061200,2.172061279296875,-2.475903207287192,1.9005908983640372,-0.280937002274394
1772561371458090200,2.18209033203125,-1.7909832533061503,1.91472712187469,-0.1997506381239742
1772561371468120300,2.192120361328125,-1.0554998177796602,1.9666712441235779,-0.23025347454585135
1772561371478150400,2.202150390625,-0.5447562810093164,1.910345107398182,-0.3557918253157288
1772561371488179200,2.21217919921875,-0.33554245268702504,1.736663634097576,-0.5398663900759071
1772561371498209300,2.222209228515625,-0.3207446965277195,1.4570781925626097,-0.819561940921843
1772561371508239400,2.2322392578125,-0.6044213528990745,1.181602597499266,-1.216873086714372
1772561371518268400,2.242268310546875,-0.9573796352893114,0.8853170002497732,-1.5823207752563058
1772561371528298500,2.252298583984375,-1.27900228369534,0.598579714198783,-1.905731914514303
1772561371538328000,2.262328125,-1.5601760173350572,0.3835539847273379,-2.1335060663998124
1772561371548357400,2.272357421875,-1.4800328055620193,0.16293730338104068,-2.361895135313272
1772561371558387200,2.28238720703125,-1.1793874787330627,-0.03500548160336912,-2.5287305421113966
1772561371568417300,2.292417236328125,-0.7753232784837484,-0.18877017523050307,-2.5512618151322006
1772561371578446300,2.3024462890625,-0.36484804214835165,-0.3738658997319638,-2.5199358257591724
1772561371588476200,2.31247607421875,0.0830541307836771,-0.5873267179742455,-2.507822778639197
1772561371598506200,2.32250634765625,0.6225432850450277,-0.7780699468433856,-2.4893647464066744
1772561371608535300,2.332535400390625,1.0443465556025504,-0.9726346336968242,-2.355740850467235
1772561371618565400,2.3425654296875,1.416501705893874,-1.2583368045464158,-2.1433359710186717
1772561371628595500,2.352595458984375,1.7443109339803455,-1.6263643535137176,-1.9133828676588833
1772561371638624300,2.362624267578125,1.90584940341413,-1.9345432907178997,-1.7376088059931993
1772561371648654300,2.372654296875,1.9708125817120075,-2.1727574419446287,-1.563180459848046
1772561371658684200,2.38268408203125,1.9986001678258178,-2.3199618272081017,-1.4911594719931482
1772561371668713200,2.392713134765625,1.8693641315817833,-2.414265812411159,-1.5438450602591036
1772561371678743300,2.402743408203125,1.6088316194325685,-2.5499296897456047,-1.463593419675529
1772561371688773000,2.412773193359375,1.2934417279362678,-2.6925869330987333,-1.33917676641196
1772561371698802200,2.42280224609375,1.0000245987951755,-2.768753934717178,-1.2482345127269625
1772561371708832300,2.432832275390625,0.6797229698598385,-2.691493000382185,-1.1650194922931492
1772561371718862300,2.4428623046875,0.38761458522975445,-2.5041522734329105,-1.106132419038564
1772561371728891400,2.452891357421875,0.06680325320661068,-2.306963521686196,-1.0143830867543815
1772561371738921200,2.462921142578125,-0.11746961060464381,-2.1408935463026166,-0.8931881720162927
1772561371748951300,2.472951416015625,-0.25160277124047276,-1.920621294479817,-0.7994125946015119
1772561371758980400,2.48298046875,-0.3492863158792257,-1.707140602493286,-0.684266020116955
1772561371769010400,2.493010498046875,-0.3318804230481386,-1.5364343456111846,-0.5737979223048314
1772561371779040300,2.503040283203125,-0.23103344594240188,-1.3935051534488796,-0.4948781879121437
1772561371789069000,2.513069091796875,-0.08500877198278904,-1.2456507798440755,-0.3669561934087425
1772561371799099100,2.52309912109375,0.01413549285829067,-1.1371613982263953,-0.1762832532968372
1772561371809129200,2.533129150390625,0.12097206576764583,-1.1211163454197346,0.0727495943903923
1772561371819158300,2.543158203125,0.22319617644548415,-1.166223753516376,0.2752173094533384
1772561371829188400,2.553188232421875,0.29602409676909447,-1.215483312856406,0.37234413352478296
1772561371839218400,2.563218505859375,0.3618523674637079,-1.1894199201866984,0.41873021978773173
1772561371849247200,2.573247314453125,0.4369213447123766,-1.1286167841777204,0.42498876872584224
1772561371859277300,2.58327734375,0.4493167159050703,-1.053223835671693,0.4216997736504301
1772561371869307400,2.593307373046875,0.438420058837533,-1.0175669774875045,0.4850337433112785
1772561371879337200,2.603337158203125,0.5049643688470125,-0.9924164618790149,0.5400965090373531
1772561371889366300,2.6133662109375,0.516627334111929,-0.9461671902708708,0.5908473298484459
1772561371899396000,2.62339599609375,0.49495852313935756,-0.9206488642632961,0.577631545650959
1772561371909426200,2.63342626953125,0.39475393559038635,-0.9341232628643512,0.6068771485533565
1772561371919455200,2.643455322265625,0.22092238629460334,-0.9340276935353875,0.6681102004121988
1772561371929485600,2.653485595703125,0.03874211084842682,-0.8733855933070183,0.6829834329605102
1772561371939515600,2.663515625,-0.20002046804130078,-0.779736711011827,0.6253230519566685
1772561371949544400,2.67354443359375,-0.47217853605449195,-0.6638494011625647,0.5585980516180395
1772561371959574500,2.683574462890625,-0.8297533723294734,-0.5312839282348751,0.41680294151958075
1772561371969604600,2.6936044921875,-1.0977005446493624,-0.3626813656337559,0.1502598638439551
1772561371979633700,2.703633544921875,-1.1958780102849007,-0.1085711416170001,-0.08631979978242889
1772561371989663500,2.71366357421875,-1.1739794822096823,0.09584887655749917,-0.20069422085070981
1772561371999693300,2.723693359375,-1.0166139145463704,0.08332038050442933,-0.26342125586066395
1772561372009722400,2.733722412109375,-0.8515040163666009,-0.1628855001285672,-0.1882094360752031
1772561372019752400,2.74375244140625,-0.738714088010788,-0.4168962092936039,-0.024983753339992833
1772561372029782500,2.753782470703125,-0.6651163523584603,-0.4211841157458722,-0.04262469703597016
1772561372039811300,2.763811279296875,-0.7971043176591396,-0.20477818396240471,-0.10514210788323543
1772561372049841400,2.77384130859375,-1.1511439655452966,0.12454364064410328,-0.2919988233083859
1772561372059871500,2.78387158203125,-1.6750626257091759,0.5083177709281445,-0.6361253818042576
1772561372069900500,2.793900634765625,-2.349237898313999,0.7727373536437749,-1.0448410611212253
1772561372079930600,2.8039306640625,-2.7793665141463277,0.8143298854872584,-1.3394745803147554
1772561372089960400,2.81396044921875,-2.776402403643727,0.7550305781699717,-1.3903813223399222
1772561372099989500,2.823989501953125,-2.50421861666739,0.6401639896705746,-1.32951637314111
1772561372110019300,2.834019287109375,-2.068530613142252,0.615641396702081,-1.0588608917105942
1772561372120049400,2.84404931640625,-1.5420044008284806,0.7127545941069722,-0.668186845844984
1772561372130078500,2.854078369140625,-1.0177274287462235,0.9291118644431233,-0.4480374897494912
1772561372140108500,2.864108642578125,-0.574580341386795,1.2012370531000196,-0.49367652050480243
1772561372150138400,2.874138427734375,-0.24657763655483722,1.3790097412370144,-0.6250001766778528
1772561372160167400,2.88416748046875,-0.10616320369243622,1.4026504368044435,-0.6772239195857197
1772561372170197500,2.894197509765625,0.03325812647938728,1.319231856622547,-0.6588028583627193
1772561372180227600,2.9042275390625,0.21267945860624313,1.251227703193575,-0.7290604898069053
1772561372190256600,2.914256591796875,0.37361937762498854,1.2325164268523454,-0.7966192375559359
1772561372200286500,2.924286376953125,0.5575105486422777,1.2064013039954007,-0.7764056668929755
1772561372210316500,2.934316650390625,0.7457061388552189,1.1145255688525735,-0.6712609925933182
1772561372220345600,2.944345703125,0.8873264403760432,0.9349759341709315,-0.5347635139789432
1772561372230375400,2.95437548828125,1.0399544581234454,0.7605664388567209,-0.4134607549522072
1772561372240405500,2.964405517578125,1.2649679131239653,0.6213460380844772,-0.25596145964032035
1772561372250434300,2.974434326171875,1.5384703814834355,0.5128773339286447,-0.08335738804657011
1772561372260464400,2.98446435546875,1.8172481598973274,0.4225318770930171,0.0902144691334106
1772561372270494500,2.994494384765625,2.0438275490403175,0.36456527968421576,0.2710042948681861
1772561372280523500,3.0045234375,2.263124964481592,0.3076844316855073,0.3657551835885271
1772561372290553600,3.0145537109375,2.3910002337664364,0.26962533466517924,0.41433541889488695
1772561372300583400,3.02458349609375,2.3976672904402014,0.21383008994609115,0.43961664821095764
1772561372310612500,3.034612548828125,2.354953937873244,0.09311141441762447,0.4066130079492926
1772561372320642600,3.044642578125,2.2304338242352006,-0.11005670399963854,0.36824648894760753
1772561372330672400,3.05467236328125,1.9945523537397383,-0.2921528082937002,0.38670499610416587
1772561372340701700,3.06470166015625,1.834123306852579,-0.41186873652040956,0.3169725210452452
1772561372350731300,3.074731201171875,1.7571651548564433,-0.44753217057585715,0.19456927169701083
1772561372360761300,3.08476123046875,1.7015192554801701,-0.4314011199861765,0.08110794688565656
1772561372370790400,3.094790283203125,1.6595973455518482,-0.4624614441603422,-0.006041380789782852
1772561372380820500,3.104820556640625,1.536196006810665,-0.5878378823667765,-0.09390258306162431
1772561372390850600,3.1148505859375,1.4215624964147806,-0.7172241407364607,-0.15475386906126512
1772561372400879400,3.12487939453125,1.2700333798199892,-0.8649421746104955,-0.16765371917737648
1772561372410909400,3.134909423828125,1.1227882241547107,-1.0417200064912437,-0.17216699535073712
1772561372420939500,3.144939453125,1.0180348872601985,-1.182042669416964,-0.3041864152356051
1772561372430968600,3.154968505859375,0.9243068022489547,-1.2482991023957728,-0.4901450219104066
1772561372440998700,3.16499853515625,0.7594704603135586,-1.3164081775039433,-0.6442585655078291
1772561372451028500,3.175028564453125,0.4902344172269106,-1.4586182616114616,-0.7359360746648163
1772561372461057500,3.1850576171875,0.21575696635544298,-1.6169468290880322,-0.6797204856418073
1772561372471087400,3.19508740234375,0.10417524474561214,-1.7231807599291205,-0.6250261148367077
1772561372481117400,3.205117431640625,0.026790391770005223,-1.7195070398524404,-0.5684351166300475
1772561372491147500,3.2151474609375,-0.1140980883449316,-1.6726336449965833,-0.45741840849183496
1772561372501176600,3.225176513671875,-0.16486089185476302,-1.638471263153851,-0.36240137964859603
1772561372511206400,3.235206298828125,-0.29592881970107554,-1.621242480455339,-0.2567569208669476
1772561372521236500,3.245236572265625,-0.4701560903161764,-1.5953972605809568,-0.13003314143847675
1772561372531265500,3.255265625,-0.669300360044837,-1.5533333118334411,0.05856929427599534
1772561372541295600,3.265295654296875,-0.8240630517333746,-1.5087626409620045,0.13808381622405722
1772561372551325400,3.275325439453125,-1.035551839250326,-1.3102423483505845,0.10391306841177865
1772561372561354500,3.2853544921875,-1.260415656647086,-1.015270098721981,-0.06163144005928188
1772561372571384300,3.29538427734375,-1.4208739296287298,-0.7581143695294856,-0.2544220664449036
1772561372581414400,3.305414306640625,-1.396792212295532,-0.6498825428694486,-0.3611766601592302
1772561372591443500,3.315443359375,-1.290931206420064,-0.747324679967761,-0.23321002279650418
1772561372601473500,3.3254736328125,-1.1680313874602317,-1.0922767660349606,0.2815439369252883
1772561372611503400,3.33550341796875,-1.1509563340187072,-1.4753475703552363,0.9302677564799785
1772561372621532400,3.345532470703125,-1.1390689123481512,-1.5047385000124573,1.5275931597687302
1772561372631562500,3.3555625,-1.3369792563676832,-1.0499360461726783,1.59254742410779
1772561372641592600,3.365592529296875,-2.0771675085842607,-0.17568974438309667,0.9419589249260722
1772561372651621600,3.37562158203125,-3.020276626458764,0.5615668382957577,0.0504878590259701
1772561372661651500,3.3856513671875,-3.6247622767657037,0.8081792539030312,-0.6320012876115739
1772561372671681300,3.395681396484375,-3.9064953978538512,0.8572428522795438,-1.1835657142657785
1772561372681710600,3.405710693359375,-3.6246880424857135,1.0534650970816613,-1.4433632632039486
1772561372691740400,3.415740478515625,-2.70325182723701,1.282344579860568,-1.2932922364629804
1772561372701770500,3.4257705078125,-1.6411182705312966,1.3452782981574534,-0.8457575816690921
1772561372711799300,3.43579931640625,-0.7027203990876674,1.3112170386016369,-0.32169432540275156
1772561372721829400,3.445829345703125,0.14459551793932915,1.3248191552355886,0.06125177482562139
1772561372731859500,3.455859375,0.8755155910730361,1.2793991740584372,0.2404801964625716
1772561372741888500,3.465888427734375,1.4014946908980608,1.1529723500162363,0.34131942865327
1772561372751918600,3.475918701171875,1.6900713942706584,0.9950079396769403,0.37056320492476225
1772561372761948700,3.48594873046875,1.7150807478427885,0.8402484628587961,0.23868143994491545
1772561372771977500,3.4959775390625,1.572955419409275,0.7501765622675418,-0.03009783581756055
1772561372782007600,3.506007568359375,1.3754507335811852,0.7290501876085996,-0.3143706314511597
1772561372792037400,3.516037353515625,1.074385135513544,0.7155699437886476,-0.5054970509516075
1772561372802066700,3.526066650390625,0.8240940313935279,0.7038368358969688,-0.6380837493304163
1772561372812096500,3.536096435546875,0.7541495575517415,0.7284636198922991,-0.7171485912822186
1772561372822126300,3.546126220703125,0.7558382412910462,0.7619485408648848,-0.6364188117928803
1772561372832155400,3.5561552734375,0.8350152383804321,0.7780553337961434,-0.49320283857844766
1772561372842185500,3.566185546875,0.9481862750083208,0.7737287027686834,-0.352888687752746
1772561372852215600,3.576215576171875,1.0512532662510872,0.7493269597008824,-0.06945939373858273
1772561372862244400,3.586244384765625,1.159450021597743,0.6385203141167759,0.316801950251311
1772561372872274400,3.5962744140625,1.310852881464362,0.5069958746746183,0.6437257738053799
1772561372882304500,3.606304443359375,1.5623077686667441,0.4444879805743694,0.7553499463174491
1772561372892333600,3.61633349609375,1.7447469873100518,0.4995461431905627,0.6966491894152015
1772561372902363600,3.62636376953125,1.862057607960701,0.5599193633496761,0.44480636234115806
1772561372912393500,3.6363935546875,1.9704057544767855,0.5942591475859285,0.21778595143239943
1772561372922422500,3.646422607421875,2.006353266170621,0.5264002478465437,0.11396452509313822
1772561372932452600,3.65645263671875,1.9666420180290936,0.3776411804869771,0.07551021821014582
1772561372942482700,3.666482666015625,1.9019278460562228,0.2418275194182992,0.12987590505015104
1772561372952511700,3.67651171875,1.8359891007244586,0.13776421061456204,0.26052933381143956
1772561372962541800,3.686541748046875,1.7382950346916912,-0.0012993921607732772,0.3791770848173648
1772561372972572000,3.696572021484375,1.6764479425877332,-0.16217355246692894,0.4059261216636747
1772561372982600700,3.7066005859375,1.5935159768790006,-0.2353103926092386,0.4104163092223927
1772561372992630800,3.716630859375,1.501486512479186,-0.25754151363968847,0.45055480633266265
1772561373002660900,3.726660888671875,1.3962854318171738,-0.29655455038398504,0.43458139399010687
1772561373012690700,3.736690673828125,1.2680126876473425,-0.3189125126644969,0.4302740156523883
1772561373022719700,3.7467197265625,1.140385840165615,-0.34485680899918075,0.4246423299083486
1772561373032749800,3.756749755859375,1.0124351675570011,-0.3981444548115134,0.36428375932909546
1772561373042779600,3.766779541015625,0.9058160367906093,-0.4477271086260676,0.3008759207144379
1772561373052808700,3.77680859375,0.8183277229517698,-0.4650640278741717,0.32967728698067367
1772561373062838800,3.7868388671875,0.7273252635121346,-0.5161027257159352,0.3726803066765889
1772561373072868900,3.796868896484375,0.6091022041916847,-0.563904925854504,0.40669074936062094
1772561373082897700,3.806897705078125,0.5604179605215788,-0.615151713488996,0.41751916349753737
1772561373092927700,3.816927734375,0.4707283372461796,-0.6267725931778549,0.37069505114350465
1772561373102957800,3.826957763671875,0.31096389174759387,-0.6659700465783477,0.3375423943325877
1772561373112987000,3.83698681640625,0.1774707825809717,-0.7404708685502409,0.3351173591427505
1772561373123017000,3.847016845703125,-0.03537409572005272,-0.7767728927701711,0.3012548735620454
1772561373133046800,3.857046875,-0.32055940308868885,-0.7861734660610556,0.20338380699455738
1772561373143075600,3.86707568359375,-0.6915063466340303,-0.827710176064074,0.10630619235970079
1772561373153105700,3.877105712890625,-1.002574867799878,-0.8393228724464774,-0.07709993508700282
1772561373163135700,3.8871357421875,-1.2474188124299048,-0.7064487719610333,-0.3114406058812514
1772561373173164800,3.897164794921875,-1.4643915843158959,-0.4772390343144536,-0.5428627588802948
1772561373183195000,3.90719482421875,-1.6041946072816848,-0.3186673057317734,-0.7326535458628087
1772561373193224700,3.917224609375,-1.480462429150939,-0.3021232904270291,-0.7951200850393623
1772561373203253800,3.927253662109375,-1.2481658314049242,-0.4814464228764176,-0.702453053388372
1772561373213283800,3.937283935546875,-1.1447416972875595,-0.7334449154362082,-0.4877370109206065
1772561373223314000,3.94731396484375,-1.0861579908937216,-0.8301783197432756,-0.4138500099981203
1772561373233343000,3.957343017578125,-1.070675759601593,-0.6670239395454526,-0.5485769352760166
1772561373243372800,3.967372802734375,-1.2398457468271256,-0.38212270981520413,-0.8115748876906931
1772561373253402600,3.977402587890625,-1.5045856475383041,-0.09509615849405527,-1.150823501419276
1772561373263431700,3.987431640625,-1.9861077659994362,0.2079457080826163,-1.6125358807779848
1772561373273459700,3.997459716796875,-2.4987509989112615,0.4762997076377272,-2.083890971620381
1772561373283489800,4.00748974609375,-2.6561978151172396,0.6263701498568057,-2.344366785146296
1772561373293518800,4.017518798828125,-2.495088969272375,0.6732327310577034,-2.436183337447792
1772561373303549000,4.027548828125,-2.164333750861883,0.6735334675699473,-2.3867443298876285
1772561373313578800,4.037578857421875,-1.7648890271067619,0.6582616641581058,-2.133816739784181
1772561373323607800,4.04760791015625,-1.3970587542772293,0.6876216141551733,-1.7970964754894374
1772561373333637600,4.0576376953125,-0.9874415960758924,0.7651637035191059,-1.5506103166103362
1772561373343667700,4.067667724609375,-0.5200181455940008,0.8553516317054629,-1.5353211236722766
1772561373353696800,4.07769677734375,-0.19689327593147754,0.9718339848384261,-1.6365926098003982
1772561373363726800,4.087726806640625,-0.004691957208514213,1.0594190370500087,-1.7692518984913825
1772561373373757000,4.0977568359375,0.1665700338602066,1.0998393102437256,-1.9235089787453412
1772561373383785700,4.10778564453125,0.3189478762388229,1.0632818499580026,-1.9510151175692676
1772561373393815800,4.11781591796875,0.4282107995122671,0.9912973947212099,-1.9087753738634288
1772561373403846000,4.127845947265625,0.6105781219631433,0.8602195300027727,-1.8029376027330755
1772561373413875000,4.137875,0.8287555934637785,0.7314093179553747,-1.664222521134466
1772561373423904800,4.14790478515625,1.0950415545731782,0.6441808240965008,-1.5129780666999517
1772561373433934600,4.1579345703125,1.4730875164687633,0.6092451197937131,-1.3632671054430305
1772561373443963600,4.167963623046875,1.8337977281600235,0.6184069158926606,-1.2089327221691608
1772561373453993700,4.17799365234375,2.079975551742315,0.6536188067883253,-1.0480018632397055
1772561373464023800,4.18802392578125,2.263098660996556,0.6568629032760858,-0.8487600514207034
1772561373474052600,4.198052490234375,2.414166589820385,0.5446680182039737,-0.6572540945507586
1772561373484082700,4.208082763671875,2.5708330693036316,0.3942877793833613,-0.5462662471808493
1772561373494112800,4.21811279296875,2.6427684247016905,0.3323360578611493,-0.4581828900583088
1772561373504141800,4.228141845703125,2.6046798093259333,0.2709475231796503,-0.3666196549307555
1772561373514172000,4.238171875,2.5417817468643187,0.10124795912206172,-0.26659831499420106
1772561373524202000,4.248201904296875,2.482451606017351,-0.09982084892839192,-0.2261068031951785
1772561373534230800,4.258230712890625,2.3466426211237907,-0.20772914272248744,-0.15840926802996544
1772561373544260900,4.2682607421875,2.174957436206937,-0.28257366356551644,-0.0867064062135294
1772561373554290700,4.278290771484375,1.9486551104396581,-0.33426381105333564,-0.09932166723459958
1772561373564319700,4.28831982421875,1.7634405818641186,-0.3518313241869211,-0.21504845275990664
1772561373574349800,4.298349853515625,1.5576853695631026,-0.34295360572636124,-0.28828683531424026
1772561373584379600,4.308379638671875,1.3035977957695721,-0.3842436474919319,-0.33336865231189877
1772561373594408700,4.31840869140625,1.035460653835535,-0.474127332034707,-0.38954412852022796
1772561373604438800,4.328438720703125,0.7236234863847494,-0.5785512908443808,-0.45740470876004546
1772561373614468900,4.33846875,0.45253100177645683,-0.6632257163062691,-0.534083495825529
1772561373624498000,4.348497802734375,0.2066670664489269,-0.7003101230755447,-0.6157972448509186
1772561373634527700,4.35852783203125,0.04489537278115749,-0.7233198272630572,-0.6561936987776309
1772561373644557800,4.368557861328125,-0.005374678775668144,-0.7668807365700602,-0.6605943448893725
1772561373654587000,4.3785869140625,-0.009815291571617125,-0.7863076138347387,-0.6129540573142469
1772561373664616700,4.38861669921875,-0.002738485053181648,-0.8055375072225928,-0.5280138935882598
1772561373674646800,4.398646728515625,0.06589841332137585,-0.8096540026307105,-0.429892688184604
1772561373684675600,4.408675537109375,0.100111648568511,-0.846649269811809,-0.308593399756588
1772561373694705700,4.41870556640625,0.0934065979719162,-0.8993915567010641,-0.17884605298954992
1772561373704735700,4.42873583984375,0.045970893058180806,-0.9827867560073733,-0.08015813534753397
1772561373714764800,4.438764892578125,-0.108612350410223,-1.0765525426805018,0.01644448218671605
1772561373724795000,4.448794921875,-0.3307826909393072,-1.170787408170104,0.059391058987658465
1772561373734824700,4.45882470703125,-0.579615997466445,-1.214469605769217,0.03832191267497837
1772561373744853800,4.468853759765625,-0.8965402589231729,-1.1802315283417701,-0.047478849935717875
1772561373754883800,4.4788837890625,-1.1546908443719148,-1.1558680714577436,-0.15345212054662405
1772561373764914000,4.488913818359375,-1.3307242876261471,-1.0930617789328099,-0.2980179374674335
1772561373774943700,4.49894384765625,-1.4983990678578614,-0.9325316097587346,-0.4895434027554467
1772561373784972500,4.50897265625,-1.4826415267556905,-0.8313233981251716,-0.5541414375353604
1772561373795002600,4.519002685546875,-1.3282856623023747,-1.0109443444773554,-0.2834323627540842
1772561373805032700,4.52903271484375,-1.2450976760059593,-1.3948402014449237,0.20907880376577376
1772561373815061800,4.539061767578125,-1.301653091442585,-1.6071619326546787,0.5334991931315511
1772561373825091800,4.549091796875,-1.3561311160832643,-1.4198852108523248,0.5651199642000719
1772561373835122000,4.559121826171875,-1.4738655151039362,-0.9302157340317964,0.4363823424648493
1772561373845150700,4.569150634765625,-1.8919716847091912,-0.3644900224909186,0.12941615118444896
1772561373855180800,4.579180908203125,-2.5254671564012763,0.046995267669856546,-0.3147881262108683
1772561373865211000,4.5892109375,-3.1952053233414888,0.2435895606547594,-0.7133961799461395
1772561373875240000,4.599239990234375,-3.4677217032730576,0.3436450951218605,-0.8162683062039315
1772561373885271800,4.609271728515625,-3.291019566977024,0.5030526900067925,-0.7663732254393398
1772561373895302000,4.619302001953125,-2.8163837008982897,0.6547624238654971,-0.6360053356211632
1772561373905330700,4.62933056640625,-2.123921076452732,0.7015814581856131,-0.34263160723038016
1772561373915360800,4.63936083984375,-1.4178858537286518,0.7663570049569011,0.059826500396011395
1772561373925390800,4.649390869140625,-0.7826818245530128,0.9097104138806462,0.3311562734920531
1772561373935419100,4.659419189453125,-0.23376082507967946,0.9892749489828944,0.4861280778866261
1772561373945449200,4.66944921875,0.1502788242727518,0.9148840171262621,0.6044654477691278
1772561373955479000,4.67947900390625,0.3199930013775825,0.7502218627139926,0.6323761853385717
1772561373965508000,4.689508056640625,0.34281975021362304,0.6456485585615038,0.5783467447156087
1772561373975538200,4.6995380859375,0.2853729388952255,0.594075315451622,0.4187186024151742
1772561373985568000,4.709568115234375,0.1494979030281305,0.5640136469259858,0.28512623412515964
1772561373995597000,4.71959716796875,0.005543605601787567,0.5067229029521346,0.16992303408253936
1772561374005627100,4.729627197265625,-0.12780161952674388,0.5283721324414015,0.02463865709621459
1772561374015657200,4.7396572265625,-0.1933054805725813,0.6078010584652423,-0.09795388601273297
1772561374025686300,4.749686279296875,-0.18373977984786033,0.7222805473431945,-0.1980555246438831
1772561374035716000,4.759716064453125,-0.07233516837060451,0.8359186169609427,-0.21666620842115952
1772561374045746200,4.76974609375,0.2062234143346548,0.8911553510144352,-0.14509979593334718
1772561374055775200,4.779775146484375,0.5639560715198516,0.924276407110691,0.01835459012435749
1772561374065805300,4.789805419921875,0.8839958346486091,0.8817106463208794,0.20783897803882137
1772561374075835100,4.799835205078125,1.1970663432866335,0.794074740704894,0.3817930394694209
1772561374085864200,4.8098642578125,1.574896616604924,0.729778794144094,0.48043256965875625
1772561374095894000,4.81989404296875,1.937173931482434,0.6625389030858874,0.5448404521614313
1772561374105924000,4.829924072265625,2.1506682136029003,0.5778805519759654,0.6081400080960243
1772561374115953200,4.839953125,2.297643904677033,0.42911388583183285,0.6800378810279071
1772561374125983200,4.849983154296875,2.4083219554454085,0.2432549218729138,0.7350535196766257
1772561374136013000,4.860012939453125,2.4325503877729178,0.06761632315516472,0.8078754486508667
1772561374146043100,4.870043212890625,2.4229589680850503,-0.0938590179145336,0.8852679734762757
1772561374156072200,4.880072265625,2.3583891730189324,-0.20314532206356525,0.9033927551664411
1772561374166102300,4.890102294921875,2.271846031075716,-0.2474874448761344,0.9060955843843519
1772561374176132000,4.900132080078125,2.0945108575731513,-0.2544812492862344,0.9395292135611176
1772561374186161200,4.9101611328125,1.8376041347056626,-0.2529202835798263,0.9138651954725384
1772561374196191000,4.92019091796875,1.6518389865100382,-0.24918548096567392,0.8364654371887444
1772561374206221000,4.930220947265625,1.444163619801402,-0.2368266423910856,0.8194524891979992
1772561374216250000,4.94025,1.2708131320208311,-0.23343787673562763,0.8566004627227782
1772561374226280200,4.9502802734375,1.1582640266835689,-0.2535527362644672,0.8854850502930581
1772561374236310300,4.960310302734375,1.02004622708261,-0.271902924208343,0.8785916375175118
1772561374246339000,4.970339111328125,0.8405337095409631,-0.2976595890164375,0.8327142679616808
1772561374256369200,4.980369140625,0.7051350590139627,-0.3459039799645543,0.7784843728631734
1772561374266399200,4.990399169921875,0.6030465574145317,-0.412414387704432,0.721379652980715
1772561374276428300,5.00042822265625,0.5077531227827072,-0.4606675464808941,0.6953815806321799
1772561374286458400,5.010458251953125,0.37415947585105896,-0.4891857849568128,0.6744473675444722
1772561374296488000,5.020488037109375,0.2459124506443739,-0.5313815433904528,0.5845951375858858
1772561374306517200,5.030517333984375,0.10751520282328128,-0.5722554055705666,0.5068794817533344
1772561374316547000,5.040547119140625,-0.029524785169959065,-0.6387406788691878,0.48719972570613024
1772561374326577200,5.0505771484375,-0.18336100966334343,-0.7189847206681966,0.4537020183172077
1772561374336606200,5.060606201171875,-0.30831600758731365,-0.792819479946792,0.4075781997196376
1772561374346636000,5.070635986328125,-0.4550941302627325,-0.8316223810717464,0.369223626884073
1772561374356666000,5.080666015625,-0.5627279910296201,-0.7812944618478417,0.29254874880872667
1772561374366695200,5.090695068359375,-0.6199123520195484,-0.663544865258038,0.180042094373703
1772561374376725200,5.100725341796875,-0.7316103934854269,-0.5244821392655372,0.04538666342943907
1772561374386755300,5.11075537109375,-0.8525047178417444,-0.4306500093579292,-0.10499949367530644
1772561374396784000,5.1207841796875,-0.9619079263687134,-0.35340047319978474,-0.22632541438192127
1772561374406814200,5.130814208984375,-1.0413163941264152,-0.2651438053369522,-0.2793160500090569
1772561374416844000,5.140843994140625,-1.0563275007754565,-0.14488865566700695,-0.3212625829219818
1772561374426873000,5.150873046875,-0.951664180251956,-0.06868366012573242,-0.3403277142021805
1772561374436903200,5.160903076171875,-0.744674457719922,-0.23538375010639428,-0.2227906643845141
1772561374446933000,5.17093310546875,-0.654178778758645,-0.6207078863114118,0.01851290422491729
1772561374456962000,5.180962158203125,-0.700438425630331,-0.7704074493914842,0.14393215865977108
1772561374466992000,5.1909921875,-0.7937275347024202,-0.5351566780149937,-0.021572437926009297
1772561374477022200,5.201022216796875,-1.0245254183232784,-0.09554740939289331,-0.409688616002351
1772561374487051300,5.21105126953125,-1.5591034196674822,0.34525223805755373,-0.9483269986532628
1772561374497081000,5.2210810546875,-2.1958160998404024,0.5966083410605788,-1.4649121010586619
1772561374507111200,5.231111083984375,-2.531315297907591,0.6394064493015408,-1.7501871325373648
1772561374517140200,5.24114013671875,-2.4778011498630046,0.586900601516664,-1.7487687901720403
1772561374527170300,5.25117041015625,-2.1147651255726814,0.5025830266684294,-1.6188469636209308
1772561374537200000,5.2612001953125,-1.6123714839965104,0.4381564394652843,-1.3178455168306826
1772561374547229000,5.27122900390625,-1.0676678099572658,0.44280134266167875,-0.80752444325611
1772561374557259000,5.281259033203125,-0.6748983261823653,0.5004164962843061,-0.36090661104619504
1772561374567289000,5.2912890625,-0.42182022169232364,0.6002972587063908,-0.22384550719968974
1772561374577318100,5.301318115234375,-0.2281079138845205,0.6595934972837567,-0.20075616190470755
1772561374587348200,5.31134814453125,-0.09613163902163505,0.7444681214928627,-0.2947445783525705
1772561374597378300,5.32137841796875,-0.08603753050863742,0.9296241978794336,-0.456070939405635
1772561374607407000,5.331406982421875,-0.10728080954551696,1.0900222651064395,-0.6192649940267205
1772561374617437200,5.341437255859375,-0.0888403129696846,1.1251900245994328,-0.6959913100283592
1772561374627467300,5.35146728515625,-0.16747370470166206,1.0697212353557348,-0.644863618728891
1772561374637496300,5.361496337890625,-0.10709843871593475,0.9360045465663075,-0.5263824199289083
1772561374647526100,5.371526123046875,0.1594417894154787,0.853208482196927,-0.41196394052319224
1772561374657556000,5.381555908203125,0.5254571217775345,0.8721890769988297,-0.28170469871126114
1772561374667585000,5.3915849609375,1.008999932411313,0.8881976702526211,-0.15342567093111573
1772561374677615000,5.401614990234375,1.5693512574374675,0.8922562979936599,-0.008999591274559498
1772561374687645200,5.411645263671875,2.018001618388295,0.8785732250779866,0.13495872473977505
1772561374697674000,5.421674072265625,2.3980641808032988,0.8147168389782309,0.2621983264695853
1772561374707704000,5.4317041015625,2.6883254762619733,0.6758262546822428,0.3811073952928185
1772561374717734100,5.441734130859375,2.840993826019764,0.48451691636294125,0.46068018676675854
1772561374727763200,5.45176318359375,2.8466835620939728,0.28296324740499257,0.5006481130830943
1772561374737793300,5.461793212890625,2.7953946888834236,0.04481850815266371,0.5491808559859171
1772561374747823400,5.4718232421875,2.657722832727432,-0.18026333590894936,0.602506386123225
1772561374757852200,5.48185205078125,2.380031680506468,-0.35020664559453724,0.5953158535646275
1772561374767882000,5.491882080078125,2.143720001900196,-0.4797548165276646,0.5229534318609163
1772561374777912000,5.501912109375,1.8973212290436028,-0.5471382077097893,0.398184859887138
1772561374787941000,5.511941162109375,1.6507909387618303,-0.5768766356304288,0.2259629012124613
1772561374797971200,5.52197119140625,1.4544652335852384,-0.5480383714199066,0.13481829335577786
1772561374808001000,5.5320009765625,1.2071429161429406,-0.5049325124040246,0.09411514810007066
1772561374818030000,5.542030029296875,0.9010656273931265,-0.4775511690035462,0.021049583095684648
1772561374828060200,5.55206005859375,0.6262351253002881,-0.43289954185038804,-0.05877842524833977
1772561374838090200,5.56209033203125,0.3720037591218948,-0.40596828030496834,-0.14824395744428037
1772561374848119300,5.572119384765625,0.13561083197295665,-0.4366834443032741,-0.23191030184216796
1772561374858149000,5.582149169921875,-0.01590191800892353,-0.46637949438691134,-0.3206140558853745
1772561374868179200,5.59217919921875,-0.0909837547391653,-0.47417321700304743,-0.375463982578367
1772561374878208300,5.602208251953125,-0.10024082790613174,-0.5141638666078447,-0.37876642165724184
1772561374888238000,5.612238037109375,-0.06952420260310173,-0.6022647593870759,-0.35628022988718
1772561374898268200,5.62226806640625,-0.0037251580029726027,-0.7135425296142697,-0.34381416807845233
1772561374908297000,5.632296875,0.08985855010151862,-0.7830705316096543,-0.30746461492236704
1772561374918327000,5.6423271484375,0.14808862075209617,-0.8679106690272689,-0.26501462599933145
1772561374928358000,5.65235791015625,0.15922726988196373,-0.9665946228802204,-0.28172378700422124
1772561374938387000,5.662386962890625,0.1313379769593477,-1.0765306231096385,-0.20559994867406783
1772561374948417000,5.6724169921875,0.04165419890284538,-1.181561607901752,-0.11801831226227805
1772561374958446800,5.68244677734375,-0.08615735749602317,-1.2546543166413902,-0.08967508329339324
1772561374968476000,5.692475830078125,-0.3111100222200155,-1.2393702382698655,-0.15597073403773828
1772561374978505700,5.702505615234375,-0.5650450358003377,-1.1682619813457131,-0.2705803338350728
1772561374988535800,5.712535888671875,-0.8279635663032531,-1.0742004265964031,-0.4187494724774733
1772561374998564900,5.72256494140625,-1.0717793369293211,-0.9071867406219244,-0.5992117284920067
1772561375008594700,5.7325947265625,-1.2495669303745032,-0.7023615026473998,-0.7530877004738896
1772561375018624800,5.742624755859375,-1.2967372623503208,-0.557008444339037,-0.8021149854280054
1772561375028653800,5.75265380859375,-1.1911603341132402,-0.527030070182681,-0.7778647796601057
1772561375038684000,5.762683837890625,-0.921400559413433,-0.6504816778063773,-0.5257424780575558
1772561375048714000,5.7727138671875,-0.713704149916768,-0.879464036437869,0.065482233735919
1772561375058742800,5.78274267578125,-0.7082698499083518,-0.990340532387793,0.6590769991289824
1772561375068772900,5.79277294921875,-0.8109551483571529,-0.8799602955222129,0.9139405257310718
1772561375078803000,5.802802978515625,-0.9781097041070461,-0.44227936461418865,0.6892705504059791
1772561375088832000,5.81283203125,-1.4828770890772343,0.20118483564555645,0.1078221316142939
1772561375098861800,5.82286181640625,-2.1296908920258284,0.6063920684501528,-0.5589044872187078
1772561375108892000,5.832891845703125,-2.545429163455963,0.7593231607973575,-1.1321218696892261
1772561375118920700,5.842920654296875,-2.6117478480160234,0.8922814324349164,-1.4820095124624668
1772561375128950800,5.85295068359375,-2.264967961999774,0.991028806912899,-1.4782906380698084
1772561375138980900,5.86298095703125,-1.638213781261444,0.9712097154602408,-1.2402480440177022
1772561375149011000,5.873010986328125,-1.0409393775075673,0.9172837717443704,-0.941597325072065
1772561375159040000,5.8830400390625,-0.5802034419655799,0.8872358394831419,-0.6079349870432168
1772561375169069800,5.89306982421875,-0.21408289566338062,0.8734782400265335,-0.3989981490314007
1772561375179099000,5.903098876953125,0.06711246528625488,0.8727487567082047,-0.17025056727016344
1772561375189129000,5.91312890625,0.14619009365439414,0.8333473051682114,0.05209576914664358
1772561375199158800,5.92315869140625,-0.08659282630383967,0.7387871532469987,-0.01124974482152611
1772561375209188900,5.93318896484375,-0.41278409779965874,0.7361305012583732,-0.3217182908002287
1772561375219217700,5.9432177734375,-0.6256354058414697,0.890810775360465,-0.6964696681298315
1772561375229247700,5.953247802734375,-0.7844266223937273,1.0395485076710582,-1.0011517761942
1772561375239277800,5.96327783203125,-0.9033721507698297,1.077747597683966,-1.2851648979783057
1772561375249307000,5.973306884765625,-0.841194219276309,1.039263260988891,-1.480154386115074
1772561375259337000,5.9833369140625,-0.5680506473571062,1.0131538372203708,-1.4965214374177156
1772561375269366800,5.99336669921875,-0.1579687942534685,0.9445034948423504,-1.4184845502741634
1772561375279395800,6.003395751953125,0.2757756739884615,0.8828487104400992,-1.3384570738352835
1772561375289426000,6.013426025390625,0.7363713242769241,0.8583779937893151,-1.2070017541065812
1772561375299456000,6.0234560546875,1.1478548608720303,0.8587593943223357,-1.0928804310165345
1772561375309485000,6.033485107421875,1.2744137868613004,0.7248883917540312,-0.7771035129640251
1772561375319514600,6.0435146484375,1.5167735134601592,0.548679299671948,-0.6658448858287185
1772561375329544700,6.053544677734375,1.8913404010683297,0.5271154103785753,-0.8578226979941129
1772561375339573800,6.06357373046875,2.0813246282637117,0.630621962082386,-1.0020794124331325
1772561375349603800,6.073603759765625,2.265792137864232,0.6470856056272983,-1.0468038125615566
1772561375359634000,6.083634033203125,2.2681261337697505,0.5752654010415077,-1.020150125848502
1772561375369662700,6.093662841796875,2.1344775417804716,0.4499199424952268,-0.9606044425547122
1772561375379692800,6.10369287109375,1.950603906419873,0.28929361947029825,-0.9300907924778758
1772561375389723000,6.113722900390625,1.7553630738705395,0.19241291564702986,-0.8980612579453736
1772561375399752000,6.123751953125,1.52615275170207,0.1913195674523711,-0.8482949911922216
1772561375409782000,6.133781982421875,1.3458850318789481,0.19344985747933385,-0.7747834725186228
1772561375419811800,6.143811767578125,1.2165186472535132,0.2126888109564781,-0.7732950605917721
1772561375429841000,6.1538408203125,1.0494418329149484,0.27404315110743044,-0.8462010145876556
1772561375439870700,6.16387060546875,0.8004933755755425,0.3411103159472346,-0.8487778062731027
1772561375449900800,6.17390087890625,0.5269879846066237,0.3789341429069638,-0.7689566660612821
1772561375459929900,6.183929931640625,0.3617605975270271,0.40755291914790864,-0.7074082646429538
1772561375469960000,6.1939599609375,0.27410861755907534,0.4836208443060517,-0.7755888706173747
1772561375479989800,6.20398974609375,0.309863237029314,0.5503273591399193,-0.9410179908141493
1772561375490018800,6.214018798828125,0.3822521814137697,0.5780258056655526,-1.0658587147086858
1772561375500049000,6.224048828125,0.3947720557689667,0.5697358239650726,-1.117618493366614
1772561375510079000,6.234078857421875,0.34129882425665853,0.516845360776782,-1.0745482171207665
1772561375520107800,6.244107666015625,0.2959153756976127,0.4100236931756139,-1.0467392228927463
1772561375530137900,6.254137939453125,0.21009178020060063,0.364461380918324,-1.0657676754243672
1772561375540168000,6.26416796875,0.044219080954790116,0.4022396151706576,-1.0990618230652063
1772561375550197000,6.274197021484375,-0.19231939214468002,0.47455929371118544,-1.1369151683803647
1772561375560226800,6.284226806640625,-0.4166501255780458,0.5252835187762975,-1.3202107846572995
1772561375570257000,6.2942568359375,-0.6577911240369081,0.6032979018270969,-1.5642337682932614
1772561375580285700,6.30428564453125,-0.837879980161786,0.7212973815247417,-1.8273967750765383
1772561375590315800,6.314315673828125,-0.8114835561454296,0.835815448847413,-2.069771406983584
1772561375600345900,6.324345947265625,-0.6555132422327995,0.8971551759511232,-2.298771155141294
1772561375610375000,6.334375,-0.35124037255644797,0.7880752080291509,-2.361552897746861
1772561375620405000,6.344405029296875,-0.037007249879837036,0.6963368355304003,-2.153326619157195
1772561375630434800,6.354434814453125,0.09501520221233367,0.5242094598039985,-2.0563031458623704
1772561375640464000,6.3644638671875,-0.13361702780723572,0.2866454430490732,-2.123477862729877
1772561375650494000,6.374493896484375,-0.5692927563726902,0.22293752550929782,-2.1343207437835634
1772561375660523800,6.384523681640625,-1.0032722024142742,0.33743396552205085,-2.1211234085582196
1772561375670553000,6.394552978515625,-1.5536346328675745,0.36253187416046856,-2.2182613020129502
1772561375680582700,6.404582763671875,-2.1947493473917246,0.33533319385051724,-2.4021314302422105
1772561375690612700,6.41461279296875,-2.6655530879616736,0.5014858790814877,-2.5809061350286004
1772561375700641800,6.424641845703125,-2.8531957204669713,0.7662681576296687,-2.7079236184403297
1772561375710672000,6.434671875,-2.6365742462366817,0.9417138641238212,-2.805485582526028
1772561375720702000,6.444701904296875,-2.3310715425044295,1.0107859390452503,-2.7270383610159157
1772561375730730800,6.454730712890625,-2.0841431928157803,1.0170908844083546,-2.4872592985600233
1772561375740760800,6.4647607421875,-1.921306500265002,0.9676046767055988,-2.252607077598572
1772561375750791000,6.474791015625,-1.831648441171646,0.8437462418466806,-2.1179289964310826
1772561375760820000,6.484820068359375,-1.6512667395800351,0.7115294362261891,-2.1253037629827856
1772561375770850000,6.49485009765625,-1.4208072941333054,0.743632985842973,-2.271077384790778
1772561375780880000,6.5048798828125,-1.2104495564728974,0.8314166293665767,-2.4281368091143665
1772561375790909000,6.514908935546875,-0.9734142397671938,0.8269606728710234,-2.579704358023405
1772561375800938800,6.524938720703125,-0.710035690537095,0.8137987012200057,-2.633953250083327
1772561375810968800,6.53496875,-0.30624270844459534,0.8714040641009807,-2.415626140978932
1772561375820998000,6.544997802734375,-0.21615853289365766,0.7206133447833358,-2.2141902531817554
1772561375831027700,6.55502783203125,-0.07420213128626346,0.42131738673672076,-1.9945666745260358
1772561375841057800,6.565057861328125,0.4569821359664201,0.3273993321113288,-1.6634981523826717
1772561375851086800,6.5750869140625,1.0516606780081987,0.4029255516082048,-1.4912740382835268
1772561375861117000,6.585116943359375,1.4749971494823693,0.309933233525604,-1.3909478701815008
1772561375871147000,6.59514697265625,1.732998681849241,0.2500020580455661,-1.2877516996011138
1772561375881175800,6.60517578125,2.0055022022992373,0.2534405080616474,-1.0834935939900576
1772561375891206000,6.615205810546875,2.199184699490666,0.25347601776644585,-0.8846187888525426
1772561375901235700,6.625235595703125,2.2451585151582956,0.2514706692934036,-0.7497540260065346
1772561375911265000,6.63526513671875,2.1441572242736817,0.23293153464868663,-0.6719591309253126
1772561375921294800,6.645294921875,2.0230653315186498,0.24789427211135626,-0.5039001736816019
1772561375931324000,6.655323974609375,1.9027800789713858,0.29096111429110166,-0.2918848780725151
1772561375941353000,6.66535302734375,1.7811667926907537,0.35666780443266033,-0.19748400836624205
1772561375951383000,6.675383056640625,1.6205740796744823,0.5099376272149384,-0.12152378136627376
1772561375961413000,6.6854130859375,1.3258078740119934,0.6004312603496015,-0.08259798451401293
1772561375971442200,6.695442138671875,1.0467834273606538,0.49542190286740656,-0.22865224989429114
1772561375981472000,6.705471923828125,0.8722200566589832,0.3996618736371398,-0.4411850665714592
1772561375991502000,6.715502197265625,0.6245727450460196,0.3680592592798173,-0.5376582490397617
1772561376001531100,6.72553125,0.3634481122225523,0.2570185126788914,-0.5562446203596889
1772561376011561200,6.735561279296875,0.12118950791060924,0.01388502522855997,-0.433291500310041
1772561376021591300,6.74559130859375,-0.08013269037902354,-0.2323305000156164,-0.3172017997564748
1772561376031620000,6.7556201171875,-0.03278349470496177,-0.38110549559667706,-0.27532303485013543
1772561376041650200,6.765650146484375,0.22043314147293566,-0.47719373386800285,-0.15571849457602946
1772561376051680000,6.775679931640625,0.4047650419950485,-0.6050998366825282,0.0078634268514812
1772561376061709000,6.785708984375,0.4799976853728294,-0.8256247480921447,0.07475750014670193
1772561376071739100,6.7957392578125,0.5974754792839289,-1.1075839330211281,0.05059891818501055
1772561376081769000,6.80576904296875,0.7942308080494404,-1.3795916327781974,-0.14331446515284477
1772561376091798000,6.815798095703125,0.9813397720694541,-1.4332695930823682,-0.2019992938335985
1772561376101828000,6.825828125,1.1099059462279082,-1.3983349116928874,-0.14133096318542956
1772561376111858200,6.835858154296875,1.0692816748946905,-1.6208270315222442,-0.13039317038990555
1772561376121887200,6.84588720703125,0.9040642246872186,-2.012599613214284,-0.18443733365796505
1772561376131917000,6.8559169921875,0.6895727482229471,-2.261600969784707,-0.25340770177058874
1772561376141947100,6.865947021484375,0.3025099516570568,-2.3038839681103824,-0.26532778360173104
1772561376151976200,6.87597607421875,-0.30693069070875645,-2.1545301497280596,-0.08306377539485693
1772561376162006000,6.886006103515625,-0.8855804734915494,-1.9265208739124238,0.20820457821451127
1772561376172036000,6.8960361328125,-1.053776647248864,-1.7753781262867152,0.2825909800264984
1772561376182065000,6.90606494140625,-1.1980150223135948,-1.6299999335370956,0.2667335587464273
1772561376192095000,6.916094970703125,-1.4422884735792874,-1.4561382813639938,0.24858956089913845
1772561376202125000,6.926125,-1.6301567315340042,-1.37727882579118,0.18831549026556313
1772561376212154000,6.936154052734375,-1.5979063207924364,-1.371376323749125,0.11608838537931442
1772561376222184200,6.94618408203125,-1.4610539643257856,-1.3652752303950488,0.04931085113584995
1772561376232214300,6.95621435546875,-1.275372987282276,-1.448810130432993,0.07733451102785766
1772561376242243000,6.9662431640625,-1.0233025985300541,-1.6347092802718282,0.23700579835027455
1772561376252273200,6.976273193359375,-0.8497504506975412,-1.7527280491918324,0.3550778318274766
1772561376262303200,6.98630322265625,-0.9640490300506352,-1.6804185997843741,0.3669574720503762
1772561376272332300,6.996332275390625,-1.1659113265663386,-1.5299359235025942,0.2860276399442926
1772561376282362000,7.006362060546875,-1.2071230423986912,-1.397262460155785,0.3483472449308261
1772561376292392000,7.016391845703125,-1.4730343249768019,-1.2020166591703891,0.4052161832960322
1772561376302421000,7.0264208984375,-1.9548487043827771,-0.9537973928883671,0.32636341319233175
1772561376312451000,7.036451171875,-2.387213700965047,-0.6437734123393893,0.13725454405937343
1772561376322481200,7.046481201171875,-2.6486054602921008,-0.31885961343348024,-0.017693970791157334
1772561376332510000,7.056510009765625,-2.5750422114312648,-0.012005787353217601,-0.11866389842312783
1772561376342540000,7.0665400390625,-2.1588900985032318,0.21994448117315768,-0.16765465075913816
1772561376352570000,7.076570068359375,-1.6890531571388243,0.3695734632350504,-0.21695614954475312
1772561376362599200,7.08659912109375,-1.2388421227425337,0.4385654586575925,-0.24301859236638992
1772561376372629200,7.096629150390625,-0.7828057431936264,0.4982717393405735,-0.28341502802679314
1772561376382659000,7.1066591796875,-0.4392950881063938,0.5193798476904631,-0.1729634064254351
1772561376392688000,7.116688232421875,-0.27155951759815217,0.47810967966914175,0.017271963111468357
1772561376402718000,7.126718017578125,-0.11509469816684723,0.3360119698949158,0.10181742957308888
1772561376412748000,7.136748046875,0.011571195328235626,0.28740941315889357,0.11710378210009074
1772561376422777000,7.146777099609375,-0.18481062394976616,0.3228396229803562,0.10192516426388173
1772561376432807200,7.15680712890625,-0.46433132968544955,0.45203941886723037,-0.0968806307580322
1772561376442837000,7.1668369140625,-0.6323901407986879,0.6523543398104608,-0.3899530015820637
1772561376452866000,7.176865966796875,-0.6033259588778018,0.7669552631109953,-0.7293355804212391
1772561376462896000,7.186896240234375,-0.48769525413811204,0.7326417823597788,-1.1086653715822845
1772561376472926200,7.19692626953125,-0.4749754732966423,0.773031952676177,-1.4257032494813202
1772561376482955300,7.206955322265625,-0.30867782663702964,1.063417897427827,-1.6862407300665974
1772561376492985000,7.216985107421875,0.05880582471191883,1.2985174237653612,-1.80161453743577
1772561376503015200,7.22701513671875,0.6507604947477579,1.2052929043620824,-1.5254149389468132
1772561376513044200,7.237044189453125,1.2128180391699075,0.7753139261335134,-1.156478896832466
1772561376523074000,7.247073974609375,1.3069225562781095,0.18514643177539108,-0.794989371331781
1772561376533104000,7.257104248046875,1.3584429001569747,-0.3401543303966522,-0.5700190978858619
1772561376543133000,7.2671328125,1.4530536132216452,-0.5998273031070828,-0.4706180087395012
1772561376553163000,7.2771630859375,1.6370470755696296,-0.5647691414684057,-0.34935945418067277
1772561376563193000,7.287193115234375,1.631964073216915,-0.4244580228500068,-0.0002205839481204748
1772561376573222100,7.29722216796875,1.7460165688544511,-0.48665232095643873,0.3844957225568592
1772561376583252200,7.307252197265625,2.0032640679836273,-0.6684754535280167,0.5427278439216315
1772561376593282300,7.3172822265625,2.2049884173333645,-0.7063258762337267,0.2055781021684408
1772561376603311000,7.32731103515625,2.4728584327638146,-0.5245670410700142,-0.18284078518152236
1772561376613341200,7.337341064453125,2.2484581412255764,-0.4667361988700926,-0.5890820372089743
1772561376623371000,7.34737109375,1.9560680170446634,-0.6307333135023713,-0.9202828074298799
1772561376633400300,7.357400390625,1.8846973097920416,-0.7985195912845432,-0.785955585526675
1772561376643430000,7.367429931640625,1.7751678445369004,-0.6286277195252478,-0.18307108680605888
1772561376653460000,7.3774599609375,1.443438228136301,-0.4936949329443276,-0.157518420137465
1772561376663489000,7.387489013671875,1.121849481999874,-0.6435479330204427,-0.3249640677884221
1772561376673519000,7.39751904296875,0.8583674723953009,-0.8073537628643215,-0.4224900837779045
1772561376683549200,7.407549072265625,0.5950906299740075,-0.8249960947997867,-0.4969398331496864
1772561376693578000,7.417577880859375,0.519230794608593,-0.8528202135317027,-0.6047622752912343
1772561376703608000,7.427608154296875,0.5198538949429988,-0.8114318259581923,-0.606134951883927
1772561376713638100,7.43763818359375,0.6027788463890552,-0.6883674640864134,-0.4577602076668292
1772561376723667200,7.447667236328125,0.831257347151637,-0.5239530008248985,-0.21980507270246744
1772561376733697300,7.457697265625,1.0815700785815716,-0.48978009758815166,-0.05156316010728478
1772561376743727000,7.46772705078125,1.2012088499188422,-0.5810169503055512,-0.0484268348429352
1772561376753756200,7.477756103515625,1.277514090964198,-0.6471518027313053,-0.10550634721890091
1772561376763786000,7.487785888671875,1.3602286145299671,-0.6178165487840771,-0.09111351859867572
1772561376773816000,7.497816162109375,1.2819482740193604,-0.5653469413563609,0.06314553441666067
1772561376783845000,7.50784521484375,0.9596364743053912,-0.6250755800016224,0.37136874915398654
1772561376793875200,7.517875244140625,0.7135545123130083,-0.8581206580273807,0.6688687636945396
1772561376803905000,7.527905029296875,0.447812156561017,-1.0029361023277044,0.5555398330911994
1772561376813934000,7.53793408203125,0.062280807346105575,-0.954141822411865,0.3694342739600688
1772561376823964200,7.547964111328125,-0.28742870238125323,-0.905664499490708,0.28529095970019697
1772561376833994200,7.557994140625,-0.6389005456060171,-0.9554833001486956,0.21202771669924259
1772561376844023000,7.56802294921875,-0.9833078572720289,-1.0211620793700218,0.10021393989920616
1772561376854053000,7.57805322265625,-1.333113813111186,-0.960134048563987,-0.07428352595940232
1772561376864083000,7.5880830078125,-1.448917536330223,-0.7692942274525761,-0.18972981404289602
1772561376874112300,7.5981123046875,-1.449404443064332,-0.5579131380937993,-0.33442060905024407
1772561376884142000,7.60814208984375,-1.4196511098355054,-0.3618725334689021,-0.49682504766359925
1772561376894172200,7.618172119140625,-1.1496446668982505,-0.2630173147022724,-0.5975041208565235
1772561376904201000,7.628200927734375,-0.8212111694335937,-0.33764687762036916,-0.5089224588230252
1772561376914231000,7.63823095703125,-0.560749384433031,-0.5305106057748198,-0.4392316674813628
1772561376924261000,7.64826123046875,-0.4095014228671789,-0.6094520405426621,-0.43211116795167326
1772561376934290400,7.65829052734375,-0.5897849247813225,-0.5324672928005456,-0.3686236151643097
1772561376944320500,7.668320556640625,-0.7805307839989661,-0.4858189388722181,-0.38600247385799885
1772561376954350600,7.6783505859375,-0.9541180031448602,-0.4978755796298384,-0.6326289179906248
1772561376964379400,7.68837939453125,-1.2417670702785253,-0.43855917504727837,-0.9514747951596975
1772561376974409200,7.6984091796875,-1.5361936687231064,-0.2942063798226416,-1.2029462681706995
1772561376984439300,7.708439208984375,-1.743327183640003,-0.11475889034122227,-1.4388698973074554
1772561376994468400,7.71846826171875,-1.617402463901043,0.09141761611178517,-1.6306902538888155
1772561377004498200,7.728498291015625,-1.4089935222208498,0.28028701393306255,-1.6665741988271474
1772561377014528300,7.7385283203125,-1.1665472863823174,0.29922333120182154,-1.5743005504079162
1772561377024557300,7.748557373046875,-0.8221154247969389,0.23771935344710945,-1.4738257676154374
1772561377034587400,7.75858740234375,-0.4829594577878713,0.2705452259890735,-1.387587599968165
1772561377044617500,7.768617431640625,-0.17376199119091032,0.37356180221885443,-1.3839889909543097
1772561377054646300,7.778646240234375,0.07983692230284213,0.42830052362233395,-1.4446667470179497
1772561377064676400,7.78867626953125,0.26598727042376996,0.4583195220500231,-1.468223271433264
1772561377074706400,7.79870654296875,0.36244682622551916,0.532087207441777,-1.5397212583273647
1772561377084735500,7.808735595703125,0.3891103767454624,0.6606367227263749,-1.5855981894917786
1772561377094765300,7.818765380859375,0.38258477436900135,0.7918021195977926,-1.6260184626854954
1772561377104795400,7.82879541015625,0.32371289868354797,0.858367910786718,-1.6998310101322829
1772561377114824200,7.83882421875,0.24852234088182448,0.8454729195088148,-1.751869094274938
1772561377124854300,7.848854248046875,0.292910348662734,0.7673087527237832,-1.7071750892847775
1772561377134884400,7.85888427734375,0.5592787273585796,0.6777693515740335,-1.645798829562962
1772561377144913400,7.868913330078125,0.9802443780481814,0.6280372062861919,-1.4872953439109027
1772561377154943500,7.878943603515625,1.3407950152635573,0.5746938847638666,-1.28525929826349
1772561377164973300,7.888973388671875,1.6900006671220063,0.47513665520772336,-1.0576524657689035
1772561377175002400,7.89900244140625,1.9445418299019335,0.3668887541957199,-0.8274989444661885
1772561377185032400,7.909032470703125,2.0751836412906646,0.2131362624630332,-0.6486295471336693
1772561377195062300,7.919062255859375,2.0189865377724168,-0.008522036890685558,-0.5021210351798683
1772561377205091300,7.92909130859375,1.9396511352509258,-0.24003742113113402,-0.4410040839813649
1772561377215121200,7.93912109375,1.8309832552611827,-0.4139079872630536,-0.4288284930191934
1772561377225151200,7.949151123046875,1.71615977525115,-0.5809792486436665,-0.4169776039667427
1772561377235180300,7.95918017578125,1.6195803924620151,-0.7933014182448387,-0.4383803844142705
1772561377245210400,7.96921044921875,1.4898054270356893,-1.0176596242070197,-0.45881483128629624
1772561377255240400,7.979240478515625,1.4082669615119694,-1.132722465930879,-0.42155528714582324
1772561377265269200,7.989269287109375,1.3490624928712844,-1.1604296802848577,-0.448542370531708
1772561377275297300,7.99929736328125,1.2146101832836866,-1.1419121729500592,-0.5496350660268217
1772561377285326300,8.009326416015625,1.1082833134621382,-1.1042688171237707,-0.6883671718254685
1772561377295356200,8.019356201171876,0.9791548292458057,-1.1424699529632925,-0.7838831631667912
1772561377305386200,8.02938623046875,0.6777683286607266,-1.1902332823961972,-0.8040025527402758
1772561377315415300,8.039415283203125,0.36531799774765966,-1.2731069420464336,-0.7564832611963153
1772561377325445400,8.0494453125,0.13389292213916779,-1.3029121515929698,-0.6900039792470634
1772561377335475500,8.059475341796874,-0.0036608605951070784,-1.2329558411829173,-0.6244584710165858
1772561377345504300,8.069504150390625,-0.04439736013114452,-1.1286746518447994,-0.6835452315617352
1772561377355534300,8.079534423828125,0.01601473073363304,-1.0698406239517033,-0.8719842751417308
1772561377365564400,8.089564453125,0.08196750459074974,-0.9773476336933672,-1.0287280576448887
1772561377375593500,8.099593505859374,0.18046295013427732,-0.9068651074521243,-1.1032758605636657
1772561377385623600,8.10962353515625,0.3547024957090616,-0.8648359377570449,-1.1230921024721114
1772561377395653000,8.119653076171875,0.44803895105421543,-0.8240699198655783,-1.062540018614754
1772561377405682400,8.129682373046874,0.5037520704478026,-0.862802970624715,-0.9059839407034218
1772561377415712300,8.139712158203125,0.5321282701045275,-1.0332295337826014,-0.7107965188417583
1772561377425742300,8.149742431640625,0.519670939591527,-1.2111458681739866,-0.529678904191032
1772561377435771400,8.159771484375,0.3681973525762558,-1.2763329183556138,-0.32046960591338575
1772561377445801200,8.16980126953125,0.14611469033062457,-1.348577485833317,-0.21924159360080955
1772561377455831300,8.179831298828125,-0.010343114838004111,-1.3701032350733875,-0.2142353828113526
1772561377465860400,8.1898603515625,-0.20198095445930955,-1.290666856395453,-0.278456583635509
1772561377475890400,8.199890380859374,-0.4668979653030634,-1.1655647050857543,-0.37226321377567945
1772561377485920500,8.20992041015625,-0.7456272284001112,-1.1076426774710415,-0.5632613672539591
1772561377495949300,8.21994921875,-1.0102321045547724,-1.0813077743835746,-0.7056898433525115
1772561377505979400,8.2299794921875,-1.1881517999470232,-0.9725948862083256,-0.7545485668066889
1772561377516009200,8.24000927734375,-1.2307611076176166,-0.835613058143109,-0.6364131127044558
1772561377526038500,8.25003857421875,-1.1546160255700348,-0.9204337602078914,-0.21532734276652335
1772561377536068400,8.260068359375,-0.9629039516687392,-1.2833970115229487,0.3824116097591817
1772561377546098400,8.270098388671874,-0.9520926347970962,-1.5656977033659816,0.8169793770827353
1772561377556127200,8.280127197265625,-1.1377426321804522,-1.4816092610985039,1.0924544606894253
1772561377566157300,8.2901572265625,-1.3199199850171803,-1.2122718034639954,1.2141609782114624
1772561377576187400,8.3001875,-1.469648774191737,-0.7839559361420572,1.0143861554943026
1772561377586216400,8.310216552734374,-1.8480214838236568,-0.14678645211234687,0.4784023059401661
1772561377596246300,8.320246337890625,-2.414090017452836,0.4938957162134349,-0.22731150280982254
1772561377606276400,8.3302763671875,-2.8922862063616512,0.9164612033151089,-0.7671004437353461
1772561377616305400,8.340305419921876,-2.999841156673431,1.0235581807263194,-1.0317539082720875
1772561377626335500,8.35033544921875,-2.6234546524226663,0.8808299179635941,-1.1150114526733756
1772561377636365300,8.360365234375,-2.0076058965802193,0.673522653914988,-0.8592349028795957
1772561377646394400,8.370394287109375,-1.3962632199853657,0.5752952116578817,-0.4439613263517618
1772561377656424200,8.380424072265624,-0.7791817074775695,0.7092316806778312,-0.02747713192515075
1772561377666454300,8.390454345703125,-0.20467092419564722,0.9343420201815664,0.15970935431048272
1772561377676483300,8.4004833984375,0.3252729876071214,0.9937684610098599,0.009917948228493333
1772561377686513400,8.410513427734376,0.5796645127832889,0.9302692177847027,-0.19598354067541657
1772561377696543500,8.42054345703125,0.5429080227941274,0.8632359552145004,-0.31422238208688796
1772561377706572300,8.430572265625,0.5432978988945484,0.8165978304192424,-0.44379970604926344
1772561377716602400,8.440602294921876,0.6208896726191043,0.7876394469603896,-0.6627502808142453
1772561377726632400,8.450632568359374,0.7236778469204902,0.8031266466885805,-0.8632690537665039
1772561377736661500,8.46066162109375,0.7830068187236785,0.7573381244599818,-1.053978307300806
1772561377746691600,8.470691650390625,0.7849228814780712,0.7228612698405981,-1.2006707975193858
1772561377756721200,8.48072119140625,0.7872031013697385,0.6934057505145669,-1.2956274014122784
1772561377766750200,8.490750244140624,0.8262053244590759,0.626069413344562,-1.3475522344388067
1772561377776780300,8.5007802734375,0.924910613361001,0.49028205576092004,-1.2910688613250851
1772561377786810400,8.510810302734376,1.0120078820556402,0.33982992074787616,-1.0674879233457149
1772561377796839200,8.520839111328126,1.096699843174219,0.2694832958459854,-0.795947256578505
1772561377806869200,8.530869140625,1.2899579774737358,0.2447933834865689,-0.5259474991103634
1772561377816899300,8.5408994140625,1.6213175915181637,0.25802199063301084,-0.3669167016485706
1772561377826928400,8.550928466796876,1.8381044854432342,0.3125479460686445,-0.30044008658044036
1772561377836958500,8.56095849609375,1.9528531466513872,0.3355246247693896,-0.3022668270835653
1772561377846988500,8.570988525390625,1.996464324840903,0.2318883092060685,-0.34030049740169194
1772561377857017300,8.581017333984375,1.9421096343189477,0.02166676514595747,-0.34629999354481694
1772561377867047400,8.59104736328125,1.8063737146615981,-0.18213906665295362,-0.29294384907353666
1772561377877077200,8.6010771484375,1.617664914229512,-0.31279870595932,-0.10490052681285887
1772561377887108400,8.6111083984375,1.445762287169695,-0.40330841344594953,0.13115107608512044
1772561377897138400,8.621138427734374,1.3394728267490863,-0.45054304282963276,0.35773243798948823
1772561377907168500,8.63116845703125,1.2690092974692582,-0.43822132139503955,0.4368243140786886
1772561377917197600,8.641197509765625,1.271247431784868,-0.4533151378914714,0.4002607893783599
1772561377927227100,8.65122705078125,1.196573006811738,-0.4106690053418278,0.27636194944381715
1772561377937257000,8.661257080078125,1.135991989120841,-0.3647863750889897,0.17401813964275642
1772561377947286000,8.6712861328125,1.1161042163461445,-0.4111813387781381,0.06841775289827491
1772561377957316000,8.681316162109376,1.0520043768793343,-0.471499613879621,-0.04181507941982709
1772561377967346200,8.69134619140625,0.9639157590597868,-0.48776627354770896,-0.13926314393542708
1772561377977375000,8.701375,0.7738350857526064,-0.5572606655344366,-0.18194306915681807
1772561377987405000,8.711405029296875,0.7083727257609367,-0.6441270480826496,-0.08312436474198474
1772561377997435100,8.72143505859375,0.7670850269705056,-0.6899094328314066,0.03611812815354205
1772561378007464200,8.731464111328124,0.7408148596823215,-0.7964443924456834,0.17040535597307607
1772561378017494300,8.741494384765625,0.7499135274171829,-0.8947694498583674,0.3542459841132164
1772561378027524000,8.751524169921876,0.7176321370154619,-0.9439780096635222,0.48704471780750896
1772561378037553200,8.76155322265625,0.6121078157484531,-0.997565515205264,0.5326888265967369
1772561378047583000,8.7715830078125,0.440014634552598,-1.0301055565431714,0.5588790605165064
1772561378057613000,8.781613037109375,0.17598200532793998,-1.024160384403169,0.49767249480579046
1772561378067642000,8.79164208984375,-0.0967220061302185,-1.0031772176072,0.4220766806714237
1772561378077672000,8.801671875,-0.33218846608400343,-0.9561869183734059,0.27053099653432144
1772561378087702000,8.811701904296875,-0.5293979683578014,-0.8231117423579096,0.16315078173493966
1772561378097731000,8.82173095703125,-0.757145816758275,-0.6547860970020294,0.07033175612632185
1772561378107761200,8.83176123046875,-1.0520897170752286,-0.5237015102818608,-0.06424629873279482
1772561378117791200,8.841791259765625,-1.3243091598868368,-0.46048809826076026,-0.17207224800568072
1772561378127820000,8.851820068359375,-1.496029416117072,-0.3774152627766132,-0.13988281020373106
1772561378137850000,8.86185009765625,-1.6188181759178637,-0.2717383812963962,-0.08842230675332248
1772561378147880200,8.871880126953124,-1.5558219137787819,-0.14543050745874642,-0.07444594997949898
1772561378157909200,8.8819091796875,-1.3178911095380783,-0.15196078601032495,-0.10430237825661898
1772561378167939000,8.89193896484375,-1.0951210495501755,-0.4004682215839624,-0.1116145279008895
1772561378177969200,8.90196923828125,-1.075472346228361,-0.6666606591910124,-0.20282456567659973
1772561378187998000,8.911998046875,-1.117562013939023,-0.6953630220621824,-0.37976555222980674
1772561378198028000,8.922028076171875,-1.1912094339519739,-0.5545046448245644,-0.5940616522524506
1772561378208058000,8.93205810546875,-1.3367986391037703,-0.40667788987904785,-0.8733039063729345
1772561378218087200,8.942087158203124,-1.480546015781164,-0.20544278535097837,-1.1273576509620993
1772561378228117000,8.952116943359375,-1.5259890855729579,0.03565729657560587,-1.3118128125376998
1772561378238147000,8.96214697265625,-1.5380606316387653,0.20816051987707615,-1.395449857775867
1772561378248176000,8.972176025390626,-1.4134218600571156,0.20545564483255147,-1.4078244784414768
1772561378258206200,8.982206298828125,-1.2505062570512293,0.07672463550120592,-1.2885386121951043
1772561378268236300,8.992236328125,-1.0855945117920636,-0.021117022308707236,-1.046785911578685
1772561378278265000,9.00226513671875,-0.900523775601387,0.03419043889343738,-0.8661509658783674
1772561378288295000,9.012294921875,-0.7117933478593826,0.19575521181225775,-0.7990860660608857
1772561378298325000,9.022324951171875,-0.5097539412111044,0.32750556896477934,-0.8685108268775046
1772561378308354000,9.03235400390625,-0.33107261379659175,0.4377867293700576,-0.9580367109585552
1772561378318384000,9.042384033203126,-0.1359013393521309,0.59551499286592,-1.0223319268669933
1772561378328413000,9.052412841796874,0.042760698840022086,0.7343751820236444,-1.1794503148362039
1772561378338443000,9.062443115234375,0.08593582369983195,0.8172389048017561,-1.2819336609721184
1772561378348473000,9.07247314453125,0.08286240760385989,0.7500565891496837,-1.2445046785488725
1772561378358502100,9.082502197265624,0.14925298835635184,0.5990941665269434,-1.115086125344783
1772561378368532200,9.0925322265625,0.27330665352642536,0.4636968311741948,-1.0053395832728593
1772561378378562300,9.102562255859375,0.48858022027909753,0.3661715458370745,-0.8622708365093916
1772561378388591000,9.112591064453126,0.722673053792119,0.2832220444716513,-0.7052619002640247
1772561378398621200,9.12262109375,0.8901666322380304,0.20543591721877455,-0.5366814033642411
1772561378408651000,9.132651123046875,1.1657874079257249,0.13411547884866595,-0.43743638156242665
1772561378418680000,9.14268017578125,1.5365332759410142,0.12134499073326586,-0.31743118806555864
1772561378428710100,9.152710205078124,1.8154723823964596,0.11297668309956789,-0.19317177119031548
1772561378438740000,9.162739990234375,1.9946558141142128,0.07187193477302789,-0.16118468756005166
1772561378448769000,9.17276904296875,2.0638596987217666,0.017433949881792067,-0.16675072418935596
1772561378458799000,9.182799072265626,1.9972750567018984,-0.07330547470748425,-0.14803776734769344
1772561378468829200,9.1928291015625,1.9219009590268135,-0.1874324968859553,-0.1447425251945853
1772561378478858000,9.20285791015625,1.874411478099227,-0.2762184493198991,-0.20772110554650425
1772561378488888000,9.21288818359375,1.81806356793344,-0.35025530704185365,-0.23618235313817856
1772561378498918100,9.222918212890624,1.8014830200105905,-0.4675295412048697,-0.18003303428441286
1772561378508947200,9.232947265625,1.7970038287699222,-0.5724488823160528,-0.08224420264028012
1772561378518977300,9.242977294921875,1.680131599536538,-0.6065592417106032,-0.0036046003632247445
1772561378529007000,9.253007080078126,1.5783032101780174,-0.6504742251522838,-0.007745207299292087
1772561378539036200,9.2630361328125,1.4262217203974723,-0.6456077881596982,-0.15188121796809137
1772561378549066000,9.27306591796875,1.2001105332881212,-0.6324458165086806,-0.3676627342429012
1772561378559096000,9.283095947265625,1.0326999569505453,-0.616535569062829,-0.5770965619914233
1772561378569125000,9.293125,0.8557330322384834,-0.5648752321913838,-0.6392502358265221
1772561378579155200,9.3031552734375,0.7467249605089425,-0.5923509758770465,-0.5913811809968202
1772561378589185000,9.31318505859375,0.5862807160526514,-0.673979457771778,-0.4470217368356883
1772561378599214000,9.323214111328125,0.4003267672866583,-0.7249317925043404,-0.3165675569735467
1772561378609244200,9.333244140625,0.3882797711402178,-0.7287564653590322,-0.3707015904821455
1772561378619274200,9.343274169921875,0.4441565566629171,-0.7038122859776019,-0.4140253300324082
1772561378629303300,9.35330322265625,0.46234161717295646,-0.7567538948312401,-0.3274105841577053
1772561378639333000,9.3633330078125,0.47007951794862746,-0.9121768039941787,-0.17896803540140388
1772561378649363000,9.373363037109375,0.3772071729838848,-1.0563150796853005,-0.04028583315908909
1772561378659392000,9.38339208984375,0.14717442851662635,-1.1174461324743925,0.005439414574950933
1772561378669422000,9.393422119140626,-0.09405950892269611,-1.1177857396923006,-0.05916457502171397
1772561378679452200,9.4034521484375,-0.31882512664198875,-1.0249079879000782,-0.12380831210687755
1772561378689481000,9.41348095703125,-0.5082441211700439,-0.8969596533790231,-0.1488780175641179
1772561378699511000,9.423510986328125,-0.7040425876021384,-0.7681184616714716,-0.1879506755411625
1772561378709541000,9.433541015625,-1.0374971280992031,-0.630737697416544,-0.24243483766168356
1772561378719570200,9.443570068359374,-1.2957774774074553,-0.5540595314055681,-0.2752747387290001
1772561378729600300,9.453600341796875,-1.3260463589429854,-0.5881204987004399,-0.2720857334293425
1772561378739630300,9.46363037109375,-1.2899661607801913,-0.8828086706906556,0.051252048331499094
1772561378749659100,9.4736591796875,-1.2503455135315655,-1.2764876705259085,0.548757333344221
1772561378759689200,9.483689208984375,-1.2548802343517542,-1.3436311154723166,0.7048036351025104
1772561378769719000,9.493718994140625,-1.2766829008370637,-1.0092062686383723,0.4695191075868904
1772561378779748000,9.503748046875,-1.4221300671696662,-0.5665165696576238,0.06307736455127597
1772561378789778000,9.51377783203125,-1.9453630831569433,-0.19991116244792936,-0.34873978791236876
1772561378799808000,9.52380810546875,-2.4687743783205747,0.10194266338795423,-0.6714895406521857
1772561378809837000,9.533837158203125,-2.7649241472959516,0.46834567989334464,-0.956390770382434
1772561378819867100,9.5438671875,-2.6904566430717707,0.8403376024469733,-1.1033031138967722
1772561378829897200,9.553897216796875,-2.3288620497614145,0.9679892921090125,-1.0764379763901233
1772561378839926000,9.563926025390625,-1.5853466989487408,0.8909658197917044,-0.9713306384261697
1772561378849956000,9.5739560546875,-0.9432447269529104,0.7802214257888496,-0.8508788702055812
1772561378859986200,9.583986083984374,-0.5392313801079989,0.7017728891044854,-0.6144762984454631
1772561378870015200,9.59401513671875,0.01779459988772869,0.6017126784622668,-0.3485411966003477
1772561378880045000,9.604045166015625,0.586766453742981,0.504741666007042,-0.06543737168088555
1772561378890075100,9.6140751953125,0.8258598720222711,0.38855069703608747,0.20424583065137267
1772561378900104000,9.62410400390625,0.9438093750983476,0.22003858919739722,0.35365634765699505
1772561378910134000,9.634134033203125,0.8466723584264516,0.13180734803676605,0.34903409468382596
1772561378920163000,9.6441630859375,0.5412456425398587,0.2659986686006188,0.13787424686029554
1772561378930193200,9.654193115234374,0.08493979839980602,0.5665314749658107,-0.18886442938521503
1772561378940223000,9.664222900390625,-0.38740474187135693,0.7583876335129142,-0.5029862006418406
1772561378950252000,9.674251953125,-0.7431430103689431,0.7912249042317271,-0.7587278252527118
1772561378960282000,9.6842822265625,-0.9315320773273705,0.9055553400278091,-0.8665229409959166
1772561378970312200,9.694312255859375,-0.9220078776568174,1.0867226390391587,-0.8926871636915952
1772561378980341000,9.704341064453125,-0.6515683039993048,1.2177695240974427,-0.8632800135519355
1772561378990371000,9.71437109375,-0.168421214684844,1.2848925107777118,-0.8054436914592981
1772561379000401000,9.72440087890625,0.2770738971054554,1.2510060232669113,-0.6675848613638431
1772561379010430200,9.73443017578125,0.6828127525687218,1.1532269092991947,-0.5240949665788561
1772561379020460000,9.7444599609375,1.151469544237852,0.9710425421997905,-0.3787984607633203
1772561379030489900,9.75448974609375,1.5502689558267593,0.7107067216664552,-0.14267346383556723
1772561379040519000,9.764518798828124,1.906698129197955,0.4982341838091612,0.07561755104213952
1772561379050549000,9.774549072265625,2.245600998228788,0.41388066086471076,0.12588921003416179
1772561379060579000,9.7845791015625,2.4417151064813134,0.4035945369109511,0.07316402041018008
1772561379070608100,9.794608154296874,2.554094115948677,0.3424944637820124,0.02246507591679692
1772561379080638000,9.804637939453125,2.4871786345392466,0.20480477970838545,0.04715878766849637
1772561379090668000,9.81466796875,2.2712363747447726,-0.026747137150168417,0.0744967303186655
1772561379100697000,9.824697021484376,2.1039438718289136,-0.21712825470864772,0.07364128253310918
1772561379110727200,9.83472705078125,1.9182336686909198,-0.34789603056460616,-0.015844780994206668
1772561379120757000,9.844757080078125,1.675575251406431,-0.5008554722234606,-0.12087481593824922
1772561379130786000,9.8547861328125,1.4387451018840074,-0.6515685962602495,-0.13136501109674573
1772561379140816000,9.86481591796875,1.2330109323710203,-0.7027095854327082,-0.09548537700735032
1772561379150846000,9.874845947265625,1.1024831027507782,-0.6941147755667567,-0.03493475445471704
1772561379160875000,9.884875,1.0172095423519611,-0.6036971302777528,-0.045819940280169245
1772561379170905000,9.894905029296876,0.8585083421707153,-0.45827363708168267,-0.17159516854584217
1772561379180935000,9.904934814453124,0.49403790116310115,-0.41520284937918184,-0.4579693203728646
1772561379190964000,9.9149638671875,-0.11985679800212383,-0.5224725530087948,-0.8824597111225128
1772561379200994000,9.924994140625,-0.45145314341187476,-0.6855579596236347,-1.2924591466397046
1772561379211024100,9.935024169921874,2.5108897649943827,-0.2953600799024105,-1.1516969232529402
1772561379221053200,9.94505322265625,2.5296739604413507,0.42733840059190986,0.2686095817513764
1772561379231083000,9.9550830078125,1.5587895314127207,0.2320510985523462,1.065378822237253
1772561379241112800,9.96511279296875,0.11035422564148903,-0.2646376093804836,0.8637197932086884
1772561379251142100,9.97514208984375,-0.6307569866389036,-0.5834285414919257,0.5520464380174875
1772561379261172000,9.985171875,0.04026303680539131,-0.6971712405279278,0.10891235627010463
1772561379271202000,9.9952021484375,0.1789776800125837,-0.26091595850884913,0.013789455899596214
1772561379281230800,10.00523095703125,0.31561727051138877,0.013530220441520214,0.02025178378149867
