time,seconds_elapsed,z,y,x
1772561369351860200,0.075860107421875,-0.9788982272148132,-0.4576043486595154,0.30198606848716736
1772561369361889000,0.085888916015625,-0.8769083619117737,-0.29969948530197144,0.2596789002418518
1772561369371919000,0.095919189453125,-0.7401697039604187,-0.11780479550361633,0.2305804044008255
1772561369381949200,0.10594921875,-0.573166012763977,0.10165511816740036,0.21053719520568848
1772561369391978200,0.115978271484375,-0.4352259933948517,0.2881735861301422,0.2041972577571869
1772561369402008300,0.12600830078125,-0.33969879150390625,0.43356582522392273,0.20325198769569397
1772561369412038400,0.136038330078125,-0.30252984166145325,0.42393210530281067,0.1750190109014511
1772561369422068200,0.146068115234375,-0.3193891644477844,0.2598070204257965,0.1323966085910797
1772561369432097300,0.15609716796875,-0.39304688572883606,0.029055053368210793,0.11393371224403381
1772561369442127000,0.166127197265625,-0.48519837856292725,-0.24511417746543884,0.13608747720718384
1772561369452157200,0.1761572265625,-0.44212761521339417,-0.5573152303695679,0.24357958137989044
1772561369462186200,0.186186279296875,-0.34994015097618103,-0.7470870614051819,0.4596743583679199
1772561369472216000,0.196216064453125,-0.3226107954978943,-0.8066574335098267,0.7422674298286438
1772561369482246100,0.20624609375,-0.39768701791763306,-0.8376300930976868,0.9718977212905884
1772561369492275200,0.216275146484375,-0.584942638874054,-0.8704434633255005,1.0316896438598633
1772561369502305300,0.22630517578125,-0.7786010503768921,-0.7862474322319031,0.96544349193573
1772561369512335400,0.23633544921875,-0.8856199383735657,-0.7061651349067688,0.8372074961662292
1772561369522364200,0.2463642578125,-0.8961455225944519,-0.6788384318351746,0.6355057954788208
1772561369532394200,0.256394287109375,-0.8260284662246704,-0.6485713720321655,0.3947400748729706
1772561369542424300,0.26642431640625,-0.6801103353500366,-0.4999611973762512,0.12408547848463058
1772561369552453400,0.276453369140625,-0.5400165915489197,-0.26688453555107117,-0.16908328235149384
1772561369562483200,0.286483154296875,-0.4608478248119354,-0.17791736125946045,-0.3113655745983124
1772561369572513300,0.29651318359375,-0.38846445083618164,-0.2121879756450653,-0.4506145417690277
1772561369582542000,0.3065419921875,-0.3855647146701813,-0.2915899157524109,-0.5323313474655151
1772561369592572200,0.316572265625,-0.4575755000114441,-0.34811949729919434,-0.5087679624557495
1772561369602602200,0.326602294921875,-0.5699306130409241,-0.3642711043357849,-0.39772847294807434
1772561369612631300,0.33663134765625,-0.6735374331474304,-0.3295746445655823,-0.23001030087471008
1772561369622661000,0.3466611328125,-0.7398137450218201,-0.2808102071285248,-0.052886106073856354
1772561369632691200,0.356691162109375,-0.765741765499115,-0.20408374071121216,0.10459806025028229
1772561369642720300,0.36672021484375,-0.7652387619018555,-0.11695968359708786,0.2084663361310959
1772561369652750300,0.376750244140625,-0.7443934082984924,-0.05917841196060181,0.2587883770465851
1772561369662780200,0.3867802734375,-0.7176292538642883,-0.027265213429927826,0.2804737091064453
1772561369672809200,0.396809326171875,-0.7008630633354187,-0.06025352329015732,0.2790662348270416
1772561369682839000,0.406839111328125,-0.701443612575531,-0.18342815339565277,0.2655874192714691
1772561369692869000,0.416869140625,-0.7089982032775879,-0.38386857509613037,0.24512368440628052
1772561369702899200,0.426899169921875,-0.7110044360160828,-0.5819870829582214,0.23344828188419342
1772561369712928300,0.43692822265625,-0.7020024657249451,-0.7295403480529785,0.24118448793888092
1772561369722958300,0.446958251953125,-0.6766327619552612,-0.8541485667228699,0.2687119245529175
1772561369732988200,0.45698828125,-0.6334043145179749,-0.911298394203186,0.30093830823898315
1772561369743017200,0.467017333984375,-0.57606041431427,-0.8990312814712524,0.34026768803596497
1772561369753047300,0.47704736328125,-0.5008103847503662,-0.8377674221992493,0.38257572054862976
1772561369763077400,0.487077392578125,-0.42472606897354126,-0.7422671914100647,0.4133434295654297
1772561369773106400,0.4971064453125,-0.373300164937973,-0.6337705850601196,0.41992834210395813
1772561369783136300,0.50713623046875,-0.34827378392219543,-0.49469810724258423,0.4012756645679474
1772561369793166000,0.517166015625,-0.3435448110103607,-0.36369001865386963,0.34763428568840027
1772561369803195100,0.527195068359375,-0.33773794770240784,-0.25573500990867615,0.26686790585517883
1772561369813225200,0.53722509765625,-0.33340898156166077,-0.1752265989780426,0.16530558466911316
1772561369823255300,0.54725537109375,-0.3314575254917145,-0.09280208498239517,0.04029377922415733
1772561369833284000,0.5572841796875,-0.3395293056964874,-0.019094839692115784,-0.09381848573684692
1772561369843314200,0.567314208984375,-0.3607572317123413,0.032281313091516495,-0.2056434452533722
1772561369853344300,0.57734423828125,-0.39180701971054077,0.04060768708586693,-0.2686738073825836
1772561369863373300,0.587373291015625,-0.39997580647468567,0.05874326080083847,-0.25542834401130676
1772561369873403400,0.5974033203125,-0.3847388029098511,0.07626979053020477,-0.176028311252594
1772561369883433200,0.60743310546875,-0.34610670804977417,0.08009062707424164,-0.056996993720531464
1772561369893462300,0.617462158203125,-0.2752610445022583,0.10415361821651459,0.07007094472646713
1772561369903492000,0.6274921875,-0.18905773758888245,0.10966037213802338,0.17164430022239685
1772561369913522200,0.637522216796875,-0.101308174431324,0.07787687331438065,0.2544822096824646
1772561369923551200,0.64755126953125,-0.02325703762471676,0.06154980510473251,0.33991682529449463
1772561369933580500,0.65758056640625,0.03674531355500221,0.09443025290966034,0.43997207283973694
1772561369943610600,0.667610595703125,0.0712331160902977,0.16839903593063354,0.5530976057052612
1772561369953639400,0.677639404296875,0.08751461654901505,0.20745615661144257,0.6397978663444519
1772561369963669500,0.68766943359375,0.08798129111528397,0.19403956830501556,0.6725261807441711
1772561369973699600,0.697699462890625,0.07020362466573715,0.09384772926568985,0.6345058083534241
1772561369983728600,0.707728759765625,0.02068983018398285,-0.1559523493051529,0.49660441279411316
1772561369993758700,0.7177587890625,-0.06916122883558273,-0.5762250423431396,0.24179287254810333
1772561370003788800,0.727788818359375,-0.18475298583507538,-1.0221530199050903,-0.046431928873062134
1772561370013817600,0.737817626953125,-0.36173999309539795,-1.3016109466552734,-0.2658015787601471
1772561370023847700,0.74784765625,-0.5701767206192017,-1.288012981414795,-0.3375213146209717
1772561370033877500,0.75787744140625,-0.8043007850646973,-1.048604130744934,-0.28750181198120117
1772561370043907600,0.767907470703125,-1.0188153982162476,-0.6410035490989685,-0.16238799691200256
1772561370053936600,0.7779365234375,-1.159104824066162,-0.13445696234703064,0.004403914324939251
1772561370063966500,0.787966552734375,-1.1896917819976807,0.3472701609134674,0.14489272236824036
1772561370073996500,0.79799658203125,-1.1031461954116821,0.6853115558624268,0.20055599510669708
1772561370084025600,0.808025634765625,-0.908082127571106,0.8326879739761353,0.18510238826274872
1772561370094055700,0.8180556640625,-0.6135069131851196,0.8201679587364197,0.13502857089042664
1772561370104085800,0.828085693359375,-0.2846377193927765,0.6683636903762817,0.0974552258849144
1772561370114114600,0.838114501953125,0.026539325714111328,0.397468239068985,0.09968003630638123
1772561370124144600,0.84814453125,0.2538824677467346,0.08759055286645889,0.15904828906059265
1772561370134174500,0.858174560546875,0.37767311930656433,-0.15972097218036652,0.2881215810775757
1772561370144203800,0.868203857421875,0.41932886838912964,-0.31313657760620117,0.456778347492218
1772561370154233600,0.878233642578125,0.387772798538208,-0.3924087584018707,0.6203771233558655
1772561370164263400,0.888263427734375,0.314721018075943,-0.3929000496864319,0.7370906472206116
1772561370174292500,0.89829248046875,0.22314609587192535,-0.3275705873966217,0.7995769381523132
1772561370184322600,0.908322509765625,0.13180924952030182,-0.21324580907821655,0.8144782781600952
1772561370194352600,0.9183525390625,0.05742928385734558,-0.09019152075052261,0.7702360153198242
1772561370204381700,0.928381591796875,0.008408283814787865,0.021532870829105377,0.7025072574615479
1772561370214411500,0.93841162109375,-0.01665978506207466,0.09920129925012589,0.6141752600669861
1772561370224441600,0.948441650390625,-0.02175331301987171,0.1353495717048645,0.5168264508247375
1772561370234470700,0.958470703125,-0.021348513662815094,0.14150254428386688,0.42661166191101074
1772561370244500700,0.968500732421875,-0.027617620304226875,0.12007485330104828,0.3533236086368561
1772561370254530600,0.978530517578125,-0.04745497554540634,0.08585802465677261,0.2960403561592102
1772561370264559600,0.9885595703125,-0.12033869326114655,0.0037202369421720505,0.239468514919281
1772561370274589400,0.99858935546875,-0.2528434693813324,-0.08927682042121887,0.22055047750473022
1772561370284619500,1.00861962890625,-0.3571932315826416,-0.1423347145318985,0.22707362473011017
1772561370294648600,1.018648681640625,-0.41084370017051697,-0.20642715692520142,0.20180422067642212
1772561370304678700,1.0286787109375,-0.4421136975288391,-0.3099035620689392,0.138492152094841
1772561370314708700,1.038708740234375,-0.48264968395233154,-0.39642301201820374,0.07715928554534912
1772561370324737500,1.048737548828125,-0.5471869111061096,-0.4564380347728729,0.036157455295324326
1772561370334767600,1.058767578125,-0.6146048307418823,-0.4989737868309021,0.014951772056519985
1772561370344797700,1.068797607421875,-0.6770051717758179,-0.5469029545783997,0.00039424095302820206
1772561370354826800,1.07882666015625,-0.7106262445449829,-0.6000351309776306,-0.02522297203540802
1772561370364856800,1.08885693359375,-0.7215684652328491,-0.6323685646057129,-0.052393682301044464
1772561370374886400,1.098886474609375,-0.7251378893852234,-0.6165578961372375,-0.0717972069978714
1772561370384915700,1.108915771484375,-0.7218685746192932,-0.5361518859863281,-0.06366345286369324
1772561370394945500,1.118945556640625,-0.7137389779090881,-0.41323956847190857,-0.042288120836019516
1772561370404975600,1.1289755859375,-0.687795877456665,-0.28931179642677307,-0.013469617813825607
1772561370415004400,1.13900439453125,-0.6513190865516663,-0.1831323504447937,0.01864144578576088
1772561370425034500,1.149034423828125,-0.6188263297080994,-0.09232763200998306,0.06064685806632042
1772561370435064600,1.159064697265625,-0.605475902557373,-0.04863181710243225,0.10112264752388
1772561370445093600,1.16909375,-0.6063737273216248,-0.0498485341668129,0.13441644608974457
1772561370455123700,1.179123779296875,-0.6007046699523926,-0.08294736593961716,0.14877833425998688
1772561370465153800,1.18915380859375,-0.6008392572402954,-0.13392594456672668,0.13921445608139038
1772561370475183400,1.199183349609375,-0.6030609011650085,-0.19124622642993927,0.11042249202728271
1772561370485212700,1.209212646484375,-0.6045070886611938,-0.2525918483734131,0.0733177438378334
1772561370495242500,1.219242431640625,-0.6136702299118042,-0.30438926815986633,0.036608196794986725
1772561370505272600,1.2292724609375,-0.636976420879364,-0.33639422059059143,-0.0008810879662632942
1772561370515301600,1.239301513671875,-0.6678240895271301,-0.34602129459381104,-0.02641068398952484
1772561370525331500,1.24933154296875,-0.7054564952850342,-0.3478133976459503,-0.049084682017564774
1772561370535361500,1.259361572265625,-0.7402006387710571,-0.3558124601840973,-0.07026639580726624
1772561370545390600,1.269390625,-0.7679839730262756,-0.3722139894962311,-0.07800399512052536
1772561370555420700,1.279420654296875,-0.8022125363349915,-0.4063836634159088,-0.07816219329833984
1772561370565450800,1.28945068359375,-0.8402068614959717,-0.4353351593017578,-0.07708228379487991
1772561370575479600,1.2994794921875,-0.8753504157066345,-0.4474618434906006,-0.07246169447898865
1772561370585509600,1.309509521484375,-0.9035019278526306,-0.4061998724937439,-0.06029938906431198
1772561370595539500,1.31953955078125,-0.9253670573234558,-0.3349427580833435,-0.04911251366138458
1772561370605568800,1.32956884765625,-0.9403513669967651,-0.2566820979118347,-0.054688937962055206
1772561370615598600,1.3395986328125,-0.9323626756668091,-0.1823706030845642,-0.07211479544639587
1772561370625628700,1.349628662109375,-0.9113567471504211,-0.10236427187919617,-0.08161751925945282
1772561370635657500,1.359657470703125,-0.8726658225059509,-0.007041484117507935,-0.06721115112304688
1772561370645687600,1.3696875,-0.8348796367645264,0.09936206787824631,-0.016251422464847565
1772561370655717600,1.379717529296875,-0.8032767176628113,0.16693870723247528,0.04916193708777428
1772561370665746700,1.38974658203125,-0.771468997001648,0.18151439726352692,0.08187289535999298
1772561370675776800,1.39977685546875,-0.7377158403396606,0.1304115355014801,0.0620025210082531
1772561370685806600,1.409806640625,-0.7039662003517151,0.011268039233982563,-0.02554669976234436
1772561370695835600,1.419835693359375,-0.6906474828720093,-0.1794467717409134,-0.17978234589099884
1772561370705865700,1.42986572265625,-0.7020770311355591,-0.4285079836845398,-0.40407028794288635
1772561370715895600,1.4398955078125,-0.7342269420623779,-0.6711592674255371,-0.6582980155944824
1772561370725924600,1.449924560546875,-0.8212411403656006,-0.8205114006996155,-0.8813037276268005
1772561370735954400,1.459954345703125,-0.99299156665802,-0.8192410469055176,-1.0133651494979858
1772561370745984500,1.469984619140625,-1.2341917753219604,-0.6759270429611206,-1.0395411252975464
1772561370756013600,1.480013671875,-1.498653531074524,-0.45766395330429077,-0.980336606502533
1772561370766043600,1.490043701171875,-1.7137540578842163,-0.19503137469291687,-0.866520345211029
1772561370776073700,1.50007373046875,-1.8312714099884033,0.06337754428386688,-0.7415592074394226
1772561370786102500,1.5101025390625,-1.8454941511154175,0.28342485427856445,-0.6377521753311157
1772561370796132600,1.520132568359375,-1.765372395515442,0.4357616603374481,-0.585944652557373
1772561370806162700,1.53016259765625,-1.608099341392517,0.5196377038955688,-0.5614996552467346
1772561370816191700,1.540191650390625,-1.3905566930770874,0.528296709060669,-0.5530161261558533
1772561370826221800,1.550221923828125,-1.148520588874817,0.4643171727657318,-0.5394445061683655
1772561370836251400,1.56025146484375,-0.9311182498931885,0.3412950932979584,-0.5016265511512756
1772561370846280400,1.570280517578125,-0.7722896933555603,0.15343165397644043,-0.43006470799446106
1772561370856310500,1.580310546875,-0.6504247784614563,-0.06081166863441467,-0.31537699699401855
1772561370866340600,1.590340576171875,-0.5445171594619751,-0.2475234419107437,-0.17341700196266174
1772561370876369700,1.60036962890625,-0.4510281980037689,-0.3844834268093109,-0.009416337125003338
1772561370886399500,1.6103994140625,-0.3798888325691223,-0.4756162762641907,0.1402856409549713
1772561370896429600,1.6204296875,-0.33973848819732666,-0.5316172242164612,0.2467401623725891
1772561370906458600,1.630458740234375,-0.33973854780197144,-0.5684736967086792,0.29004424810409546
1772561370916488700,1.64048876953125,-0.37137532234191895,-0.5745366811752319,0.27271533012390137
1772561370926518300,1.650518310546875,-0.41673415899276733,-0.5550124645233154,0.20876982808113098
1772561370936547300,1.66054736328125,-0.47532209753990173,-0.496886283159256,0.1367904394865036
1772561370946577400,1.670577392578125,-0.5512266159057617,-0.4148056209087372,0.07553026080131531
1772561370956607200,1.680607177734375,-0.639737606048584,-0.3398967385292053,0.012018400244414806
1772561370966636300,1.69063623046875,-0.7198976874351501,-0.2834847569465637,-0.04939529299736023
1772561370976666000,1.700666015625,-0.7617652416229248,-0.26628419756889343,-0.11299318075180054
1772561370986696200,1.7106962890625,-0.7617512941360474,-0.291043758392334,-0.16473224759101868
1772561370996725200,1.720725341796875,-0.7300066947937012,-0.33154457807540894,-0.18546228110790253
1772561371006755300,1.73075537109375,-0.6814324259757996,-0.359058678150177,-0.173420250415802
1772561371016785400,1.740785400390625,-0.6122406125068665,-0.3799857795238495,-0.13247893750667572
1772561371026814200,1.750814208984375,-0.54085773229599,-0.39338624477386475,-0.07875064015388489
1772561371036844300,1.76084423828125,-0.475073903799057,-0.3894306719303131,-0.030988171696662903
1772561371046874400,1.770874267578125,-0.4294745624065399,-0.35944002866744995,0.0029366835951805115
1772561371056903400,1.7809033203125,-0.40723052620887756,-0.3124735951423645,0.015549414791166782
1772561371066933200,1.790933349609375,-0.4171598553657532,-0.2603673040866852,0.005393515340983868
1772561371076963000,1.800963134765625,-0.4539863169193268,-0.18495245277881622,-0.008474363014101982
1772561371086992400,1.810992431640625,-0.5076606869697571,-0.10086634010076523,-0.010303156450390816
1772561371097022200,1.821022216796875,-0.5677521228790283,-0.014240223914384842,-0.0034570940770208836
1772561371107052300,1.83105224609375,-0.6251372694969177,0.04335092008113861,0.01751858741044998
1772561371117081000,1.8410810546875,-0.6704655885696411,0.07267818599939346,0.03177342191338539
1772561371127111200,1.851111083984375,-0.6924247145652771,0.08117992430925369,0.0545254722237587
1772561371137141200,1.861141357421875,-0.6873977184295654,0.08115994930267334,0.08568792045116425
1772561371147171300,1.87117138671875,-0.6682785749435425,0.05432603508234024,0.12325157225131989
1772561371157200400,1.881200439453125,-0.6319983005523682,0.027025438845157623,0.16646800935268402
1772561371167230500,1.89123046875,-0.5928733944892883,0.00021993368864059448,0.21816344559192657
1772561371177260300,1.90126025390625,-0.5566661357879639,-0.014474323950707912,0.26306965947151184
1772561371187289300,1.911289306640625,-0.5262012481689453,-0.014820655807852745,0.29598844051361084
1772561371197319200,1.921319091796875,-0.5110204219818115,-0.016563694924116135,0.30189213156700134
1772561371207349200,1.931349365234375,-0.513594388961792,-0.017039265483617783,0.2851485013961792
1772561371217378300,1.94137841796875,-0.5237610340118408,-0.01665816828608513,0.24317307770252228
1772561371227408100,1.951408203125,-0.5432223677635193,-0.025422193109989166,0.18604424595832825
1772561371237438200,1.961438232421875,-0.5709463953971863,-0.03886076807975769,0.12860706448554993
1772561371247467300,1.97146728515625,-0.5986617803573608,-0.045493122190237045,0.07641114294528961
1772561371257497300,1.981497314453125,-0.6423400044441223,-0.02260724827647209,0.028270505368709564
1772561371267527400,1.99152734375,-0.6949347257614136,0.01115117035806179,-0.016025524586439133
1772561371277556200,2.00155615234375,-0.735018789768219,0.043979957699775696,-0.06241219863295555
1772561371287586300,2.01158642578125,-0.7407221794128418,0.08263138681650162,-0.11030145734548569
1772561371297616100,2.0216162109375,-0.7067953944206238,0.13905072212219238,-0.15881706774234772
1772561371307645400,2.0316455078125,-0.6370738744735718,0.24000222980976105,-0.19107605516910553
1772561371317675300,2.04167529296875,-0.5618089437484741,0.39832690358161926,-0.1948162019252777
1772561371327705300,2.051705322265625,-0.4854806959629059,0.5690229535102844,-0.17791686952114105
1772561371337734100,2.061734130859375,-0.40906208753585815,0.6968600153923035,-0.157842755317688
1772561371347764200,2.07176416015625,-0.34745144844055176,0.7414597868919373,-0.16196167469024658
1772561371357794300,2.081794189453125,-0.3054949641227722,0.6923247575759888,-0.21743983030319214
1772561371367823400,2.0918232421875,-0.2929081916809082,0.5110478401184082,-0.34036552906036377
1772561371377853200,2.101853271484375,-0.32322055101394653,0.13719138503074646,-0.5503621697425842
1772561371387883300,2.11188330078125,-0.4210856258869171,-0.36888280510902405,-0.847597062587738
1772561371397912300,2.121912353515625,-0.5557933449745178,-0.8004313111305237,-1.1666181087493896
1772561371407942400,2.1319423828125,-0.6991126537322998,-1.0136380195617676,-1.4030423164367676
1772561371417972200,2.14197216796875,-0.8313606977462769,-0.9617358446121216,-1.4925730228424072
1772561371428001300,2.152001220703125,-0.9258744716644287,-0.6631767749786377,-1.3933098316192627
1772561371438031000,2.162031005859375,-0.9321686029434204,-0.23987209796905518,-1.145517110824585
1772561371448061200,2.172061279296875,-0.8295831680297852,0.16989845037460327,-0.8340842127799988
1772561371458090200,2.18209033203125,-0.6220731139183044,0.4775489568710327,-0.5515281558036804
1772561371468120300,2.192120361328125,-0.33097654581069946,0.6094555258750916,-0.3728184103965759
1772561371478150400,2.202150390625,-0.012960251420736313,0.5274828672409058,-0.3176787197589874
1772561371488179200,2.21217919921875,0.27948465943336487,0.3005715012550354,-0.3642759919166565
1772561371498209300,2.222209228515625,0.4785434305667877,-0.002777446061372757,-0.47153374552726746
1772561371508239400,2.2322392578125,0.5545209646224976,-0.28412243723869324,-0.5716705918312073
1772561371518268400,2.242268310546875,0.5089761018753052,-0.5094876289367676,-0.6262933611869812
1772561371528298500,2.252298583984375,0.35111004114151,-0.6569297909736633,-0.6021013855934143
1772561371538328000,2.262328125,0.1273254156112671,-0.6703886389732361,-0.5007609128952026
1772561371548357400,2.272357421875,-0.10271425545215607,-0.5776927471160889,-0.3504772186279297
1772561371558387200,2.28238720703125,-0.2878691852092743,-0.44219693541526794,-0.19480372965335846
1772561371568417300,2.292417236328125,-0.40822556614875793,-0.3071770966053009,-0.06619923561811447
1772561371578446300,2.3024462890625,-0.4630565941333771,-0.18866083025932312,0.016385918483138084
1772561371588476200,2.31247607421875,-0.4711645245552063,-0.07263407111167908,0.05734063684940338
1772561371598506200,2.32250634765625,-0.4683663547039032,0.024555601179599762,0.0687677338719368
1772561371608535300,2.332535400390625,-0.4703303277492523,0.09022754430770874,0.07174620777368546
1772561371618565400,2.3425654296875,-0.4743937849998474,0.13058190047740936,0.0719161182641983
1772561371628595500,2.352595458984375,-0.49355077743530273,0.12871533632278442,0.07489283382892609
1772561371638624300,2.362624267578125,-0.5251446962356567,0.08210734277963638,0.08235687017440796
1772561371648654300,2.372654296875,-0.585324227809906,0.00322549045085907,0.09604150056838989
1772561371658684200,2.38268408203125,-0.6664222478866577,-0.11421245336532593,0.10733436793088913
1772561371668713200,2.392713134765625,-0.7740201354026794,-0.2624915540218353,0.11395936459302902
1772561371678743300,2.402743408203125,-0.9098413586616516,-0.41583478450775146,0.12250305712223053
1772561371688773000,2.412773193359375,-1.0626509189605713,-0.5467963814735413,0.14730095863342285
1772561371698802200,2.42280224609375,-1.2181018590927124,-0.660686194896698,0.17332111299037933
1772561371708832300,2.432832275390625,-1.3550524711608887,-0.7482791543006897,0.2029726654291153
1772561371718862300,2.4428623046875,-1.4642146825790405,-0.8286208510398865,0.23842492699623108
1772561371728891400,2.452891357421875,-1.5436358451843262,-0.8798613548278809,0.28645703196525574
1772561371738921200,2.462921142578125,-1.5870254039764404,-0.882621705532074,0.32737836241722107
1772561371748951300,2.472951416015625,-1.5909122228622437,-0.8427227735519409,0.3641795217990875
1772561371758980400,2.48298046875,-1.5513041019439697,-0.7505052089691162,0.4012880027294159
1772561371769010400,2.493010498046875,-1.4778255224227905,-0.6174693703651428,0.4427001476287842
1772561371779040300,2.503040283203125,-1.3796055316925049,-0.4701867401599884,0.48224329948425293
1772561371789069000,2.513069091796875,-1.267377495765686,-0.34927892684936523,0.5190306901931763
1772561371799099100,2.52309912109375,-1.1559250354766846,-0.27688834071159363,0.5541396737098694
1772561371809129200,2.533129150390625,-1.0469589233398438,-0.24436691403388977,0.5888070464134216
1772561371819158300,2.543158203125,-0.9483450055122375,-0.24385318160057068,0.6285800337791443
1772561371829188400,2.553188232421875,-0.8696413636207581,-0.23881740868091583,0.6706473231315613
1772561371839218400,2.563218505859375,-0.8069367408752441,-0.22528775036334991,0.7069481015205383
1772561371849247200,2.573247314453125,-0.7567927241325378,-0.22073352336883545,0.7272934317588806
1772561371859277300,2.58327734375,-0.7222493886947632,-0.22241531312465668,0.7320759296417236
1772561371869307400,2.593307373046875,-0.6948985457420349,-0.21685096621513367,0.7302051186561584
1772561371879337200,2.603337158203125,-0.6716299653053284,-0.21331961452960968,0.7082838416099548
1772561371889366300,2.6133662109375,-0.6506407260894775,-0.20576655864715576,0.6687986850738525
1772561371899396000,2.62339599609375,-0.6320931315422058,-0.19352826476097107,0.6074277758598328
1772561371909426200,2.63342626953125,-0.6254904866218567,-0.1934760957956314,0.5324655175209045
1772561371919455200,2.643455322265625,-0.6312354207038879,-0.20637458562850952,0.45480188727378845
1772561371929485600,2.653485595703125,-0.6440382599830627,-0.2382970154285431,0.37202632427215576
1772561371939515600,2.663515625,-0.6706789135932922,-0.28583043813705444,0.2952252924442291
1772561371949544400,2.67354443359375,-0.7076829671859741,-0.32633107900619507,0.23575127124786377
1772561371959574500,2.683574462890625,-0.7293094396591187,-0.33906233310699463,0.21514080464839935
1772561371969604600,2.6936044921875,-0.7347843647003174,-0.2995198369026184,0.252255380153656
1772561371979633700,2.703633544921875,-0.7222616672515869,-0.21249011158943176,0.33915671706199646
1772561371989663500,2.71366357421875,-0.6690407395362854,-0.07384375482797623,0.44013628363609314
1772561371999693300,2.723693359375,-0.5731089115142822,0.06960715353488922,0.5218673348426819
1772561372009722400,2.733722412109375,-0.45969581604003906,0.15557622909545898,0.5518695116043091
1772561372019752400,2.74375244140625,-0.343589186668396,0.17099858820438385,0.513699471950531
1772561372029782500,2.753782470703125,-0.2715151309967041,0.09642157703638077,0.3859093189239502
1772561372039811300,2.763811279296875,-0.2693465054035187,-0.07080603390932083,0.16600117087364197
1772561372049841400,2.77384130859375,-0.34188327193260193,-0.3103489577770233,-0.12857642769813538
1772561372059871500,2.78387158203125,-0.4745030999183655,-0.5547330975532532,-0.4632068872451782
1772561372069900500,2.793900634765625,-0.6557170152664185,-0.6900545954704285,-0.7435517907142639
1772561372079930600,2.8039306640625,-0.8732293844223022,-0.6149135231971741,-0.8942928314208984
1772561372089960400,2.81396044921875,-1.0904278755187988,-0.3439691662788391,-0.8612432479858398
1772561372099989500,2.823989501953125,-1.266680121421814,-0.005485648289322853,-0.6768015027046204
1772561372110019300,2.834019287109375,-1.3580113649368286,0.26968035101890564,-0.4110184907913208
1772561372120049400,2.84404931640625,-1.3487848043441772,0.41909727454185486,-0.15110331773757935
1772561372130078500,2.854078369140625,-1.2333310842514038,0.44551753997802734,0.04062417149543762
1772561372140108500,2.864108642578125,-1.0314810276031494,0.35815680027008057,0.12805494666099548
1772561372150138400,2.874138427734375,-0.7755894064903259,0.17029167711734772,0.12841984629631042
1772561372160167400,2.88416748046875,-0.499645471572876,-0.06589902937412262,0.10610122233629227
1772561372170197500,2.894197509765625,-0.2554451823234558,-0.24280811846256256,0.11387158185243607
1772561372180227600,2.9042275390625,-0.0832827165722847,-0.31784161925315857,0.18099096417427063
1772561372190256600,2.914256591796875,-0.0021568802185356617,-0.2895751893520355,0.31528422236442566
1772561372200286500,2.924286376953125,0.010428421199321747,-0.19105660915374756,0.4715119004249573
1772561372210316500,2.934316650390625,-0.017492547631263733,-0.06417860835790634,0.5872639417648315
1772561372220345600,2.944345703125,-0.051565561443567276,0.03934139385819435,0.6375537514686584
1772561372230375400,2.95437548828125,-0.082964226603508,0.11473867297172546,0.6076621413230896
1772561372240405500,2.964405517578125,-0.10166335105895996,0.15098856389522552,0.5294291377067566
1772561372250434300,2.974434326171875,-0.10155933350324631,0.15163162350654602,0.4282612204551697
1772561372260464400,2.98446435546875,-0.09439543634653091,0.10670995712280273,0.32614096999168396
1772561372270494500,2.994494384765625,-0.07830805331468582,0.051595769822597504,0.24136170744895935
1772561372280523500,3.0045234375,-0.07082110643386841,-0.00936984270811081,0.163399800658226
1772561372290553600,3.0145537109375,-0.0718320906162262,-0.06452000886201859,0.08755959570407867
1772561372300583400,3.02458349609375,-0.07795443385839462,-0.08378371596336365,0.0247204452753067
1772561372310612500,3.034612548828125,-0.09158245474100113,-0.061167240142822266,-0.018653005361557007
1772561372320642600,3.044642578125,-0.1119372621178627,-0.03223279491066933,-0.03181008994579315
1772561372330672400,3.05467236328125,-0.1348986178636551,0.004125123843550682,0.010306715033948421
1772561372340701700,3.06470166015625,-0.1567852646112442,0.05231529474258423,0.0994320660829544
1772561372350731300,3.074731201171875,-0.1686306744813919,0.09496767073869705,0.21692219376564026
1772561372360761300,3.08476123046875,-0.16471555829048157,0.11696191877126694,0.3194749653339386
1772561372370790400,3.094790283203125,-0.12621666491031647,0.10162940621376038,0.3851138949394226
1772561372380820500,3.104820556640625,-0.07328101247549057,0.054809704422950745,0.3895174562931061
1772561372390850600,3.1148505859375,-0.02555825747549534,-0.0014388198032975197,0.33397379517555237
1772561372400879400,3.12487939453125,0.01582859829068184,-0.06305264681577682,0.2522863745689392
1772561372410909400,3.134909423828125,0.05794481188058853,-0.1119823306798935,0.17676565051078796
1772561372420939500,3.144939453125,0.09166096895933151,-0.13208040595054626,0.1326676905155182
1772561372430968600,3.154968505859375,0.09935084730386734,-0.11937423050403595,0.12163782864809036
1772561372440998700,3.16499853515625,0.07701811194419861,-0.08827464282512665,0.13331447541713715
1772561372451028500,3.175028564453125,0.014357389882206917,-0.057772889733314514,0.1706227958202362
1772561372461057500,3.1850576171875,-0.05934266373515129,-0.02471720054745674,0.24424773454666138
1772561372471087400,3.19508740234375,-0.1535416692495346,0.0007956214249134064,0.3265439569950104
1772561372481117400,3.205117431640625,-0.24643193185329437,0.003092864528298378,0.3979203999042511
1772561372491147500,3.2151474609375,-0.3092254102230072,-0.006204675883054733,0.4389887750148773
1772561372501176600,3.225176513671875,-0.3369063138961792,-0.02688625082373619,0.4689874053001404
1772561372511206400,3.235206298828125,-0.34176895022392273,-0.033513329923152924,0.49128904938697815
1772561372521236500,3.245236572265625,-0.332634836435318,-0.04704618453979492,0.5168108940124512
1772561372531265500,3.255265625,-0.3137994408607483,-0.05804593116044998,0.5531539916992188
1772561372541295600,3.265295654296875,-0.2817184627056122,-0.08367060124874115,0.5919412970542908
1772561372551325400,3.275325439453125,-0.24539980292320251,-0.10787442326545715,0.63121098279953
1772561372561354500,3.2853544921875,-0.196308434009552,-0.08987490832805634,0.6627649068832397
1772561372571384300,3.29538427734375,-0.13115441799163818,0.012498422525823116,0.6944608092308044
1772561372581414400,3.305414306640625,-0.05081724002957344,0.19982624053955078,0.7194988131523132
1772561372591443500,3.315443359375,0.03110683336853981,0.39787018299102783,0.7134705781936646
1772561372601473500,3.3254736328125,0.09710049629211426,0.4885540008544922,0.6644409894943237
1772561372611503400,3.33550341796875,0.11530167609453201,0.4624672532081604,0.5795106291770935
1772561372621532400,3.345532470703125,0.09776396304368973,0.2830705940723419,0.44778990745544434
1772561372631562500,3.3555625,0.06527915596961975,-0.08519119769334793,0.24338114261627197
1772561372641592600,3.365592529296875,0.039017993956804276,-0.5269666910171509,-0.020858757197856903
1772561372651621600,3.37562158203125,0.0010582678951323032,-0.8773736357688904,-0.250650554895401
1772561372661651500,3.3856513671875,-0.06475776433944702,-1.0299134254455566,-0.36096829175949097
1772561372671681300,3.395681396484375,-0.16828307509422302,-0.8929084539413452,-0.3073713779449463
1772561372681710600,3.405710693359375,-0.28753381967544556,-0.5179724097251892,-0.1032738983631134
1772561372691740400,3.415740478515625,-0.38806402683258057,-0.0392678901553154,0.1480983942747116
1772561372701770500,3.4257705078125,-0.4340861141681671,0.38824963569641113,0.33034542202949524
1772561372711799300,3.43579931640625,-0.4287579655647278,0.6980175971984863,0.38143542408943176
1772561372721829400,3.445829345703125,-0.37212106585502625,0.8819807767868042,0.29399317502975464
1772561372731859500,3.455859375,-0.2760448157787323,0.9292435646057129,0.08970333635807037
1772561372741888500,3.465888427734375,-0.16296139359474182,0.8488315343856812,-0.19209398329257965
1772561372751918600,3.475918701171875,-0.051506172865629196,0.6515253782272339,-0.4934931695461273
1772561372761948700,3.48594873046875,0.032495517283678055,0.3964542746543884,-0.7294492125511169
1772561372771977500,3.4959775390625,0.07222291827201843,0.15691852569580078,-0.8428615927696228
1772561372782007600,3.506007568359375,0.05386867746710777,-0.05650214105844498,-0.8218036890029907
1772561372792037400,3.516037353515625,-0.003682434093207121,-0.2343621701002121,-0.6805136799812317
1772561372802066700,3.526066650390625,-0.08760049939155579,-0.3324887156486511,-0.46109291911125183
1772561372812096500,3.536096435546875,-0.18752771615982056,-0.3636212646961212,-0.20586518943309784
1772561372822126300,3.546126220703125,-0.27168068289756775,-0.3476034104824066,0.020621202886104584
1772561372832155400,3.5561552734375,-0.3274793326854706,-0.31260594725608826,0.15804451704025269
1772561372842185500,3.566185546875,-0.3596809208393097,-0.2928956151008606,0.18326064944267273
1772561372852215600,3.576215576171875,-0.37176093459129333,-0.296750009059906,0.1174669936299324
1772561372862244400,3.586244384765625,-0.3653866648674011,-0.29835429787635803,0.015948887914419174
1772561372872274400,3.5962744140625,-0.3408336937427521,-0.263655424118042,-0.07489942014217377
1772561372882304500,3.606304443359375,-0.2898716926574707,-0.18848077952861786,-0.1476663053035736
1772561372892333600,3.61633349609375,-0.2140146791934967,-0.05711314082145691,-0.1730802208185196
1772561372902363600,3.62636376953125,-0.12104000151157379,0.10323578864336014,-0.15446633100509644
1772561372912393500,3.6363935546875,-0.029546093195676804,0.24669170379638672,-0.1101645678281784
1772561372922422500,3.646422607421875,0.0631399005651474,0.32291215658187866,-0.07088001817464828
1772561372932452600,3.65645263671875,0.13791446387767792,0.324889600276947,-0.03724365308880806
1772561372942482700,3.666482666015625,0.18092185258865356,0.25377148389816284,-0.015017444267868996
1772561372952511700,3.67651171875,0.2029707282781601,0.14011672139167786,0.01390737947076559
1772561372962541800,3.686541748046875,0.20394757390022278,0.0262889564037323,0.0674547553062439
1772561372972572000,3.696572021484375,0.1858946532011032,-0.08233364671468735,0.14072534441947937
1772561372982600700,3.7066005859375,0.14760160446166992,-0.16684240102767944,0.2121870070695877
1772561372992630800,3.716630859375,0.10396983474493027,-0.2201831340789795,0.2549932301044464
1772561373002660900,3.726660888671875,0.060397058725357056,-0.2501104176044464,0.2669233977794647
1772561373012690700,3.736690673828125,0.03510620445013046,-0.24813829362392426,0.24599239230155945
1772561373022719700,3.7467197265625,0.020261215046048164,-0.21625278890132904,0.2132330983877182
1772561373032749800,3.756749755859375,0.01584690436720848,-0.14904983341693878,0.18809808790683746
1772561373042779600,3.766779541015625,0.0025236415676772594,-0.061453677713871,0.17192605137825012
1772561373052808700,3.77680859375,-0.013056855648756027,0.008875371888279915,0.16556304693222046
1772561373062838800,3.7868388671875,-0.026400357484817505,0.06143125146627426,0.1774258315563202
1772561373072868900,3.796868896484375,-0.02695058286190033,0.09402149170637131,0.2053588628768921
1772561373082897700,3.806897705078125,-0.016822582110762596,0.09081371128559113,0.23813492059707642
1772561373092927700,3.816927734375,-0.005683334544301033,0.06152622774243355,0.27184683084487915
1772561373102957800,3.826957763671875,-0.001993791665881872,0.025221485644578934,0.29440221190452576
1772561373112987000,3.83698681640625,-0.01855899766087532,0.005964209325611591,0.30320778489112854
1772561373123017000,3.847016845703125,-0.04622950777411461,-0.023241879418492317,0.27078327536582947
1772561373133046800,3.857046875,-0.08967792242765427,-0.05499498173594475,0.22660766541957855
1772561373143075600,3.86707568359375,-0.136222243309021,-0.07187489420175552,0.18125377595424652
1772561373153105700,3.877105712890625,-0.186221182346344,-0.07971897721290588,0.14505182206630707
1772561373163135700,3.8871357421875,-0.24240082502365112,-0.07101363688707352,0.1242314800620079
1772561373173164800,3.897164794921875,-0.2926073670387268,-0.028952058404684067,0.13077899813652039
1772561373183195000,3.90719482421875,-0.31423357129096985,0.08641474694013596,0.17611771821975708
1772561373193224700,3.917224609375,-0.3036676049232483,0.23845994472503662,0.2275402545928955
1772561373203253800,3.927253662109375,-0.2691327929496765,0.33942943811416626,0.24889054894447327
1772561373213283800,3.937283935546875,-0.2210397720336914,0.3697277009487152,0.2358383983373642
1772561373223314000,3.94731396484375,-0.1776009500026703,0.31878674030303955,0.1708274483680725
1772561373233343000,3.957343017578125,-0.17056328058242798,0.19355343282222748,0.058493874967098236
1772561373243372800,3.967372802734375,-0.2089594006538391,0.02000879868865013,-0.10538320988416672
1772561373253402600,3.977402587890625,-0.2881607413291931,-0.1888011246919632,-0.31898364424705505
1772561373263431700,3.987431640625,-0.4034431278705597,-0.37911754846572876,-0.5428236722946167
1772561373273459700,3.997459716796875,-0.5551013350486755,-0.4413958191871643,-0.6927777528762817
1772561373283489800,4.00748974609375,-0.7067257165908813,-0.314772367477417,-0.7287243008613586
1772561373293518800,4.017518798828125,-0.8158699870109558,-0.06221903860569,-0.6589579582214355
1772561373303549000,4.027548828125,-0.8550392389297485,0.19127847254276276,-0.5182291269302368
1772561373313578800,4.037578857421875,-0.8005719184875488,0.32535865902900696,-0.36773917078971863
1772561373323607800,4.04760791015625,-0.6771373152732849,0.32398393750190735,-0.2345675528049469
1772561373333637600,4.0576376953125,-0.5050161480903625,0.22657352685928345,-0.14005805552005768
1772561373343667700,4.067667724609375,-0.31189966201782227,0.05588913708925247,-0.08380331099033356
1772561373353696800,4.07769677734375,-0.13631080090999603,-0.16264238953590393,-0.0653124526143074
1772561373363726800,4.087726806640625,-0.010850872844457626,-0.34918084740638733,-0.0575871542096138
1772561373373757000,4.0977568359375,0.04745462164282799,-0.4650793969631195,-0.057151783257722855
1772561373383785700,4.10778564453125,0.035823531448841095,-0.5225871205329895,-0.06471329927444458
1772561373393815800,4.11781591796875,-0.020074928179383278,-0.5013810396194458,-0.07767565548419952
1772561373403846000,4.127845947265625,-0.09301385283470154,-0.42735716700553894,-0.099448062479496
1772561373413875000,4.137875,-0.15724848210811615,-0.3275211751461029,-0.1240205243229866
1772561373423904800,4.14790478515625,-0.20262235403060913,-0.22657857835292816,-0.13991081714630127
1772561373433934600,4.1579345703125,-0.23278744518756866,-0.15216901898384094,-0.13911540806293488
1772561373443963600,4.167963623046875,-0.25662222504615784,-0.13857199251651764,-0.12789924442768097
1772561373453993700,4.17799365234375,-0.26988863945007324,-0.17072072625160217,-0.12049879133701324
1772561373464023800,4.18802392578125,-0.27154698967933655,-0.21693722903728485,-0.11449708789587021
1772561373474052600,4.198052490234375,-0.2626939117908478,-0.2477932721376419,-0.10056667029857635
1772561373484082700,4.208082763671875,-0.2572386860847473,-0.2531376779079437,-0.07778332382440567
1772561373494112800,4.21811279296875,-0.2726723849773407,-0.24894678592681885,-0.05948904901742935
1772561373504141800,4.228141845703125,-0.30122917890548706,-0.23225489258766174,-0.05621416121721268
1772561373514172000,4.238171875,-0.3291865885257721,-0.20303818583488464,-0.05981724336743355
1772561373524202000,4.248201904296875,-0.3507171869277954,-0.20351728796958923,-0.07969214767217636
1772561373534230800,4.258230712890625,-0.3659014403820038,-0.23933826386928558,-0.11216820031404495
1772561373544260900,4.2682607421875,-0.37323737144470215,-0.2937796711921692,-0.13947679102420807
1772561373554290700,4.278290771484375,-0.36630284786224365,-0.34256869554519653,-0.14092028141021729
1772561373564319700,4.28831982421875,-0.3602268397808075,-0.37942153215408325,-0.12463399022817612
1772561373574349800,4.298349853515625,-0.35625073313713074,-0.4129505753517151,-0.1077226847410202
1772561373584379600,4.308379638671875,-0.3599802255630493,-0.42245087027549744,-0.102078378200531
1772561373594408700,4.31840869140625,-0.37751826643943787,-0.40529027581214905,-0.1196398138999939
1772561373604438800,4.328438720703125,-0.4161953330039978,-0.35681861639022827,-0.14546315371990204
1772561373614468900,4.33846875,-0.4511733949184418,-0.2915376126766205,-0.176922008395195
1772561373624498000,4.348497802734375,-0.4886517822742462,-0.20728956162929535,-0.19376809895038605
1772561373634527700,4.35852783203125,-0.5007506012916565,-0.1132352277636528,-0.19772182404994965
1772561373644557800,4.368557861328125,-0.4937067925930023,-0.03710877150297165,-0.17928501963615417
1772561373654587000,4.3785869140625,-0.4667707681655884,-0.0006160065531730652,-0.14900541305541992
1772561373664616700,4.38861669921875,-0.4232497215270996,0.016143739223480225,-0.10456597059965134
1772561373674646800,4.398646728515625,-0.3628835082054138,0.0007556155323982239,-0.06065687909722328
1772561373684675600,4.408675537109375,-0.28470534086227417,-0.036373645067214966,-0.017956554889678955
1772561373694705700,4.41870556640625,-0.19630487263202667,-0.08752349019050598,0.016310488805174828
1772561373704735700,4.42873583984375,-0.12090758979320526,-0.14688162505626678,0.040009159594774246
1772561373714764800,4.438764892578125,-0.06474437564611435,-0.21079109609127045,0.04908520728349686
1772561373724795000,4.448794921875,-0.034211769700050354,-0.26986002922058105,0.05252654850482941
1772561373734824700,4.45882470703125,-0.027063801884651184,-0.33566316962242126,0.045729462057352066
1772561373744853800,4.468853759765625,-0.03269318863749504,-0.3720152974128723,0.044520922005176544
1772561373754883800,4.4788837890625,-0.04764161631464958,-0.36768513917922974,0.06413764506578445
1772561373764914000,4.488913818359375,-0.0645953044295311,-0.31885474920272827,0.09688679873943329
1772561373774943700,4.49894384765625,-0.08807919174432755,-0.1932392716407776,0.1469731479883194
1772561373784972500,4.50897265625,-0.10169034451246262,0.009191058576107025,0.18520362675189972
1772561373795002600,4.519002685546875,-0.1003192737698555,0.18833068013191223,0.18308097124099731
1772561373805032700,4.52903271484375,-0.07762354612350464,0.25060391426086426,0.12129271775484085
1772561373815061800,4.539061767578125,-0.05929941684007645,0.20460078120231628,0.019215021282434464
1772561373825091800,4.549091796875,-0.07424481213092804,0.027973027899861336,-0.11076455563306808
1772561373835122000,4.559121826171875,-0.12222173810005188,-0.2530250549316406,-0.2588161528110504
1772561373845150700,4.569150634765625,-0.17249076068401337,-0.566437840461731,-0.4277457892894745
1772561373855180800,4.579180908203125,-0.22029438614845276,-0.8267498016357422,-0.5727628469467163
1772561373865211000,4.5892109375,-0.30158495903015137,-0.9379735589027405,-0.6361450552940369
1772561373875240000,4.599239990234375,-0.4092428684234619,-0.8133270740509033,-0.5797199010848999
1772561373885271800,4.609271728515625,-0.5014132857322693,-0.49225831031799316,-0.4143112599849701
1772561373895302000,4.619302001953125,-0.5359961986541748,-0.08296693861484528,-0.19072368741035461
1772561373905330700,4.62933056640625,-0.49237897992134094,0.275929719209671,0.01940317451953888
1772561373915360800,4.63936083984375,-0.3695850670337677,0.513511061668396,0.15317632257938385
1772561373925390800,4.649390869140625,-0.19379033148288727,0.5989279747009277,0.1813879758119583
1772561373935419100,4.659419189453125,0.014771899208426476,0.5601100921630859,0.1266307532787323
1772561373945449200,4.66944921875,0.22142547369003296,0.3993566334247589,0.009838893078267574
1772561373955479000,4.67947900390625,0.3845273554325104,0.14262986183166504,-0.10742032527923584
1772561373965508000,4.689508056640625,0.4727395176887512,-0.12441808730363846,-0.1823374480009079
1772561373975538200,4.6995380859375,0.45572221279144287,-0.35373052954673767,-0.18273812532424927
1772561373985568000,4.709568115234375,0.36031925678253174,-0.5090631246566772,-0.1158088818192482
1772561373995597000,4.71959716796875,0.2265595942735672,-0.5776077508926392,0.0012928033247590065
1772561374005627100,4.729627197265625,0.08025803416967392,-0.5521003007888794,0.1324058175086975
1772561374015657200,4.7396572265625,-0.03557869419455528,-0.4757636785507202,0.24547244608402252
1772561374025686300,4.749686279296875,-0.09980082511901855,-0.36881646513938904,0.3171599805355072
1772561374035716000,4.759716064453125,-0.11154408752918243,-0.23440302908420563,0.335065633058548
1772561374045746200,4.76974609375,-0.08546588569879532,-0.09661053121089935,0.30823031067848206
1772561374055775200,4.779775146484375,-0.034134089946746826,0.023547444492578506,0.250385582447052
1772561374065805300,4.789805419921875,0.03569452464580536,0.12204020470380783,0.1807607114315033
1772561374075835100,4.799835205078125,0.10119105875492096,0.20274826884269714,0.1355954110622406
1772561374085864200,4.8098642578125,0.163560688495636,0.24696074426174164,0.10744340717792511
1772561374095894000,4.81989404296875,0.20536549389362335,0.2503417730331421,0.10176452249288559
1772561374105924000,4.829924072265625,0.22549420595169067,0.21993404626846313,0.09353721886873245
1772561374115953200,4.839953125,0.23277507722377777,0.16515260934829712,0.08692532032728195
1772561374125983200,4.849983154296875,0.2304259091615677,0.09213539958000183,0.0698201060295105
1772561374136013000,4.860012939453125,0.2170972377061844,0.013590265065431595,0.051394764333963394
1772561374146043100,4.870043212890625,0.19260574877262115,-0.049121320247650146,0.0404244065284729
1772561374156072200,4.880072265625,0.16669076681137085,-0.10137293487787247,0.04351940006017685
1772561374166102300,4.890102294921875,0.15089182555675507,-0.15900880098342896,0.04322485625743866
1772561374176132000,4.900132080078125,0.1573043018579483,-0.22429350018501282,0.04959149658679962
1772561374186161200,4.9101611328125,0.1860552579164505,-0.2605612277984619,0.06227187439799309
1772561374196191000,4.92019091796875,0.22646237909793854,-0.2793899178504944,0.09140218794345856
1772561374206221000,4.930220947265625,0.25910741090774536,-0.2792876362800598,0.1284523457288742
1772561374216250000,4.94025,0.281255304813385,-0.24859170615673065,0.16424314677715302
1772561374226280200,4.9502802734375,0.30250251293182373,-0.2018423080444336,0.1893165409564972
1772561374236310300,4.960310302734375,0.31657716631889343,-0.16295459866523743,0.19739238917827606
1772561374246339000,4.970339111328125,0.32559701800346375,-0.13521404564380646,0.18319293856620789
1772561374256369200,4.980369140625,0.3361249268054962,-0.1255618780851364,0.16234521567821503
1772561374266399200,4.990399169921875,0.3384389579296112,-0.13913121819496155,0.14449617266654968
1772561374276428300,5.00042822265625,0.33436310291290283,-0.17884160578250885,0.13668540120124817
1772561374286458400,5.010458251953125,0.330126017332077,-0.21878741681575775,0.1413200944662094
1772561374296488000,5.020488037109375,0.31016987562179565,-0.2533895671367645,0.1708400696516037
1772561374306517200,5.030517333984375,0.28284478187561035,-0.2558889389038086,0.20312264561653137
1772561374316547000,5.040547119140625,0.25325343012809753,-0.2367420196533203,0.2414543777704239
1772561374326577200,5.0505771484375,0.2160741090774536,-0.18691374361515045,0.2713872492313385
1772561374336606200,5.060606201171875,0.18110983073711395,-0.12210210412740707,0.2874566316604614
1772561374346636000,5.070635986328125,0.14231689274311066,-0.0572887547314167,0.2920612394809723
1772561374356666000,5.080666015625,0.10293465107679367,-0.009929966181516647,0.27630484104156494
1772561374366695200,5.090695068359375,0.068511962890625,0.0006339950487017632,0.23100899159908295
1772561374376725200,5.100725341796875,0.04137452319264412,-0.016153927892446518,0.16618777811527252
1772561374386755300,5.11075537109375,0.012411048635840416,-0.040633704513311386,0.10574334859848022
1772561374396784000,5.1207841796875,-0.024266064167022705,-0.06005483120679855,0.06610503047704697
1772561374406814200,5.130814208984375,-0.06886309385299683,-0.057953327894210815,0.06962119787931442
1772561374416844000,5.140843994140625,-0.09286236017942429,-0.014719884842634201,0.12098175287246704
1772561374426873000,5.150873046875,-0.07857503741979599,0.07774719595909119,0.19815537333488464
1772561374436903200,5.160903076171875,-0.019119611009955406,0.13633719086647034,0.25914624333381653
1772561374446933000,5.17093310546875,0.062001876533031464,0.12142136693000793,0.2699839770793915
1772561374456962000,5.180962158203125,0.1368928700685501,0.022135091945528984,0.23306018114089966
1772561374466992000,5.1909921875,0.17658807337284088,-0.13770011067390442,0.1404615342617035
1772561374477022200,5.201022216796875,0.1618056297302246,-0.34818875789642334,-0.008654736913740635
1772561374487051300,5.21105126953125,0.10650189965963364,-0.5287462472915649,-0.19267144799232483
1772561374497081000,5.2210810546875,0.009935451671481133,-0.5737304091453552,-0.3524307310581207
1772561374507111200,5.231111083984375,-0.12388413399457932,-0.4137316942214966,-0.4327881336212158
1772561374517140200,5.24114013671875,-0.2503415048122406,-0.08570816367864609,-0.40584808588027954
1772561374527170300,5.25117041015625,-0.3375573754310608,0.27528995275497437,-0.3108901381492615
1772561374537200000,5.2612001953125,-0.3764514923095703,0.5383419990539551,-0.1885293871164322
1772561374547229000,5.27122900390625,-0.3623332679271698,0.6270950436592102,-0.10704651474952698
1772561374557259000,5.281259033203125,-0.2822072505950928,0.5633309483528137,-0.09319951385259628
1772561374567289000,5.2912890625,-0.151864156126976,0.3724243640899658,-0.12347592413425446
1772561374577318100,5.301318115234375,0.0028103706426918507,0.11610337346792221,-0.15899264812469482
1772561374587348200,5.31134814453125,0.13007165491580963,-0.15151341259479523,-0.17773117125034332
1772561374597378300,5.32137841796875,0.21306529641151428,-0.34881138801574707,-0.16717682778835297
1772561374607407000,5.331406982421875,0.24098481237888336,-0.44360554218292236,-0.13145850598812103
1772561374617437200,5.341437255859375,0.2267092615365982,-0.4438995122909546,-0.08240395784378052
1772561374627467300,5.35146728515625,0.19507889449596405,-0.35316774249076843,-0.026927383616566658
1772561374637496300,5.361496337890625,0.1594935655593872,-0.1827511191368103,0.0304863303899765
1772561374647526100,5.371526123046875,0.1402660757303238,0.016487687826156616,0.0845748707652092
1772561374657556000,5.381555908203125,0.151948481798172,0.2091895490884781,0.125027596950531
1772561374667585000,5.3915849609375,0.18692271411418915,0.3676428198814392,0.14854463934898376
1772561374677615000,5.401614990234375,0.23867259919643402,0.45703068375587463,0.1492314487695694
1772561374687645200,5.411645263671875,0.2931968569755554,0.49369150400161743,0.12665370106697083
1772561374697674000,5.421674072265625,0.33840829133987427,0.5087330937385559,0.07937265932559967
1772561374707704000,5.4317041015625,0.3723614811897278,0.49187901616096497,0.016167860478162766
1772561374717734100,5.441734130859375,0.3880646228790283,0.4526577591896057,-0.04893651604652405
1772561374727763200,5.45176318359375,0.37722209095954895,0.4016720652580261,-0.11136233806610107
1772561374737793300,5.461793212890625,0.33023956418037415,0.32332903146743774,-0.15883594751358032
1772561374747823400,5.4718232421875,0.26502832770347595,0.22574734687805176,-0.1851530373096466
1772561374757852200,5.48185205078125,0.18238742649555206,0.12726692855358124,-0.17786695063114166
1772561374767882000,5.491882080078125,0.09840996563434601,0.03541957214474678,-0.14230895042419434
1772561374777912000,5.501912109375,0.015428738668560982,-0.045562922954559326,-0.08829207718372345
1772561374787941000,5.511941162109375,-0.059768810868263245,-0.123133085668087,-0.03809947893023491
1772561374797971200,5.52197119140625,-0.13684488832950592,-0.19768191874027252,-0.010230214335024357
1772561374808001000,5.5320009765625,-0.2080966979265213,-0.2528362572193146,-0.01660449057817459
1772561374818030000,5.542030029296875,-0.2737908661365509,-0.2796943187713623,-0.050383973866701126
1772561374828060200,5.55206005859375,-0.3335364758968353,-0.26335954666137695,-0.10777056217193604
1772561374838090200,5.56209033203125,-0.38081443309783936,-0.2099124640226364,-0.16678643226623535
1772561374848119300,5.572119384765625,-0.4190331697463989,-0.11379098892211914,-0.18880198895931244
1772561374858149000,5.582149169921875,-0.45939165353775024,0.02620508521795273,-0.17966625094413757
1772561374868179200,5.59217919921875,-0.5034466981887817,0.20110924541950226,-0.1338404417037964
1772561374878208300,5.602208251953125,-0.5348387360572815,0.37277600169181824,-0.07815660536289215
1772561374888238000,5.612238037109375,-0.5398798584938049,0.5035526752471924,-0.02442227676510811
1772561374898268200,5.62226806640625,-0.5395612120628357,0.5760478973388672,0.01892094686627388
1772561374908297000,5.632296875,-0.5249888896942139,0.5830783843994141,0.053365737199783325
1772561374918327000,5.6423271484375,-0.481889009475708,0.5445283055305481,0.08146747201681137
1772561374928358000,5.65235791015625,-0.4346083104610443,0.4476270079612732,0.11384991556406021
1772561374938387000,5.662386962890625,-0.38678938150405884,0.33228060603141785,0.15570349991321564
1772561374948417000,5.6724169921875,-0.351362943649292,0.22549821436405182,0.20450405776500702
1772561374958446800,5.68244677734375,-0.34196943044662476,0.1533222645521164,0.2596881091594696
1772561374968476000,5.692475830078125,-0.36633574962615967,0.12429007887840271,0.29388630390167236
1772561374978505700,5.702505615234375,-0.4132494032382965,0.12258440256118774,0.30511075258255005
1772561374988535800,5.712535888671875,-0.4687510132789612,0.14465801417827606,0.2852105498313904
1772561374998564900,5.72256494140625,-0.5193955302238464,0.17881116271018982,0.24680739641189575
1772561375008594700,5.7325947265625,-0.5630988478660583,0.22877658903598785,0.20794999599456787
1772561375018624800,5.742624755859375,-0.581474244594574,0.3115856349468231,0.1901707947254181
1772561375028653800,5.75265380859375,-0.5637706518173218,0.4379851222038269,0.19249626994132996
1772561375038684000,5.762683837890625,-0.5237619280815125,0.5078750848770142,0.18103495240211487
1772561375048714000,5.7727138671875,-0.47148406505584717,0.43974927067756653,0.1355721354484558
1772561375058742800,5.78274267578125,-0.4249407649040222,0.22587834298610687,0.05118430405855179
1772561375068772900,5.79277294921875,-0.3892195224761963,-0.08629871904850006,-0.04624584689736366
1772561375078803000,5.802802978515625,-0.38428816199302673,-0.45244312286376953,-0.15246352553367615
1772561375088832000,5.81283203125,-0.3961948752403259,-0.7801485061645508,-0.23675496876239777
1772561375098861800,5.82286181640625,-0.4361816346645355,-0.9603232145309448,-0.2499597668647766
1772561375108892000,5.832891845703125,-0.5044168829917908,-0.9268736839294434,-0.1711488515138626
1772561375118920700,5.842920654296875,-0.5869187712669373,-0.6732786893844604,-0.01350061222910881
1772561375128950800,5.85295068359375,-0.631541907787323,-0.28315964341163635,0.17953568696975708
1772561375138980900,5.86298095703125,-0.6067702770233154,0.11811383813619614,0.33671867847442627
1772561375149011000,5.873010986328125,-0.5158254504203796,0.4119374752044678,0.40170273184776306
1772561375159040000,5.8830400390625,-0.3813682496547699,0.5490773320198059,0.3647293150424957
1772561375169069800,5.89306982421875,-0.25430828332901,0.5311851501464844,0.23284079134464264
1772561375179099000,5.903098876953125,-0.15564583241939545,0.37426379323005676,0.031111419200897217
1772561375189129000,5.91312890625,-0.08284246921539307,0.10675910115242004,-0.1966695487499237
1772561375199158800,5.92315869140625,-0.055552154779434204,-0.1848827749490738,-0.38681450486183167
1772561375209188900,5.93318896484375,-0.0907420963048935,-0.39995062351226807,-0.4849863350391388
1772561375219217700,5.9432177734375,-0.17956030368804932,-0.5129608511924744,-0.502676248550415
1772561375229247700,5.953247802734375,-0.28671953082084656,-0.5190165638923645,-0.457409143447876
1772561375239277800,5.96327783203125,-0.38301870226860046,-0.4226185977458954,-0.3745262622833252
1772561375249307000,5.973306884765625,-0.46512556076049805,-0.24767635762691498,-0.29772254824638367
1772561375259337000,5.9833369140625,-0.5148895978927612,-0.038070134818553925,-0.23729948699474335
1772561375269366800,5.99336669921875,-0.5302656292915344,0.14140082895755768,-0.21801234781742096
1772561375279395800,6.003395751953125,-0.5177149772644043,0.2691032886505127,-0.2327939122915268
1772561375289426000,6.013426025390625,-0.49006471037864685,0.332817018032074,-0.28111323714256287
1772561375299456000,6.0234560546875,-0.46591290831565857,0.30722278356552124,-0.33216434717178345
1772561375309485000,6.033485107421875,-0.4189464747905731,0.27133429050445557,-0.3460918664932251
1772561375319514600,6.0435146484375,-0.3466746509075165,0.28563836216926575,-0.29608818888664246
1772561375329544700,6.053544677734375,-0.26695024967193604,0.32428136467933655,-0.20731623470783234
1772561375339573800,6.06357373046875,-0.19472460448741913,0.39636722207069397,-0.09860023111104965
1772561375349603800,6.073603759765625,-0.13720645010471344,0.48150530457496643,0.011645582504570484
1772561375359634000,6.083634033203125,-0.10235030949115753,0.5579137206077576,0.08549349009990692
1772561375369662700,6.093662841796875,-0.0961933434009552,0.5975348949432373,0.12145708501338959
1772561375379692800,6.10369287109375,-0.10482700914144516,0.6024560332298279,0.11789337545633316
1772561375389723000,6.113722900390625,-0.15419456362724304,0.5485594868659973,0.0805065855383873
1772561375399752000,6.123751953125,-0.2298690229654312,0.41804516315460205,0.03032466024160385
1772561375409782000,6.133781982421875,-0.330471009016037,0.215920552611351,-0.013222815468907356
1772561375419811800,6.143811767578125,-0.4347022771835327,0.004935876466333866,-0.03731270879507065
1772561375429841000,6.1538408203125,-0.541541576385498,-0.17798280715942383,-0.03972180560231209
1772561375439870700,6.16387060546875,-0.661013126373291,-0.2932741045951843,-0.012331496924161911
1772561375449900800,6.17390087890625,-0.7911069393157959,-0.3209376931190491,0.04951296001672745
1772561375459929900,6.183929931640625,-0.9138768911361694,-0.24221143126487732,0.1298123300075531
1772561375469960000,6.1939599609375,-1.0162062644958496,-0.09410637617111206,0.20596754550933838
1772561375479989800,6.20398974609375,-1.0860602855682373,0.06830808520317078,0.2481594681739807
1772561375490018800,6.214018798828125,-1.1367818117141724,0.1690589338541031,0.23818141222000122
1772561375500049000,6.224048828125,-1.1649264097213745,0.18557921051979065,0.18434292078018188
1772561375510079000,6.234078857421875,-1.1880964040756226,0.16007812321186066,0.14067134261131287
1772561375520107800,6.244107666015625,-1.2236604690551758,0.11934174597263336,0.14146775007247925
1772561375530137900,6.254137939453125,-1.283327579498291,0.0763641893863678,0.17368054389953613
1772561375540168000,6.26416796875,-1.3752849102020264,0.028653062880039215,0.21699081361293793
1772561375550197000,6.274197021484375,-1.484332799911499,-0.0010675489902496338,0.25045129656791687
1772561375560226800,6.284226806640625,-1.594880223274231,-0.04033095762133598,0.2476782649755478
1772561375570257000,6.2942568359375,-1.700365662574768,-0.09777854382991791,0.23030008375644684
1772561375580285700,6.30428564453125,-1.783074975013733,-0.14902664721012115,0.21837946772575378
1772561375590315800,6.314315673828125,-1.8358651399612427,-0.16584797203540802,0.25007426738739014
1772561375600345900,6.324345947265625,-1.8579639196395874,-0.1255759596824646,0.3248410224914551
1772561375610375000,6.334375,-1.8493452072143555,-0.04944204166531563,0.4185778796672821
1772561375620405000,6.344405029296875,-1.7785619497299194,-0.02598688378930092,0.49569427967071533
1772561375630434800,6.354434814453125,-1.6713676452636719,-0.11889658123254776,0.5079671740531921
1772561375640464000,6.3644638671875,-1.612561821937561,-0.32656970620155334,0.447754442691803
1772561375650494000,6.374493896484375,-1.6323949098587036,-0.5561163425445557,0.32049447298049927
1772561375660523800,6.384523681640625,-1.705614447593689,-0.7966173887252808,0.15436819195747375
1772561375670553000,6.394552978515625,-1.8137893676757812,-0.992799699306488,-0.0070364223793148994
1772561375680582700,6.404582763671875,-1.9613783359527588,-1.0559484958648682,-0.13693033158779144
1772561375690612700,6.41461279296875,-2.119060516357422,-0.964811384677887,-0.19274859130382538
1772561375700641800,6.424641845703125,-2.2425551414489746,-0.7288075685501099,-0.1676848977804184
1772561375710672000,6.434671875,-2.316683769226074,-0.48240017890930176,-0.11743824928998947
1772561375720702000,6.444701904296875,-2.3288350105285645,-0.33024781942367554,-0.11890588700771332
1772561375730730800,6.454730712890625,-2.2946133613586426,-0.31055161356925964,-0.20239385962486267
1772561375740760800,6.4647607421875,-2.213432550430298,-0.43842655420303345,-0.34854912757873535
1772561375750791000,6.474791015625,-2.1133315563201904,-0.6383154392242432,-0.4849117696285248
1772561375760820000,6.484820068359375,-2.03159236907959,-0.8268284797668457,-0.562350869178772
1772561375770850000,6.49485009765625,-1.9746311902999878,-0.9618502259254456,-0.5606520175933838
1772561375780880000,6.5048798828125,-1.9362343549728394,-1.0383051633834839,-0.4927060306072235
1772561375790909000,6.514908935546875,-1.9095220565795898,-1.0569452047348022,-0.38243305683135986
1772561375800938800,6.524938720703125,-1.919364094734192,-1.0272407531738281,-0.2521604299545288
1772561375810968800,6.53496875,-1.910926103591919,-1.0365447998046875,-0.17241285741329193
1772561375820998000,6.544997802734375,-1.8500134944915771,-1.0303473472595215,-0.18868155777454376
1772561375831027700,6.55502783203125,-1.7830618619918823,-0.9418846964836121,-0.21105636656284332
1772561375841057800,6.565057861328125,-1.737973928451538,-0.7564688324928284,-0.18179596960544586
1772561375851086800,6.5750869140625,-1.6991242170333862,-0.5379630923271179,-0.08866602182388306
1772561375861117000,6.585116943359375,-1.6580135822296143,-0.4393547475337982,0.061656203120946884
1772561375871147000,6.59514697265625,-1.6296710968017578,-0.43270137906074524,0.21824900805950165
1772561375881175800,6.60517578125,-1.6313395500183105,-0.4554751515388489,0.34571951627731323
1772561375891206000,6.615205810546875,-1.6473926305770874,-0.49717867374420166,0.42489343881607056
1772561375901235700,6.625235595703125,-1.6764395236968994,-0.5584396123886108,0.45477625727653503
1772561375911265000,6.63526513671875,-1.7140095233917236,-0.6420522332191467,0.44996339082717896
1772561375921294800,6.645294921875,-1.7572985887527466,-0.7600967288017273,0.41532430052757263
1772561375931324000,6.655323974609375,-1.7972939014434814,-0.872879147529602,0.34751278162002563
1772561375941353000,6.66535302734375,-1.8306785821914673,-0.9701916575431824,0.2520425021648407
1772561375951383000,6.675383056640625,-1.8542025089263916,-1.056125283241272,0.132154181599617
1772561375961413000,6.6854130859375,-1.8482232093811035,-1.0752960443496704,0.04346824809908867
1772561375971442200,6.695442138671875,-1.8375766277313232,-1.0134190320968628,-0.004210324492305517
1772561375981472000,6.705471923828125,-1.828568696975708,-0.9185349941253662,-0.021497206762433052
1772561375991502000,6.715502197265625,-1.8150349855422974,-0.7908111214637756,-0.025606730952858925
1772561376001531100,6.72553125,-1.7970019578933716,-0.6333653926849365,-0.039164818823337555
1772561376011561200,6.735561279296875,-1.7705141305923462,-0.4539165496826172,-0.045905012637376785
1772561376021591300,6.74559130859375,-1.723303198814392,-0.2531667649745941,-0.05148597061634064
1772561376031620000,6.7556201171875,-1.6619503498077393,-0.02957894280552864,-0.05419334024190903
1772561376041650200,6.765650146484375,-1.6026605367660522,0.17700330913066864,-0.06379073113203049
1772561376051680000,6.775679931640625,-1.5398893356323242,0.31898069381713867,-0.07652783393859863
1772561376061709000,6.785708984375,-1.4340935945510864,0.4162466526031494,-0.0859488844871521
1772561376071739100,6.7957392578125,-1.275416374206543,0.47103241086006165,-0.08725863695144653
1772561376081769000,6.80576904296875,-1.1134096384048462,0.4797387719154358,-0.06736918538808823
1772561376091798000,6.815798095703125,-0.9936496615409851,0.43098559975624084,-0.02664279192686081
1772561376101828000,6.825828125,-0.8841413855552673,0.31808552145957947,0.03483915328979492
1772561376111858200,6.835858154296875,-0.7739456295967102,0.16138218343257904,0.10573489218950272
1772561376121887200,6.84588720703125,-0.6704645156860352,-0.01115293987095356,0.18106476962566376
1772561376131917000,6.8559169921875,-0.6087909936904907,-0.16430440545082092,0.2521330714225769
1772561376141947100,6.865947021484375,-0.616787850856781,-0.3275435268878937,0.29825064539909363
1772561376151976200,6.87597607421875,-0.6891355514526367,-0.5293890833854675,0.33392074704170227
1772561376162006000,6.886006103515625,-0.7663173079490662,-0.7055719494819641,0.39355188608169556
1772561376172036000,6.8960361328125,-0.8090477585792542,-0.8020540475845337,0.45292121171951294
1772561376182065000,6.90606494140625,-0.8101314306259155,-0.8383434414863586,0.47839978337287903
1772561376192095000,6.916094970703125,-0.7712919116020203,-0.8141672611236572,0.4844251871109009
1772561376202125000,6.926125,-0.6982225775718689,-0.7009811401367188,0.4819468557834625
1772561376212154000,6.936154052734375,-0.6112410426139832,-0.5227469801902771,0.46909868717193604
1772561376222184200,6.94618408203125,-0.519939661026001,-0.3331288695335388,0.45325368642807007
1772561376232214300,6.95621435546875,-0.42953231930732727,-0.1794898509979248,0.42950525879859924
1772561376242243000,6.9662431640625,-0.3417304456233978,-0.13344541192054749,0.3952694237232208
1772561376252273200,6.976273193359375,-0.28767600655555725,-0.24238626658916473,0.3443383276462555
1772561376262303200,6.98630322265625,-0.29041796922683716,-0.46002140641212463,0.29425111413002014
1772561376272332300,6.996332275390625,-0.3519343435764313,-0.66885906457901,0.2611940801143646
1772561376282362000,7.006362060546875,-0.47956883907318115,-0.8739862442016602,0.23020754754543304
1772561376292392000,7.016391845703125,-0.647688090801239,-1.0829650163650513,0.18973097205162048
1772561376302421000,7.0264208984375,-0.8323821425437927,-1.2183476686477661,0.12598444521427155
1772561376312451000,7.036451171875,-0.9931313395500183,-1.2503740787506104,0.039408013224601746
1772561376322481200,7.046481201171875,-1.1085447072982788,-1.165229320526123,-0.042020268738269806
1772561376332510000,7.056510009765625,-1.1528197526931763,-0.9562036395072937,-0.11745403707027435
1772561376342540000,7.0665400390625,-1.1214715242385864,-0.6974036693572998,-0.19310544431209564
1772561376352570000,7.076570068359375,-1.0101215839385986,-0.462776243686676,-0.24913674592971802
1772561376362599200,7.08659912109375,-0.8477194905281067,-0.27411511540412903,-0.2861073315143585
1772561376372629200,7.096629150390625,-0.6972362995147705,-0.15690167248249054,-0.2924578785896301
1772561376382659000,7.1066591796875,-0.5962649583816528,-0.08561073988676071,-0.27367204427719116
1772561376392688000,7.116688232421875,-0.5509486198425293,-0.0357036367058754,-0.1882532835006714
1772561376402718000,7.126718017578125,-0.5557217001914978,-0.014681156724691391,-0.06132622808218002
1772561376412748000,7.136748046875,-0.6238203644752502,-0.042444609105587006,0.09089979529380798
1772561376422777000,7.146777099609375,-0.7277854084968567,-0.08407238125801086,0.2121637463569641
1772561376432807200,7.15680712890625,-0.8401960730552673,-0.08939311653375626,0.2579285502433777
1772561376442837000,7.1668369140625,-0.917425274848938,-0.056643761694431305,0.2244800627231598
1772561376452866000,7.176865966796875,-0.8969674110412598,0.03148343414068222,0.11258653551340103
1772561376462896000,7.186896240234375,-0.7871608734130859,0.13526058197021484,-0.045624446123838425
1772561376472926200,7.19692626953125,-0.679481565952301,0.27141761779785156,-0.2096938043832779
1772561376482955300,7.206955322265625,-0.623207151889801,0.4883234202861786,-0.38898965716362
1772561376492985000,7.216985107421875,-0.6404048204421997,0.756104052066803,-0.5438703298568726
1772561376503015200,7.22701513671875,-0.7219143509864807,0.966513454914093,-0.6691038608551025
1772561376513044200,7.237044189453125,-0.835008442401886,1.1507320404052734,-0.7903048396110535
1772561376523074000,7.247073974609375,-0.9414530396461487,1.291710376739502,-0.8689582943916321
1772561376533104000,7.257104248046875,-0.9990463256835938,1.383474588394165,-0.9048158526420593
1772561376543133000,7.2671328125,-1.0199297666549683,1.4054287672042847,-0.9198836088180542
1772561376553163000,7.2771630859375,-1.01704740524292,1.267341136932373,-0.8926115036010742
1772561376563193000,7.287193115234375,-0.9970739483833313,1.0307177305221558,-0.8063336610794067
1772561376573222100,7.29722216796875,-0.9564394354820251,0.7388813495635986,-0.6297205090522766
1772561376583252200,7.307252197265625,-0.8784908652305603,0.4449092745780945,-0.4004775881767273
1772561376593282300,7.3172822265625,-0.7803933024406433,0.24475327134132385,-0.14221595227718353
1772561376603311000,7.32731103515625,-0.6400887370109558,0.04728460684418678,0.07381761074066162
1772561376613341200,7.337341064453125,-0.44393014907836914,-0.16446653008460999,0.24145880341529846
1772561376623371000,7.34737109375,-0.26685428619384766,-0.32685503363609314,0.39351993799209595
1772561376633400300,7.357400390625,-0.24243097007274628,-0.39674463868141174,0.5029577016830444
1772561376643430000,7.367429931640625,-0.2736206352710724,-0.4585936665534973,0.5498414635658264
1772561376653460000,7.3774599609375,-0.2870890498161316,-0.4579460024833679,0.5278104543685913
1772561376663489000,7.387489013671875,-0.2807897627353668,-0.3951387107372284,0.4658351540565491
1772561376673519000,7.39751904296875,-0.2747094929218292,-0.30270010232925415,0.3962680399417877
1772561376683549200,7.407549072265625,-0.26832762360572815,-0.2051171362400055,0.35400980710983276
1772561376693578000,7.417577880859375,-0.255972683429718,-0.1434449851512909,0.345962256193161
1772561376703608000,7.427608154296875,-0.24627144634723663,-0.1309467852115631,0.37365958094596863
1772561376713638100,7.43763818359375,-0.24712419509887695,-0.14872950315475464,0.4350065588951111
1772561376723667200,7.447667236328125,-0.24054570496082306,-0.1869981288909912,0.5275651216506958
1772561376733697300,7.457697265625,-0.19415929913520813,-0.22418305277824402,0.620408296585083
1772561376743727000,7.46772705078125,-0.11463393270969391,-0.21336787939071655,0.6874538064002991
1772561376753756200,7.477756103515625,-0.046625588089227676,-0.1375948190689087,0.7172926664352417
1772561376763786000,7.487785888671875,-0.006238466128706932,-0.03480059280991554,0.6774276494979858
1772561376773816000,7.497816162109375,-0.009573009796440601,0.07330723106861115,0.5216585397720337
1772561376783845000,7.50784521484375,-0.06093473359942436,0.16604037582874298,0.337650865316391
1772561376793875200,7.517875244140625,-0.10531444847583771,0.19970166683197021,0.16681654751300812
1772561376803905000,7.527905029296875,-0.15314610302448273,0.2258307933807373,0.0064033642411231995
1772561376813934000,7.53793408203125,-0.2296251654624939,0.25896185636520386,-0.1025066077709198
1772561376823964200,7.547964111328125,-0.3317224383354187,0.28565531969070435,-0.1510152518749237
1772561376833994200,7.557994140625,-0.45366859436035156,0.28477808833122253,-0.1365969032049179
1772561376844023000,7.56802294921875,-0.5763570070266724,0.2456064224243164,-0.060426607728004456
1772561376854053000,7.57805322265625,-0.6932529807090759,0.21597981452941895,0.06521227955818176
1772561376864083000,7.5880830078125,-0.7786371111869812,0.20291312038898468,0.20427726209163666
1772561376874112300,7.5981123046875,-0.7974693775177002,0.17321167886257172,0.3323947489261627
1772561376884142000,7.60814208984375,-0.74506676197052,0.1476580649614334,0.43398964405059814
1772561376894172200,7.618172119140625,-0.6307201981544495,0.09155325591564178,0.4836224317550659
1772561376904201000,7.628200927734375,-0.46811428666114807,-0.027074452489614487,0.47440189123153687
1772561376914231000,7.63823095703125,-0.30197858810424805,-0.2013610303401947,0.40532270073890686
1772561376924261000,7.64826123046875,-0.20196805894374847,-0.4319419860839844,0.2854190170764923
1772561376934290400,7.65829052734375,-0.1871422380208969,-0.632584273815155,0.15498724579811096
1772561376944320500,7.668320556640625,-0.2316950261592865,-0.7556120753288269,0.057809535413980484
1772561376954350600,7.6783505859375,-0.3211441934108734,-0.7845510840415955,-0.012201773002743721
1772561376964379400,7.68837939453125,-0.45344340801239014,-0.7529749870300293,-0.05604768916964531
1772561376974409200,7.6984091796875,-0.6101067662239075,-0.6514073014259338,-0.059083692729473114
1772561376984439300,7.708439208984375,-0.7586188316345215,-0.45313313603401184,-0.028990764170885086
1772561376994468400,7.71846826171875,-0.8781194090843201,-0.22425973415374756,0.020887846127152443
1772561377004498200,7.728498291015625,-0.9355016946792603,-0.03472258523106575,0.07408971339464188
1772561377014528300,7.7385283203125,-0.9151133298873901,0.0986141636967659,0.10448596626520157
1772561377024557300,7.748557373046875,-0.8487108945846558,0.15907980501651764,0.09648606926202774
1772561377034587400,7.75858740234375,-0.7495009303092957,0.13897959887981415,0.05972139164805412
1772561377044617500,7.768617431640625,-0.6307080388069153,0.04370255023241043,0.00602547824382782
1772561377054646300,7.778646240234375,-0.513800859451294,-0.1265336275100708,-0.04949024319648743
1772561377064676400,7.78867626953125,-0.42522957921028137,-0.34172725677490234,-0.08573217689990997
1772561377074706400,7.79870654296875,-0.39337924122810364,-0.5644757151603699,-0.09396135061979294
1772561377084735500,7.808735595703125,-0.4207456707954407,-0.7362781763076782,-0.08202162384986877
1772561377094765300,7.818765380859375,-0.49268752336502075,-0.841648280620575,-0.06284793466329575
1772561377104795400,7.82879541015625,-0.5769261717796326,-0.8899890184402466,-0.04679043963551521
1772561377114824200,7.83882421875,-0.6449598073959351,-0.8859790563583374,-0.032839205116033554
1772561377124854300,7.848854248046875,-0.6804869174957275,-0.8019989728927612,-0.003464804030954838
1772561377134884400,7.85888427734375,-0.6783076524734497,-0.6442620754241943,0.026270456612110138
1772561377144913400,7.868913330078125,-0.6336621642112732,-0.47672370076179504,0.0276324562728405
1772561377154943500,7.878943603515625,-0.5574851036071777,-0.3332586884498596,0.012908107601106167
1772561377164973300,7.888973388671875,-0.4799782931804657,-0.21843694150447845,-0.03166625648736954
1772561377175002400,7.89900244140625,-0.41065993905067444,-0.1205173060297966,-0.10570772737264633
1772561377185032400,7.909032470703125,-0.37176886200904846,-0.051044996827840805,-0.20358020067214966
1772561377195062300,7.919062255859375,-0.3565230667591095,-0.008160380646586418,-0.30035603046417236
1772561377205091300,7.92909130859375,-0.3642367422580719,0.02930324524641037,-0.38868167996406555
1772561377215121200,7.93912109375,-0.39461594820022583,0.059840116649866104,-0.45729243755340576
1772561377225151200,7.949151123046875,-0.43099287152290344,0.09985780715942383,-0.49775686860084534
1772561377235180300,7.95918017578125,-0.4668438136577606,0.11997852474451065,-0.49219006299972534
1772561377245210400,7.96921044921875,-0.5057564973831177,0.12727737426757812,-0.4482082426548004
1772561377255240400,7.979240478515625,-0.5362910032272339,0.10097119957208633,-0.38241857290267944
1772561377265269200,7.989269287109375,-0.5494090914726257,0.01757330633699894,-0.30203163623809814
1772561377275297300,7.99929736328125,-0.546011209487915,-0.09687604010105133,-0.21419714391231537
1772561377285326300,8.009326416015625,-0.5322834253311157,-0.24465014040470123,-0.13786804676055908
1772561377295356200,8.019356201171876,-0.5333242416381836,-0.4218265414237976,-0.07256413996219635
1772561377305386200,8.02938623046875,-0.5697087645530701,-0.5868955254554749,-0.017558548599481583
1772561377315415300,8.039415283203125,-0.655107855796814,-0.6566109657287598,0.04232902079820633
1772561377325445400,8.0494453125,-0.7750669717788696,-0.6117385625839233,0.1112314835190773
1772561377335475500,8.059475341796874,-0.8922241926193237,-0.4629250764846802,0.186147540807724
1772561377345504300,8.069504150390625,-0.9598591327667236,-0.2539915144443512,0.25653213262557983
1772561377355534300,8.079534423828125,-0.9653225541114807,-0.05649521201848984,0.29128211736679077
1772561377365564400,8.089564453125,-0.9159415364265442,0.09813977032899857,0.29631510376930237
1772561377375593500,8.099593505859374,-0.8072509765625,0.19748154282569885,0.27334854006767273
1772561377385623600,8.10962353515625,-0.6656858325004578,0.20329132676124573,0.24373236298561096
1772561377395653000,8.119653076171875,-0.5246493220329285,0.1403704136610031,0.20846277475357056
1772561377405682400,8.129682373046874,-0.39234355092048645,0.05718199163675308,0.18536606431007385
1772561377415712300,8.139712158203125,-0.28758278489112854,-0.014083132147789001,0.1720965951681137
1772561377425742300,8.149742431640625,-0.2321004420518875,-0.08934257924556732,0.1682029366493225
1772561377435771400,8.159771484375,-0.206752747297287,-0.16605466604232788,0.16263160109519958
1772561377445801200,8.16980126953125,-0.2180604189634323,-0.21784880757331848,0.16961362957954407
1772561377455831300,8.179831298828125,-0.263490229845047,-0.25571736693382263,0.180751234292984
1772561377465860400,8.1898603515625,-0.3284883201122284,-0.2862304747104645,0.18998293578624725
1772561377475890400,8.199890380859374,-0.3895021677017212,-0.2989864945411682,0.18644173443317413
1772561377485920500,8.20992041015625,-0.4339166283607483,-0.2893311083316803,0.18636558949947357
1772561377495949300,8.21994921875,-0.46967384219169617,-0.25145694613456726,0.2044180929660797
1772561377505979400,8.2299794921875,-0.4868096113204956,-0.16067220270633698,0.24189063906669617
1772561377516009200,8.24000927734375,-0.47607094049453735,-0.02705635130405426,0.3009933531284332
1772561377526038500,8.25003857421875,-0.42686206102371216,0.11818604916334152,0.3599485456943512
1772561377536068400,8.260068359375,-0.344722718000412,0.18602155148983002,0.39983096718788147
1772561377546098400,8.270098388671874,-0.2733275294303894,0.16121113300323486,0.40886926651000977
1772561377556127200,8.280127197265625,-0.2418534904718399,0.07628293335437775,0.38667023181915283
1772561377566157300,8.2901572265625,-0.25848981738090515,-0.03950674459338188,0.3459852933883667
1772561377576187400,8.3001875,-0.31879550218582153,-0.2238885760307312,0.2771676182746887
1772561377586216400,8.310216552734374,-0.41252654790878296,-0.4695461094379425,0.16777370870113373
1772561377596246300,8.320246337890625,-0.5240017175674438,-0.6930678486824036,0.045438215136528015
1772561377606276400,8.3302763671875,-0.6312069892883301,-0.766146719455719,-0.04749095439910889
1772561377616305400,8.340305419921876,-0.7076042890548706,-0.6183425784111023,-0.07885074615478516
1772561377626335500,8.35033544921875,-0.7502478361129761,-0.3412584662437439,-0.02565976232290268
1772561377636365300,8.360365234375,-0.7467244863510132,-0.0953991711139679,0.08852513134479523
1772561377646394400,8.370394287109375,-0.7169367671012878,0.06220510974526405,0.21018604934215546
1772561377656424200,8.380424072265624,-0.6674983501434326,0.13205796480178833,0.31107884645462036
1772561377666454300,8.390454345703125,-0.5775872468948364,0.1269410401582718,0.3733954131603241
1772561377676483300,8.4004833984375,-0.4482281804084778,0.042251188308000565,0.3813904821872711
1772561377686513400,8.410513427734376,-0.3237602114677429,-0.07672680914402008,0.33126068115234375
1772561377696543500,8.42054345703125,-0.2269708216190338,-0.18311317265033722,0.2582746148109436
1772561377706572300,8.430572265625,-0.16876807808876038,-0.2535206377506256,0.1959013044834137
1772561377716602400,8.440602294921876,-0.16203294694423676,-0.28125321865081787,0.14897294342517853
1772561377726632400,8.450632568359374,-0.18960273265838623,-0.2649068534374237,0.11597304046154022
1772561377736661500,8.46066162109375,-0.24933743476867676,-0.25921568274497986,0.08981122076511383
1772561377746691600,8.470691650390625,-0.320901095867157,-0.26813095808029175,0.06764020025730133
1772561377756721200,8.48072119140625,-0.3956270217895508,-0.27785417437553406,0.04084587097167969
1772561377766750200,8.490750244140624,-0.4829333424568176,-0.27212274074554443,-0.0005600671283900738
1772561377776780300,8.5007802734375,-0.5606017708778381,-0.2607148289680481,-0.04608707129955292
1772561377786810400,8.510810302734376,-0.6261677145957947,-0.26608648896217346,-0.077321358025074
1772561377796839200,8.520839111328126,-0.6724052429199219,-0.2892663776874542,-0.082131028175354
1772561377806869200,8.530869140625,-0.6824450492858887,-0.28801673650741577,-0.04742095619440079
1772561377816899300,8.5408994140625,-0.6534067392349243,-0.2882079482078552,0.017142854630947113
1772561377826928400,8.550928466796876,-0.584963321685791,-0.30525609850883484,0.07660283148288727
1772561377836958500,8.56095849609375,-0.4838888943195343,-0.3318656086921692,0.1242278665304184
1772561377846988500,8.570988525390625,-0.36904600262641907,-0.3668891489505768,0.1488082855939865
1772561377857017300,8.581017333984375,-0.25925132632255554,-0.4088008999824524,0.1443869024515152
1772561377867047400,8.59104736328125,-0.20103000104427338,-0.46753060817718506,0.11845223605632782
1772561377877077200,8.6010771484375,-0.19824913144111633,-0.5144706964492798,0.07762783765792847
1772561377887108400,8.6111083984375,-0.2504345178604126,-0.5387892723083496,0.05328354984521866
1772561377897138400,8.621138427734374,-0.33206066489219666,-0.5402273535728455,0.04840623587369919
1772561377907168500,8.63116845703125,-0.4072071313858032,-0.547019898891449,0.07676354795694351
1772561377917197600,8.641197509765625,-0.46572744846343994,-0.57541424036026,0.12164900451898575
1772561377927227100,8.65122705078125,-0.502611517906189,-0.6007629036903381,0.17584127187728882
1772561377937257000,8.661257080078125,-0.5128654837608337,-0.6011096239089966,0.2454637587070465
1772561377947286000,8.6712861328125,-0.491456001996994,-0.5803784728050232,0.31804394721984863
1772561377957316000,8.681316162109376,-0.45646607875823975,-0.5330713987350464,0.3818724453449249
1772561377967346200,8.69134619140625,-0.42291417717933655,-0.47334474325180054,0.4171588122844696
1772561377977375000,8.701375,-0.41129186749458313,-0.3455316424369812,0.42145609855651855
1772561377987405000,8.711405029296875,-0.42356353998184204,-0.15791712701320648,0.38494402170181274
1772561377997435100,8.72143505859375,-0.4430168569087982,0.038697659969329834,0.3043093681335449
1772561378007464200,8.731464111328124,-0.46764853596687317,0.2219013124704361,0.17821882665157318
1772561378017494300,8.741494384765625,-0.4939989149570465,0.3456368148326874,0.020503219217061996
1772561378027524000,8.751524169921876,-0.5076770186424255,0.3954586386680603,-0.14410459995269775
1772561378037553200,8.76155322265625,-0.4941635727882385,0.3808663785457611,-0.28565025329589844
1772561378047583000,8.7715830078125,-0.45975756645202637,0.324375718832016,-0.36643075942993164
1772561378057613000,8.781613037109375,-0.40402212738990784,0.27255725860595703,-0.368200421333313
1772561378067642000,8.79164208984375,-0.34591931104660034,0.2550431787967682,-0.26879599690437317
1772561378077672000,8.801671875,-0.3250638246536255,0.28380638360977173,-0.12686710059642792
1772561378087702000,8.811701904296875,-0.3471965491771698,0.31580889225006104,0.018070407211780548
1772561378097731000,8.82173095703125,-0.4039170742034912,0.29560986161231995,0.11758314818143845
1772561378107761200,8.83176123046875,-0.49922728538513184,0.19502925872802734,0.14266419410705566
1772561378117791200,8.841791259765625,-0.6275379061698914,0.06365925073623657,0.10908226668834686
1772561378127820000,8.851820068359375,-0.7721161842346191,-0.025017645210027695,0.05289560183882713
1772561378137850000,8.86185009765625,-0.8863114714622498,-0.0019072648137807846,0.02934153750538826
1772561378147880200,8.871880126953124,-0.9256774187088013,0.15771006047725677,0.048371054232120514
1772561378157909200,8.8819091796875,-0.8677094578742981,0.38245636224746704,0.08829264342784882
1772561378167939000,8.89193896484375,-0.71912682056427,0.5668991804122925,0.11053916811943054
1772561378177969200,8.90196923828125,-0.5372885465621948,0.6582256555557251,0.08783545345067978
1772561378187998000,8.911998046875,-0.3844991624355316,0.6436511874198914,0.013464734889566898
1772561378198028000,8.922028076171875,-0.29520657658576965,0.5104063153266907,-0.09482977539300919
1772561378208058000,8.93205810546875,-0.28994566202163696,0.2921708822250366,-0.1895260363817215
1772561378218087200,8.942087158203124,-0.37328529357910156,0.0627233162522316,-0.24554243683815002
1772561378228117000,8.952116943359375,-0.5290403962135315,-0.11032961308956146,-0.25865375995635986
1772561378238147000,8.96214697265625,-0.7088335752487183,-0.16088147461414337,-0.24320903420448303
1772561378248176000,8.972176025390626,-0.8717058300971985,-0.12018591165542603,-0.22219862043857574
1772561378258206200,8.982206298828125,-1.0074700117111206,-0.03506143018603325,-0.22019726037979126
1772561378268236300,8.992236328125,-1.0915132761001587,0.04789910465478897,-0.2389867901802063
1772561378278265000,9.00226513671875,-1.1235971450805664,0.11355801671743393,-0.2754665017127991
1772561378288295000,9.012294921875,-1.0772277116775513,0.14010268449783325,-0.31887108087539673
1772561378298325000,9.022324951171875,-0.9610664248466492,0.10464589297771454,-0.3499256670475006
1772561378308354000,9.03235400390625,-0.8154326677322388,0.013917434960603714,-0.3448767364025116
1772561378318384000,9.042384033203126,-0.6669327020645142,-0.09804371744394302,-0.3250569701194763
1772561378328413000,9.052412841796874,-0.5487078428268433,-0.22420264780521393,-0.29396408796310425
1772561378338443000,9.062443115234375,-0.46291646361351013,-0.34083500504493713,-0.26499101519584656
1772561378348473000,9.07247314453125,-0.4119183123111725,-0.4076668918132782,-0.22809341549873352
1772561378358502100,9.082502197265624,-0.39634227752685547,-0.397514671087265,-0.19183874130249023
1772561378368532200,9.0925322265625,-0.41084471344947815,-0.2931182086467743,-0.15344731509685516
1772561378378562300,9.102562255859375,-0.4272756278514862,-0.1508374959230423,-0.12383031100034714
1772561378388591000,9.112591064453126,-0.41714105010032654,-0.04259033873677254,-0.106059730052948
1772561378398621200,9.12262109375,-0.37251314520835876,0.04156501963734627,-0.08164200186729431
1772561378408651000,9.132651123046875,-0.31111204624176025,0.12250012904405594,-0.044399362057447433
1772561378418680000,9.14268017578125,-0.25809594988822937,0.18643252551555634,-0.004068185109645128
1772561378428710100,9.152710205078124,-0.20596781373023987,0.22234812378883362,0.030591599643230438
1772561378438740000,9.162739990234375,-0.1602908819913864,0.21994009613990784,0.053725145757198334
1772561378448769000,9.17276904296875,-0.11925102025270462,0.17256158590316772,0.06360740214586258
1772561378458799000,9.182799072265626,-0.08250632137060165,0.10239048302173615,0.06602395325899124
1772561378468829200,9.1928291015625,-0.05082784965634346,0.032147858291864395,0.07504412531852722
1772561378478858000,9.20285791015625,-0.031901296228170395,-0.018866056576371193,0.09986132383346558
1772561378488888000,9.21288818359375,-0.031033024191856384,-0.05335059016942978,0.13951067626476288
1772561378498918100,9.222918212890624,-0.060647111386060715,-0.0682898536324501,0.18831337988376617
1772561378508947200,9.232947265625,-0.12343523651361465,-0.06637302786111832,0.22258467972278595
1772561378518977300,9.242977294921875,-0.18512149155139923,-0.045780133455991745,0.24017751216888428
1772561378529007000,9.253007080078126,-0.235922709107399,-0.041363466531038284,0.23046332597732544
1772561378539036200,9.2630361328125,-0.2661493122577667,-0.060855939984321594,0.19336070120334625
1772561378549066000,9.27306591796875,-0.2776868939399719,-0.09376645088195801,0.15338826179504395
1772561378559096000,9.283095947265625,-0.3010348081588745,-0.12973403930664062,0.11650748550891876
1772561378569125000,9.293125,-0.3327319920063019,-0.13256405293941498,0.0820726752281189
1772561378579155200,9.3031552734375,-0.37604644894599915,-0.10515373945236206,0.049936842173337936
1772561378589185000,9.31318505859375,-0.41061773896217346,-0.05745573341846466,0.03358137235045433
1772561378599214000,9.323214111328125,-0.4185347855091095,0.018288297578692436,0.03816786780953407
1772561378609244200,9.333244140625,-0.4101305305957794,0.11058586835861206,0.058113668113946915
1772561378619274200,9.343274169921875,-0.3816134035587311,0.18593360483646393,0.07784263789653778
1772561378629303300,9.35330322265625,-0.35486888885498047,0.230646550655365,0.08089913427829742
1772561378639333000,9.3633330078125,-0.33472979068756104,0.256047785282135,0.062078844755887985
1772561378649363000,9.373363037109375,-0.3213631808757782,0.24393200874328613,0.03525549918413162
1772561378659392000,9.38339208984375,-0.30515411496162415,0.2096824198961258,0.020715173333883286
1772561378669422000,9.393422119140626,-0.28131622076034546,0.14564424753189087,0.04019840061664581
1772561378679452200,9.4034521484375,-0.2571515142917633,0.055082403123378754,0.09322859346866608
1772561378689481000,9.41348095703125,-0.253338485956192,-0.028314601629972458,0.15656191110610962
1772561378699511000,9.423510986328125,-0.2745217978954315,-0.09494476020336151,0.20258159935474396
1772561378709541000,9.433541015625,-0.2996772527694702,-0.11831077188253403,0.22519725561141968
1772561378719570200,9.443570068359374,-0.30101948976516724,-0.05543087422847748,0.23298807442188263
1772561378729600300,9.453600341796875,-0.27626892924308777,0.06961273401975632,0.21452763676643372
1772561378739630300,9.46363037109375,-0.22604967653751373,0.1498338133096695,0.16826561093330383
1772561378749659100,9.4736591796875,-0.18380451202392578,0.12261776626110077,0.09656279534101486
1772561378759689200,9.483689208984375,-0.1701744645833969,0.020135603845119476,0.01923258975148201
1772561378769719000,9.493718994140625,-0.19516143202781677,-0.143743634223938,-0.06492171436548233
1772561378779748000,9.503748046875,-0.25707781314849854,-0.39297956228256226,-0.15061743557453156
1772561378789778000,9.51377783203125,-0.34872621297836304,-0.6425992250442505,-0.2174641191959381
1772561378799808000,9.52380810546875,-0.45249417424201965,-0.7759628891944885,-0.20659708976745605
1772561378809837000,9.533837158203125,-0.5454840064048767,-0.7138968706130981,-0.10328785330057144
1772561378819867100,9.5438671875,-0.6006551384925842,-0.44437673687934875,0.07282059639692307
1772561378829897200,9.553897216796875,-0.584934413433075,0.008888205513358116,0.28820186853408813
1772561378839926000,9.563926025390625,-0.4886651337146759,0.4488208591938019,0.45611336827278137
1772561378849956000,9.5739560546875,-0.3404483497142792,0.6998918056488037,0.5275389552116394
1772561378859986200,9.583986083984374,-0.1889624297618866,0.7846676707267761,0.5124806761741638
1772561378870015200,9.59401513671875,-0.0656416267156601,0.7239063382148743,0.4339485764503479
1772561378880045000,9.604045166015625,0.022723926231265068,0.5224534273147583,0.31947845220565796
1772561378890075100,9.6140751953125,0.07069892436265945,0.2300206869840622,0.1911298781633377
1772561378900104000,9.62410400390625,0.06495635211467743,-0.10674482583999634,0.06971476972103119
1772561378910134000,9.634134033203125,-0.009883619844913483,-0.45173197984695435,-0.031052052974700928
1772561378920163000,9.6441630859375,-0.1542232185602188,-0.7671279907226562,-0.09828541427850723
1772561378930193200,9.654193115234374,-0.3151211738586426,-0.9653341770172119,-0.13418014347553253
1772561378940223000,9.664222900390625,-0.46065282821655273,-1.01878821849823,-0.13654077053070068
1772561378950252000,9.674251953125,-0.5735050439834595,-0.9281943440437317,-0.0999530702829361
1772561378960282000,9.6842822265625,-0.6429874897003174,-0.7376052737236023,-0.02174241840839386
1772561378970312200,9.694312255859375,-0.6518901586532593,-0.44727635383605957,0.08772845566272736
1772561378980341000,9.704341064453125,-0.6067104339599609,-0.10523168742656708,0.18656794726848602
1772561378990371000,9.71437109375,-0.5098418593406677,0.17962680757045746,0.22549229860305786
1772561379000401000,9.72440087890625,-0.41359633207321167,0.3552468419075012,0.1899271160364151
1772561379010430200,9.73443017578125,-0.33883875608444214,0.41635608673095703,0.09657883644104004
1772561379020460000,9.7444599609375,-0.3010578453540802,0.3643514811992645,-0.023727338761091232
1772561379030489900,9.75448974609375,-0.27301138639450073,0.26438453793525696,-0.1219695433974266
1772561379040519000,9.764518798828124,-0.23080800473690033,0.16051220893859863,-0.1599787026643753
1772561379050549000,9.774549072265625,-0.16258347034454346,0.07639361917972565,-0.12405824661254883
1772561379060579000,9.7845791015625,-0.0717768743634224,-0.0010100910440087318,-0.01930786669254303
1772561379070608100,9.794608154296874,0.02023136429488659,-0.08246107399463654,0.10861554741859436
1772561379080638000,9.804637939453125,0.08331286162137985,-0.16213621199131012,0.22778479754924774
1772561379090668000,9.81466796875,0.10455325990915298,-0.22933928668498993,0.31186753511428833
1772561379100697000,9.824697021484376,0.0800417885184288,-0.2787467837333679,0.34921860694885254
1772561379110727200,9.83472705078125,0.01783406175673008,-0.3380814492702484,0.32657864689826965
1772561379120757000,9.844757080078125,-0.07289451360702515,-0.420153945684433,0.26060575246810913
1772561379130786000,9.8547861328125,-0.18486368656158447,-0.5207417011260986,0.18392886221408844
1772561379140816000,9.86481591796875,-0.3096737861633301,-0.5900243520736694,0.13145367801189423
1772561379150846000,9.874845947265625,-0.43704724311828613,-0.5876083970069885,0.10872979462146759
1772561379160875000,9.884875,-0.5496217012405396,-0.4651181697845459,0.1043052077293396
1772561379170905000,9.894905029296876,-0.6164574027061462,-0.19385898113250732,0.10142792761325836
1772561379180935000,9.904934814453124,-0.5726915597915649,0.1600002944469452,0.07029690593481064
1772561379190964000,9.9149638671875,-0.39968469738960266,0.5667975544929504,0.03530527278780937
1772561379200994000,9.924994140625,-0.22735925018787384,1.2607272863388062,0.4552738070487976
1772561379211024100,9.935024169921874,-0.2826419174671173,1.2075257301330566,0.955474317073822
1772561379221053200,9.94505322265625,-0.4564344882965088,0.9114845991134644,1.2052069902420044
1772561379231083000,9.9550830078125,-0.5790206789970398,0.3085464537143707,1.0333739519119263
1772561379241112800,9.96511279296875,-0.604925811290741,-0.30755722522735596,0.6833687424659729
1772561379251142100,9.97514208984375,-0.5731188058853149,-0.5081468224525452,0.3498578369617462
1772561379261172000,9.985171875,-0.576778769493103,-0.4812891185283661,0.04150345176458359
1772561379271202000,9.9952021484375,-0.560530424118042,-0.4066009521484375,-0.21523146331310272
1772561379281230800,10.00523095703125,-0.5042895078659058,-0.3277759253978729,-0.33146432042121887
