time,seconds_elapsed,z,y,x
1772527361204532500,0.069532470703125,0.10544336498528718,0.02566343356668949,-0.027736732709407803
1772527361214529300,0.079529296875,0.07137392212301492,-0.015988427248597146,0.002979600332677364
1772527361224527400,0.08952734375,0.05984130523949861,-0.08334171555340289,-0.0000049684360623359675
1772527361234525200,0.099525146484375,0.018471476235985756,-0.09077975659966468,0.026506898653507232
1772527361244523300,0.109523193359375,-0.009443243388831615,-0.13586860612630844,0.04695902731269598
1772527361254521300,0.119521240234375,-0.004531213688850402,-0.15442542255818842,0.06291530585736035
1772527361264519200,0.129519287109375,0.013364508485794067,-0.13179390403330327,0.06819587660878897
1772527361274517200,0.139517333984375,0.028045944789052007,-0.08101298034489154,0.06415156965404749
1772527361284514300,0.149514404296875,0.07462941678762436,-0.040296939074993134,0.04420242208093404
1772527361294512400,0.159512451171875,0.09416180025339126,0.0030348376512527465,0.013647709341347217
1772527361304510500,0.169510498046875,0.08805939172506332,0.011916647765040396,0.018609131141006947
1772527361314508300,0.17950830078125,0.08145663245916367,0.02175999638736248,0.0071843585461378095
1772527361324506400,0.18950634765625,0.08232552424818276,0.022852467799186704,-0.0005567570999264717
1772527361334504400,0.19950439453125,0.08647299931645393,-0.01392681854367256,-0.038840602786839006
1772527361344501200,0.209501220703125,0.05802490346729755,-0.03042611792385578,-0.030720132434368132
1772527361354499300,0.219499267578125,0.03579553600251675,-0.07249474284648895,-0.015619301675260065
1772527361364497200,0.2294970703125,0.010196692104637622,-0.08620295020341873,-0.0275038007363677
1772527361374495200,0.2394951171875,-0.011202946537733077,-0.09865969619452952,-0.04561784183681011
1772527361384493300,0.249493408203125,-0.0336059170037508,-0.11750643548369406,-0.05693886179625988
1772527361394491100,0.2594912109375,-0.03652998775690794,-0.11236264285445213,-0.06975041257441043
1772527361404489200,0.2694892578125,-0.034819676707684995,-0.1201537351220846,-0.06561287437826395
1772527361414486300,0.279486328125,-0.05543488697409629,-0.08773615112006664,-0.051796822732686994
1772527361424484400,0.289484375,-0.06817950999587774,-0.06267126796841621,0.01946896284073591
1772527361434482400,0.299482421875,-0.07345072839707135,-0.06523264288902282,0.08487170159965753
1772527361444480300,0.309480224609375,-0.0823155873760581,-0.0599397971779108,0.11742869407236575
1772527361454478300,0.319478271484375,-0.04052256452441215,-0.05458733023405075,0.14830606289505957
1772527361464476400,0.329476318359375,0.05935410624444484,-0.04191255757808685,0.1681450280919671
1772527361474474200,0.33947412109375,0.18545067541897295,0.048778351694345475,0.14004939894229174
1772527361484471300,0.34947119140625,0.32128596379756924,0.09668342768549919,0.09542202944755554
1772527361494469000,0.35946923828125,0.3535036413133144,0.13635843546986579,0.0390194664850831
1772527361504467200,0.36946728515625,0.24890491045862434,0.21677812609672545,0.016531448084115982
1772527361514465300,0.37946533203125,0.16958119837492702,0.23994389762878415,-0.0010696750581264496
1772527361524463000,0.389463134765625,0.1420198222324252,0.20227613801360128,0.008524082717299462
1772527361534461200,0.399461181640625,0.10568827965706586,0.1504097571760416,0.05573796157389879
1772527361544458500,0.40945849609375,0.057877019429206845,0.07582417953014374,0.07768003652989863
1772527361554456300,0.419456298828125,0.01159106907248497,-0.008400164076685906,0.05899287171661854
1772527361564454400,0.429454345703125,-0.07107113978415727,-0.09096855717003345,0.015589198797941206
1772527361574452500,0.439452392578125,-0.16143647036403416,-0.21280805342197417,-0.00916851810067892
1772527361584450300,0.4494501953125,-0.2361196631655097,-0.2646937234818935,0.0014206804528832434
1772527361594448400,0.459448486328125,-0.23119945015907287,-0.2841319989234209,0.00022737901508808136
1772527361604446200,0.4694462890625,-0.13485153803825378,-0.30386195078790185,-0.033710254161059855
1772527361614443300,0.479443359375,-0.032574820390343665,-0.25668811168074607,-0.06357698463648558
1772527361624441300,0.48944140625,0.03712298521399498,-0.15001520490050316,-0.012196049228310584
1772527361634439200,0.499439208984375,0.09716770407110452,-0.004247720572352409,0.059175534807145595
1772527361644437200,0.509437255859375,0.13918021489232776,0.11978139467835426,0.09898235227763652
1772527361654435300,0.519435302734375,0.14489654671251773,0.16308219174444674,0.12436053916215896
1772527361664433200,0.52943310546875,0.1194090542346239,0.14354220949411392,0.11304273407310247
1772527361674431200,0.53943115234375,0.10259469755589962,0.10857611005306243,0.10015198057889937
1772527361684428300,0.54942822265625,0.04666442828029394,0.06709083797633647,0.047427813868224616
1772527361694426400,0.55942626953125,0.005540390731394291,0.04463701410591602,0.023485212744772433
1772527361704424400,0.569424560546875,-0.04107522997111082,-0.008806406790018081,0.00154021517932415
1772527361714422300,0.57942236328125,-0.0693181586369872,-0.10516600934863089,0.01118365731537342
1772527361724420400,0.58942041015625,-0.10263765991479158,-0.1496902107298374,0.03758651107251644
1772527361734418400,0.59941845703125,-0.14118220236450432,-0.16610183182656765,0.0579530072748661
1772527361744415500,0.60941552734375,-0.13610884462296963,-0.17065759543478487,0.029556349352002142
1772527361754413600,0.61941357421875,-0.060763680781424044,-0.10601005895733832,0.050829146744310855
1772527361764411400,0.629411376953125,0.034439737479388714,-0.03932137204110622,0.06812602624297141
1772527361774409500,0.639409423828125,0.08937310467213391,0.008252280038595199,0.06286445245295763
1772527361784407600,0.649407470703125,0.11155863299518823,0.05453589230775833,0.055660220162570474
1772527361794405400,0.6594052734375,0.12447247510403393,0.05793605614006519,0.0371022346869111
1772527361804403500,0.669403564453125,0.09910656317919492,0.06325871246755123,0.033436113394796844
1772527361814400500,0.679400390625,0.08678542626649141,0.05719429786205291,0.026358722354471682
1772527361824398600,0.689398681640625,0.08302081303596497,0.055173021167516705,0.018476152411103248
1772527361834396700,0.699396728515625,0.041135143464803695,0.03155950586795807,0.05095481895059347
1772527361844394500,0.70939453125,0.01811959405839443,0.02833469860255718,0.06849193694591522
1772527361854392600,0.719392578125,-0.00042903906702995297,0.04755202476978302,0.08322101178318261
1772527361864390700,0.729390625,0.014364040917158125,-0.023940263035893437,0.06835252847522497
1772527361874388500,0.739388427734375,0.028087153582274912,-0.12649462858140467,0.031161446461081502
1772527361884385500,0.749385498046875,-0.007133505141735077,-0.19216975454092025,0.0071592241048812864
1772527361894383400,0.75938330078125,-0.08055588422715663,-0.19206103346943854,0.0026288871988654136
1772527361904381400,0.76938134765625,-0.09816256032735109,-0.11991934184432029,0.012951543770730494
1772527361914379500,0.779379638671875,-0.05549655403345823,-0.04514379458427429,0.01503185717612505
1772527361924377300,0.78937744140625,0.031114392448961734,0.0039449382334947585,0.0014785481199622154
1772527361934375400,0.79937548828125,0.09660217914283276,0.025783845075964925,0.02409925298988819
1772527361944372500,0.80937255859375,0.13717296672314405,0.029566286224126815,0.013487842604517936
1772527361954370600,0.81937060546875,0.12499211506396532,0.05150689987540245,0.01943593735396862
1772527361964368600,0.82936865234375,0.08821750489622354,0.08004618113934993,0.03525631455928087
1772527361974366500,0.839366455078125,0.06956307330876589,0.06501227813661098,0.01581920816153288
1772527361984364500,0.849364501953125,0.03499415649175644,0.04419979173243046,-0.00021510405540466307
1772527361994362600,0.859362548828125,0.018513854072988032,-0.015236732098460196,-0.024581483548879624
1772527362004360400,0.8693603515625,0.002481587682664394,-0.06777531310915946,-0.031634909191727636
1772527362014357500,0.879357421875,-0.010267126992344855,-0.07436755098104476,-0.03477700660973787
1772527362024355600,0.88935546875,0.0100189974501729,-0.06952011094987393,-0.04468962107598781
1772527362034353400,0.899353515625,0.023435528384149074,-0.06007423721253872,-0.02443681438118219
1772527362044351500,0.9093515625,0.033596856914460654,-0.07318214058876037,-0.015604980888962745
1772527362054349300,0.919349365234375,0.019042261861264703,-0.09766016376316547,-0.010720423717796803
1772527362064347400,0.929347412109375,0.005666647459566593,-0.1093003326743841,0.014950024111568927
1772527362074345500,0.939345458984375,-0.01682166320234537,-0.07170096212029457,0.045639761407673354
1772527362084342500,0.949342529296875,-0.022825579792261123,-0.005384615647792816,0.044590544615685936
1772527362094340600,0.959340576171875,0.015214520266652107,0.01580079572200775,0.042023908998072144
1772527362104338700,0.969338623046875,0.04928425538986921,0.02512742699384689,0.044946226185560226
1772527362114336500,0.97933642578125,0.04325052818357944,0.007618658310174942,0.036463936783373355
1772527362124334600,0.98933447265625,0.03903992475122213,-0.013895838883519172,0.01791179652661085
1772527362134332400,0.99933251953125,0.02390752981007099,-0.018325930285453797,0.03759294081330299
1772527362144330500,1.00933056640625,0.02763414911776781,-0.01662906323969364,0.05306172810196876
1772527362154327600,1.01932763671875,0.044130525888502595,-0.029326632249355316,0.06739128222763538
1772527362164325400,1.029325439453125,0.046155309714376924,-0.06752864487171173,0.06673574092835187
1772527362174323500,1.039323486328125,0.0018637480452656744,-0.0729237819135189,0.04115618625283241
1772527362184321500,1.049321533203125,-0.03837590788453817,-0.0932101986169815,0.051126376125216484
1772527362194319400,1.0593193359375,-0.052232291540503496,-0.1035194111853838,0.05535100808292627
1772527362204317700,1.069317626953125,-0.0631052754715085,-0.07872925332188606,0.06410422338098287
1772527362214314500,1.079314453125,-0.04465221167504787,-0.05629121154248714,0.07208294717520475
1772527362224312600,1.0893125,-0.018854922595620154,-0.02006722099483013,0.09785685537904501
1772527362234310700,1.099310546875,-0.0046188919723033905,0.037432781815528865,0.09876491013467312
1772527362244308500,1.10930859375,0.007241349430382251,0.06871990048289299,0.08502046242058277
1772527362254306600,1.119306640625,0.0154980133831501,0.04543371744155884,0.08510404905080794
1772527362264304600,1.1293046875,0.0016419219881296156,0.037244565767049785,0.08179068671911954
1772527362274302500,1.139302490234375,-0.005913607957959175,0.036274843952059745,0.0951841290384531
1772527362284299500,1.149299560546875,0.001525309871137142,0.04287643417418003,0.10103811576366424
1772527362294297300,1.15929736328125,0.014995324558019637,0.04368716603517532,0.06587590922862291
1772527362304295400,1.16929541015625,0.019632921230792997,0.03481938444674015,0.017855682425200938
1772527362314293500,1.17929345703125,0.011486439654231071,0.026167291435599326,0.022737024725973606
1772527362324291600,1.18929150390625,0.018083061440289018,0.002637362766265869,0.04537292716503143
1772527362334289700,1.19928955078125,0.06305383754521608,-0.03083703681230545,0.05879530331790447
1772527362344287700,1.209287841796875,0.06469459048956633,-0.060251931867003436,0.05878448966294527
1772527362354284500,1.219284423828125,0.0447056954279542,-0.03448737601339817,0.07211129648685455
1772527362364282600,1.22928271484375,0.041595162191987035,0.008784194958209991,0.1056345036432147
1772527362374280400,1.239280517578125,0.03721124801933765,0.04114215772747993,0.14142653251439333
1772527362384278500,1.249278564453125,0.02721972309798002,0.038030163186788556,0.15533844574987887
1772527362394276600,1.259276611328125,0.021158815623819827,0.013756138151884078,0.13864596188515424
1772527362404274400,1.2692744140625,0.002688216170668602,0.016462474501132963,0.1103816981703043
1772527362414271500,1.279271484375,0.004391512957215309,0.006574117693305015,0.05038812497854232
1772527362424269300,1.289269287109375,0.034980420227348805,-0.000754033237695694,-0.009148936617374419
1772527362434267600,1.299267578125,0.08408522739708423,-0.009818214181065559,-0.034089901128411294
1772527362444265700,1.309265625,0.08861994821727276,-0.028379706788063046,-0.035384324853122234
1772527362454263600,1.319263671875,0.058937926658988,-0.0671726710408926,-0.036111762344837185
1772527362464261600,1.32926171875,0.015558219137787817,-0.12125380531847477,-0.0466398783609271
1772527362474259700,1.339259765625,-0.04551730407178402,-0.1857674862831831,-0.005143208107352256
1772527362484256500,1.349256591796875,-0.09317629634737967,-0.12894962051808834,0.041593116365373134
1772527362494254600,1.359254638671875,-0.1243020869731903,-0.051175475963950154,0.07625292633622885
1772527362504252400,1.36925244140625,-0.10389116710722446,-0.12308745048642158,0.04266016107499599
1772527362514250500,1.37925048828125,-0.07868249157071112,-0.06826397340893745,0.08213087845891713
1772527362524248600,1.38924853515625,-0.060471712097525596,0.029707740521430968,0.09411299267560243
1772527362534246400,1.399246337890625,0.0032359131813049316,0.04778232639431953,0.09715426006764173
1772527362544244500,1.409244384765625,0.04221007921993732,0.05038169523775577,0.1099348311856389
1772527362554241500,1.419241455078125,0.05119885683953762,0.09211597363948822,0.11259732839316129
1772527362564239600,1.429239501953125,0.08947510374188422,0.08691723595261573,0.0843307265907526
1772527362574237700,1.43923779296875,0.12266074950695037,0.049537645629048346,0.06783844147324562
1772527362584235500,1.449235595703125,0.09394202002286911,0.02081833162307739,0.05286036031097174
1772527362594233600,1.459233642578125,0.0447772993594408,0.006149754801392555,0.07374211255908011
1772527362604231700,1.469231689453125,-0.0017409984484314917,-0.01322889940738678,0.0956128758445382
1772527362614229500,1.4792294921875,0.0010018705189228057,-0.0011368950754404067,0.12122925539910792
1772527362624226600,1.4892265625,0.006990589539706707,-0.02292319494783878,0.12403262238204478
1772527362634224400,1.499224365234375,-0.0010772738426923752,-0.04589432069063187,0.11211451331228017
1772527362644222500,1.509222412109375,-0.03596212474107742,-0.06613046851158141,0.10125672695040702
1772527362654220500,1.519220458984375,-0.05951368072032928,-0.031150340545177457,0.08960808247178792
1772527362664218400,1.52921826171875,-0.03227525292187929,0.014678513693809509,0.060227674208581446
1772527362674216400,1.539216552734375,0.013725450752675533,0.023767829078435897,0.0016647183418273925
1772527362684213800,1.5492138671875,0.0473830979436636,-0.019908815562725064,-0.0454354710072279
1772527362694211600,1.559211669921875,0.037537411233782764,-0.04322597826421261,-0.0565609683945775
1772527362704209700,1.569209716796875,-0.018055296650528907,-0.03747019121646881,-0.018549802169203756
1772527362714207700,1.579207763671875,-0.04060059819668531,-0.04514087197482586,0.01736409951597452
1772527362724205600,1.58920556640625,-0.040052901186048984,-0.046938276785612104,0.02065671132057905
1772527362734203600,1.59920361328125,-0.03558306229561567,-0.06079787531197071,0.010907178461551665
1772527362744201500,1.609201416015625,-0.04134966299831867,-0.06059738430380821,0.0071454878404736515
1772527362754198300,1.6191982421875,-0.03301350406855345,-0.07220423546731472,0.02726736163198948
1772527362764196400,1.6291962890625,0.023093290817737578,-0.06648468877673148,0.01734627159833908
1772527362774194400,1.6391943359375,0.06807575736045837,-0.06327507908046245,0.002357376781105995
1772527362784192300,1.649192138671875,0.0992184991210699,-0.05775134722292423,-0.027250410497188567
1772527362794190300,1.6591904296875,0.11043810453265905,0.06592997750341892,-0.03164455380290746
1772527362804188200,1.669188232421875,0.12655775694549082,0.000049099838733673096,-0.014090776933729648
1772527362814186200,1.679186279296875,0.10475450593829154,0.044264673662185665,0.0039221418797969814
1772527362824183600,1.68918359375,0.0862216549038887,0.07675649194419383,0.05756868413239717
1772527362834181400,1.699181396484375,0.11997954759895801,-0.006749474260210991,-0.0037140520870685575
1772527362844179500,1.709179443359375,0.08273673539757728,0.009587328034639358,-0.01706687013506889
1772527362854177500,1.719177490234375,0.04458820652812719,-0.0022340426623821256,0.01818243016153574
1772527362864175400,1.72917529296875,0.017977262978255748,-0.019337737676501272,0.014717676660418509
1772527362874173400,1.73917333984375,-0.011835106961429118,-0.05504384182989597,0.0367471376389265
1772527362884170200,1.749170166015625,-0.021438217087090015,-0.08553659524917602,0.0435965651422739
1772527362894168300,1.759168212890625,-0.03229921831935644,-0.07130991697609425,0.056196811257302755
1772527362904166400,1.76916650390625,-0.01227905133664608,-0.05789104795455932,0.08009060480296612
1772527362914164200,1.779164306640625,-0.01212912147194147,-0.06112170043885708,0.049853579710423944
1772527362924162300,1.789162353515625,-0.0035109307304024696,-0.05057575650513172,0.047529520677030083
1772527362934160400,1.799160400390625,0.018775719879567623,0.0010638298392295837,0.04419628460109234
1772527362944158200,1.809158203125,0.03514583992213011,0.08191197501122952,0.058090954440832135
1772527362954155500,1.819155517578125,0.06083031627684831,0.0759913527905941,0.06692044984549284
1772527362964153300,1.8291533203125,0.07484305953830481,0.023701778104901313,0.07038081943243742
1772527362974151400,1.8391513671875,0.06389525680541992,0.005818915411829948,0.08644348096102476
1772527362984149500,1.8491494140625,0.05358779780268669,-0.0003758475750684738,0.1012944286122918
1772527362994147300,1.859147216796875,0.07278174309432506,0.01375730719566345,0.06308715529292822
1772527363004145400,1.8691455078125,0.04465688785016537,0.003958966758847236,0.028619068501889704
1772527363014143500,1.8791435546875,0.020723639076948165,0.031872809600830075,-0.005777414357662201
1772527363024140300,1.889140380859375,0.05722936917543411,0.029733459484577177,-0.002790507501363754
1772527363034138400,1.899138427734375,0.10735855095684528,-0.016127543458342553,0.03836743231713772
1772527363044136200,1.90913623046875,0.08532470606416463,-0.016118775629997254,0.0590270662471652
1772527363054134300,1.91913427734375,0.029791619412600993,0.009887772285938262,0.061065586337447166
1772527363064132400,1.92913232421875,0.008423837213218212,0.010499182182550429,0.057007250857353205
1772527363074130200,1.939130126953125,-0.0022416414469480514,0.005115151056647301,0.06963350819647311
1772527363084128300,1.949128173828125,0.0020458266139030457,-0.006382394513487815,0.05539543174654245
1772527363094125300,1.959125244140625,0.018619652535021305,-0.03784662331342697,0.026950550767779347
1772527363104123400,1.969123291015625,0.03849778069853783,-0.033255788391828536,0.020315350537002085
1772527363114121500,1.97912158203125,0.04847176996320486,-0.037705169016122815,0.023223346938192842
1772527363124119300,1.989119384765625,0.08797668187767267,-0.06485737983584404,0.0283665550455451
1772527363134117400,1.999117431640625,0.07895137163996696,-0.034335984843969346,0.04448942232877016
1772527363144115500,2.009115478515625,0.07252104633152484,-0.0030640637457370755,0.07370090376585721
1772527363154112300,2.0191123046875,0.03304389920681715,0.016079028141498565,0.06462883177697658
1772527363164110300,2.0291103515625,-0.003058510787785053,-0.00485679238140583,0.06844225258529185
1772527363174108200,2.039108154296875,0.0010547697499394416,-0.04205634996294975,0.0631377164363861
1772527363184106200,2.049106201171875,0.01660509784221649,-0.04520049320757389,0.04613923536241054
1772527363194104300,2.059104248046875,0.0462435725197196,-0.0466290647059679,-0.002475450202822685
1772527363204102400,2.069102294921875,0.04750350945293903,-0.07245557987987995,-0.09273556684255599
1772527363214100500,2.0791005859375,0.026536417008936403,-0.0941255598962307,-0.10801409225612878
1772527363224097300,2.08909716796875,0.015495967556536197,-0.09748714528381824,-0.10046411526799201
1772527363234095400,2.099095458984375,-0.011457505820691586,-0.08289747891724109,-0.0812760151952505
1772527363244093400,2.109093505859375,-0.029378362436592576,-0.09878887553215027,-0.052694356094300746
1772527363254091300,2.11909130859375,-0.02586655492335558,-0.12793722860515117,-0.03537497250288725
1772527363264089300,2.12908935546875,-0.03380319314152002,-0.12337795786559581,-0.010333470226824282
1772527363274087400,2.13908740234375,-0.015796996329724786,-0.10154197363257407,-0.005404781652987003
1772527363284085200,2.149085205078125,0.037844577486813066,-0.0776946495771408,-0.016515081471204757
1772527363294082300,2.159082275390625,0.07351794841438532,-0.0517442157626152,-0.028481705857813358
1772527363304080400,2.169080322265625,0.081711484003067,0.014093991804122925,-0.016233634181320667
1772527363314078200,2.179078125,0.1009305637359619,0.03362053005099296,-0.009424538688361643
1772527363324076300,2.189076171875,0.12472732664793729,0.07185410685539245,-0.0006412205129861831
1772527363334074400,2.199074462890625,0.16718728897571564,0.06860299610495567,0.016961363933980463
1772527363344072400,2.209072509765625,0.16809329790472982,0.06390402463376521,0.015378770917654036
1772527363354069500,2.219069580078125,0.12046499302834272,0.09274433467090129,0.018643910193443296
1772527363364067300,2.2290673828125,0.08365881867855787,0.08880056548118591,0.040485739645361896
1772527363374065400,2.2390654296875,0.07641483889967203,0.02883271125257015,0.0666042235031724
1772527363384063500,2.2490634765625,0.04011895215958357,0.010263619861006736,0.07142886718064546
1772527363394061300,2.259061279296875,0.02404343114942312,0.009086392775177955,0.04446458014845848
1772527363404059400,2.269059326171875,0.04713321483582258,-0.0033241759866476056,0.009491466444730758
1772527363414057200,2.27905712890625,0.05350830282568931,-0.029954993280768394,-0.011864040794968604
1772527363424054300,2.28905419921875,0.051147418913245195,-0.07953004831075668,-0.006670563805103302
1772527363434052400,2.29905224609375,0.027371114267408847,-0.1036322239100933,-0.005903086563944816
1772527363444050400,2.309050537109375,-0.025604396855831144,-0.07508943551480769,-0.000011105915904045104
1772527363454048500,2.319048583984375,-0.04959463651329279,-0.0260813667178154,0.02481032386869192
1772527363464046600,2.329046630859375,-0.03205401138663292,-0.053230070406198496,0.029781098018586635
1772527363474044400,2.33904443359375,0.008983224661648272,-0.041571196794509886,0.03539075459390879
1772527363484042500,2.34904248046875,0.028490765947103498,-0.018466800060868264,0.04686784189790487
1772527363494039300,2.359039306640625,0.04595569548904895,-0.020759879434108734,0.045636254276335234
1772527363504037400,2.369037353515625,0.07002776821106672,-0.037488311395049094,0.05619359638690948
1772527363514035500,2.379035400390625,0.06278583425879478,-0.07383388249576091,0.04054594539999962
1772527363524033300,2.389033203125,0.0715641839981079,-0.06212590904533863,0.0032750761479139324
1772527363534031400,2.39903125,0.06999678855091333,-0.0656523296058178,-0.05733341407179832
1772527363544029400,2.409029541015625,0.0765185915350914,-0.08004384305179119,-0.07262859835922718
1772527363554027300,2.41902734375,0.07114099014997483,-0.06088555359542369,-0.0470516740322113
1772527363564024600,2.429024658203125,0.05797960302084684,-0.02300561253428459,-0.046074353432655334
1772527363574022400,2.4390224609375,0.05591740979403257,-0.003729834178090095,-0.05081014978289604
1772527363584020500,2.4490205078125,0.07417290519177913,-0.001726093140244484,-0.03853226749002933
1772527363594018600,2.4590185546875,0.06075637425780296,0.002447393152117729,-0.011321604481339453
1772527363604016400,2.469016357421875,0.04719780450463295,0.014494389298558234,-0.014564239664375781
1772527363614014500,2.479014404296875,0.05543985541015863,0.0215150817155838,-0.024854163010418415
1772527363624011300,2.48901123046875,0.07846241907924413,-0.03126373779177666,-0.04046908077150583
1772527363634009300,2.49900927734375,0.07220774259865284,-0.09061082977354526,-0.05475128862410784
1772527363644007400,2.50900732421875,0.037109541210532185,-0.09726327340006828,-0.03926555020064115
1772527363654005200,2.519005126953125,0.04377046040445566,-0.10651683943569659,-0.03675298285782337
1772527363664003300,2.52900341796875,0.06038958677202463,-0.11749474504590034,-0.01810527327209711
1772527363674001400,2.53900146484375,0.07096475680023431,-0.11890694993138312,-0.009402619117498397
1772527363683999200,2.548999267578125,0.06577712502926587,-0.09700199211537837,-0.006004208850860595
1772527363693996500,2.55899658203125,0.044917876873910426,-0.05832476319670677,0.01622515861392021
1772527363703994400,2.568994384765625,0.07812778029739856,-0.0038180969834327697,0.025747312457859516
1772527363713992400,2.578992431640625,0.12098375620543957,-0.016525602865219115,-0.012442132943868636
1772527363723990500,2.588990478515625,0.1106996780782938,-0.03839665841162204,-0.04052373356819153
1772527363733988400,2.59898828125,0.07792290537506341,-0.07909867115616798,-0.021057401075959204
1772527363743986700,2.608986572265625,0.058036301644146436,-0.12689561059772966,-0.017748130397498608
1772527363753984800,2.61898486328125,0.017638824804127214,-0.12340250778496265,-0.011220482194423675
1772527363763981600,2.628981689453125,0.006414835478365421,-0.09901450098156929,0.01025339072793722
1772527363773979600,2.638979736328125,0.01782119563370943,-0.04090016566514969,0.03996551516354084
1772527363783977500,2.6489775390625,0.04250000207722187,-0.006337970849871635,0.0218985280752182
1772527363793975600,2.6589755859375,0.05553571700006723,-0.02917524107992649,0.016564765831828115
1772527363803973600,2.6689736328125,0.02746288420408964,-0.0655167205274105,0.014920505756139754
1772527363813971500,2.678971435546875,-0.00319938056319952,-0.062436290168762204,0.06137655198276042
1772527363823969500,2.688969482421875,0.0021656536012887953,-0.011405775633454322,0.09897504575401544
1772527363833966800,2.698966796875,-0.013365093007683753,0.007905074036121368,0.07965601277798413
1772527363843964700,2.708964599609375,0.010740005201101303,-0.02582300804257393,0.09277239172160624
1772527363853962800,2.718962646484375,0.009120879566669463,-0.057688218858838076,0.1143526476278901
1772527363863960600,2.728960693359375,-0.00929009865373373,-0.08231471059322357,0.10903232938796281
1772527363873958700,2.738958740234375,-0.03834229787588119,-0.08546703714430331,0.05024520937651396
1772527363883956700,2.748956787109375,-0.06663169603198767,-0.09749240598082543,0.04039075483828783
1772527363893954600,2.75895458984375,-0.03069704381972551,-0.09321604383587836,0.010810440088808536
1772527363903951600,2.76895166015625,0.03188596134334802,-0.028693010520935057,0.005660802240669727
1772527363913949700,2.77894970703125,0.0988262849330902,-0.004192190992832184,0.014955869330465792
1772527363923947500,2.788947509765625,0.13705284747481344,-0.00043020811080932614,0.0235018716186285
1772527363933945600,2.798945556640625,0.15814064368903635,0.030324411115050316,0.044346506726741786
1772527363943943400,2.808943359375,0.13905366590321064,0.030597967359423637,0.04816840310245752
1772527363953941500,2.81894140625,0.09125614193975926,0.030369419300556182,0.04133417316824198
1772527363963938800,2.828938720703125,0.077485390740633,0.0395183559179306,0.04376315388083458
1772527363973936600,2.8389365234375,0.069575932790339,0.012118307816982268,0.0010348960056900977
1772527363983934700,2.848934814453125,0.04474310482889413,-0.008943184912204742,-0.025775954030454157
1772527363993932800,2.858932861328125,0.032688509897887706,-0.06078852296173572,-0.015549159048497676
1772527364003930600,2.8689306640625,0.0198442258939147,-0.1129039101243019,-0.00026858780831098556
1772527364013928700,2.8789287109375,-0.042864743736386296,-0.10540858593285084,-0.007734978166222572
1772527364023926800,2.8889267578125,-0.06836304986923933,-0.06579787555634975,-0.002512567342817783
1772527364033923600,2.898923583984375,-0.023194997626543045,-0.05443418549895286,-0.030063422091305254
1772527364043921700,2.908921630859375,0.03452478541433811,-0.07167290506958961,-0.076888593891263
1772527364053919500,2.91891943359375,0.05894727900922298,-0.07534253349304199,-0.11537176154255867
1772527364063917600,2.92891748046875,0.04959785138368606,-0.06522796671390534,-0.12488894695043563
1772527364073915600,2.93891552734375,0.025284663382172584,-0.047477205967903134,-0.12865356018096208
1772527364083913500,2.94891357421875,0.035650282312929625,-0.05354688127040863,-0.13102759583592413
1772527364093911600,2.95891162109375,0.05364040477275848,-0.022102526214718816,-0.10250263535827397
1772527364103908600,2.96890869140625,0.053147068297863004,-0.011826046872138977,-0.025936697550117967
1772527364113906700,2.97890673828125,0.04104045091867447,-0.007200725159049033,0.0298936184823513
1772527364123904800,2.98890478515625,0.0401239205956459,-0.011291209343075752,0.060201078462600706
1772527364133902600,2.998902587890625,0.017290742018818854,-0.03110240975022316,0.08519026602953672
1772527364143900700,3.008900634765625,0.02447656186968088,-0.04797872574925422,0.11544102738648652
1772527364153898800,3.018898681640625,0.024384499672055242,-0.0043014965862035745,0.11337298894077538
1772527364163895600,3.0288955078125,0.024534721797704696,0.07247779171168804,0.1227425825715065
1772527364173893600,3.0388935546875,0.07633096000850201,0.11535364136397838,0.13611205949336289
1772527364183891500,3.048891357421875,0.12718290310651062,0.14099369405508042,0.13845891488045453
1772527364193889500,3.0588896484375,0.16469693346470593,0.10956745917797088,0.11957359714657068
1772527364203887600,3.0688876953125,0.15457155303061007,0.0477314729899168,0.11319441750347614
1772527364213885400,3.078885498046875,0.08832710275053977,0.032768297135829925,0.10086071337014436
1772527364223883500,3.088883544921875,0.02526069798469543,0.023196751192212102,0.09507803831547498
1772527364233880600,3.098880615234375,-0.0548334139496088,0.008421791386604309,0.08668956467658281
1772527364243878700,3.108878662109375,-0.10019114354550838,0.006115852531790733,0.06706278092563152
1772527364253876700,3.118876708984375,-0.10770458791553973,-0.026809096470475195,0.03966887030452489
1772527364263874600,3.12887451171875,-0.09471241987347602,-0.06870645647943019,0.024700433753430843
1772527364273872600,3.13887255859375,-0.08337795591056346,-0.07174480126202105,0.03848229086846113
1772527364283870700,3.14887060546875,-0.07573679350763558,-0.0812070416122675,0.06475421172231435
1772527364293868500,3.15886865234375,-0.082694357560575,-0.07186696633696556,0.0443371543765068
1772527364303865600,3.168865478515625,-0.07153495790362357,-0.046156186497211454,0.031468028192222115
1772527364313863400,3.178863525390625,-0.038594811332225795,-0.04545183762013912,0.0316015914440155
1772527364323861500,3.188861572265625,0.027643501468002794,-0.054933951714634895,0.0437403575271368
1772527364333859600,3.198859619140625,0.06031622927486896,-0.07881926969289779,0.039943303331732745
1772527364343857400,3.208857421875,0.06551175209134817,-0.06660100863277912,0.009912322205305099
1772527364353855500,3.21885546875,0.07347118666321038,-0.004074117571115494,0.00467032989859581
1772527364363853600,3.228853515625,0.09315846842974423,0.040970308291912075,0.05021978267431259
1772527364373850600,3.2388505859375,0.11317658958584069,0.062684711971879,0.09697218149900436
1772527364383848700,3.2488486328125,0.09146656982004642,0.08659984056651591,0.11281740088462829
1772527364393846500,3.258846435546875,0.0978331822425127,0.0961117652773857,0.12307809813618659
1772527364403844600,3.2688447265625,0.09292758228331803,0.06697744072973728,0.10078034161031246
1772527364413842700,3.2788427734375,0.03839168997555971,0.014327216038107871,0.09735065942257642
1772527364423840500,3.288840576171875,-0.023847616316378117,-0.015818915900588034,0.07929273242354393
1772527364433837600,3.298837646484375,-0.014938041412830352,-0.027976386684179306,0.07558569459915161
1772527364443835600,3.308835693359375,0.02824409770965576,-0.029579730227589605,0.05557254187911748
1772527364453833500,3.31883349609375,0.05182078813016414,0.00391220500767231,0.03069587477594614
1772527364463831600,3.32883154296875,0.07859539780914783,0.000772153416275978,0.008339958322048186
1772527364473829600,3.33882958984375,0.09108487702608108,-0.036140988439321516,0.0014081132322549819
1772527364483827700,3.34882763671875,0.05546995828747749,-0.04935527479946613,0.007755436432361602
1772527364493825800,3.35882568359375,0.018808745366334916,-0.06771569187641144,-0.007306815882027149
1772527364503822600,3.368822509765625,-0.03281330532133579,-0.05187105701267719,-0.0030316227808594703
1772527364513820700,3.378820556640625,-0.08437544251531362,-0.023835049095749853,0.036360184147953986
1772527364523818800,3.38881884765625,-0.0882826790869236,-0.01064472813308239,0.06058160221278667
1772527364533816600,3.398816650390625,-0.053203474660217756,0.012137597039341926,0.05998889701664448
1772527364543814700,3.408814697265625,-0.018259587050974368,-0.03545592878460884,0.05218903692066669
1772527364553812500,3.4188125,-0.014025895003974437,-0.11462591161131858,0.037352702316641805
1772527364563810600,3.428810546875,-0.05945668983608484,-0.14734452438652515,0.0249026783272624
1772527364573807600,3.4388076171875,-0.06398965709060431,-0.10356032771766185,-0.0054889528051018715
1772527364583805400,3.448805419921875,-0.023148235875368118,-0.055587447187304496,-0.028213410310447214
1772527364593803500,3.458803466796875,0.04932458740025759,0.02018880154788494,-0.007000234150886535
1772527364603801600,3.468801513671875,0.12857231163829563,0.045205753904581064,0.05460018971562385
1772527364613799700,3.478799560546875,0.17019786896854638,0.01008475616276264,0.07268938863575458
1772527364623797800,3.4887978515625,0.1405251997604966,-0.022744331249594688,0.06438011771291494
1772527364633795600,3.498795654296875,0.07012158397436141,-0.02429097616970539,0.06578735416233539
1772527364643792600,3.508792724609375,-0.01491027662307024,-0.03374795582294464,0.06224018307477235
1772527364653790700,3.518790771484375,-0.04080138146579265,-0.04792787234485149,0.055471711853146546
1772527364663788500,3.52878857421875,-0.024791911429166792,-0.059759179913997644,0.02817746221423149
1772527364673786600,3.53878662109375,-0.010554419501125812,-0.041003626039624215,0.02339081245958805
1772527364683784700,3.54878466796875,0.016315467245876788,-0.003599485796689987,0.040028935788571834
1772527364693782500,3.558782470703125,0.034325755710899825,0.013942600634694099,0.01532324133813381
1772527364703779600,3.568779541015625,0.04862579148113727,-0.01270867492556572,-0.0006897358298301697
1772527364713777700,3.578777587890625,0.05306114358007907,-0.06117898358404636,-0.00430997215360403
1772527364723775700,3.588775634765625,0.020066051951050757,-0.0564846882879734,0.0024596681118011473
1772527364733773800,3.59877392578125,-0.016663257770240306,-0.08772562972605227,0.0005161328285932541
1772527364743771400,3.608771484375,-0.04034136273860931,-0.0733335317581892,-0.008657645969092846
1772527364753769500,3.61876953125,-0.039163551130890845,-0.04807692542672157,0.0016503975555300712
1772527364763767300,3.628767333984375,-0.022273791128396985,-0.040894904968142506,0.033814006796479223
1772527364773765400,3.638765380859375,-0.01055880341529846,0.0029980127722024916,0.0470624876871705
1772527364783762200,3.64876220703125,0.004372223734855652,-0.005081248787045478,0.03199205206632614
1772527364793760300,3.65876025390625,0.03130231623649597,-0.03787526488602161,0.03632277474701404
1772527364803758300,3.66875830078125,0.004771159924566746,-0.020340777239203453,0.05386135404706001
1772527364813756200,3.678756103515625,-0.011736030501127242,0.0026437925070524216,0.07313391753286123
1772527364823754200,3.688754150390625,0.0020627777487039565,0.04693243156671524,0.07255494860112667
1772527364833752300,3.69875244140625,0.03166851920038462,0.07076864970624447,0.10036796141713857
1772527364843749400,3.708749267578125,0.06199468388110399,0.035165421405434605,0.12867635653465986
1772527364853747500,3.71874755859375,0.06263707343786955,-0.021336218017339707,0.12264642872065305
1772527364863745300,3.728745361328125,0.04232786038070917,-0.03998071273267269,0.09634382046759128
1772527364873743400,3.738743408203125,0.040678924129903316,-0.05041735107302665,0.07715279778540134
1772527364883741400,3.748741455078125,0.026629063728451727,-0.041405192577838895,0.049532969453930854
1772527364893739300,3.7587392578125,0.0017749007180333136,-0.05132452904582023,0.012678279787302016
1772527364903737300,3.7687373046875,-0.02063186914026737,-0.044563364347815514,0.02105769333690405
1772527364913734100,3.778734130859375,-0.032055764952301974,-0.020329671323299405,0.03634937049299478
1772527364923732200,3.788732177734375,-0.028506548038125037,-0.011812018346786498,0.04538783247321844
1772527364933730300,3.798730224609375,-0.0011339724659919738,-0.01996434514224529,0.06215396609604358
1772527364943728000,3.80872802734375,0.009205635240674019,-0.009182254365086556,0.0819888396397233
1772527364953726200,3.818726318359375,0.008617021697759629,0.01339139649271965,0.09108663059175014
1772527364963724300,3.828724365234375,0.026683424264192578,0.019864391899108887,0.08104746713638306
1772527364973722000,3.83872216796875,0.059003685371577734,0.025630700340867042,0.049394730027019974
1772527364983719400,3.848719482421875,0.08219868299812078,0.01068739823102951,0.045647360192239285
1772527364993717200,3.85871728515625,0.08227116371244192,0.03038520139157772,0.04473462926149368
1772527365003715300,3.86871533203125,0.07956044344902038,0.003793547064065933,0.013123977728188038
1772527365013713400,3.87871337890625,0.0736468354910612,-0.03666705814003944,0.004539104734361171
1772527365023711200,3.888711181640625,0.037782325905561444,-0.026482348734140394,0.016322189247608185
1772527365033709300,3.898709228515625,0.020687983241677282,-0.05751169324815273,0.008258417518436909
1772527365043707400,3.908707275390625,0.018474691106379032,-0.06768646578192711,0.01589051983207464
1772527365053704200,3.9187041015625,0.014527122524380683,-0.04490297156572342,0.0077335168614983555
1772527365063702300,3.928702392578125,0.036133097393810744,-0.03761047646999359,-0.012917641501128672
1772527365073700000,3.9387001953125,0.05575023653358221,-0.044160044243931766,-0.045102293530106544
1772527365083698200,3.9486982421875,0.05859393552690744,-0.042618660020828245,-0.061250002993643284
1772527365093696300,3.9586962890625,0.05170213018655777,-0.04749006544947624,-0.042890170438587664
1772527365103694000,3.968694091796875,0.02377075168788433,-0.056390580263733864,-0.01614975529015064
1772527365113692200,3.978692138671875,-0.011445815382897854,-0.04718903667628765,0.004758592703938484
1772527365123689200,3.988689208984375,-0.022921441382169724,-0.019083470654487608,0.04914367787539959
1772527365133687300,3.998687255859375,0.005633037450909614,0.006740121909976005,0.0630599750250578
1772527365143685400,4.008685302734375,0.01106821424216032,0.03545885139405727,0.06204466050267219
1772527365153683200,4.01868310546875,0.032284605272114276,0.011963409516215323,0.061602761954069135
1772527365163681300,4.028681396484375,0.07756517797857522,0.0017664251506328583,0.062433952081203455
1772527365173679400,4.038679443359375,0.09455050731003284,0.012293079861998558,0.05465571929514408
1772527365183677200,4.04867724609375,0.09436609065383672,-0.007882277682423592,0.034520693761110305
1772527365193674200,4.05867431640625,0.04092617688924074,-0.03664601535201072,0.031659751372039316
1772527365203672000,4.068672119140625,-0.012749006935954094,-0.03777589616477489,0.059740182952582835
1772527365213670100,4.078670166015625,-0.038917759676277634,-0.01845394057929516,0.07681114474087954
1772527365223668200,4.088668212890625,-0.03555909689813852,-0.014143091642856598,0.1022571361646056
1772527365233666300,4.098666259765625,0.010716332064568996,0.0021101240217685697,0.09061959760189056
1772527365243664400,4.108664306640625,0.06210398947447538,-0.0015489830076694487,0.07368249132633209
1772527365253661400,4.118661376953125,0.10134586653858423,0.009673837274312973,0.06790566149055957
1772527365263659300,4.1286591796875,0.1283215517476201,0.006173720198869705,0.058926528482139105
1772527365273657300,4.1386572265625,0.11416823097169398,-0.005626023188233375,0.019289806881546974
1772527365283655200,4.1486552734375,0.056793315845727915,-0.00544715948998928,0.02517331196218729
1772527365293653200,4.1586533203125,0.007230828036367893,-0.011006547182798384,0.035026889717578884
1772527365303651300,4.1686513671875,-0.023957798692584038,-0.016098901885747908,0.03429185344129801
1772527365313649200,4.178649169921875,-0.025453297947347162,-0.04039104709923267,0.03513648757189512
1772527365323646200,4.188646240234375,-0.004220832565426826,-0.07850479691624641,0.022956512695550917
1772527365333644300,4.198644287109375,-0.024534721797704696,-0.0678086308568716,0.0169575645416975
1772527365343642000,4.20864208984375,-0.06169307058602571,-0.023184476232528686,0.014587620539963245
1772527365353640200,4.21864013671875,-0.07629004347622394,0.004141337588429451,0.032685879549384116
1772527365363638500,4.228638427734375,-0.05007686707228422,-0.0027168577432632444,0.054907648229598996
1772527365373636400,4.23863623046875,-0.04095686428844929,-0.05049216987490654,0.07154372573196888
1772527365383634400,4.248634521484375,-0.025347207224369048,-0.09526888471245765,0.06991904713958501
1772527365393631200,4.25863134765625,-0.04878682726174593,-0.09756196408569812,0.0866416338816285
1772527365403629300,4.26862939453125,-0.019961130271852014,-0.07201894202828407,0.08955342967510223
1772527365413627400,4.27862744140625,0.10417261439710855,-0.1560866337686777,-0.042074762402474875
1772527365423625200,4.288625244140625,0.09677198275178671,0.021384148812294005,0.01803425386250019
1772527365433623300,4.298623291015625,0.09908610491305589,0.07547463544011115,0.06640256345123052
1772527365443621400,4.308621337890625,0.17971534663736818,0.019258827221393583,0.020337270107865332
1772527365453619200,4.318619140625,0.173331783080101,0.0034837504625320433,-0.018502455896139143
1772527365463616300,4.3286162109375,0.12156214061528443,-0.002790507501363754,-0.0027452070549130437
1772527365473614300,4.3386142578125,0.047021863415837285,-0.007587678650021553,0.00838379746377468
1772527365483612400,4.3486123046875,-0.014007774825394153,-0.01698328350484371,-0.0033668460845947264
1772527365493610500,4.358610595703125,-0.07479571326524019,-0.07579086178243159,-0.02099514949470758
1772527365503608300,4.3686083984375,-0.11981062077283859,-0.09997253235876559,0.008705576764047145
1772527365513606400,4.3786064453125,-0.11462766517698764,-0.10707155070900916,0.03779927704036236
1772527365523604500,4.3886044921875,-0.07909574854671955,-0.0929921719521284,0.05564765294194221
1772527365533601300,4.398601318359375,-0.014908230796456336,-0.08521686177551746,0.03153261786103249
1772527365543599400,4.408599365234375,0.045887890949845314,-0.04929390000104904,-0.007502922976016998
1772527365553597200,4.41859716796875,0.1423722889319062,0.0172451493114233,-0.01760463027358055
1772527365563595300,4.42859521484375,0.1568359908312559,-0.08366437163650989,-0.010193184973299503
1772527365573593300,4.43859326171875,0.1324497375935316,0.060550622552633285,0.028802023853361607
1772527365583591200,4.448591064453125,0.08039923236072063,0.08053425691723823,-0.02350888588130474
1772527365593588500,4.45858837890625,0.09655132573843002,0.06772387518286704,-0.058849956114590166
1772527365603586300,4.46858642578125,0.08330693650096654,0.05855681838691234,-0.008205226026475429
1772527365613584400,4.47858447265625,0.09213584738373756,-0.0244996504843235,-0.004861760817468166
1772527365623582500,4.48858251953125,0.08416063072085381,-0.06421674384474754,0.002533317869901657
1772527365633580300,4.498580322265625,0.035059330682456494,-0.08907178363800049,-0.02168020914942026
1772527365643578400,4.508578369140625,0.00843085147589445,-0.1313958446264267,-0.04757920503765344
1772527365653576400,4.518576416015625,-0.04746405422538519,-0.11447978113889694,-0.013493395562469958
1772527365663574300,4.52857421875,-0.0930529622286558,-0.0804091692328453,0.013635142120718955
1772527365673571300,4.5385712890625,-0.08640928643047809,-0.028847324299812314,0.034362580589950086
1772527365683569200,4.548569091796875,-0.04730360296666622,0.0065676879525184625,0.056741293397545814
1772527365693567200,4.558567138671875,0.004076163397729397,0.014709493353962898,0.07205605916827916
1772527365703565300,4.5685654296875,0.047825288753211494,0.05607727653086185,0.10629881277084349
1772527365713563100,4.578563232421875,0.0635237931445241,0.11557342159450054,0.12933715853095054
1772527365723561200,4.588561279296875,0.07745587238520384,0.1379185243934393,0.11899901212900876
1772527365733558300,4.598558349609375,0.08305383852273225,0.10013035326898097,0.10665507886260747
1772527365743556900,4.608556884765625,0.06913695685118436,0.07036416055858134,0.12553104424625636
1772527365753554700,4.6185546875,0.040700551439821715,0.04375906222760677,0.14370324527472256
1772527365763552800,4.628552734375,0.01777501840442419,0.025994857478141783,0.12234393864274025
1772527365773550800,4.63855078125,0.005957154838740825,0.006299976927042007,0.08523585873693228
1772527365783548700,4.648548583984375,0.005086509484052658,-0.060445993134379386,0.04976560916602611
1772527365793546800,4.658546630859375,-0.001427110193669796,-0.06132745214402675,0.057498833766579625
1772527365803543600,4.66854345703125,-0.03981850790828466,-0.04675649047791958,0.07047025128155947
1772527365813541600,4.678541748046875,-0.020218319903314113,-0.030608488753437996,0.059903849081695076
1772527365823539700,4.688539794921875,-0.006093932960927486,-0.013812836775183676,0.021325696623325348
1772527365833537500,4.69853759765625,-0.011517127053439616,-0.015443068325519562,0.02133037279844284
1772527365843535600,4.70853564453125,-0.010838497139513492,0.00866787510216236,0.044047816041111944
1772527365853533700,4.71853369140625,0.012831132261455058,0.026163784304261205,0.0615869798630476
1772527365863531500,4.728531494140625,0.048772506475448604,0.05127542920708656,0.04361117818951606
1772527365873528800,4.73852880859375,0.08587386437952518,0.06254150410890578,0.040024551874399183
1772527365883526700,4.748526611328125,0.09386661669909954,0.03661795830130577,0.044502574071288103
1772527365893524700,4.758524658203125,0.04671089777052402,0.01424187584221363,0.04325374305397272
1772527365903522800,4.768522705078125,0.008521744629740714,-0.030073066702485083,0.04254442574083805
1772527365913520600,4.778520751953125,-0.014230769926309585,-0.05354395866096019,0.04546411257982254
1772527365923518700,4.788518798828125,-0.015852818170189856,-0.03626607612371444,0.07221300329566001
1772527365933516800,4.798516845703125,0.0015776245802640915,-0.06361234821081162,0.07317863345742225
1772527365943513600,4.808513671875,0.012293664383888243,-0.06086743341684341,0.07789338701963425
1772527365953511700,4.81851171875,0.031308745977282525,-0.026330373042821882,0.07869856592267752
1772527365963509500,4.828509521484375,0.03781652043610811,0.004705985733866692,0.06050853697657585
1772527365973507600,4.838507568359375,0.06232669231444597,0.003741524615883827,0.04447071762830019
1772527365983505700,4.848505615234375,0.06637713674902916,-0.019572130954265594,0.03215133428126574
1772527365993503500,4.85850341796875,0.044157121634483334,-0.012794599643349646,0.05134644861668348
1772527366003501600,4.86850146484375,0.0027148119166493416,-0.029008067819476124,0.0644689650401473
1772527366013498600,4.87849853515625,-0.046627018879354,-0.04895955348014831,0.06400163978934288
1772527366023496700,4.88849658203125,-0.06991378644257784,-0.06268705005943775,0.07657441337555647
1772527366033494800,4.898494873046875,-0.05296557425111532,-0.06894494141042232,0.08964256926327943
1772527366043492600,4.90849267578125,-0.006522387506067752,-0.05726151787936687,0.07389204242378473
1772527366053490700,4.91849072265625,0.023203765454888343,-0.038194998359680175,0.04414367763102054
1772527366063488800,4.92848876953125,0.0636366058692336,-0.042086745101213456,0.013487842604517936
1772527366073486600,4.938486572265625,0.10600450599938631,-0.013213117316365241,-0.0025078911677002907
1772527366083483600,4.948483642578125,0.11436930650174618,0.015501520514488219,-0.016150924333930016
1772527366093481500,4.9584814453125,0.13116466621905565,0.020036825856566427,-0.05589461344033479
1772527366103479600,4.9684794921875,0.12397446245402097,-0.001755319234728813,-0.09650631755292415
1772527366113477600,4.9784775390625,0.0871755946278572,-0.029920506489276886,-0.09516162494570016
1772527366123475500,4.988475341796875,0.05515314742326736,-0.034712416940927505,-0.07823971623927355
1772527366133473500,4.9984736328125,0.017174422162771225,-0.03645604573786258,-0.0464677366644144
1772527366143470800,5.008470947265625,0.022855098147690295,-0.04812485622167587,-0.021349662020802497
1772527366153468700,5.01846875,0.009446750520169734,-0.04991758485734463,0.016029343780875206
1772527366163466800,5.028466796875,-0.010414718769490718,-0.05311842672526836,0.06501227813661098
1772527366173464800,5.03846484375,0.010529577320814132,-0.04483224441707134,0.08995733430087566
1772527366183462700,5.048462646484375,0.036137481307983395,-0.024299159476161,0.09490443531423806
1772527366193460700,5.058460693359375,0.049020051495730875,-0.030394553741812703,0.07725099746286869
1772527366203458600,5.06845849609375,0.06184913793057203,-0.041433249628543854,0.06862462341487408
1772527366213455600,5.07845556640625,0.04719049798101187,-0.029545243436098097,0.05426876580417156
1772527366223453700,5.08845361328125,0.012215630711615084,-0.023674305576086043,0.06995908688902855
1772527366233451500,5.098451416015625,0.04185059825778007,-0.0410042105615139,0.048802901613712306
1772527366243449600,5.10844970703125,0.0605061988890171,-0.04892039051353931,-0.025916239283978938
1772527366253447700,5.11844775390625,0.019979834972321985,-0.012194295662641524,-0.063995794570446
1772527366263445500,5.128445556640625,-0.0048483168140053745,-0.007051087555289268,-0.026449615508317946
1772527366273443600,5.138443603515625,-0.025715163753926754,-0.03864741830229759,0.019301205058395863
1772527366283440600,5.148440673828125,-0.022579788337647913,-0.057695817643404,0.027897183968126772
1772527366293438700,5.158438720703125,-0.009598726211488247,-0.05038227975964546,0.014262041847407817
1772527366303436800,5.168436767578125,0.01019026236385107,-0.05054828397631645,0.03790975167751312
1772527366313434600,5.1784345703125,0.029490006117522716,-0.05200023635029793,0.0713508335083723
1772527366323432700,5.1884326171875,0.04010053972005844,-0.05981120236217975,0.07065525245964527
1772527366333430800,5.1984306640625,0.050342824532091615,-0.058954877793788905,0.054493222209811204
1772527366343428600,5.2084287109375,0.055635377982258795,-0.043946693754196166,0.05063128608465194
1772527366353425700,5.21842578125,0.04459346722513437,0.001110007068514824,0.05632569833397865
1772527366363423500,5.228423583984375,0.06811725841462611,-0.003689502167701721,0.03350859410911798
1772527366373421600,5.238421630859375,0.08469371468424797,-0.03235620920360088,0.00919599062949419
1772527366383419600,5.248419677734375,0.0633861382395029,-0.04794190087020397,-0.01584960329979658
1772527366393417500,5.25841748046875,0.024686405228078363,-0.06162555830776691,-0.030218320392072198
1772527366403415600,5.26841552734375,-0.00542407087534666,-0.0653822804927826,-0.0343120194464922
1772527366413414000,5.278413818359375,-0.02832768433988094,-0.06581190408170223,-0.006444646094739437
1772527366423410700,5.28841064453125,-0.027366730353236196,-0.07220598903298378,0.022233751378953455
1772527366433408800,5.29840869140625,0.0002867079868912697,-0.06300502996742725,0.06685498339384793
1772527366443406600,5.308406494140625,0.02145575274378061,-0.029908231529593467,0.07573387089818716
1772527366453404700,5.31840478515625,0.04625467843562364,-0.002592354580760002,0.05410422289222479
1772527366463402800,5.32840283203125,0.04586830946654081,0.006758826610445976,0.03718494453430175
1772527366473400600,5.338400634765625,0.06320259836614131,-0.031221067693829534,0.03593523673415184
1772527366483396900,5.34839697265625,0.0698933281764388,-0.09155074097216129,-0.05108341376632452
1772527366493394700,5.358394775390625,0.006767302177846431,-0.06246610078513622,-0.0959679728925228
1772527366503392800,5.368392822265625,-0.04754793311655521,-0.032574235868453975,-0.05372486818581819
1772527366513390600,5.378390625,-0.05741232452690601,-0.007887538379430771,0.006864917333424091
1772527366523388700,5.388388671875,-0.01879413231909275,0.045431963875889776,0.061680795626342294
1772527366533385700,5.3983857421875,0.021270751565694808,0.07941022132337093,0.07633008322566748
1772527366543383600,5.408383544921875,0.07130582532286643,0.07291559860706329,0.08246113332659005
1772527366553381600,5.418381591796875,0.07712707882225513,0.02873860322833061,0.07979074507355689
1772527366563379700,5.428379638671875,0.05073094706684351,-0.005372340688109397,0.05936696572601795
1772527366573377500,5.43837744140625,0.007031506071984768,-0.03663607847988605,0.05856792430281639
1772527366583375600,5.448375732421875,-0.0005418517917394638,-0.04456745600104332,0.04533201063275337
1772527366593373700,5.458373779296875,0.024931612160801885,-0.028528759869933126,0.013826865300536156
1772527366603370800,5.468370849609375,0.07287672790139914,-0.03327215500473976,-0.011675240224599837
1772527366613368800,5.478368896484375,0.08212444871813059,-0.027411738538742063,-0.02888765631020069
1772527366623366700,5.48836669921875,0.08587474116235971,-0.018194412860274314,-0.037788171124458314
1772527366633364700,5.49836474609375,0.0827078015640378,-0.03609656477570534,-0.03415098366588354
1772527366643362800,5.50836279296875,0.04208966771066189,-0.05192541754841804,-0.03326514074206352
1772527366653360600,5.518360595703125,-0.009637012395262717,-0.06184884566962719,-0.02773907079696655
1772527366663357700,5.528357666015625,-0.024173195008933543,-0.07178454875051975,-0.03973988971412182
1772527366673355500,5.53835546875,-0.03206862443387508,-0.05429916094243526,-0.02772942618578672
1772527366683353600,5.548353515625,-0.04042553389072418,-0.01835924803316593,-0.00620966829508543
1772527366693351700,5.5583515625,-0.0038353403791785237,-0.03234218067824841,0.014157704690098761
1772527366703349500,5.568349609375,0.029359657736122608,-0.05599485894441604,0.02667553321868181
1772527366713347600,5.57834765625,0.05009206464141607,-0.058739189216494556,0.036461306434869764
1772527366723345700,5.588345703125,0.03039952217787504,-0.06859189018905162,0.04970481888949871
1772527366733342700,5.5983427734375,0.017399170829355715,-0.052798693251609796,0.05017155961841344
1772527366743340800,5.6083408203125,0.009156827662885189,-0.03083703681230545,0.07341156543046236
1772527366753339000,5.6183388671875,-0.0004991816937923431,-0.002268529453873634,0.07421440624594688
1772527366763337000,5.6283369140625,0.008740940338373185,0.02512391986250877,0.06735153473913669
1772527366773334800,5.638334716796875,0.03375613912940025,0.025225626671314238,0.09239712866842746
1772527366783332900,5.648332763671875,0.07146715336441993,0.016491116073727607,0.1010229181945324
1772527366793330700,5.65833056640625,0.09271481631547213,0.00305471139550209,0.07152502103149891
1772527366803327700,5.66832763671875,0.0751353204831481,-0.011083704072237015,0.02792816362828016
1772527366813325800,5.678325927734375,0.045239948435127735,-0.020301029750704764,0.013081015369296073
1772527366823323600,5.68832373046875,0.012737316498160362,-0.04875789342820644,0.0021200608938932415
1772527366833321700,5.69832177734375,-0.01754062512665987,-0.03139116356372833,0.0063648588567972175
1772527366843319800,5.70831982421875,-0.01932926210910082,-0.014471592944860457,0.0051142742738127705
1772527366853317600,5.718317626953125,-0.003302548676729202,-0.037595278900861735,-0.0029267011016607283
1772527366863315700,5.728315673828125,-0.021754735690355298,-0.06691372784376144,0.006703589291870594
1772527366873312800,5.738312744140625,-0.06693681645840406,-0.06580079816579819,0.022445640563964843
1772527366883314000,5.74831396484375,-0.0734881377980113,-0.03849953426420689,0.03428893083184957
1772527366893310700,5.758310791015625,-0.027053134359419344,-0.03718786714375019,0.03608195172846317
1772527366903308800,5.768308837890625,-0.018891455213725566,-0.029437691408395767,0.048210780939459796
1772527366913306600,5.778306640625,-0.004063888438045979,-0.04073182336091995,0.08785422454178332
1772527366923304700,5.7883046875,-0.0024736966371536255,-0.05324585249722004,0.0964385130137205
1772527366933302800,5.798302734375,0.006884791077673435,-0.05584639038443565,0.09130524177849292
1772527366943300600,5.808300537109375,-0.006788637226819992,-0.07378478265702725,0.0887289615496993
1772527366953298700,5.818298583984375,-0.02571779410243034,-0.08029927911758422,0.07937310418337583
1772527366963295700,5.828295654296875,-0.058503626894950866,-0.07001753907799721,0.09752280111908912
1772527366973293800,5.8382939453125,-0.04983429048806429,-0.013925649499893188,0.1108610061198473
1772527366983292000,5.8482919921875,0.010822130526602268,0.054251814669370645,0.10314122552275658
1772527366993289700,5.858289794921875,0.08281155419945717,0.11547989809215069,0.09493307688683271
1772527367003287800,5.868287841796875,0.13441577696949242,0.12773030785620212,0.08623977508246898
1772527367013286000,5.878285888671875,0.12728811704665421,0.1100584575653076,0.07677782699316739
1772527367023282700,5.88828271484375,0.08108107714504004,0.0327823256611824,0.06408376511484384
1772527367033280800,5.89828076171875,-0.003923895445466041,-0.01702770716845989,0.053934711544215676
1772527367043278600,5.908278564453125,-0.0538052399456501,-0.03620587036907673,0.05622282248139381
1772527367053276700,5.918276611328125,-0.07953267865926027,-0.029727029743790625,0.059734045472741124
1772527367063274800,5.928274658203125,-0.07388590494394302,-0.01672492482960224,0.06851064164638519
1772527367073272800,5.93827294921875,-0.04243628919124603,-0.021069676035642623,0.04735971706807613
1772527367083271000,5.94827099609375,-0.009770283386111259,-0.04522212051749229,0.050609074252843854
1772527367093267700,5.958267822265625,0.004648994849622249,-0.043239422267675395,0.060981999707221984
1772527367103265800,5.968265869140625,0.019577683912217616,-0.018638064974546432,0.07004325804114342
1772527367113263900,5.978263916015625,0.0187613990932703,-0.03587327741384506,0.0461585245847702
1772527367123261700,5.98826171875,0.011432079118490219,-0.0178898769557476,0.04722410798966884
1772527367133259800,5.998259765625,0.023774843341112135,-0.01120586914718151,0.050120998474955554
1772527367143257900,6.0082578125,0.03510433886796236,-0.0263818109691143,0.06089052203148603
1772527367153255700,6.018255615234375,0.051985331042110915,-0.03381108418703079,0.04942892455756664
1772527367163252700,6.028252685546875,0.046619712355732916,-0.030272973188757896,0.041919864101707935
1772527367173250600,6.03825048828125,0.0258829215362668,-0.0057137014716863626,0.033362171375751495
1772527367183248600,6.04824853515625,0.04899491705447435,-0.03055062108635902,0.018157295720279215
1772527367193246700,6.058246826171875,0.03966653221696615,-0.057848377856612204,-0.003914835356175899
1772527367203244800,6.068244873046875,0.002577449272572994,-0.06817804869115353,-0.013718728750944136
1772527367213243000,6.078242919921875,-0.01445756441950798,-0.08526479257047176,-0.016931261056661605
1772527367223241000,6.088240966796875,-0.016101824495196343,-0.06440963606834411,-0.017498831811547277
1772527367233237800,6.09823779296875,0.013225976797938346,-0.06402560518682003,-0.013337620478868484
1772527367243235800,6.10823583984375,0.01326893915683031,-0.07250467971861362,-0.03388531846702099
1772527367253233700,6.118233642578125,-0.006253799697756767,-0.049373394978046416,-0.022073007859289645
1772527367263231700,6.128231689453125,0.002378127308189869,-0.009254150557518005,0.012544424274563789
1772527367273229800,6.138229736328125,0.04136106117516756,0.030244916138052937,0.05573007052838802
1772527367283227600,6.1482275390625,0.0841349117577076,0.040032735180854796,0.05993599778562784
1772527367293225700,6.158225830078125,0.09659341131448745,0.01302665483355522,0.05857435404360294
1772527367303222800,6.168222900390625,0.07192161913365125,-0.004628828844428062,0.06854863556921481
1772527367313220900,6.178220947265625,0.03699409813731908,-0.014651625686883926,0.08606061912328004
1772527367323219000,6.188218994140625,0.007722703206539154,-0.013999883779883385,0.09442132797241211
1772527367333216800,6.198216796875,0.00511602783948183,-0.007973463097214698,0.08218699256032705
1772527367343214800,6.20821484375,0.025929098765552043,-0.0009819967746734618,0.0577525162667036
1772527367353213000,6.218212890625,0.034495267058908936,-0.018945523488521576,0.02771685896515846
1772527367363210800,6.228210693359375,0.01169774431735277,-0.026247955456376076,0.020122458313405513
1772527367373207800,6.238207763671875,-0.010426993729174137,0.0033230069428682326,0.02863017441779375
1772527367383206000,6.248205810546875,0.026842706479132172,-0.006796236011385917,-0.011689853271842002
1772527367393203700,6.25820361328125,0.0489230208620429,-0.01737199056148529,-0.02714753464460373
1772527367403201800,6.268201904296875,0.06312777956426144,-0.036197687062621116,-0.04263531889468431
1772527367413200000,6.278199951171875,0.04301525812298059,-0.03767185126841068,-0.03645195408463478
1772527367423197700,6.28819775390625,0.033304011447727676,-0.03551730358302593,-0.038139468780159946
1772527367433195800,6.29819580078125,0.053798810204863545,-0.07013678154349327,-0.023482874657213687
1772527367443192800,6.30819287109375,0.021658289578557012,-0.08475742757022381,-0.0019166472762823105
1772527367453191000,6.31819091796875,0.00693944387435913,-0.090133859911561,0.022028584195673464
1772527367463189000,6.32818896484375,0.00931406405121088,-0.09901683906912803,0.001330079559981823
1772527367473186800,6.338186767578125,-0.0002411152794957161,-0.06479308242797852,0.009289514131844043
1772527367483185000,6.348184814453125,0.006356967811286449,-0.052259179547429084,0.028334990863502024
1772527367493183000,6.358182861328125,0.0342114816814661,-0.05689560717642307,0.04651683650314808
1772527367503180800,6.368180908203125,0.06388327410668135,-0.04948503865897655,0.0371785147935152
1772527367513177900,6.378177734375,0.07424918529838323,-0.057712768778204915,-0.008627250830829143
1772527367523175700,6.38817578125,0.03707417763620615,-0.04532558089196682,-0.012453531120717525
1772527367533173800,6.398173828125,0.021295886006951332,-0.014140169033408164,-0.008024316501617432
1772527367543171800,6.408171875,0.014827859036624431,0.02495090138316154,-0.009554010286927223
1772527367553169700,6.418169677734375,0.0390653514534235,0.0699871439397335,-0.015810148072242736
1772527367563167700,6.428167724609375,0.0749430127814412,0.06250058757662773,-0.004494681070744991
1772527367573165800,6.438165771484375,0.10687748944163322,0.03674012337625027,0.005281447534263134
1772527367583163000,6.448162841796875,0.0945171895623207,0.06344751303792,0.012497370262444019
1772527367593161000,6.458160888671875,0.0795025757819414,0.0247480722874403,-0.0028501287341117856
1772527367603158800,6.46815869140625,0.062469315655529496,-0.0434223776191473,0.0008554477855563164
1772527367613156900,6.478156982421875,0.005197276382148266,-0.08760755630433559,0.024316402871906756
1772527367623155000,6.488155029296875,-0.05722936917543411,-0.10026771591305732,0.058416533133387565
1772527367633152800,6.49815283203125,-0.05330255112051963,-0.1011006596058607,0.07027180610001087
1772527367643150800,6.50815087890625,-0.027081483671069145,-0.09585691373348236,0.050477264566719526
1772527367653147600,6.518147705078125,0.002953296847641468,-0.10378186151385306,0.018482874412834645
1772527367663145700,6.528145751953125,0.03145166157931089,-0.08449147011041641,0.029053076004981995
1772527367673143800,6.538143798828125,0.049235155551135536,-0.029465163937211034,0.04139671701043844
1772527367683141600,6.5481416015625,0.07203852351158857,0.013709960922598838,0.01955927147269249
1772527367693139700,6.5581396484375,0.09465601351112127,0.00720481681227684,-0.014455226331949234
1772527367703137800,6.5681376953125,0.08707271877527237,0.007498831322789192,-0.0220423204600811
1772527367713135600,6.578135498046875,0.05299889199882746,0.010950433081388473,-0.014444120416045187
1772527367723133000,6.5881328125,0.04289835374504328,-0.0006727846950292587,-0.024942718076705932
1772527367733130800,6.598130859375,0.029491759683191773,-0.0031219314128160475,-0.018923311656713484
1772527367743128800,6.60812890625,0.003707622346282005,-0.023881226325035095,-0.008989654402434825
1772527367753126000,6.6181259765625,-0.011894143672287463,-0.04497252967059612,0.02705108853280544
1772527367763124000,6.6281240234375,-0.04053220913559198,-0.056309916242957114,0.05467997695356607
1772527367773122000,6.6381220703125,-0.043272740015387536,-0.035989012748003,0.08882160826921462
1772527367783120000,6.648119873046875,-0.0308238850697875,-0.026329788520932196,0.10535480991899966
1772527367793117000,6.658116943359375,-0.008095335911214351,-0.03739771050214767,0.11468933223634957
1772527367803115000,6.668114990234375,0.01914192284345627,-0.03030512189269066,0.11658639802932738
1772527367813113000,6.678113037109375,0.02939385226666927,-0.015102292063832281,0.09198767108470202
1772527367823111200,6.688111083984375,0.050202539278566834,0.009611877954006195,0.044671500897407526
1772527367833109000,6.69810888671875,0.07425882990956306,0.01253565644621849,0.013310440210998057
1772527367843107000,6.708107177734375,0.09085925157666205,0.014353519523143768,-0.016366612911224366
1772527367853105200,6.718105224609375,0.08921732958853244,0.02081657805740833,-0.028805238723754883
1772527367863102000,6.72810205078125,0.08893237516731023,0.024623569124937055,-0.027226152838766574
1772527367873100000,6.73810009765625,0.0664928720831871,-0.0012865326792001724,-0.028640988072752952
1772527367883097900,6.748097900390625,0.020482231536507606,-0.038299043256044385,-0.005955109012126922
1772527367893096000,6.758095947265625,-0.0204126734316349,-0.06658990271687507,0.004086392530798912
1772527367903094000,6.768093994140625,-0.01885696842223406,-0.0714162999600172,0.02563683782070875
1772527367913091800,6.778091796875,0.002063362270593643,-0.06243687469065189,0.021646891401708123
1772527367923090000,6.78808984375,0.038759061983227726,-0.037597032466530796,0.030301614761352538
1772527367933087200,6.798087158203125,0.06186638132631778,-0.047400633600354194,0.04136778317689895
1772527367943085000,6.8080849609375,0.06341945598721503,-0.05489771135747432,0.04926876555979252
1772527367953083100,6.818083251953125,0.01557341670691967,-0.05610591810345649,0.049022681844234466
1772527367963081000,6.8280810546875,-0.011147416958212851,-0.0527899254232645,0.04985854814648628
1772527367973079000,6.8380791015625,0.00767798728197813,-0.07258300565183162,0.03421031263768673
1772527367983077000,6.8480771484375,0.009997077879309653,-0.055282326760888095,0.04980857152491808
1772527367993075000,6.858074951171875,0.02400339139997959,-0.012312369084358215,0.06320902810692787
1772527368003072000,6.868072021484375,0.06286591375768184,0.023970658174157142,0.05841039565354585
1772527368013070000,6.878070068359375,0.08635814076513051,0.026136311775445936,0.022118892827630042
1772527368023068000,6.88806787109375,0.10066782114654779,-0.005928221005201339,-0.020967969226837156
1772527368033066000,6.89806591796875,0.0639922874391079,-0.05232230791151523,-0.06740238814353942
1772527368043063800,6.908063720703125,0.011785714861750602,-0.05016366857290268,-0.08292085979282855
1772527368053062000,6.918061767578125,-0.016691314820945262,-0.03032148850560188,-0.05975508826076984
1772527368063060000,6.92806005859375,0.002282265718281269,-0.010293430477380752,-0.0336059170037508
1772527368073057000,6.93805712890625,0.027239304581284523,-0.007530980026721954,-0.020957155571877956
1772527368083055000,6.94805517578125,0.03677928634285926,-0.0523760839253664,0.008303717964887618
1772527368093053200,6.95805322265625,0.010700842234492301,-0.0627373189419508,0.03531242866069078
1772527368103051000,6.968051025390625,0.00002075052708387375,-0.06875029562115668,0.03234188841730356
1772527368113049000,6.978049072265625,0.0039048984840512274,-0.08358838379085064,0.027379882095754145
1772527368123047000,6.988046875,-0.008977379442751407,-0.06318740079700946,0.04860241060554981
1772527368133045000,6.998044921875,-0.006100362701714038,-0.03540215277075767,0.0691527389422059
1772527368143042000,7.0080419921875,0.035788521739840505,0.01788870791196823,0.08137479939460754
1772527368153040000,7.018039794921875,0.08454992229938507,0.03865618613064289,0.05397679712027311
1772527368163038000,7.028037841796875,0.1266769994109869,0.028331191471219062,0.00815203453451395
1772527368173036000,7.0380361328125,0.12164105107039212,0.012683540484309195,-0.013033084574341772
1772527368183033900,7.048033935546875,0.09254472044557333,0.0045651159584522245,-0.017031798821687698
1772527368193032000,7.058031982421875,0.06083060853779316,-0.01846387745141983,-0.027076222974061964
1772527368203030000,7.068030029296875,0.005427285745739936,-0.036489948007464405,-0.02382832709401846
1772527368213027000,7.078027099609375,-0.03748129713237285,-0.03988368209898471,-0.005311550411581992
1772527368223025200,7.088025146484375,-0.061413669122755525,-0.05523556500971317,0.03589899637699127
1772527368233023000,7.09802294921875,-0.08546645262241363,-0.012315291693806648,0.05466039547026157
1772527368243021000,7.10802099609375,-0.0658913990586996,-0.009614800563454628,0.045647360192239285
1772527368253019100,7.11801904296875,-0.004184299947321415,-0.04034019369482994,0.05151391413807869
1772527368263017000,7.128016845703125,0.01987988172918558,-0.05953589255213737,0.06051525897830724
1772527368273015000,7.13801513671875,0.01113046582341194,-0.041209962266683574,0.08194704632461071
1772527368283011800,7.14801171875,0.017934300619363783,-0.045927638438344,0.09402122273892163
1772527368293010000,7.158010009765625,-0.006749181999266147,-0.04794014730453491,0.1265554188579321
1772527368303008000,7.168008056640625,-0.033329730410873885,-0.00580488688647747,0.14535598091781138
1772527368313005800,7.178005859375,-0.019231646953523158,0.030243747094273566,0.1521799817189574
1772527368323004000,7.18800390625,0.012791092512011527,0.034247137516736983,0.12004413726776837
1772527368333002000,7.198001953125,0.04552227250784635,0.02803717696070671,0.08981354191601276
1772527368342999800,7.207999755859375,0.06491027906686067,0.024213234758377073,0.05484042821228504
1772527368352998100,7.217998046875,0.07361088739484548,0.024409634113311766,0.04878711952269077
1772527368362995000,7.227994873046875,0.08370265782028437,-0.0077519293010234825,0.03756020758748054
1772527368372993000,7.237992919921875,0.041562428966164584,-0.029930443361401556,0.042059272572398186
1772527368382991000,7.2479912109375,-0.003585165010392666,-0.01637596526145935,0.06787497409135103
1772527368392989000,7.257989013671875,0.0008025485545396804,-0.014677344650030136,0.05901771389693022
1772527368402987000,7.267987060546875,0.0093763156324625,-0.02836392469704151,0.02837561513483524
1772527368412985000,7.277985107421875,0.012215046189725399,-0.05160509955286979,0.0013034838140010834
1772527368422983000,7.28798291015625,-0.008203764721751213,-0.06232113935649394,-0.02263619470000267
1772527368432980000,7.29797998046875,-0.001898234836757183,-0.06967033307552337,-0.02485913144648075
1772527368442977800,7.307977783203125,0.013374737618863581,-0.06687573392093181,-0.05125117154866457
1772527368452975900,7.317975830078125,0.007235211950540542,-0.047099020305275914,-0.03868453544229269
1772527368462974000,7.327973876953125,0.03895896846950054,-0.018947277054190633,-0.018395780651271343
1772527368472972000,7.337971923828125,0.0551797431692481,0.0014385083705186843,-0.004850654901564121
1772527368482970000,7.34797021484375,0.05575315914303064,-0.0145960961073637,-0.0062581836119294165
1772527368492968200,7.35796826171875,0.06145049400180578,-0.03784779235720634,0.005248714308440685
1772527368502965000,7.367965087890625,0.04730944818556308,-0.05635317086279392,0.007719196075201034
1772527368512963000,7.377963134765625,0.041937107497453684,-0.06429974595308303,-0.0010568155765533446
1772527368522961000,7.3879609375,0.027195757700502872,-0.08791559934020042,-0.012664835783839225
1772527368532959000,7.397958984375,-0.009354688322544097,-0.07194646131396293,0.005958908404409885
1772527368542957000,7.40795703125,-0.012163316002488135,-0.053121349334716794,0.02062543939948082
1772527368552955000,7.417954833984375,0.022481296399235726,-0.04267068246901035,0.030765725141763685
1772527368562953000,7.427952880859375,0.06237023919522762,-0.02190028164088726,0.04713730648905039
1772527368572949800,7.43794970703125,0.066612406809628,-0.02192073990702629,0.032194881162047384
1772527368582948000,7.447947998046875,0.045722471255064005,-0.000443067592382431,-0.008384966507554053
1772527368592946200,7.4579462890625,0.03375321651995182,0.009873159238696097,-0.028218086485564706
1772527368602944000,7.467944091796875,0.04493102861642837,0.0039221418797969814,-0.0316954072073102
1772527368612942000,7.477942138671875,0.05157353537082672,0.016991466811299323,-0.03163578597456217
1772527368622940200,7.487940185546875,0.03993278193771839,0.02339548863470554,-0.014274609068036079
1772527368632938000,7.49793798828125,0.02026245130598545,0.012370821273326874,0.00915156696587801
1772527368642935000,7.50793505859375,0.022960604348778724,0.017098434317111968,0.04249240329265594
1772527368652932900,7.517932861328125,0.019583821392059324,0.03132218998074531,0.05705196678191423
1772527368662931000,7.527930908203125,0.03961947820484638,0.02126373730301857,0.07476181099563836
1772527368672929000,7.537928955078125,0.04439297621697187,-0.010409165811538695,0.07940612967014313
1772527368682926800,7.5479267578125,0.024552257454395293,-0.02308919916450977,0.08921236115247011
1772527368692925000,7.557925048828125,-0.001870177786052227,-0.00857552064359188,0.07721563388854265
1772527368702923000,7.567923095703125,-0.005176818116009235,0.00007715688943862914,0.05760930840373039
1772527368712920000,7.577920166015625,-0.010308920307457446,0.014438859719038008,0.056199441605806345
1772527368722918100,7.587918212890625,-0.005932020397484302,0.02454232058227062,0.06842442466765641
1772527368732916000,7.597916015625,0.01172521684616804,0.007056348252296447,0.05759381857365369
1772527368742914000,7.6079140625,0.03659428516477346,-0.03182487880587578,0.030381109738349912
1772527368752912400,7.617912353515625,0.04023234940618276,-0.04573240812718868,0.026170798566937443
1772527368762910200,7.62791015625,0.023524375711381433,-0.041425650843977924,0.04213175328671932
1772527368772908300,7.637908203125,0.026190380050241945,-0.04463584506213665,0.035841420970857144
1772527368782906400,7.64790625,0.03429243796318769,-0.05353635987639427,0.030016660340130327
1772527368792903200,7.657903076171875,-0.008184183238446711,-0.04420271434187889,0.032329321196675295
1772527368802901200,7.6679013671875,-0.020255144782364367,-0.03758417298495769,0.036814649917185305
1772527368812899300,7.6778994140625,-0.013937047676742077,-0.040111061114072796,0.03919774566143751
1772527368822897200,7.687897216796875,-0.01265109951943159,-0.039539398705959315,0.047103404219448565
1772527368832895200,7.697895263671875,-0.02238952646255493,-0.030460604715347287,0.027709552441537378
1772527368842893000,7.70789306640625,-0.019718845948576928,-0.023473814567923544,0.0258829215362668
1772527368852891100,7.71789111328125,-0.003942600145936012,0.005847556984424591,0.04582242449820041
1772527368862888400,7.727888427734375,0.010384615892171859,0.03549859888255596,0.04525251565575599
1772527368872886300,7.73788623046875,0.03332125484347343,0.06786591400206089,0.060687692935764787
1772527368882884400,7.74788427734375,0.08486731768548487,0.05430032998621463,0.07275806995779276
1772527368892882400,7.75788232421875,0.09045008625388144,0.004954992058873176,0.07337152568101883
1772527368902880300,7.76788037109375,0.06866992386132478,-0.021996143230795857,0.08509381991773843
1772527368912878300,7.77787841796875,0.028441373847424983,-0.027281390157341955,0.06765577838271856
1772527368922876400,7.78787646484375,0.0031619711622595786,-0.02979600332677364,0.05369418078660965
1772527368932873200,7.797873291015625,-0.02207242333739996,-0.027959435549378395,0.04506809899955987
1772527368942871300,7.807871337890625,-0.029937457624077794,-0.02125847660601139,0.06009966391474008
1772527368952869000,7.817869140625,-0.02948153055012226,-0.019025602987408637,0.08941255989968776
1772527368962867200,7.8278671875,-0.030488661766052243,0.014668576821684836,0.11239391477555036
1772527368972865300,7.837865234375,-0.0019683774635195733,0.0332704014390707,0.12365355993658303
1772527368982863000,7.847863037109375,0.045911564086377615,0.004851531684398651,0.10902180799394845
1772527368992861200,7.857861083984375,0.06604658962041139,-0.04072305553257465,0.10344313107877968
1772527369002858200,7.867858154296875,0.05764554876089096,-0.0874199247777462,0.08540829269438982
1772527369012856300,7.877856201171875,0.01401274326145649,-0.08330079902112483,0.061465983831882474
1772527369022854400,7.8878544921875,-0.016837153032422066,-0.04310907388627529,0.049430970384180546
1772527369032852200,7.897852294921875,-0.0005769231051206588,-0.03737199153900146,0.06275047068446875
1772527369042850300,7.907850341796875,0.03814297591149807,-0.04428396288454532,0.062330491706728934
1772527369052848400,7.917848388671875,0.04650076215118169,-0.03502922780513763,0.04305822048187256
1772527369062846200,7.92784619140625,0.018263678704202174,-0.006619125878810883,0.03971533979475498
1772527369072843300,7.93784326171875,0.017571604786813258,-0.01766834315955639,0.02815700394809246
1772527369082841000,7.947841064453125,0.027220892141759392,-0.033223639687895774,-0.003141512896120548
1772527369092839200,7.957839111328125,0.009264964212477207,-0.06128010587096214,-0.02335281853675842
1772527369102837200,7.967837158203125,0.0014043138399720192,-0.08300444642305374,-0.012828209652006626
1772527369112835000,7.9778349609375,-0.01139496197849512,-0.04738835864067077,-0.0003787701845169067
1772527369122833200,7.987833251953125,-0.02139613151103258,-0.009606032735109328,-0.006780161659419536
1772527369132831200,7.997831298828125,-0.006341770242154598,-0.012779402074217796,0.0026478841602802275
1772527369142828300,8.007828369140626,-0.003580488835275173,-0.012906243324279785,0.02630085468739271
1772527369152826400,8.017826416015625,-0.004913491004705429,-0.011775193467736244,0.06182078861892223
1772527369162824200,8.02782421875,-0.0008937339693307876,-0.009175240102410316,0.08342705574929714
1772527369172822300,8.037822265625,0.029445582453906535,-0.013071663019061089,0.08780103304982184
1772527369182820400,8.0478203125,0.04477262318432331,-0.021122283005714414,0.0911976897507906
1772527369192818200,8.057818115234374,0.022270283997058868,-0.03944645972549915,0.08430325406193732
1772527369202816300,8.067816162109375,0.02090688668936491,-0.03731763100326061,0.09206219762563705
1772527369212814300,8.077814453125,0.028538404481112955,-0.025199907708168028,0.10124766686111689
1772527369222811100,8.08781103515625,0.04402881907969713,0.025837036567926405,0.09478373154401779
1772527369232809200,8.097809326171875,0.06042056643217802,0.05211363359689712,0.05942395661026239
1772527369242807000,8.10780712890625,0.07314531570971011,0.028168109863996503,0.03457096264362335
1772527369252805000,8.11780517578125,0.05535656104087829,0.009861468800902365,0.04042582615166902
1772527369262803200,8.12780322265625,0.03547171087563038,-0.026842998740077017,0.034734044250845905
1772527369272801300,8.13780126953125,0.021631109310686587,-0.02006722099483013,0.016879823130369186
1772527369282799400,8.14779931640625,0.004239537265896797,-0.009824059399962424,0.009981880310177802
1772527369292796200,8.157796142578125,0.02123655703514814,-0.01175356615781784,-0.0010997779354453086
1772527369302794200,8.167794189453126,0.0242228793695569,-0.03443593808710575,-0.007756020954251289
1772527369312792300,8.177792236328125,0.024756547854840754,-0.06664309420883655,-0.0050201662495732305
1772527369322790100,8.1877900390625,0.03606763094216585,-0.08513970488607883,-0.004743395134806633
1772527369332788200,8.197788330078126,0.02069119811207056,-0.07735387331545353,-0.022768588908016682
1772527369342786300,8.207786376953125,0.002463759765028953,-0.07588730789422989,-0.0029150106638669965
1772527369352784100,8.2177841796875,0.016695990996062754,-0.06477437772750855,0.02811111897975206
1772527369362781200,8.22778125,0.02720627909451723,-0.02774608505964279,0.01678074667006731
1772527369372779000,8.237779052734375,0.05083674552887678,-0.017788754668831824,0.007911796037852763
1772527369382777000,8.247777099609374,0.07094049914181232,-0.02750292395353317,0.009888649068772792
1772527369392775400,8.257775390625,0.06112813017964363,-0.04012742772698402,-0.0036900866895914074
1772527369402773200,8.267773193359375,0.044937458357214924,-0.06150047062337398,-0.007338380064070224
1772527369412771300,8.277771240234374,0.028144144466519354,-0.047294250616431235,-0.008881517852842807
1772527369422769400,8.287769287109375,0.014459025724232195,0.010493336963653564,-0.005055529823899269
1772527369432766200,8.29776611328125,0.04524053295701742,0.004656885895133018,0.011578501851856708
1772527369442764300,8.307764404296876,0.061920741862058634,-0.03335048093795776,0.0025476386561989785
1772527369452762000,8.31776220703125,0.04762362870126963,-0.033572599256038664,0.028343174169957637
1772527369462760200,8.32776025390625,0.04196224193871021,-0.013812836775183676,0.026803251251578328
1772527369472758300,8.33775830078125,0.04506809899955987,-0.04316694155335426,0.017492402070760724
1772527369482756000,8.347756103515625,0.04809270751774311,-0.04186638034880161,0.029273148496448992
1772527369492754200,8.357754150390624,0.03653554071485996,-0.029326047727465627,0.019361118552088736
1772527369502752300,8.367752197265625,0.058468263320624825,-0.030331425377726554,0.019915245303511617
1772527369512749300,8.377749267578125,0.06415420000255108,-0.02941138792335987,0.037895430891215796
1772527369522747400,8.387747314453126,0.04663140279352665,-0.03737082249522209,0.02705810279548168
1772527369532745500,8.397745361328125,0.018213117560744285,-0.04034370082616806,0.032385143037140365
1772527369542743300,8.407743408203125,0.017435411186516283,-0.053441082808375354,0.035358605889976025
1772527369552741400,8.417741455078126,0.02188888346403837,-0.07416296831965447,0.00816898566931486
1772527369562739200,8.4277392578125,0.03137158208042383,-0.06277531286478043,0.019164719197154043
1772527369572736300,8.437736328125,0.02928542345613241,-0.034084055909514424,0.025263328333199022
1772527369582734300,8.447734375,0.0445572268679738,-0.014552841487526893,0.04849719666540622
1772527369592732200,8.457732177734375,0.05262509025037288,0.012829086434841156,0.04571867186278104
1772527369602730200,8.467730224609374,0.05114566534757614,0.041244449058175085,0.04708323821425438
1772527369612728300,8.477728271484375,0.0743333564504981,0.0215063138872385,0.03310118235200643
1772527369622726100,8.48772607421875,0.08956044393777847,0.0011363105535507202,0.02095306391865015
1772527369632724200,8.49772412109375,0.06609393589347601,-0.05873685112893581,0.0024731121152639386
1772527369642722000,8.50772216796875,0.028546587787568568,-0.06373275972008705,-0.022995675662159917
1772527369652719400,8.51771923828125,-0.0032741993650794027,-0.07097030975818634,-0.02724368849545717
1772527369662717400,8.527717529296876,-0.02922667900621891,-0.0921340938180685,-0.03737257606089115
1772527369672715300,8.53771533203125,-0.03739800276309251,-0.025913024413585662,-0.01726560757756233
1772527369682713300,8.54771337890625,0.03374795582294464,-0.02968552868962288,-0.012601122897863387
1772527369692711400,8.55771142578125,0.06999766533374786,-0.01156885724067688,0.01907557960897684
1772527369702709200,8.567709228515625,0.08433043432980776,-0.013020225092768668,0.040943712545931335
1772527369712707300,8.577707275390624,0.08019523422122002,-0.0018915128350257872,0.040221828012168406
1772527369722704100,8.5877041015625,0.0706993838623166,-0.03821428758203983,0.0253819862768054
1772527369732702200,8.5977021484375,0.024294775561988353,-0.05184416900575161,0.01829699645191431
1772527369742700300,8.6077001953125,0.0003723404437303543,-0.06675707597732544,0.030933775185048577
1772527369752698000,8.617697998046875,-0.001384147834777832,-0.05107552272081375,0.042489188422262666
1772527369762696200,8.6276962890625,-0.016404899094998836,0.006101239484548568,0.06338993763178587
1772527369772694300,8.6376943359375,0.008109364436566829,0.0020955109745264054,0.062079731816053384
1772527369782692000,8.647692138671875,0.05129793329983949,-0.015781506499648094,0.024912322938442227
1772527369792689400,8.657689453125,0.028993747033178804,-0.0350134457141161,0.035382571287453174
1772527369802687200,8.667687255859375,0.012390695017576217,-0.04928104051947593,0.032089959482848644
1772527369812685300,8.677685302734375,-0.0095288758456707,-0.03355097194612026,0.025980244430899618
1772527369822683400,8.687683349609374,-0.009822013573348522,-0.0421370139837265,0.04381897572129965
1772527369832681200,8.69768115234375,-0.0004319616764783859,0.0028068741142749784,0.08008885123729706
1772527369842679300,8.70767919921875,0.004834288288652897,0.01790565904676914,0.11098726284801959
1772527369852677400,8.717677490234376,0.033311610232293606,0.02260521503984928,0.10951543672978878
1772527369862674200,8.727674072265625,0.042376375697553155,0.009565700724720955,0.07805150019079446
1772527369872672300,8.73767236328125,0.016374503956735134,-0.030326164680719372,0.03569616728127002
1772527369882670000,8.747670166015626,-0.007383388249576091,0.008928571864962577,0.02523088736832142
1772527369892668200,8.757668212890625,-0.0017769465446472166,0.011149170523881912,0.004099836534261703
1772527369902666200,8.767666259765624,0.0416597518607974,-0.0021960487395524977,-0.017241349919140336
1772527369912664000,8.7776640625,0.03741583068072796,-0.03568915301859379,-0.0046396424993872636
1772527369922662100,8.787662109375,0.014701310047507285,-0.03877425955235958,0.01102817449271679
1772527369932660200,8.79766015625,-0.0017845453292131422,-0.048996962881088256,0.03207359286993742
1772527369942657300,8.8076572265625,0.0014554595053195953,-0.06530161647200584,0.03957914619445801
1772527369952655400,8.8176552734375,-0.00450169533342123,-0.07428630243837833,0.03347118470817804
1772527369962653200,8.827653076171876,-0.005442775575816631,-0.0697609339684248,0.03320113559514284
1772527369972651300,8.8376513671875,0.008048281899094581,-0.03132569711208343,0.035816871051490305
1772527369982649300,8.8476494140625,0.034931612649559976,-0.004291559714078903,0.031552783866226675
1772527369992647200,8.857647216796876,0.051470367257297034,-0.02705342662036419,0.0178857853025198
1772527370002645200,8.867645263671875,0.02804886739850044,-0.045594460961222646,0.020664017844200133
1772527370012642000,8.87764208984375,0.0028007366344332692,-0.03822305541038513,0.011871931840479374
1772527370022640000,8.88764013671875,-0.016058277614414692,-0.021821955707669257,0.029413726010918614
1772527370032638200,8.89763818359375,-0.012428104418516158,-0.008501870885491371,0.03250760037302971
1772527370042636000,8.907635986328126,0.008336158929765225,0.001491115340590477,0.033226270036399365
1772527370052634000,8.917634033203125,0.020978198359906674,-0.014230185404419898,0.04460691122859716
1772527370062632400,8.927632568359375,0.012455284686386585,-0.011027005448937416,0.0448407199844718
1772527370072630300,8.93763037109375,0.017123276497423647,-0.010551789152622223,0.07591010424792766
1772527370082627300,8.94762744140625,0.007984861274063587,-0.014522446349263191,0.08361293371021747
1772527370092625200,8.957625244140624,-0.018717559951543807,-0.037462007910013195,0.07579612247943877
1772527370102623200,8.967623291015625,0.0033870120897889137,-0.03849368904531002,0.09725655139833689
1772527370112621300,8.977621337890625,-0.0013514146089553833,-0.019608955833315848,0.10185381606072187
1772527370122619100,8.987619140625,0.024041093061864374,-0.013986439776420593,0.06387158366888761
1772527370132617200,8.9976171875,0.03902297361642122,0.013853753307461738,0.049394145505130285
1772527370142615300,9.007615234375,0.053180970567464826,0.015776245802640913,0.02162672539651394
1772527370152613000,9.017613037109374,0.06233282979428768,0.009702478846907616,-0.006248246739804744
1772527370162610200,9.027610107421875,0.04806114333570003,-0.009755670338869094,-0.00006634323447942733
1772527370172608300,9.037608154296874,0.0027525135785341263,-0.05545125358700752,0.007511398543417453
1772527370182606300,9.0476064453125,-0.03025485301017761,-0.05716507176756858,0.04132832794934511
1772527370192604400,9.0576044921875,-0.03982961382418871,-0.06075169808268547,0.057441258360445495
1772527370202602200,9.067602294921874,-0.04570493559837341,-0.05696750336885452,0.08656652281880378
1772527370212600300,9.077600341796876,-0.04507891265451908,-0.04114508033692837,0.10733750816881656
1772527370222598400,9.087598388671875,-0.017201310169696806,-0.010216273587942123,0.10281944622248411
1772527370232595200,9.09759521484375,0.01255436114668846,0.024137831434607505,0.09976385804414749
1772527370242593300,9.10759326171875,0.048553310766816134,0.030696167036890983,0.07677373533993959
1772527370252591000,9.117591064453125,0.06703355483114719,0.013584288716316222,0.03233049024045467
1772527370262589200,9.127589111328126,0.05572393304854631,-0.014603694891929626,0.01723696600496769
1772527370272587300,9.137587158203125,0.020028058028221128,-0.035438393127918244,0.009669161099195479
1772527370282585000,9.147585205078125,0.002034136176109314,-0.06713116998672485,-0.0049193362236022945
1772527370292583200,9.157583251953126,0.011674071180820464,-0.05601999338567257,-0.008336451190710067
1772527370302580500,9.16758056640625,0.009690203887224197,-0.052716860187053675,-0.012209493231773375
1772527370312578300,9.177578369140624,0.0064256491333246225,-0.05564297676682472,-0.01767038898617029
1772527370322576400,9.187576416015625,0.022239888858795166,-0.06063946987986564,0.006090133568644523
1772527370332574200,9.19757421875,-0.007797522008419037,-0.060572249862551684,0.033848785848915576
1772527370342572300,9.207572265625,-0.02483604283183813,-0.03469721937179565,0.05073182384967804
1772527370352570400,9.2175703125,-0.028510347430408,-0.018815175107121468,0.06399871717989444
1772527370362568200,9.227568115234375,0.0016036358043551445,0.011099486163258551,0.06759820297658443
1772527370372565200,9.237565185546876,0.06863280672132968,0.037674189355969424,0.06351619435995817
1772527370382563300,9.247563232421875,0.12003946109265089,0.03612637539207935,0.03779664669185877
1772527370392561200,9.25756103515625,0.11726941185742616,-0.010225041416287422,0.020490122582018374
1772527370402559200,9.267559326171876,0.058042146863043306,-0.004483282893896103,0.025547990493476388
1772527370412557000,9.27755712890625,0.023925065466761587,-0.0031149171501398086,0.03681698800474405
1772527370422555100,9.28755517578125,0.020879998682439328,-0.00800911893248558,0.04291296679228544
1772527370432553200,9.29755322265625,0.03196720988601446,-0.005842296287417411,0.029812077678740022
1772527370442550300,9.30755029296875,0.05344225185215473,-0.012435703203082083,0.032745208521187306
1772527370452548400,9.31754833984375,0.05122662162929773,-0.04010521589517593,0.018488719631731508
1772527370462546400,9.32754638671875,0.0254866156950593,-0.029771453407406806,0.009862053322792053
1772527370472544300,9.337544189453125,0.003805529762804508,-0.016671148815751075,0.016883038000762463
1772527370482540000,9.3475400390625,-0.008234452120959758,-0.010594459250569344,0.0036506314620375633
1772527370492538000,9.3575380859375,-0.012490355999767779,-0.0112847796022892,0.017613982623815534
1772527370502536200,9.3675361328125,-0.00550122776478529,-0.02895779893696308,0.025972937907278535
1772527370512533200,9.377533203125,0.01629500897973776,-0.048883565634489055,0.048665246708691115
1772527370522531300,9.38753125,0.02601706930994987,-0.07514788770377635,0.036465982609987256
1772527370532529400,9.397529296875,0.01796937193274498,-0.0662660775899887,0.049938627645373344
1772527370542527200,9.40752734375,0.020668401758372784,-0.03388999464213848,0.03371434581428766
1772527370552525300,9.417525390625,0.023605624254047868,0.009060089290142058,0.04873948098868131
1772527370562523100,9.427523193359375,0.044486499719321726,0.0009574468553066253,0.07440174551159143
1772527370572521200,9.437521240234375,0.07234890463501215,-0.00047229368686676023,0.08544716340005397
1772527370582518300,9.447518310546876,0.06077566348016262,0.0013040683358907699,0.0777972331687808
1772527370592516000,9.45751611328125,0.04595481870621443,-0.0291746565580368,0.060630994312465186
1772527370602514200,9.46751416015625,0.026495500476658343,-0.05883446628451347,0.03339373555779457
1772527370612512300,9.47751220703125,0.006935352221131325,-0.06442074198424816,-0.0040939913153648375
1772527370622510000,9.487510009765625,-0.008611176478862762,-0.06225625742673874,-0.014866145220398901
1772527370632508200,9.497508056640624,-0.0072740826562047,-0.033228315863013266,-0.0169575645416975
1772527370642506200,9.50750634765625,-0.0021159692406654356,0.04363397454321384,0.017936346445977688
1772527370652503300,9.51750341796875,0.03886252235770225,0.011108838513493537,0.009603986908495425
1772527370662501400,9.52750146484375,0.04884966336488723,-0.007023615026473999,0.006001870763301849
1772527370672499200,9.537499267578125,0.058682198332250114,-0.019585574957728384,0.0013917466193437576
1772527370682497300,9.547497314453125,0.053690673655271526,-0.04368132081627846,-0.0069184010863304135
1772527370692495400,9.557495361328124,0.04404255534410476,-0.048180385801196095,0.007070376777648925
1772527370702493200,9.5674931640625,0.032849837939441205,-0.06774784058034419,0.007873509854078293
1772527370712491300,9.5774912109375,0.01383534086793661,-0.08353051612377166,0.0037599370554089544
1772527370722489300,9.5874892578125,0.010822130526602268,-0.09047522069513797,-0.01092617542296648
1772527370732486100,9.597486083984375,0.016098025102913378,-0.09468494734466075,-0.004821428807079792
1772527370742484200,9.607484130859374,0.029490590639412402,-0.07823591684699058,-0.005605564922094345
1772527370752482800,9.61748291015625,0.03580956452786922,-0.062408233118057245,-0.012039981883764267
1772527370762481000,9.62748095703125,0.010626023432612418,-0.0466769955009222,-0.016786007367074487
1772527370772478700,9.637478759765624,0.017584464268386363,0.00727671300470829,0.0017886369824409484
1772527370782476800,9.647476806640626,0.051771396030485625,0.03938508492708206,0.0004249474138021469
1772527370792475000,9.657474853515625,0.08545534670650959,0.04844634326100349,0.010630699607729912
1772527370802472000,9.667471923828124,0.0801958187431097,0.009985387441515921,0.028458324982225894
1772527370812470000,9.677469970703125,0.03392828082591295,-0.009435936865210532,0.032065409563481806
1772527370822467800,9.6874677734375,0.005318856935203075,-0.040377018573880194,0.03197480867058038
1772527370832466000,9.6974658203125,-0.0007718611553311348,-0.057038230517506595,0.0439908251568675
1772527370842464000,9.707464111328125,0.005785013142228126,-0.05871639286279678,0.05497632955163717
1772527370852461800,9.7174619140625,0.02083937441110611,-0.06755377931296826,0.05524579414278268
1772527370862460000,9.7274599609375,0.03356967664659023,-0.027418168279528615,0.06482143173962832
1772527370872456700,9.737456787109375,0.03725099550783634,-0.0045078328132629394,0.06626900019943714
1772527370882457900,9.747457763671875,0.07287059042155743,0.0031388825476169582,0.04292173462063074
1772527370892455000,9.757454833984376,0.0705164285108447,0.00848491975069046,0.008140636357665062
1772527370902453000,9.767452880859375,0.0655079526990652,-0.00889583863914013,-0.037089667466282845
1772527370912450800,9.777450927734375,0.04234218116700649,-0.02698796016871929,-0.052421092110872265
1772527370922449000,9.787448974609376,0.019043430905044078,-0.04957271694242954,-0.04346884710937738
1772527370932447000,9.797447021484375,0.0010953940212726592,-0.05184709161520004,-0.030727438957989215
1772527370942444800,9.80744482421875,-0.020285832181572913,-0.09423545001149176,-0.027085283063352106
1772527370952443000,9.81744287109375,-0.036979192829132077,-0.13662205484211445,-0.024969898344576358
1772527370962439700,9.827439697265625,-0.07347966223061084,-0.14157178620398045,0.012395955714583396
1772527370972437800,9.837437744140624,-0.06191694246977567,-0.12174071205258369,0.03833499135226011
1772527370982435800,9.847435791015625,-0.036568858462572094,-0.08083119403719902,0.04456687147915363
1772527370992433700,9.85743359375,-0.014654256035387515,-0.037217093238234515,0.07476298003941774
1772527371002431700,9.867431640625,0.01792845540046692,0.01350771634876728,0.09153174401074647
1772527371012430000,9.87743017578125,0.04994856451749801,0.07006079369783401,0.12749854492694138
1772527371022428000,9.887427978515625,0.08681611366569995,0.11251929472088813,0.11216624349951744
1772527371032425000,9.897425048828126,0.10791121640354394,0.10514262847304344,0.0890650616362691
1772527371042422800,9.9074228515625,0.1285071374475956,0.059490299844741815,0.06831307324767112
1772527371052420900,9.9174208984375,0.0913496654421091,0.0175894327044487,0.04590659565031528
1772527371062419000,9.9274189453125,0.030884383085370063,-0.023276830691099166,0.03498012796640396
1772527371072416800,9.937416748046875,-0.019741934563219547,-0.028259879800677297,0.03437456328868866
1772527371082414800,9.947414794921874,-0.02239215681105852,-0.035222120028734205,0.04793108721524477
1772527371092413000,9.957412841796875,-0.008162848189473151,-0.029936288580298422,0.02383651040047407
1772527371102410800,9.96741064453125,-0.016249708533287048,-0.044193361991643906,0.023577859464287757
1772527371112407800,9.97740771484375,-0.036107378430664534,-0.044646950978040695,0.046642216448485846
1772527371122406000,9.987406005859375,-0.02394640051573515,-0.003523497951030731,0.05628653536736965
1772527371132404000,9.997404052734375,0.0038370939448475836,0.007798106530308723,0.025992519390583037
1772527371142402000,10.007402099609376,0.030794074453413485,-0.009189268627762794,-0.00993453403711319
1772527371152400000,10.01739990234375,0.0384334832906723,-0.043378538477420805,-0.017126491367816923
1772527371162398000,10.02739794921875,0.022254209645092487,-0.07333528532385826,-0.022268822692334652
1772527371172396000,10.03739599609375,-0.033116964443027974,-0.05421498979032039,-0.02398380991667509
1772527371182392800,10.047392822265625,-0.05069762931913137,-0.09533025951087475,0.0006853519156575202
1772527371192391000,10.057390869140624,-0.07355944946855306,-0.08713292452991009,0.05450988108366728
1772527371202388700,10.067388671875,-0.08370207329839467,-0.04206044161617756,0.1064297456741333
1772527371212386800,10.07738671875,-0.023996084876358507,-0.06264788709282874,0.140233523337543
1772527371222385000,10.087385009765624,0.006958440835773945,-0.03714695061147213,0.13640578174293042
1772527371232382700,10.0973828125,0.006236848562955856,0.009454057043790817,0.1490536663919687
1772527371242380800,10.107380859375,0.009860592018067837,0.004991232416033745,0.17162264107465744
1772527371252379000,10.11737890625,0.03484773375838995,0.037972295519709584,0.15020225190520287
1772527371262376000,10.1273759765625,0.06496230151504277,0.03428922309279442,0.08276888410151004
1772527371272374000,10.1373740234375,0.0715101157233119,-0.015995441511273384,0.013233283321559429
1772527371282371800,10.147371826171875,0.03940378962755203,-0.005469955843687057,-0.019478899712860584
1772527371292370000,10.157369873046875,0.015849018777906895,-0.008162263667583465,-0.028488720120489596
1772527371302368000,10.167367919921874,0.00601531476676464,-0.003146481332182884,-0.022909166422486305
1772527371312365800,10.17736572265625,-0.018254034093022346,0.0017097265273332595,-0.018903730173408986
1772527371322364000,10.187364013671875,-0.03680120591372251,-0.00800911893248558,-0.006129588796198368
1772527371332361000,10.19736083984375,-0.021024667850136756,0.008114917394518853,0.05229892703592777
1772527371342358800,10.20735888671875,0.008387012334167956,-0.0012327566653490066,0.07476794847548007
1772527371352356900,10.21735693359375,0.032469898711144925,0.027670097213983533,0.06748772833943367
1772527371362354700,10.227354736328126,0.08465338267385959,0.03199439015388489,0.05570055217295885
1772527371372352800,10.237352783203125,0.08783405853658914,0.00021510405540466307,0.031016777293384073
1772527371382350800,10.247350830078124,0.06519581800997257,-0.03013034984767437,0.005217734648287296
1772527371392348700,10.2573486328125,0.045018414638936514,-0.057279638057947155,-0.022248072165250776
1772527371402346000,10.267345947265625,0.010077157378196715,-0.04763035070300102,-0.00014525368958711622
1772527371412344000,10.277343994140624,0.005023381119966507,-0.04681611171066761,0.010532499930262566
1772527371422342000,10.287341796875,0.024264672684669492,-0.05179039299190044,0.017043781520426272
1772527371432340000,10.297340087890625,0.03028232553899288,-0.06045066930949688,0.023524083450436592
1772527371442337800,10.307337890625,0.01715104128718376,-0.05878770453333854,0.0019657471150159836
1772527371452335900,10.3173359375,0.017143442502617835,-0.04543897813856602,0.02855038717985153
1772527371462334000,10.327333984375,0.05262596703320741,-0.03789806123971939,0.03364128057807684
1772527371472331800,10.337331787109376,0.049530339105427264,-0.053556233620643615,0.0005412672698497772
1772527371482328800,10.347328857421875,0.0230292856708169,-0.008836801928281783,-0.01409457632601261
1772527371492327000,10.357326904296874,0.012684709528088568,-0.030931729358434676,0.011914601938426493
1772527371502324700,10.36732470703125,0.01047697035074234,-0.04632978949844837,-0.01685702677667141
1772527371512322800,10.37732275390625,0.0031821371674537655,0.050153731700778005,0.06425152289718389
1772527371522321000,10.38732080078125,0.0196153855741024,0.02886719804406166,-0.014752747973799704
1772527371532318700,10.397318603515625,0.023774843341112135,0.04153203382790088,-0.0065276482030749315
1772527371542316800,10.40731689453125,0.06030979953408241,-0.016490531551837922,-0.011472411128878594
1772527371552313900,10.41731396484375,0.03988689696937799,-0.10322188954353331,-0.03458703699558973
1772527371562312000,10.42731201171875,-0.010090309120714664,-0.11885726557075976,-0.0014759177714586257
1772527371572310000,10.43731005859375,-0.06337240197509526,-0.10151800823509692,0.008470891225337982
1772527371582307800,10.447307861328126,-0.06967296342402696,-0.0968663830369711,0.025953648684918878
1772527371592306000,10.457305908203125,-0.021949673740565775,-0.06808861684203148,0.012779694335162638
1772527371602304000,10.467303955078124,0.024321955829858778,-0.04511456848978996,0.021240064166486262
1772527371612301800,10.4773017578125,0.04543225613683462,-0.03700082013905048,0.028547464570403098
1772527371622299000,10.487298828125,0.06141951434165239,0.009618307694792747,0.03593172960281372
1772527371632296700,10.497296630859376,0.07792991963773965,0.025984336084127424,0.05284545500278472
1772527371642294800,10.507294677734375,0.075875909717381,0.03346913888156414,0.08153349708765745
1772527371652292900,10.51729296875,0.05927490352839231,-0.003084522011876106,0.026989421473443506
1772527371662290700,10.527290771484376,0.04769172550141811,-0.015609072542190551,0.034493221232295035
1772527371672288800,10.537288818359375,0.00710807843953371,-0.030616672059893605,0.06021598377078771
1772527371682287000,10.547287109375,-0.005357435379922389,-0.061328621187806125,0.03495090187191963
1772527371692285000,10.557284912109376,-0.04554536112248897,-0.02226268521249294,0.07031155358850956
1772527371702282000,10.567281982421875,-0.020460604226589203,-0.052989247387647626,0.08971037380248308
1772527371712279800,10.57727978515625,0.02496492990851402,-0.009647533789277076,0.10126549477875232
1772527371722278000,10.58727783203125,0.03433949197530746,-0.008247603863477707,0.10187719693630932
1772527371732276000,10.59727587890625,0.07270809333622455,-0.036138065829873084,0.061464522527158255
1772527371742273800,10.607273681640624,0.05070435132086277,-0.059306175449490545,0.04999854113906622
1772527371752271600,10.617271728515625,-0.006270750832557678,-0.11479776104688644,-0.032058395300805564
1772527371762269700,10.627269775390625,-0.058954877793788905,-0.0834936912447214,-0.03693009299039841
1772527371772266800,10.637266845703126,-0.038189737662672994,-0.0579880785882473,-0.028895255094766616
1772527371782264800,10.647264892578125,0.09028817369043826,-0.08777940573990345,-0.046479719363152976
1772527371792262700,10.6572626953125,0.15764730721414089,-0.08922200576364994,-0.10355214441120623
1772527371802260700,10.6672607421875,0.03723813602626323,0.10593991633057594,-0.06340571972280741
1772527371812258800,10.6772587890625,0.007061316688358783,0.12791618581712244,0.018719313517212868
1772527371822256600,10.687256591796874,0.06897329072207212,-0.00630114597082138,-0.010370295105874538
1772527371832254700,10.697254638671875,0.03186053464114666,-0.009871990194916724,0.009840718273818492
1772527371842252800,10.707252685546875,0.0072784665703773494,0.005246668481826782,0.012050795538723468
1772527371852249600,10.71724951171875,0.01090659393966198,-0.019084639698266983,0.022904490247368813
1772527371862247700,10.72724755859375,-0.046258477827906604,-0.03137245886325836,0.01246814416795969
1772527371872245500,10.73724560546875,-0.10096972670257091,-0.05828326214253902,0.07846358812302351
1772527371882243600,10.74724365234375,-0.08059387814998627,-0.10841361296772956,0.08311930497437715
1772527371892241700,10.75724169921875,-0.044453474232554434,-0.18560440467596054,0.007664543278515339
1772527371902239500,10.767239501953124,0.020921791997551918,0.015950433325767517,0.18219284266680477
