time,seconds_elapsed,z,y,x
1772567392840395800,0.078395751953125,0.35411912202835083,0.48977768421173096,0.9791370630264282
1772567392850424800,0.0884248046875,0.30785393714904785,-0.021967245265841484,0.7490211129188538
1772567392860452600,0.09845263671875,0.24505631625652313,-0.6570906639099121,0.38260000944137573
1772567392870481700,0.108481689453125,0.19632083177566528,-1.1086475849151611,0.06647476553916931
1772567392880510700,0.1185107421875,0.15641017258167267,-1.1664783954620361,-0.02631962113082409
1772567392890538800,0.128538818359375,0.0675574243068695,-0.6857859492301941,0.24674655497074127
1772567392900567800,0.13856787109375,-0.04770844802260399,0.2367362380027771,0.8434456586837769
1772567392910596900,0.148596923828125,-0.09520317614078522,1.1377924680709839,1.5358130931854248
1772567392920624600,0.158624755859375,0.03981615602970123,1.7693731784820557,2.092224597930908
1772567392930653700,0.16865380859375,0.30510568618774414,2.1304800510406494,2.3450396060943604
1772567392940681700,0.178681640625,0.5942723155021667,2.2432668209075928,2.233614444732666
1772567392950710800,0.188710693359375,0.8433555364608765,2.0740435123443604,1.7992981672286987
1772567392960739800,0.19873974609375,0.9870280623435974,1.5095008611679077,1.1256011724472046
1772567392970767600,0.208767578125,0.9882779717445374,0.6990877985954285,0.36638981103897095
1772567392980797000,0.218796875,0.8356510996818542,-0.051420263946056366,-0.3364926874637604
1772567392990825700,0.22882568359375,0.598440408706665,-0.5963682532310486,-0.8742997050285339
1772567393000853800,0.238853759765625,0.33669590950012207,-0.9276921153068542,-1.2227282524108887
1772567393010882800,0.2488828125,0.10201084613800049,-1.0021288394927979,-1.3960896730422974
1772567393020910800,0.258910888671875,-0.04360095039010048,-0.9684710502624512,-1.4151173830032349
1772567393030940000,0.26893994140625,-0.08232738077640533,-0.9132698774337769,-1.290213942527771
1772567393040968700,0.27896875,-0.0392875075340271,-0.8267897367477417,-1.070465326309204
1772567393050996700,0.288996826171875,0.047646962106227875,-0.8089663982391357,-0.8398668169975281
1772567393061025800,0.29902587890625,0.144887775182724,-0.8789066076278687,-0.6383310556411743
1772567393071054600,0.3090546875,0.2107165902853012,-0.8654183149337769,-0.47853392362594604
1772567393081083000,0.319082763671875,0.17253723740577698,-0.7629244327545166,-0.41389209032058716
1772567393091111700,0.329111572265625,0.011709779500961304,-0.7156243920326233,-0.4599875509738922
1772567393101139700,0.3391396484375,-0.226972296833992,-0.7896245718002319,-0.6268013119697571
1772567393111168500,0.34916845703125,-0.42984962463378906,-0.8620942234992981,-0.8440134525299072
1772567393121197800,0.35919775390625,-0.534914493560791,-0.8502993583679199,-1.0377531051635742
1772567393131225900,0.369225830078125,-0.5418260097503662,-0.7412737011909485,-1.1590694189071655
1772567393141254700,0.379254638671875,-0.4987946152687073,-0.5032030344009399,-1.160597801208496
1772567393151283700,0.38928369140625,-0.40763407945632935,-0.18490177392959595,-1.0183488130569458
1772567393161311700,0.399311767578125,-0.2735481858253479,0.17460232973098755,-0.7250868082046509
1772567393171341000,0.409341064453125,-0.12637117505073547,0.5192007422447205,-0.34472179412841797
1772567393181368800,0.419368896484375,-0.01964552327990532,0.759532630443573,0.04298732429742813
1772567393191398000,0.42939794921875,0.03892896696925163,0.9028245806694031,0.3846655786037445
1772567393201426700,0.4394267578125,0.05799746885895729,1.0174715518951416,0.6556376814842224
1772567393211455000,0.449455078125,0.0182468444108963,1.076202154159546,0.8270288705825806
1772567393221483800,0.45948388671875,-0.07971461117267609,1.0777548551559448,0.8648441433906555
1772567393231511800,0.46951171875,-0.20652350783348083,1.0838909149169922,0.78714519739151
1772567393241540900,0.479540771484375,-0.3079143166542053,1.1025855541229248,0.6076129674911499
1772567393251569700,0.489569580078125,-0.3436337411403656,1.0635175704956055,0.37516283988952637
1772567393261598000,0.499597900390625,-0.3184010982513428,0.8523547649383545,0.1427604854106903
1772567393271626800,0.509626708984375,-0.22310160100460052,0.6032465100288391,0.005031655542552471
1772567393281655800,0.51965576171875,-0.08052847534418106,0.3530360758304596,0.04422300308942795
1772567393291683800,0.529683837890625,0.061812084168195724,0.10468888282775879,0.24727238714694977
1772567393301712600,0.539712646484375,0.1556863784790039,-0.06098983809351921,0.567251980304718
1772567393311741000,0.549740966796875,0.1598166674375534,-0.13028711080551147,0.9148916602134705
1772567393321769700,0.559769775390625,0.08398368954658508,-0.02590211108326912,1.1582728624343872
1772567393331798800,0.569798828125,-0.016025906428694725,0.29049307107925415,1.2041023969650269
1772567393341826800,0.579826904296875,-0.04787491634488106,0.6625878214836121,1.0431958436965942
1772567393351855900,0.58985595703125,-0.01368495263159275,0.9563374519348145,0.7031250596046448
1772567393361885000,0.599885009765625,0.05038830637931824,1.1975834369659424,0.2679597735404968
1772567393371912700,0.60991259765625,0.16735805571079254,1.3067121505737305,-0.09061256051063538
1772567393381941800,0.619941650390625,0.32278865575790405,1.196570634841919,-0.3054441511631012
1772567393391969800,0.6299697265625,0.4529888331890106,0.7993525266647339,-0.39684098958969116
1772567393401998800,0.639998779296875,0.49005311727523804,0.229882150888443,-0.40488240122795105
1772567393412028000,0.65002783203125,0.44532549381256104,-0.32624006271362305,-0.34107506275177
1772567393422055700,0.6600556640625,0.37371283769607544,-0.7516337633132935,-0.2329171746969223
1772567393432084700,0.670084716796875,0.3164222538471222,-1.062092661857605,-0.12250781059265137
1772567393442113000,0.680113037109375,0.29675668478012085,-1.2536588907241821,-0.06612442433834076
1772567393452141800,0.690141845703125,0.2848585247993469,-1.3447058200836182,-0.06816355139017105
1772567393462171000,0.7001708984375,0.28957444429397583,-1.4016902446746826,-0.1257714480161667
1772567393472198700,0.71019873046875,0.31650659441947937,-1.4891504049301147,-0.21422810852527618
1772567393482227700,0.720227783203125,0.38330772519111633,-1.5434777736663818,-0.2872120440006256
1772567393492256800,0.7302568359375,0.48705607652664185,-1.4644279479980469,-0.3028980791568756
1772567393502284800,0.740284912109375,0.615634024143219,-1.2423865795135498,-0.26775285601615906
1772567393512313900,0.75031396484375,0.7527060508728027,-0.9699963927268982,-0.23092021048069
1772567393522341600,0.760341552734375,0.8718441724777222,-0.7615785002708435,-0.2171924114227295
1772567393532370700,0.77037060546875,0.9556218385696411,-0.6293041110038757,-0.22680503129959106
1772567393542400000,0.78039990234375,0.9861368536949158,-0.5268666744232178,-0.244780033826828
1772567393552427800,0.790427734375,0.9303823709487915,-0.4568219482898712,-0.3064650595188141
1772567393562456800,0.800456787109375,0.8126062154769897,-0.36734721064567566,-0.427925705909729
1772567393572484600,0.810484619140625,0.6801179647445679,-0.22616317868232727,-0.5851795077323914
1772567393582514000,0.820513916015625,0.5527730584144592,-0.0016376571729779243,-0.7344262599945068
1772567393592543000,0.83054296875,0.42659977078437805,0.29959240555763245,-0.8546542525291443
1772567393602570800,0.84057080078125,0.2993887960910797,0.6141386032104492,-0.9400284886360168
1772567393612599800,0.850599853515625,0.19744113087654114,0.8333481550216675,-0.9904538989067078
1772567393622628900,0.86062890625,0.12129257619380951,0.8773369193077087,-1.0020015239715576
1772567393632657000,0.870656982421875,0.06795304268598557,0.7601587176322937,-0.9495617747306824
1772567393642686000,0.88068603515625,0.014114316552877426,0.5562034249305725,-0.8231263756752014
1772567393652713700,0.890713623046875,-0.020887911319732666,0.27563583850860596,-0.6035916209220886
1772567393662742800,0.90074267578125,-0.05996926873922348,-0.006506104022264481,-0.3015258014202118
1772567393672771800,0.910771728515625,-0.11441739648580551,-0.14395159482955933,0.029424473643302917
1772567393682799900,0.9207998046875,-0.15265586972236633,-0.13980744779109955,0.3704281449317932
1772567393692829000,0.930828857421875,-0.13957402110099792,-0.08534044772386551,0.6959971785545349
1772567393702857700,0.940857666015625,-0.12121658772230148,0.04114372283220291,0.9561662077903748
1772567393712885800,0.9508857421875,-0.12862570583820343,0.2373475730419159,1.1087584495544434
1772567393722914800,0.960914794921875,-0.14556393027305603,0.4607875943183899,1.1351972818374634
1772567393732942800,0.97094287109375,-0.1710306704044342,0.6839330792427063,1.0502469539642334
1772567393742972000,0.980971923828125,-0.2022034078836441,0.8749251961708069,0.9003821015357971
1772567393753000700,0.991000732421875,-0.23008356988430023,0.9853885769844055,0.7443476319313049
1772567393763028700,1.00102880859375,-0.27017346024513245,0.9975965023040771,0.6060935854911804
1772567393773058000,1.01105810546875,-0.2782972753047943,0.9788485765457153,0.5252156257629395
1772567393783085800,1.0210859375,-0.23946493864059448,1.0098813772201538,0.521821916103363
1772567393793115000,1.031114990234375,-0.15468423068523407,0.9567441940307617,0.5275720357894897
1772567393803143700,1.041143798828125,0.02476729452610016,0.7187275886535645,0.5037556290626526
1772567393813172000,1.051171875,0.2565310001373291,0.4593251347541809,0.4934556782245636
1772567393823201000,1.061200927734375,0.5169559717178345,0.28806522488594055,0.5700079202651978
1772567393833229800,1.071229736328125,0.7726755142211914,0.2209889441728592,0.7087334990501404
1772567393843257900,1.0812578125,1.0231127738952637,0.11144993454217911,0.8031529188156128
1772567393853286700,1.09128662109375,1.2180405855178833,-0.03482291102409363,0.7636188864707947
1772567393863315000,1.10131494140625,1.295339584350586,-0.15104378759860992,0.5827505588531494
1772567393873343700,1.11134375,1.2337011098861694,-0.1930467188358307,0.31132543087005615
1772567393883372800,1.121372802734375,1.0584651231765747,-0.1697179526090622,0.006814807653427124
1772567393893400800,1.13140087890625,0.809486985206604,-0.12118036299943924,-0.27561306953430176
1772567393903429600,1.1414296875,0.5795952081680298,-0.09238892793655396,-0.4818378984928131
1772567393913458000,1.1514580078125,0.44451281428337097,-0.15100984275341034,-0.5891939997673035
1772567393923486700,1.16148681640625,0.43453022837638855,-0.27581703662872314,-0.604457676410675
1772567393933515800,1.171515869140625,0.5132554769515991,-0.4049904942512512,-0.5711148381233215
1772567393943543800,1.181543701171875,0.6601094007492065,-0.5363487601280212,-0.5270251631736755
1772567393953572900,1.19157275390625,0.837658703327179,-0.6657788157463074,-0.5089383721351624
1772567393963601000,1.201600830078125,1.0033208131790161,-0.7762893438339233,-0.5365568995475769
1772567393973629700,1.211629638671875,1.0940428972244263,-0.8021619319915771,-0.6234790682792664
1772567393983658800,1.22165869140625,1.0787630081176758,-0.710050106048584,-0.7470095753669739
1772567393993687000,1.23168701171875,0.964375913143158,-0.5358928442001343,-0.8776918053627014
1772567394003715800,1.2417158203125,0.7880043387413025,-0.33353546261787415,-1.003485918045044
1772567394013745000,1.251744873046875,0.5904222130775452,-0.14571397006511688,-1.1031161546707153
1772567394023772700,1.261772705078125,0.4033447802066803,0.006860119290649891,-1.1659947633743286
1772567394033801700,1.2718017578125,0.2521980106830597,0.1045306846499443,-1.1790351867675781
1772567394043830000,1.281830078125,0.13899049162864685,0.16298414766788483,-1.1422481536865234
1772567394053858800,1.29185888671875,0.06266971677541733,0.1825667917728424,-1.0421712398529053
1772567394063888000,1.301887939453125,0.012012130580842495,0.20529741048812866,-0.8837721943855286
1772567394073915600,1.31191552734375,-0.012363689951598644,0.2208152711391449,-0.6957661509513855
1772567394083944700,1.32194482421875,-0.01266462728381157,0.23997779190540314,-0.4884699881076813
1772567394093973000,1.331972900390625,-0.006868476513773203,0.2867874503135681,-0.2949017882347107
1772567394104001800,1.342001708984375,-0.00903096329420805,0.3521643280982971,-0.1327860951423645
1772567394114030800,1.35203076171875,-0.018802961334586143,0.4527926445007324,-0.021311648190021515
1772567394124058600,1.36205859375,-0.04881918430328369,0.5679871439933777,0.03623925894498825
1772567394134087700,1.372087646484375,-0.10312539339065552,0.6990785002708435,0.045518092811107635
1772567394144117000,1.382116943359375,-0.17819911241531372,0.8150322437286377,0.01437855139374733
1772567394154144800,1.392144775390625,-0.24945798516273499,0.9364945292472839,-0.015971684828400612
1772567394164174000,1.402174072265625,-0.30720973014831543,0.9705039262771606,-0.022119591012597084
1772567394174201900,1.412201904296875,-0.33529093861579895,0.8961361646652222,0.027081647887825966
1772567394184231200,1.422231201171875,-0.31692737340927124,0.851836621761322,0.12014074623584747
1772567394194260200,1.43226025390625,-0.2414228618144989,0.7642427682876587,0.2270939201116562
1772567394204288000,1.4422880859375,-0.15998046100139618,0.5894190073013306,0.31537744402885437
1772567394214317000,1.452317138671875,-0.14476452767848969,0.46980372071266174,0.41291728615760803
1772567394224345000,1.462344970703125,-0.19854599237442017,0.46726545691490173,0.5194831490516663
1772567394234374100,1.4723740234375,-0.3287401497364044,0.3509258031845093,0.5946824550628662
1772567394244403200,1.4824033203125,-0.5312343835830688,-0.003077280707657337,0.6612657308578491
1772567394254431000,1.492430908203125,-0.6859382390975952,-0.35025060176849365,0.7577378749847412
1772567394264460000,1.5024599609375,-0.6736477613449097,-0.5585811734199524,0.8717355132102966
1772567394274489000,1.512489013671875,-0.4408411383628845,-0.5309956669807434,1.0143152475357056
1772567394284517000,1.52251708984375,-0.07113418728113174,-0.22707973420619965,1.1685734987258911
1772567394294546200,1.532546142578125,0.2795218229293823,0.28342539072036743,1.282334327697754
1772567394304574000,1.542573974609375,0.5274461507797241,0.7700868844985962,1.2574503421783447
1772567394314603000,1.55260302734375,0.6611248850822449,1.1154698133468628,1.030280590057373
1772567394324632000,1.562632080078125,0.6679587960243225,1.2024940252304077,0.6345750689506531
1772567394334660000,1.57266015625,0.5313681364059448,1.047345757484436,0.2024596929550171
1772567394344689200,1.582689208984375,0.2947723865509033,0.7465380430221558,-0.15122461318969727
1772567394354717000,1.592717041015625,0.04160138964653015,0.33548468351364136,-0.3902304470539093
1772567394364746000,1.60274609375,-0.16561543941497803,-0.11532165110111237,-0.5188832879066467
1772567394374775300,1.612775390625,-0.2800803482532501,-0.48945513367652893,-0.5444748997688293
1772567394384803000,1.622802978515625,-0.2880072593688965,-0.8050583004951477,-0.5138075351715088
1772567394394832100,1.63283203125,-0.18890118598937988,-1.0637003183364868,-0.4864760637283325
1772567394404860000,1.64285986328125,-0.010012384504079819,-1.2330125570297241,-0.4792349338531494
1772567394414889200,1.65288916015625,0.20090268552303314,-1.2395023107528687,-0.48346686363220215
1772567394424918300,1.662918212890625,0.4374537169933319,-1.1366087198257446,-0.5246920585632324
1772567394434946000,1.672946044921875,0.6791439056396484,-0.9720079302787781,-0.589113175868988
1772567394444975000,1.68297509765625,0.8925334215164185,-0.8098903894424438,-0.6720765233039856
1772567394455004000,1.69300390625,1.0423885583877563,-0.6843716502189636,-0.7678113579750061
1772567394465032200,1.7030322265625,1.1072664260864258,-0.6075903177261353,-0.8501120805740356
1772567394475061200,1.713061279296875,1.0782909393310547,-0.5768574476242065,-0.9182938933372498
1772567394485089000,1.723089111328125,0.9854761362075806,-0.5420883297920227,-0.971549391746521
1772567394495118000,1.7331181640625,0.8538573980331421,-0.5643001198768616,-1.00143301486969
1772567394505147000,1.74314697265625,0.6787132620811462,-0.5710027813911438,-1.0028572082519531
1772567394515175200,1.753175048828125,0.5049816370010376,-0.572867214679718,-0.9673885107040405
1772567394525204200,1.763204345703125,0.3624119758605957,-0.5517736077308655,-0.9064902663230896
1772567394535232000,1.77323193359375,0.24373109638690948,-0.47836706042289734,-0.8348647952079773
1772567394545261000,1.783260986328125,0.1290718913078308,-0.31587082147598267,-0.756284773349762
1772567394555289900,1.793289794921875,0.030411137267947197,-0.08149983733892441,-0.6757944822311401
1772567394565318100,1.803318115234375,-0.052829161286354065,0.18155284225940704,-0.580101490020752
1772567394575347200,1.81334716796875,-0.12261766940355301,0.4221738576889038,-0.4651857316493988
1772567394585376000,1.8233759765625,-0.206669420003891,0.6431787014007568,-0.31474030017852783
1772567394595404000,1.833404052734375,-0.2957049608230591,0.8326470851898193,-0.1364588588476181
1772567394605433000,1.84343310546875,-0.3892005383968353,0.9529567360877991,0.04062165319919586
1772567394615461000,1.853461181640625,-0.480739951133728,1.0223411321640015,0.19601882994174957
1772567394625490200,1.863490234375,-0.5663904547691345,1.085354208946228,0.3211381137371063
1772567394635519000,1.87351904296875,-0.6304463148117065,1.1407802104949951,0.4154990613460541
1772567394645547300,1.88354736328125,-0.6825659871101379,1.189895510673523,0.47706443071365356
1772567394655576000,1.893576171875,-0.7066184282302856,1.2170361280441284,0.5140514969825745
1772567394665604000,1.90360400390625,-0.7001978158950806,1.1990104913711548,0.5250200033187866
1772567394675633200,1.913633056640625,-0.6731559634208679,1.1072593927383423,0.5062252879142761
1772567394685662000,1.923661865234375,-0.5969749093055725,0.9828810691833496,0.4854893684387207
1772567394695690200,1.933690185546875,-0.4860306680202484,0.8239791989326477,0.47797513008117676
1772567394705719000,1.943718994140625,-0.3909347653388977,0.6378833055496216,0.5167986750602722
1772567394715748000,1.953748046875,-0.3376893103122711,0.3973686397075653,0.6189131736755371
1772567394725776000,1.96377587890625,-0.32990461587905884,0.08351057767868042,0.7744702696800232
1772567394735805000,1.973804931640625,-0.3561939001083374,-0.2808350622653961,0.9616977572441101
1772567394745833200,1.983833251953125,-0.34378543496131897,-0.593412458896637,1.1740334033966064
1772567394755862000,1.993862060546875,-0.21381480991840363,-0.6465490460395813,1.3939560651779175
1772567394765891000,2.00389111328125,0.0497414693236351,-0.6620489358901978,1.5139325857162476
1772567394775918800,2.0139189453125,0.37075290083885193,-0.668089747428894,1.4860666990280151
1772567394785948200,2.0239482421875,0.652307391166687,-0.6425638794898987,1.2969281673431396
1772567394795976200,2.03397607421875,0.8230576515197754,-0.6749775409698486,0.972433865070343
1772567394806005000,2.0440048828125,0.8910393714904785,-0.781862199306488,0.5812519788742065
1772567394816034000,2.054033935546875,0.8701784014701843,-0.8586803078651428,0.24740877747535706
1772567394826062000,2.06406201171875,0.7744686603546143,-0.8458552956581116,0.05014417693018913
1772567394836091100,2.074091064453125,0.6232484579086304,-0.6804636716842651,-0.006964873522520065
1772567394846119200,2.084119140625,0.4800318777561188,-0.3876534104347229,0.014211783185601234
1772567394856148000,2.09414794921875,0.40643930435180664,-0.0631999596953392,0.017801981419324875
1772567394866177000,2.104177001953125,0.4029151499271393,0.1940225213766098,-0.05346953496336937
1772567394876205000,2.114205078125,0.44353634119033813,0.3389973044395447,-0.200685515999794
1772567394886234000,2.124234130859375,0.5046236515045166,0.3611516058444977,-0.3901843726634979
1772567394896263200,2.13426318359375,0.5551604628562927,0.24749603867530823,-0.5985541343688965
1772567394906291000,2.144291015625,0.5782223343849182,0.0021416638046503067,-0.7909358143806458
1772567394916320000,2.154320068359375,0.5530798435211182,-0.3095645010471344,-0.929502010345459
1772567394926348000,2.16434814453125,0.4916958212852478,-0.532128632068634,-0.9708811640739441
1772567394936377000,2.174377197265625,0.40913981199264526,-0.606724202632904,-0.9223487973213196
1772567394946406100,2.18440625,0.35276973247528076,-0.5936052203178406,-0.8322215676307678
1772567394956434000,2.194433837890625,0.33749082684516907,-0.5097576379776001,-0.7118697762489319
1772567394966463000,2.204462890625,0.35072752833366394,-0.3752640187740326,-0.5663964748382568
1772567394976491000,2.214490966796875,0.37677568197250366,-0.250532329082489,-0.42263340950012207
1772567394986520000,2.22452001953125,0.4093248248100281,-0.14670954644680023,-0.28341346979141235
1772567394996549000,2.234549072265625,0.45453521609306335,-0.06530474871397018,-0.17461402714252472
1772567395006577000,2.244576904296875,0.48365822434425354,0.0031336992979049683,-0.08075837045907974
1772567395016606200,2.254606201171875,0.4847075045108795,0.07836957275867462,0.010306812822818756
1772567395026634000,2.264634033203125,0.4571773409843445,0.14805996417999268,0.10781951993703842
1772567395036663000,2.2746630859375,0.41054293513298035,0.17122168838977814,0.2075154185295105
1772567395046692000,2.284692138671875,0.3642449378967285,0.16669058799743652,0.3135523796081543
1772567395056720100,2.29472021484375,0.29926297068595886,0.16082094609737396,0.41334041953086853
1772567395066749200,2.304749267578125,0.19106192886829376,0.16219007968902588,0.48720771074295044
1772567395076777000,2.31477685546875,0.06775515526533127,0.20905083417892456,0.5492606163024902
1772567395086806000,2.324805908203125,-0.05210892856121063,0.3005565106868744,0.6018154621124268
1772567395096835000,2.3348349609375,-0.18416982889175415,0.4158663749694824,0.632824718952179
1772567395106863000,2.344863037109375,-0.3200392425060272,0.5554729700088501,0.6556310057640076
1772567395116892200,2.35489208984375,-0.4419595003128052,0.6782903075218201,0.6741076707839966
1772567395126921200,2.364921142578125,-0.5187304019927979,0.7291510701179504,0.7043029069900513
1772567395136949000,2.374948974609375,-0.5357134938240051,0.7699142098426819,0.7389103770256042
1772567395146978000,2.38497802734375,-0.512951672077179,0.8083763718605042,0.7664181590080261
1772567395157006000,2.395006103515625,-0.48018115758895874,0.8150458931922913,0.7745513916015625
1772567395167034600,2.40503466796875,-0.4632493257522583,0.7630341053009033,0.767638087272644
1772567395177063700,2.415063720703125,-0.48008331656455994,0.6620908379554749,0.7368786931037903
1772567395187091700,2.425091796875,-0.5672107934951782,0.5638843774795532,0.6807672381401062
1772567395197120800,2.435120849609375,-0.7226225733757019,0.5526463985443115,0.6122635006904602
1772567395207148500,2.4451484375,-0.8539201617240906,0.5936678647994995,0.5474839806556702
1772567395217177600,2.455177490234375,-0.8445218801498413,0.5605932474136353,0.49353519082069397
1772567395227206700,2.46520654296875,-0.6623571515083313,0.32910460233688354,0.4897010624408722
1772567395237234700,2.475234619140625,-0.38259056210517883,-0.011511377058923244,0.5655984282493591
1772567395247263700,2.485263671875,-0.1462555229663849,-0.3770078718662262,0.7340127229690552
1772567395257292500,2.49529248046875,-0.04243531823158264,-0.7047553658485413,0.970708966255188
1772567395267320600,2.505320556640625,0.015718264505267143,-0.9301655888557434,1.1837798357009888
1772567395277349600,2.515349609375,0.1338668316602707,-1.0878392457962036,1.225789189338684
1772567395287377700,2.525377685546875,0.30553898215293884,-1.1314871311187744,1.0383784770965576
1772567395297406700,2.53540673828125,0.42764782905578613,-1.0397099256515503,0.6462717056274414
1772567395307435500,2.545435546875,0.4355126619338989,-1.0006803274154663,0.11230388283729553
1772567395317463600,2.555463623046875,0.356092631816864,-1.1510422229766846,-0.40988093614578247
1772567395327492600,2.56549267578125,0.23367801308631897,-1.4052060842514038,-0.7645151615142822
1772567395337520600,2.575520751953125,0.08434808254241943,-1.6116843223571777,-0.9320812821388245
1772567395347549700,2.5855498046875,-0.0680859386920929,-1.6728155612945557,-0.9520981311798096
1772567395357578500,2.59557861328125,-0.20859920978546143,-1.4347906112670898,-0.9019557237625122
1772567395367606500,2.6056064453125,-0.2902860641479492,-0.9427385926246643,-0.860571026802063
1772567395377635800,2.6156357421875,-0.27760031819343567,-0.3805774450302124,-0.8758499622344971
1772567395387663600,2.62566357421875,-0.17310693860054016,0.12883971631526947,-0.9508816003799438
1772567395397692700,2.635692626953125,-0.02923496812582016,0.5740786194801331,-1.0504035949707031
1772567395407721500,2.645721435546875,0.09946441650390625,0.8831768035888672,-1.1483584642410278
1772567395417749800,2.655749755859375,0.22358687222003937,1.031614065170288,-1.2190965414047241
1772567395427778800,2.66577880859375,0.32123619318008423,1.0411527156829834,-1.2532228231430054
1772567395437807600,2.6758076171875,0.37613970041275024,0.9293290376663208,-1.2536537647247314
1772567395447835600,2.685835693359375,0.3673158586025238,0.7942603826522827,-1.2255536317825317
1772567395457864400,2.695864501953125,0.297497034072876,0.6378853917121887,-1.1756234169006348
1772567395467892700,2.705892822265625,0.18970933556556702,0.4487796723842621,-1.1150647401809692
1772567395477921800,2.715921875,0.04671451076865196,0.2806318700313568,-1.0251688957214355
1772567395487950600,2.72595068359375,-0.10452001541852951,0.1674206256866455,-0.9097927212715149
1772567395497978600,2.735978515625,-0.24995388090610504,0.12371887266635895,-0.7757613658905029
1772567395508007400,2.74600732421875,-0.3546041250228882,0.12154679000377655,-0.6398930549621582
1772567395518035700,2.75603564453125,-0.41860997676849365,0.1491289734840393,-0.5111750364303589
1772567395528064800,2.766064697265625,-0.447795569896698,0.1845998764038086,-0.38588234782218933
1772567395538093600,2.776093505859375,-0.4566102921962738,0.2562531530857086,-0.2605265974998474
1772567395548121600,2.78612158203125,-0.4492091238498688,0.39562809467315674,-0.13590452075004578
1772567395558150700,2.796150634765625,-0.4201227128505707,0.5853244066238403,-0.005710808094590902
1772567395568179700,2.8061796875,-0.37105876207351685,0.766680896282196,0.15466609597206116
1772567395578207700,2.816207763671875,-0.30810490250587463,0.9244840741157532,0.344506174325943
1772567395588236500,2.826236572265625,-0.24638240039348602,1.078359603881836,0.5554426312446594
1772567395598264600,2.8362646484375,-0.21997129917144775,1.227859616279602,0.7631857991218567
1772567395608293600,2.846293701171875,-0.23523280024528503,1.3423422574996948,0.9307779669761658
1772567395618322700,2.85632275390625,-0.27224740386009216,1.4236778020858765,1.0507389307022095
1772567395628350700,2.866350830078125,-0.30597367882728577,1.4640047550201416,1.1181975603103638
1772567395638379500,2.876379638671875,-0.3360788822174072,1.3802300691604614,1.147223949432373
1772567395648407800,2.88640771484375,-0.37098920345306396,1.2501071691513062,1.1721889972686768
1772567395658436600,2.8964365234375,-0.41553178429603577,1.118658423423767,1.2073566913604736
1772567395668465700,2.906465576171875,-0.45061734318733215,0.8643665313720703,1.2210065126419067
1772567395678493400,2.916493408203125,-0.46271225810050964,0.42619866132736206,1.1936453580856323
1772567395688522500,2.9265224609375,-0.4768421947956085,-0.10082679986953735,1.1282879114151
1772567395698551600,2.936551513671875,-0.43136197328567505,-0.5597289800643921,1.0609461069107056
1772567395708579600,2.94657958984375,-0.3255878686904907,-0.8895087242126465,0.9682002067565918
1772567395718608600,2.956608642578125,-0.24315649271011353,-1.1753860712051392,0.8161222338676453
1772567395728636400,2.966636474609375,-0.30030447244644165,-1.4215092658996582,0.6537569761276245
1772567395738665500,2.97666552734375,-0.4164181649684906,-1.3180288076400757,0.6338002681732178
1772567395748694800,2.98669482421875,-0.4020448327064514,-0.7411106824874878,0.7033843994140625
1772567395758722600,2.99672265625,-0.08661652356386185,-0.20221677422523499,0.6859166622161865
1772567395768751600,3.006751708984375,0.45374178886413574,0.0576438382267952,0.47649338841438293
1772567395778779400,3.016779296875,0.9448307752609253,0.13635960221290588,0.1338794082403183
1772567395788808700,3.02680859375,1.2120041847229004,0.09013057500123978,-0.24045664072036743
1772567395798837800,3.036837646484375,1.2672805786132812,-0.011574928648769855,-0.5293170809745789
1772567395808865500,3.046865478515625,1.1915735006332397,-0.13227684795856476,-0.6760264039039612
1772567395818894600,3.05689453125,1.0796211957931519,-0.2721414268016815,-0.6976803541183472
1772567395828922600,3.066922607421875,0.9872798323631287,-0.46271082758903503,-0.65593421459198
1772567395838951700,3.07695166015625,0.9715182781219482,-0.7532269358634949,-0.6312458515167236
1772567395848980700,3.086980712890625,1.035407304763794,-1.1921435594558716,-0.6692012548446655
1772567395859008500,3.097008544921875,1.1326193809509277,-1.6512728929519653,-0.774846613407135
1772567395869037600,3.10703759765625,1.2186179161071777,-2.0165951251983643,-0.9286074042320251
1772567395879066600,3.117066650390625,1.2582703828811646,-2.2079548835754395,-1.0986006259918213
1772567395889094700,3.1270947265625,1.268417477607727,-2.2041637897491455,-1.268001675605774
1772567395899123700,3.137123779296875,1.2951463460922241,-2.0542969703674316,-1.411564826965332
1772567395909151500,3.1471513671875,1.3701730966567993,-1.8235772848129272,-1.522530436515808
1772567395919180500,3.1571806640625,1.493394374847412,-1.5665340423583984,-1.595597267150879
1772567395929209600,3.167209716796875,1.6336034536361694,-1.326067566871643,-1.6189405918121338
1772567395939237600,3.177237548828125,1.738767385482788,-1.0900167226791382,-1.5750316381454468
1772567395949266700,3.1872666015625,1.768572211265564,-0.8738661408424377,-1.4782872200012207
1772567395959294500,3.19729443359375,1.707809329032898,-0.6814817190170288,-1.3395755290985107
1772567395969323500,3.207323486328125,1.5455858707427979,-0.4730134606361389,-1.1761008501052856
1772567395979352800,3.217352783203125,1.304062843322754,-0.23444117605686188,-1.000118613243103
1772567395989380600,3.227380615234375,1.0221374034881592,0.021427355706691742,-0.8160737156867981
1772567395999409700,3.23740966796875,0.7337071299552917,0.25522276759147644,-0.6231086254119873
1772567396009437400,3.2474375,0.459930419921875,0.4854612946510315,-0.39853546023368835
1772567396019466800,3.257466796875,0.22016192972660065,0.7412462830543518,-0.16249129176139832
1772567396029495800,3.267495849609375,0.024904564023017883,0.9785501956939697,0.06585293263196945
1772567396039523600,3.277523681640625,-0.12619271874427795,1.1666796207427979,0.2615319788455963
1772567396049552600,3.287552734375,-0.22656939923763275,1.3126798868179321,0.4493791162967682
1772567396059581400,3.29758154296875,-0.28747954964637756,1.4422144889831543,0.648901641368866
1772567396069609700,3.307609619140625,-0.328657329082489,1.5933454036712646,0.8478797078132629
1772567396079638800,3.317638671875,-0.36887669563293457,1.7048006057739258,1.0080375671386719
1772567396089666600,3.32766650390625,-0.40967366099357605,1.7628852128982544,1.1122992038726807
1772567396099695600,3.337695556640625,-0.4856758117675781,1.8171955347061157,1.1673579216003418
1772567396109724400,3.347724365234375,-0.5846479535102844,1.8826578855514526,1.1823723316192627
1772567396119752700,3.357752685546875,-0.7107911705970764,1.942582368850708,1.1374531984329224
1772567396129781800,3.36778173828125,-0.8637530207633972,1.9226545095443726,1.0301648378372192
1772567396139809500,3.3778095703125,-1.0169521570205688,1.8241491317749023,0.8887560367584229
1772567396149838600,3.387838623046875,-1.1535147428512573,1.7069923877716064,0.7364407777786255
1772567396159868200,3.3978681640625,-1.3006224632263184,1.6135413646697998,0.5879114270210266
1772567396169896200,3.407896240234375,-1.4593490362167358,1.4700678586959839,0.48157647252082825
1772567396179925200,3.41792529296875,-1.6012718677520752,1.142122507095337,0.4401286840438843
1772567396189953000,3.427953125,-1.6518468856811523,0.5974900126457214,0.49107280373573303
1772567396199982000,3.437982177734375,-1.5555391311645508,-0.15280857682228088,0.6352760195732117
1772567396210011100,3.44801123046875,-1.3363194465637207,-0.9234507083892822,0.9153891801834106
1772567396220039200,3.4580390625,-1.0825251340866089,-1.422676920890808,1.2924796342849731
1772567396230068200,3.468068115234375,-0.8200913667678833,-1.5120621919631958,1.6376394033432007
1772567396240097300,3.47809716796875,-0.5307725667953491,-1.3167169094085693,1.7713781595230103
1772567396250125000,3.488125,-0.16562065482139587,-0.9633376002311707,1.5910714864730835
1772567396260154400,3.498154296875,0.23321786522865295,-0.6665737628936768,1.0866987705230713
1772567396270182100,3.50818212890625,0.558810293674469,-0.6056965589523315,0.3443748354911804
1772567396280211200,3.518211181640625,0.7530710697174072,-0.816448986530304,-0.465556800365448
1772567396290240300,3.528240234375,0.8435948491096497,-1.2815415859222412,-1.16738760471344
1772567396300268300,3.538268310546875,0.8374986052513123,-1.8418245315551758,-1.5690988302230835
1772567396310297300,3.54829736328125,0.7499298453330994,-2.258183479309082,-1.5725831985473633
1772567396320325000,3.5583251953125,0.6142519116401672,-2.360546588897705,-1.228430986404419
1772567396330354200,3.568354248046875,0.5256722569465637,-2.1662826538085938,-0.7531923055648804
1772567396340383200,3.57838330078125,0.5598558187484741,-1.8155595064163208,-0.38958847522735596
1772567396350411300,3.588411376953125,0.7090551853179932,-1.3953020572662354,-0.2790771424770355
1772567396360440300,3.5984404296875,0.8711467981338501,-0.9729030132293701,-0.3725730776786804
1772567396370469000,3.60846923828125,0.9645302891731262,-0.5110376477241516,-0.5535620450973511
1772567396380497200,3.6184970703125,0.9565343260765076,-0.06954412907361984,-0.7527866959571838
1772567396390526200,3.628526123046875,0.8691797256469727,0.21274960041046143,-0.9376068711280823
1772567396400554200,3.63855419921875,0.7264528274536133,0.3517029285430908,-1.0773768424987793
1772567396410583300,3.648583251953125,0.5419365167617798,0.37401196360588074,-1.1547244787216187
1772567396420612000,3.658612060546875,0.3312857747077942,0.3065817058086395,-1.1660176515579224
1772567396430640000,3.66864013671875,0.12034159153699875,0.17940779030323029,-1.109121322631836
1772567396440669200,3.678669189453125,-0.08765527606010437,0.027172449976205826,-1.0083539485931396
1772567396450697200,3.688697265625,-0.25667253136634827,-0.10318849235773087,-0.8728288412094116
1772567396460726300,3.698726318359375,-0.3569032847881317,-0.1661069393157959,-0.7027449607849121
1772567396470755000,3.708755126953125,-0.36724165081977844,-0.1523948460817337,-0.5096191763877869
1772567396480783000,3.718783203125,-0.30269676446914673,-0.04593531787395477,-0.31101933121681213
1772567396490812400,3.7288125,-0.16106559336185455,0.17162922024726868,-0.1085495725274086
1772567396500840200,3.738840087890625,0.03258262202143669,0.4540703594684601,0.0825808048248291
1772567396510869200,3.748869140625,0.24229082465171814,0.7363145351409912,0.2502368986606598
1772567396520898000,3.75889794921875,0.41019174456596375,0.9765245914459229,0.4007577896118164
1772567396530926300,3.76892626953125,0.5074259042739868,1.204080581665039,0.5465251207351685
1772567396540955400,3.778955322265625,0.534186840057373,1.3939154148101807,0.6779281497001648
1772567396550984200,3.788984130859375,0.5020198225975037,1.4936954975128174,0.7803437113761902
1772567396561012200,3.79901220703125,0.44209131598472595,1.5147181749343872,0.8482440114021301
1772567396571041000,3.809041015625,0.359341025352478,1.4879837036132812,0.8797915577888489
1772567396581069300,3.8190693359375,0.26325342059135437,1.4412121772766113,0.8846272230148315
1772567396591098400,3.829098388671875,0.16346102952957153,1.4030908346176147,0.8544362783432007
1772567396601127200,3.839127197265625,0.054076552391052246,1.4006924629211426,0.8038474321365356
1772567396611155200,3.8491552734375,-0.05511092394590378,1.425921082496643,0.7395201325416565
1772567396621184000,3.85918408203125,-0.15623176097869873,1.4688061475753784,0.6752930879592896
1772567396631212300,3.86921240234375,-0.26486608386039734,1.4829676151275635,0.6320345997810364
1772567396641241300,3.879241455078125,-0.3844618797302246,1.41463041305542,0.6174762845039368
1772567396651270100,3.889270263671875,-0.5311700701713562,1.2356960773468018,0.646912157535553
1772567396661298200,3.899298095703125,-0.7007759213447571,1.0150320529937744,0.7357571721076965
1772567396671327200,3.9093271484375,-0.8853417634963989,0.7880314588546753,0.9036197066307068
1772567396681355300,3.919355224609375,-1.0393648147583008,0.5009235739707947,1.0919692516326904
1772567396691384300,3.92938427734375,-1.0933891534805298,-0.01981843076646328,1.2047408819198608
1772567396701413000,3.9394130859375,-0.9868133068084717,-0.778290331363678,1.2390754222869873
1772567396711441200,3.949441162109375,-0.6976930499076843,-1.4561748504638672,1.2682818174362183
1772567396721470200,3.95947021484375,-0.3333233892917633,-1.8694970607757568,1.3499696254730225
1772567396731499300,3.969499267578125,0.017666034400463104,-1.9803963899612427,1.4387439489364624
1772567396741527300,3.97952734375,0.3258665204048157,-1.954708456993103,1.4255913496017456
1772567396751556000,3.98955615234375,0.56209397315979,-1.832028865814209,1.246244192123413
1772567396761583000,3.9995830078125,0.6470929980278015,-1.6545511484146118,0.8988890051841736
1772567396771611100,4.009611083984375,0.5330337882041931,-1.3644407987594604,0.47050201892852783
1772567396781640200,4.01964013671875,0.2575989365577698,-0.8884948492050171,0.07502298057079315
1772567396791668200,4.029668212890625,-0.06693733483552933,-0.2966589331626892,-0.23142670094966888
1772567396801697300,4.039697265625,-0.33726027607917786,0.28524941205978394,-0.43964287638664246
1772567396811726000,4.04972607421875,-0.5100728273391724,0.7125378847122192,-0.5938707590103149
1772567396821754000,4.059754150390625,-0.599035918712616,0.9306385517120361,-0.7165971398353577
1772567396831783200,4.069783203125,-0.6375223398208618,0.9226120114326477,-0.8222053050994873
1772567396841812200,4.079812255859375,-0.6113346815109253,0.6098086833953857,-0.9178310036659241
1772567396851840300,4.08984033203125,-0.5404973030090332,0.06442230939865112,-0.9901353120803833
1772567396861869000,4.099869140625,-0.4845137298107147,-0.5058862566947937,-1.0360358953475952
1772567396871897300,4.1098974609375,-0.47523340582847595,-0.993012011051178,-1.0569872856140137
1772567396881926400,4.119926513671875,-0.49678152799606323,-1.3248822689056396,-1.0763648748397827
1772567396891955200,4.129955078125,-0.5311381220817566,-1.4274779558181763,-1.0943230390548706
1772567396901983200,4.139983154296875,-0.5840854644775391,-1.3245867490768433,-1.1277532577514648
1772567396912012000,4.150011962890625,-0.6682373881340027,-1.0627080202102661,-1.1552366018295288
1772567396922040300,4.160040283203125,-0.7472224831581116,-0.6870064735412598,-1.1759451627731323
1772567396932069400,4.1700693359375,-0.7900953888893127,-0.27112138271331787,-1.1699676513671875
1772567396942098200,4.18009814453125,-0.7913498282432556,0.09668420255184174,-1.1258478164672852
1772567396952126200,4.190126220703125,-0.7723332643508911,0.37799736857414246,-1.0304075479507446
1772567396962155000,4.200155029296875,-0.7462372183799744,0.5782343745231628,-0.8705630898475647
1772567396972183300,4.210183349609375,-0.7240589261054993,0.727725088596344,-0.6642194986343384
1772567396982212400,4.22021240234375,-0.6986531615257263,0.8146415948867798,-0.441923588514328
1772567396992241200,4.2302412109375,-0.6720418334007263,0.8213365077972412,-0.2269497513771057
1772567397002269200,4.240269287109375,-0.6446201801300049,0.7548303008079529,-0.047618716955184937
1772567397012298000,4.250298095703125,-0.6387516260147095,0.6651672720909119,0.12357860058546066
1772567397022327300,4.260327392578125,-0.6421529650688171,0.6029887199401855,0.2778160572052002
1772567397032355300,4.270355224609375,-0.640816330909729,0.5301938652992249,0.388408899307251
1772567397042384100,4.280384033203125,-0.6331436634063721,0.4266698658466339,0.42672258615493774
1772567397052412200,4.290412109375,-0.6201549172401428,0.31565600633621216,0.4154755473136902
1772567397062441200,4.300441162109375,-0.6098951697349548,0.2255583554506302,0.39885687828063965
1772567397072470300,4.31047021484375,-0.6235124468803406,0.16907377541065216,0.3866545557975769
1772567397082498300,4.320498291015625,-0.6684083938598633,0.136238694190979,0.3816094696521759
1772567397092527000,4.330527099609375,-0.7251697182655334,0.11578881740570068,0.38605934381484985
1772567397102555400,4.340555419921875,-0.7798902988433838,0.09811820089817047,0.39877015352249146
1772567397112584200,4.350584228515625,-0.8336632251739502,0.05145056173205376,0.4468876123428345
1772567397122613200,4.36061328125,-0.8891087770462036,-0.10008357465267181,0.555035412311554
1772567397132641300,4.370641357421875,-0.9633036255836487,-0.30632543563842773,0.7382087111473083
1772567397142670000,4.380670166015625,-1.0200222730636597,-0.4536972939968109,0.9622372388839722
1772567397152698400,4.390698486328125,-0.9952204823493958,-0.590690016746521,1.156285047531128
1772567397162727200,4.40072705078125,-0.8950386047363281,-0.7098960280418396,1.3016977310180664
1772567397172756000,4.410755859375,-0.7766706347465515,-0.7956647276878357,1.3926513195037842
1772567397182784000,4.420783935546875,-0.6819762587547302,-0.8892688155174255,1.4369968175888062
1772567397192812800,4.430812744140625,-0.6242373585700989,-1.0376858711242676,1.4129998683929443
1772567397202842000,4.440842041015625,-0.5282781720161438,-1.1088508367538452,1.3445708751678467
1772567397212870000,4.450869873046875,-0.31517305970191956,-0.9588732123374939,1.280006766319275
1772567397222899000,4.46089892578125,-0.00012859422713518143,-0.715886116027832,1.1914960145950317
1772567397232927000,4.470927001953125,0.3386545181274414,-0.4577307105064392,1.068103313446045
1772567397242956000,4.4809560546875,0.5986791253089905,-0.2366224080324173,0.8961648941040039
1772567397252985000,4.490985107421875,0.7112698554992676,-0.09727116674184799,0.6496291160583496
1772567397263012900,4.501012939453125,0.6928590536117554,-0.02342541515827179,0.3728095591068268
1772567397273042000,4.5110419921875,0.5923777222633362,-0.013167452067136765,0.12310090661048889
1772567397283070200,4.5210703125,0.4616204798221588,0.013796847313642502,-0.05933598056435585
1772567397293099000,4.53109912109375,0.33185502886772156,0.07860647141933441,-0.1840992122888565
1772567397303128000,4.541128173828125,0.22243046760559082,0.1638645976781845,-0.27624714374542236
1772567397313155800,4.55115576171875,0.1331583708524704,0.24144169688224792,-0.37347304821014404
1772567397323185000,4.561184814453125,0.0722590759396553,0.27326804399490356,-0.5013099908828735
1772567397333213200,4.571213134765625,0.029071925207972527,0.22528931498527527,-0.6682558059692383
1772567397343242000,4.581241943359375,0.00758832972496748,0.09452894330024719,-0.8677082657814026
1772567397353271000,4.59127099609375,0.011101040057837963,-0.059693388640880585,-1.064974069595337
1772567397363298800,4.601298828125,0.03485902026295662,-0.19506636261940002,-1.2154755592346191
1772567397373328000,4.611327880859375,0.05682343989610672,-0.2652755379676819,-1.278706431388855
1772567397383357000,4.62135693359375,0.06627543270587921,-0.28488826751708984,-1.260072112083435
1772567397393385000,4.631385009765625,0.0786958858370781,-0.31013423204421997,-1.1625996828079224
1772567397403414000,4.6414140625,0.0865020602941513,-0.3285491466522217,-1.0014506578445435
1772567397413441800,4.65144189453125,0.0660196915268898,-0.31557077169418335,-0.786314070224762
1772567397423470800,4.661470947265625,-0.008978531695902348,-0.24731148779392242,-0.5740870833396912
1772567397433500200,4.671500244140625,-0.14102497696876526,-0.11015789955854416,-0.38435178995132446
1772567397443528000,4.68152783203125,-0.3182729184627533,0.10207551717758179,-0.2368713915348053
1772567397453557000,4.691556884765625,-0.5101627111434937,0.36602646112442017,-0.12455762922763824
1772567397463585000,4.7015849609375,-0.6980924606323242,0.6347652673721313,-0.025577973574399948
1772567397473614000,4.711614013671875,-0.8691147565841675,0.8540627360343933,0.05430860072374344
1772567397483643100,4.72164306640625,-1.0210257768630981,1.0151607990264893,0.1306096315383911
1772567397493671000,4.7316708984375,-1.1298784017562866,1.1219236850738525,0.20339596271514893
1772567397503700000,4.741699951171875,-1.18306303024292,1.1698952913284302,0.2753898501396179
1772567397513728000,4.75172802734375,-1.176247477531433,1.1257655620574951,0.33190613985061646
1772567397523757000,4.761757080078125,-1.1070383787155151,1.0239967107772827,0.39033612608909607
1772567397533786000,4.7717861328125,-1.0002813339233398,0.9254886507987976,0.4647935628890991
1772567397543814000,4.78181396484375,-0.8724693655967712,0.8484874963760376,0.5523304343223572
1772567397553843000,4.791843017578125,-0.7606565952301025,0.7824972867965698,0.6387100219726562
1772567397563871000,4.80187109375,-0.681407630443573,0.7325794696807861,0.7117134928703308
1772567397573900000,4.811900146484375,-0.6374362111091614,0.6972984671592712,0.7543094158172607
1772567397583929000,4.82192919921875,-0.6306131482124329,0.6596519947052002,0.7694841623306274
1772567397593956900,4.831956787109375,-0.6456658840179443,0.5643081665039062,0.7492159008979797
1772567397603986000,4.84198583984375,-0.6709291934967041,0.39042121171951294,0.706452488899231
1772567397614015000,4.852014892578125,-0.7078621983528137,0.16827335953712463,0.6564526557922363
1772567397624043000,4.86204296875,-0.7464829683303833,-0.07769457995891571,0.6202442049980164
1772567397634072000,4.872072021484375,-0.7846795916557312,-0.30289122462272644,0.6088548898696899
1772567397644099800,4.882099853515625,-0.8093365430831909,-0.5801540613174438,0.6059517860412598
1772567397654129200,4.892129150390625,-0.7814100980758667,-0.9638082385063171,0.610647439956665
1772567397664158200,4.902158203125,-0.7006429433822632,-1.4404659271240234,0.6006025075912476
1772567397674186000,4.91218603515625,-0.6029110550880432,-2.004779577255249,0.5974879264831543
1772567397684215000,4.922215087890625,-0.527935802936554,-2.496711254119873,0.579898476600647
1772567397694243000,4.9322431640625,-0.43980857729911804,-2.8003361225128174,0.5471916794776917
1772567397704272100,4.942272216796875,-0.3612041175365448,-2.819375514984131,0.480094313621521
1772567397714301200,4.95230126953125,-0.35363462567329407,-2.614661693572998,0.3305354416370392
1772567397724329000,4.962328857421875,-0.42391541600227356,-2.1933491230010986,0.11387348175048828
1772567397734358000,4.97235791015625,-0.5592489838600159,-1.5831516981124878,-0.13994920253753662
1772567397744386000,4.982385986328125,-0.723825991153717,-0.900397777557373,-0.3886973559856415
1772567397754415000,4.9924150390625,-0.8411771059036255,-0.2199428379535675,-0.566378653049469
1772567397764444000,5.00244384765625,-0.8562398552894592,0.3496157228946686,-0.6662476658821106
1772567397774472000,5.012471923828125,-0.7724360227584839,0.7645308375358582,-0.7275256514549255
1772567397784501000,5.0225009765625,-0.6253067851066589,0.9906715154647827,-0.7626773715019226
1772567397794529800,5.03252978515625,-0.47931763529777527,0.9822835922241211,-0.7930912375450134
1772567397804558000,5.04255810546875,-0.3677995502948761,0.7467355728149414,-0.8533681035041809
1772567397814587000,5.0525869140625,-0.31496429443359375,0.34395352005958557,-0.9293153285980225
1772567397824615000,5.062614990234375,-0.37496551871299744,-0.12005415558815002,-1.0052154064178467
1772567397834644000,5.07264404296875,-0.5271041989326477,-0.4823814928531647,-1.0741130113601685
1772567397844673000,5.082673095703125,-0.7015892863273621,-0.5342592597007751,-1.1572799682617188
1772567397854701000,5.092701171875,-0.8656240105628967,-0.45338115096092224,-1.337116003036499
1772567397864729900,5.102729736328125,-0.9927940368652344,-0.33522382378578186,-1.5976884365081787
1772567397874758000,5.1127578125,-1.1074377298355103,-0.2848149836063385,-1.8840999603271484
1772567397884787200,5.122787109375,-1.1898919343948364,-0.4588681161403656,-2.0952565670013428
1772567397894816000,5.13281591796875,-1.190300703048706,-0.785166323184967,-2.0667333602905273
1772567397904844000,5.142843994140625,-1.0819463729858398,-1.1570876836776733,-1.708321213722229
1772567397914872800,5.152872802734375,-0.8601022958755493,-1.5441932678222656,-0.9949579238891602
1772567397924901000,5.162901123046875,-0.5251730680465698,-1.6196295022964478,-0.056342244148254395
1772567397934930200,5.17293017578125,-0.12191905081272125,-1.410417914390564,0.8669685125350952
1772567397944959000,5.182958984375,0.25931790471076965,-1.0382195711135864,1.5901813507080078
1772567397954987000,5.192987060546875,0.544765055179596,-0.6674776077270508,1.9793139696121216
1772567397965015800,5.203015869140625,0.7038053274154663,-0.3353739082813263,2.011701822280884
1772567397975044000,5.213044189453125,0.753275990486145,-0.040291666984558105,1.7574292421340942
1772567397985073200,5.2230732421875,0.7145247459411621,0.2310757339000702,1.296460509300232
1772567397995102000,5.23310205078125,0.6069644689559937,0.4990925192832947,0.7488651275634766
1772567398005130000,5.2431298828125,0.4580821990966797,0.7547451853752136,0.22364190220832825
1772567398015158800,5.25315869140625,0.2853836715221405,0.9792328476905823,-0.1809535175561905
1772567398025188000,5.26318798828125,0.12511450052261353,1.0897413492202759,-0.40931230783462524
1772567398035216100,5.273216064453125,0.011034263297915459,1.0455213785171509,-0.42498207092285156
1772567398045245000,5.283244873046875,-0.03434782847762108,0.9202942848205566,-0.22782506048679352
1772567398055273000,5.29327294921875,-0.003063142765313387,0.7731485366821289,0.15543976426124573
1772567398065302000,5.303302001953125,0.06714344024658203,0.6442728638648987,0.6655631065368652
1772567398075331000,5.3133310546875,0.1742240935564041,0.6048972010612488,1.2132542133331299
1772567398085359000,5.323359130859375,0.3059934973716736,0.6024772524833679,1.6612699031829834
1772567398095388000,5.333387939453125,0.4114067554473877,0.4499913156032562,1.8948973417282104
1772567398105416000,5.343416015625,0.491861492395401,0.17820291221141815,1.9014878273010254
1772567398115445000,5.353445068359375,0.5528713464736938,-0.1254459172487259,1.717574954032898
1772567398125474000,5.36347412109375,0.5980678200721741,-0.4862442910671234,1.4277737140655518
1772567398135502000,5.373502197265625,0.6218365430831909,-0.8533226847648621,1.107154369354248
1772567398145531000,5.38353076171875,0.5986169576644897,-1.0917587280273438,0.8864638209342957
1772567398155559200,5.39355908203125,0.5012379288673401,-1.097198247909546,0.8071775436401367
1772567398165587700,5.403587646484375,0.29458093643188477,-0.8455674052238464,0.8330385684967041
1772567398175616500,5.413616455078125,0.03902745246887207,-0.4610321819782257,0.855895459651947
1772567398185644500,5.42364453125,-0.13745787739753723,-0.08564558625221252,0.7304875254631042
1772567398195673600,5.433673583984375,-0.22692331671714783,0.2725261449813843,0.41457459330558777
1772567398205701600,5.44370166015625,-0.32123252749443054,0.3867061138153076,-0.11296097189188004
1772567398215730700,5.453730712890625,-0.45380762219429016,0.13219977915287018,-0.788694441318512
1772567398225759500,5.463759521484375,-0.5854049324989319,-0.23024164140224457,-1.410286545753479
1772567398235787500,5.47378759765625,-0.7079399228096008,-0.4800623953342438,-1.785148024559021
1772567398245816800,5.48381689453125,-0.856186032295227,-0.5879855751991272,-1.8563591241836548
1772567398255844600,5.4938447265625,-1.0009366273880005,-0.5772482752799988,-1.6779382228851318
1772567398265873700,5.503873779296875,-1.0898150205612183,-0.46687638759613037,-1.3815268278121948
1772567398275902500,5.51390234375,-1.0976966619491577,-0.33797192573547363,-1.1162440776824951
1772567398285930800,5.5239306640625,-1.0254379510879517,-0.1778404414653778,-0.9755285382270813
1772567398295959800,5.533959716796875,-0.8862012028694153,-0.0052447072230279446,-0.9787744283676147
1772567398305987600,5.543987548828125,-0.7183300256729126,0.13406655192375183,-1.054345965385437
1772567398316016600,5.5540166015625,-0.5444216132164001,0.2126532346010208,-1.1280100345611572
1772567398326045400,5.56404541015625,-0.39728060364723206,0.2087671160697937,-1.183941125869751
1772567398336073700,5.57407373046875,-0.2732345461845398,0.12282159179449081,-1.1836034059524536
1772567398346102800,5.584102783203125,-0.1710895150899887,-0.025393046438694,-1.1265928745269775
1772567398356131600,5.594131591796875,-0.08048158138990402,-0.23327620327472687,-1.001460075378418
1772567398366159600,5.60415966796875,-0.0039814128540456295,-0.48495638370513916,-0.8354068994522095
1772567398376188400,5.6141884765625,0.07566335052251816,-0.742510974407196,-0.6346261501312256
1772567398386216700,5.624216796875,0.1237998902797699,-0.8981310725212097,-0.3961034119129181
1772567398396245800,5.634245849609375,0.07301021367311478,-0.9352642893791199,-0.1386612206697464
1772567398406274600,5.644274658203125,-0.05489451438188553,-0.8946347832679749,0.10092176496982574
1772567398416302600,5.654302490234375,-0.21461281180381775,-0.7919225096702576,0.28942322731018066
1772567398426331600,5.66433154296875,-0.3371642231941223,-0.6272291541099548,0.40173816680908203
1772567398436359700,5.674359619140625,-0.37759312987327576,-0.41206440329551697,0.4763612747192383
1772567398446388700,5.684388671875,-0.35208016633987427,-0.18165361881256104,0.5290263295173645
1772567398456417500,5.69441748046875,-0.2522699534893036,-0.03605646267533302,0.5020716786384583
1772567398466445600,5.704445556640625,-0.09643743932247162,0.05260530486702919,0.4226840138435364
1772567398476474600,5.714474609375,0.11927754431962967,0.06135512515902519,0.2756255865097046
1772567398486502700,5.724502685546875,0.36196368932724,0.04870733246207237,0.09862226992845535
1772567398496531700,5.73453173828125,0.5710167288780212,0.11006522923707962,-0.06578158587217331
1772567398506560500,5.744560546875,0.713761031627655,0.2801058888435364,-0.1559317409992218
1772567398516588800,5.7545888671875,0.7704216241836548,0.519073486328125,-0.14711427688598633
1772567398526617600,5.76461767578125,0.7370772957801819,0.7989881634712219,-0.056031037122011185
1772567398536645600,5.774645751953125,0.6441231369972229,1.0562489032745361,0.10208988934755325
1772567398546674700,5.7846748046875,0.5328717231750488,1.2401951551437378,0.26764389872550964
1772567398556703500,5.794703369140625,0.4242355227470398,1.3298447132110596,0.4337271451950073
1772567398566731800,5.804731689453125,0.34541311860084534,1.26775062084198,0.5967966914176941
1772567398576760600,5.814760498046875,0.28239819407463074,1.1075146198272705,0.7698060274124146
1772567398586788600,5.82478857421875,0.19402103126049042,0.8750690221786499,0.8984698057174683
1772567398596817700,5.834817626953125,0.09498073905706406,0.5706965923309326,0.92995685338974
1772567398606846500,5.844846435546875,0.016890116035938263,0.214201420545578,0.8380755186080933
1772567398616874800,5.854874755859375,-0.01898559182882309,-0.05079030618071556,0.714070737361908
1772567398626903600,5.864903564453125,-0.059065986424684525,-0.18985462188720703,0.6397348642349243
1772567398636932600,5.8749326171875,-0.08406694233417511,-0.24600310623645782,0.6706533432006836
1772567398646960600,5.884960693359375,-0.02047138474881649,-0.06266419589519501,0.8394302725791931
1772567398656989700,5.89498974609375,0.16941092908382416,0.2326880842447281,1.098410725593567
1772567398667017700,5.905017822265625,0.45765572786331177,0.6462417244911194,1.3169726133346558
1772567398677046500,5.915046630859375,0.8027979135513306,0.9787416458129883,1.355652928352356
1772567398687075600,5.92507568359375,1.0827890634536743,1.0945754051208496,1.1238672733306885
1772567398697103600,5.935103515625,1.1699823141098022,0.9020232558250427,0.6477200388908386
1772567398707132700,5.945132568359375,1.089021921157837,0.5097538828849792,0.061942655593156815
1772567398717160700,5.95516064453125,0.8974049091339111,0.04147696495056152,-0.4769298732280731
1772567398727189500,5.965189453125,0.6426491737365723,-0.421792596578598,-0.8609845042228699
1772567398737218600,5.975218505859375,0.366214394569397,-0.7816082835197449,-1.0651288032531738
1772567398747246600,5.98524658203125,0.13862277567386627,-0.9961982369422913,-1.1099700927734375
1772567398757275600,5.995275634765625,0.008767311461269855,-1.0807924270629883,-1.0421710014343262
1772567398767303700,6.0053037109375,0.00740399956703186,-1.0457388162612915,-0.9354063272476196
1772567398777332500,6.01533251953125,0.11441460996866226,-0.7790055274963379,-0.8065969347953796
1772567398787361500,6.025361572265625,0.3130683898925781,-0.34011325240135193,-0.6502167582511902
1772567398797389600,6.0353896484375,0.5832620859146118,0.07420907914638519,-0.47737839818000793
1772567398807418600,6.045418701171875,0.8540832996368408,0.30222371220588684,-0.3271084129810333
1772567398817446700,6.05544677734375,1.0639004707336426,0.3735780715942383,-0.2021379917860031
1772567398827475500,6.065475341796875,1.1991251707077026,0.3320755660533905,-0.12211938202381134
1772567398837504500,6.07550439453125,1.2701317071914673,0.20708942413330078,-0.10030516237020493
1772567398847532500,6.085532470703125,1.3000198602676392,-0.012172998860478401,-0.1620250791311264
1772567398857561600,6.0955615234375,1.2836101055145264,-0.2819152772426605,-0.30626535415649414
1772567398867589600,6.105589599609375,1.2103499174118042,-0.5188028216362,-0.467279314994812
1772567398877618400,6.115618408203125,1.0834479331970215,-0.6765445470809937,-0.6226420402526855
1772567398887647700,6.125647705078125,0.905066967010498,-0.7491258382797241,-0.7215054631233215
1772567398897675500,6.135675537109375,0.7297934293746948,-0.704225480556488,-0.7353461980819702
1772567398907704600,6.14570458984375,0.5894885063171387,-0.5327809453010559,-0.6617165803909302
1772567398917732600,6.155732666015625,0.5030124187469482,-0.2757834792137146,-0.5046872496604919
1772567398927761700,6.16576171875,0.45343953371047974,0.011719927191734314,-0.3095979392528534
1772567398937790700,6.175790771484375,0.4105093777179718,0.2564340829849243,-0.11688520759344101
1772567398947818500,6.185818603515625,0.36313652992248535,0.43706703186035156,0.028321105986833572
1772567398957847600,6.19584765625,0.3120429813861847,0.574147641658783,0.12148646265268326
1772567398967875800,6.205875732421875,0.22887903451919556,0.6333268284797668,0.13309596478939056
1772567398977904600,6.215904541015625,0.11553464829921722,0.5946327447891235,0.07745534181594849
1772567398987933700,6.22593359375,0.0009076083078980446,0.5238327980041504,0.00023336755111813545
1772567398997961500,6.23596142578125,-0.08075422793626785,0.4921784996986389,-0.05937749892473221
1772567399007990500,6.245990478515625,-0.11523222178220749,0.5432796478271484,-0.09584033489227295
1772567399018019600,6.25601953125,-0.12083657830953598,0.6137120127677917,-0.1096954271197319
1772567399028047600,6.266047607421875,-0.09894359856843948,0.6804341077804565,-0.07835094630718231
1772567399038076700,6.27607666015625,-0.060276098549366,0.7407488226890564,0.0014349622651934624
1772567399048104400,6.2861044921875,-0.010689141228795052,0.753818929195404,0.11911159008741379
1772567399058133500,6.296133544921875,0.045602358877658844,0.699580729007721,0.2672475278377533
1772567399068162600,6.30616259765625,0.12383247911930084,0.5920805335044861,0.43510153889656067
1772567399078190600,6.316190673828125,0.22407038509845734,0.4730662703514099,0.6017121076583862
1772567399088219600,6.3262197265625,0.3118404746055603,0.345217227935791,0.7522692084312439
1772567399098247400,6.336247314453125,0.4098077714443207,0.12831686437129974,0.8697835803031921
1772567399108276500,6.3462763671875,0.4841296672821045,-0.18612778186798096,0.936246931552887
1772567399118305800,6.356305908203125,0.48792973160743713,-0.31681177020072937,1.039723515510559
1772567399128333600,6.36633349609375,0.4705237150192261,-0.277172327041626,1.1919276714324951
1772567399138362600,6.376362548828125,0.5696529746055603,-0.13240768015384674,1.3804254531860352
1772567399148390700,6.386390625,0.8224395513534546,0.0697113648056984,1.5674397945404053
1772567399158419700,6.396419677734375,1.1725144386291504,0.20940640568733215,1.6591404676437378
1772567399168448000,6.406447998046875,1.5013508796691895,0.32834550738334656,1.588457703590393
1772567399178476000,6.41647607421875,1.6693987846374512,0.3825877010822296,1.337138056755066
1772567399188505000,6.426505126953125,1.5914857387542725,0.27538859844207764,0.8943955898284912
1772567399198533000,6.436533203125,1.2647597789764404,-0.003282192163169384,0.3179994225502014
1772567399208562200,6.446562255859375,0.7895774841308594,-0.4186685383319855,-0.2985938787460327
1772567399218591000,6.456591064453125,0.28312069177627563,-0.9040808081626892,-0.8610734939575195
1772567399228619000,6.466618896484375,-0.21568496525287628,-1.3276371955871582,-1.2611020803451538
1772567399238648000,6.47664794921875,-0.6874708533287048,-1.521787166595459,-1.4257110357284546
1772567399248676000,6.486676025390625,-1.0703113079071045,-1.4146877527236938,-1.3781675100326538
1772567399258705200,6.496705078125,-1.2881906032562256,-0.9398444294929504,-1.1629889011383057
1772567399268734000,6.50673388671875,-1.3141356706619263,-0.2925393283367157,-0.890925407409668
1772567399278762000,6.516761962890625,-1.1774659156799316,0.2723773419857025,-0.7064411044120789
1772567399288791300,6.526791259765625,-0.9442141056060791,0.6576805114746094,-0.680194616317749
1772567399298819000,6.536819091796875,-0.6993750929832458,0.8745228052139282,-0.7822901010513306
1772567399308848000,6.54684814453125,-0.5416025519371033,0.8533003926277161,-0.9611483216285706
1772567399318877000,6.556876953125,-0.49263235926628113,0.6657688021659851,-1.1101937294006348
1772567399328905200,6.5669052734375,-0.548976480960846,0.3921678364276886,-1.1286556720733643
1772567399338934300,6.576934326171875,-0.6653257012367249,0.06654208898544312,-0.9995732307434082
1772567399348962000,6.586962158203125,-0.7726988792419434,-0.23707805573940277,-0.7573295831680298
1772567399358991000,6.5969912109375,-0.8041102886199951,-0.46801862120628357,-0.4771370589733124
1772567399369020000,6.60702001953125,-0.756619930267334,-0.5425624251365662,-0.1792055070400238
1772567399379048200,6.617048095703125,-0.6560968160629272,-0.504109799861908,0.09635496884584427
1772567399389077200,6.6270771484375,-0.5064052939414978,-0.3843843638896942,0.3268948197364807
1772567399399105000,6.63710498046875,-0.3394426703453064,-0.22442051768302917,0.4920880198478699
1772567399409134000,6.647134033203125,-0.17863622307777405,-0.1097061038017273,0.5800738334655762
1772567399419163000,6.657162841796875,-0.059311702847480774,-0.07581418752670288,0.5992456674575806
1772567399429191200,6.667191162109375,-0.01686951518058777,-0.07280290871858597,0.5732018947601318
1772567399439220200,6.67722021484375,-0.05171537771821022,-0.10550998896360397,0.5262173414230347
1772567399449248000,6.687248046875,-0.12478615343570709,-0.09265215694904327,0.47833287715911865
1772567399459277000,6.697277099609375,-0.18629318475723267,0.02255059964954853,0.42768406867980957
1772567399469306000,6.70730615234375,-0.23804430663585663,0.18887583911418915,0.353233277797699
1772567399479334100,6.717334228515625,-0.2862240672111511,0.3803800344467163,0.26795274019241333
1772567399489363200,6.72736328125,-0.33148491382598877,0.5771399736404419,0.18793794512748718
1772567399499392000,6.73739208984375,-0.37033164501190186,0.7459617257118225,0.1231062263250351
1772567399509420000,6.747419921875,-0.40456822514533997,0.7970653176307678,0.07646194100379944
1772567399519449000,6.757448974609375,-0.43451201915740967,0.7399594187736511,0.057078126817941666
1772567399529477000,6.76747705078125,-0.45954450964927673,0.6457175612449646,0.06642188131809235
1772567399539506000,6.777505859375,-0.4846184551715851,0.593392014503479,0.1442788690328598
1772567399549535000,6.787534912109375,-0.5264671444892883,0.6766371130943298,0.28697118163108826
1772567399559563300,6.797563232421875,-0.5902093648910522,0.8645889163017273,0.4369390904903412
1772567399569592000,6.807592041015625,-0.6631010174751282,1.178726077079773,0.5202968120574951
1772567399579620000,6.8176201171875,-0.7247960567474365,1.5485248565673828,0.4689042270183563
1772567399589649000,6.82764892578125,-0.7434571981430054,1.845826268196106,0.23982927203178406
1772567399599678000,6.837677978515625,-0.660979151725769,1.930308222770691,-0.18172594904899597
1772567399609706200,6.847706298828125,-0.42196857929229736,1.5842989683151245,-0.6776235699653625
1772567399619735000,6.857735107421875,0.0601184144616127,0.7179114818572998,-1.0643599033355713
1772567399629763000,6.86776318359375,0.6123079657554626,-0.22234050929546356,-1.1364094018936157
1772567399639791900,6.8777919921875,0.9314888715744019,-0.9541960954666138,-0.7893555760383606
1772567399649821000,6.887821044921875,0.8816096782684326,-1.3696810007095337,-0.14049221575260162
1772567399659849200,6.89784912109375,0.5628290772438049,-1.5629606246948242,0.5976332426071167
1772567399669878000,6.9078779296875,0.16700269281864166,-1.5642454624176025,1.1852279901504517
1772567399679906000,6.917906005859375,-0.21897323429584503,-1.522907018661499,1.4099907875061035
1772567399689934800,6.927934814453125,-0.5891284942626953,-1.4288843870162964,1.2198220491409302
1772567399699964200,6.937964111328125,-0.8900286555290222,-1.1336032152175903,0.7905462980270386
1772567399709992200,6.9479921875,-1.075283169746399,-0.6391533613204956,0.32406845688819885
1772567399720021000,6.95802099609375,-1.149231195449829,-0.06463707983493805,-0.059933774173259735
1772567399730049000,6.968049072265625,-1.092940330505371,0.4660378694534302,-0.3455854058265686
1772567399740078000,6.978078125,-0.9258531332015991,0.8870993256568909,-0.5847796201705933
1772567399750107100,6.988107177734375,-0.6936990022659302,1.0954910516738892,-0.8022721409797668
1772567399760135200,6.99813525390625,-0.4487667381763458,1.0638744831085205,-1.023828148841858
1772567399770164000,7.0081640625,-0.2286043018102646,0.8345940113067627,-1.2221084833145142
1772567399780192300,7.018192138671875,-0.0747273862361908,0.4690415561199188,-1.404785394668579
1772567399790221000,7.028220947265625,-0.012309323064982891,0.04157884418964386,-1.5554829835891724
1772567399800250000,7.03825,-0.02022370509803295,-0.41590216755867004,-1.6589057445526123
1772567399810278100,7.048278076171875,-0.06806737929582596,-0.8665866255760193,-1.7103145122528076
1772567399820307000,7.058306884765625,-0.12180783599615097,-1.2809398174285889,-1.6666394472122192
1772567399830335200,7.068335205078125,-0.17027489840984344,-1.5489087104797363,-1.5021047592163086
1772567399840364000,7.078364013671875,-0.20475006103515625,-1.6311287879943848,-1.2218542098999023
1772567399850393000,7.08839306640625,-0.22021768987178802,-1.5463722944259644,-0.8596329092979431
1772567399860421000,7.098421142578125,-0.2096545249223709,-1.3015159368515015,-0.4632667005062103
1772567399870450000,7.108449951171875,-0.1661241054534912,-0.9213404655456543,-0.08057904988527298
1772567399880478200,7.118478271484375,-0.11434052884578705,-0.45431116223335266,0.23815631866455078
1772567399890507000,7.128507080078125,-0.05733659490942955,0.03380080312490463,0.4531219005584717
1772567399900536000,7.1385361328125,-0.019582025706768036,0.455739289522171,0.5634851455688477
1772567399910564000,7.148564208984375,-0.0009518112055957317,0.7200911045074463,0.5466471314430237
1772567399920593000,7.158593017578125,-0.0084510063752532,0.8410696983337402,0.4339578449726105
1772567399930621200,7.16862109375,-0.04964565858244896,0.845854640007019,0.2685716152191162
1772567399940650000,7.17864990234375,-0.12508635222911835,0.7682945728302002,0.09613325446844101
1772567399950679000,7.188678955078125,-0.22273974120616913,0.6569384932518005,-0.05442202091217041
1772567399960707000,7.19870703125,-0.32500940561294556,0.5213361978530884,-0.16693150997161865
1772567399970736000,7.208736083984375,-0.411470502614975,0.3700432777404785,-0.20778240263462067
1772567399980764200,7.21876416015625,-0.4657915234565735,0.21469923853874207,-0.15922871232032776
1772567399990793000,7.22879296875,-0.44241300225257874,0.029456835240125656,-0.047572407871484756
1772567400000822000,7.238822021484375,-0.3521496653556824,0.10614362359046936,0.11695688962936401
1772567400010850300,7.248850341796875,-0.23537948727607727,0.2684556245803833,0.3187493681907654
1772567400020879000,7.258879150390625,-0.16115346550941467,0.4349420666694641,0.48873546719551086
1772567400030907100,7.2689072265625,-0.1538955569267273,0.4333638846874237,0.5950930118560791
1772567400040936000,7.27893603515625,-0.2250019609928131,0.19072675704956055,0.6518558859825134
1772567400050965000,7.288965087890625,-0.3161562979221344,-0.1063363179564476,0.7208752632141113
1772567400060993000,7.298992919921875,-0.34830090403556824,-0.27627450227737427,0.8696005344390869
1772567400071022000,7.30902197265625,-0.28641244769096375,-0.29811349511146545,1.0894989967346191
1772567400081050000,7.319050048828125,-0.10890316963195801,-0.1931958645582199,1.3059898614883423
1772567400091079000,7.329078857421875,0.1310620903968811,-0.1046239510178566,1.4311058521270752
1772567400101108000,7.33910791015625,0.38623955845832825,-0.0679791197180748,1.4145185947418213
1772567400111136000,7.349135986328125,0.6081228256225586,-0.05634923651814461,1.2766451835632324
1772567400121165000,7.3591650390625,0.7537841796875,-0.18556900322437286,1.058721661567688
1772567400131193000,7.369193115234375,0.797657310962677,-0.3556996285915375,0.8028654456138611
1772567400141222000,7.379221923828125,0.7969998121261597,-0.5219383835792542,0.600684404373169
1772567400151251200,7.389251220703125,0.8205551505088806,-0.5716147422790527,0.4948205053806305
1772567400161279000,7.399279052734375,0.8859407901763916,-0.6549450755119324,0.43141597509384155
1772567400171308500,7.40930859375,0.9674928784370422,-0.9703778624534607,0.32075923681259155
1772567400181336300,7.41933642578125,0.9940896034240723,-1.5726457834243774,0.1471482664346695
1772567400191365400,7.429365478515625,0.8757097125053406,-2.2987966537475586,-0.06125624105334282
1772567400201394400,7.43939453125,0.6210220456123352,-2.8749349117279053,-0.2198224514722824
1772567400211422500,7.44942236328125,0.30532124638557434,-3.162172555923462,-0.24697715044021606
1772567400221451500,7.459451416015625,0.03232089430093765,-3.073979377746582,-0.17212288081645966
1772567400231479300,7.469479248046875,-0.10207469016313553,-2.6930768489837646,-0.09972377866506577
1772567400241508600,7.479508544921875,-0.0632772296667099,-2.1428279876708984,-0.08307875692844391
1772567400251537700,7.48953759765625,0.15497428178787231,-1.6061208248138428,-0.15039485692977905
1772567400261565400,7.4995654296875,0.4308418035507202,-1.089132308959961,-0.27011165022850037
1772567400271594500,7.509594482421875,0.6465824246406555,-0.5462518334388733,-0.4170113801956177
1772567400281622500,7.51962255859375,0.7521584033966064,-0.06461144983768463,-0.6038499474525452
1772567400291651600,7.529651611328125,0.7270830273628235,0.2744085192680359,-0.8076854348182678
1772567400301680600,7.5396806640625,0.6138217449188232,0.4501204490661621,-1.020552396774292
1772567400311708400,7.54970849609375,0.438058465719223,0.5123871564865112,-1.2263071537017822
1772567400321737500,7.559737548828125,0.24722939729690552,0.508368968963623,-1.404211401939392
1772567400331765500,7.569765625,0.10816287994384766,0.4483482539653778,-1.527225136756897
1772567400341794600,7.579794677734375,-0.013575537130236626,0.3742034435272217,-1.5715736150741577
1772567400351823600,7.58982373046875,-0.13005852699279785,0.22211211919784546,-1.552146315574646
1772567400361851400,7.599851318359375,-0.25621140003204346,0.13737539947032928,-1.4662336111068726
1772567400371880400,7.60988037109375,-0.36196470260620117,0.2759043574333191,-1.3328192234039307
1772567400381908500,7.619908447265625,-0.3777708113193512,0.5657119154930115,-1.1796973943710327
1772567400391937500,7.6299375,-0.2916755676269531,0.9013241529464722,-1.0227718353271484
1772567400401966300,7.63996630859375,-0.15427270531654358,1.2299824953079224,-0.8731843829154968
1772567400411994400,7.649994384765625,-0.018802203238010406,1.4813456535339355,-0.736518144607544
1772567400422023400,7.6600234375,0.07909666746854782,1.6286746263504028,-0.6101985573768616
1772567400432051500,7.670051513671875,0.11120735853910446,1.6616928577423096,-0.5158303380012512
1772567400442080500,7.68008056640625,0.08261805772781372,1.574979543685913,-0.45948877930641174
1772567400452109300,7.690109375,0.006293047219514847,1.422935128211975,-0.4119969606399536
1772567400462137300,7.700137451171875,-0.07291015982627869,1.244213581085205,-0.3484962582588196
1772567400472166700,7.710166748046875,-0.13874444365501404,1.1120649576187134,-0.23195964097976685
1772567400482194400,7.7201943359375,-0.17692351341247559,1.0434057712554932,-0.07164613157510757
1772567400492223500,7.730223388671875,-0.214011088013649,0.9361470937728882,0.1312071681022644
1772567400502252300,7.740252197265625,-0.23815183341503143,0.7792437672615051,0.3777911067008972
1772567400512280600,7.750280517578125,-0.24481965601444244,0.537239670753479,0.6438843011856079
1772567400522309600,7.7603095703125,-0.24415387213230133,0.29933232069015503,0.912340521812439
1772567400532337400,7.77033740234375,-0.2174956500530243,0.1731792688369751,1.150956153869629
1772567400542366500,7.780366455078125,-0.15175151824951172,0.15121138095855713,1.3507812023162842
1772567400552395300,7.790395263671875,-0.08532259613275528,0.16554465889930725,1.494981288909912
1772567400562423600,7.800423583984375,-0.0579647421836853,0.1781107783317566,1.5418264865875244
1772567400572452600,7.81045263671875,-0.10195468366146088,0.11549044400453568,1.4663572311401367
1772567400582480400,7.82048046875,-0.21016743779182434,0.04432757943868637,1.2511210441589355
1772567400592509400,7.830509521484375,-0.33793604373931885,0.007421637885272503,0.978348433971405
1772567400602538200,7.840538330078125,-0.40120553970336914,0.022395793348550797,0.7553265690803528
1772567400612566500,7.85056640625,-0.327365905046463,0.036000803112983704,0.703880786895752
1772567400622595600,7.860595703125,-0.10316052287817001,0.07272899150848389,0.8358734250068665
1772567400632623400,7.870623291015625,0.2405698150396347,0.10664992034435272,1.0622984170913696
1772567400642652400,7.88065234375,0.6356294751167297,0.0918576568365097,1.251296877861023
1772567400652681500,7.890681396484375,0.9667329788208008,0.018209517002105713,1.3035889863967896
1772567400662709500,7.90070947265625,1.1727811098098755,-0.09994322061538696,1.203969955444336
1772567400672738600,7.910738525390625,1.223839521408081,-0.3516225218772888,0.9497992396354675
1772567400682766300,7.920766357421875,1.1384403705596924,-0.6848121881484985,0.6284869909286499
1772567400692795400,7.93079541015625,0.9327263236045837,-0.9932999610900879,0.30385029315948486
1772567400702824400,7.940824462890625,0.6351122260093689,-1.1908636093139648,0.0020779059268534184
1772567400712852500,7.9508525390625,0.2928371727466583,-1.2059816122055054,-0.24173875153064728
1772567400722881500,7.960881591796875,-0.042638324201107025,-1.0498706102371216,-0.4304050803184509
1772567400732909600,7.97090966796875,-0.3269524574279785,-0.7432122230529785,-0.5916265249252319
1772567400742938600,7.980938720703125,-0.5158430337905884,-0.29136618971824646,-0.7415174841880798
1772567400752967400,7.990967529296875,-0.5586598515510559,0.21276581287384033,-0.9123535752296448
1772567400762995500,8.000995361328124,-0.4850018620491028,0.6726569533348083,-1.0881645679473877
1772567400773024500,8.0110244140625,-0.38003191351890564,0.998439371585846,-1.2480368614196777
1772567400783052500,8.021052490234375,-0.3295072019100189,1.1487417221069336,-1.3774832487106323
1772567400793081600,8.03108154296875,-0.3487294614315033,1.097940444946289,-1.4657814502716064
1772567400803110400,8.0411103515625,-0.4190177619457245,0.8511797189712524,-1.5019207000732422
1772567400813138400,8.051138427734376,-0.5117692947387695,0.44563227891921997,-1.4953060150146484
1772567400823167500,8.06116748046875,-0.6305068731307983,-0.03779805079102516,-1.4407885074615479
1772567400833195500,8.071195556640625,-0.7508830428123474,-0.5328483581542969,-1.308492660522461
1772567400843224600,8.081224609375,-0.856182873249054,-0.8958960771560669,-1.0865460634231567
1772567400853253400,8.09125341796875,-0.8970343470573425,-1.0884358882904053,-0.7548471093177795
1772567400863281400,8.101281494140625,-0.8450374603271484,-1.0599955320358276,-0.3542384207248688
1772567400873310500,8.111310546875,-0.7079469561576843,-0.8635538816452026,0.04826238751411438
1772567400883338500,8.12133837890625,-0.5357509255409241,-0.585736095905304,0.3687772750854492
1772567400893367600,8.131367431640625,-0.3853554427623749,-0.282116174697876,0.54533851146698
1772567400903396400,8.141396240234375,-0.2994687855243683,0.02082478441298008,0.5840941667556763
1772567400913424400,8.15142431640625,-0.28858092427253723,0.3008756935596466,0.5289278626441956
1772567400923453700,8.16145361328125,-0.3477846086025238,0.5312087535858154,0.4095926880836487
1772567400933481500,8.1714814453125,-0.43146970868110657,0.7234649658203125,0.27273029088974
1772567400943510500,8.181510498046874,-0.5156999230384827,0.8659166693687439,0.1444745808839798
1772567400953539300,8.191539306640625,-0.5914843082427979,0.8988450765609741,0.05347810685634613
1772567400963567600,8.201567626953125,-0.6710821986198425,0.8156753778457642,0.04371708631515503
1772567400973596400,8.211596435546875,-0.7445756793022156,0.6120349168777466,0.11404132843017578
1772567400983624400,8.22162451171875,-0.7544214129447937,0.2942095696926117,0.22260509431362152
1772567400993653500,8.231653564453126,-0.6520392894744873,-0.0322355255484581,0.3432539999485016
1772567401003682300,8.241682373046874,-0.45011335611343384,-0.12565122544765472,0.4896484911441803
1772567401013710600,8.251710693359374,-0.24026310443878174,-0.03441721200942993,0.6608144640922546
1772567401023739400,8.261739501953125,-0.08585543185472488,0.11333788931369781,0.8218241333961487
1772567401033767400,8.271767333984375,0.018013861030340195,0.17495885491371155,0.968891441822052
1772567401043796500,8.28179638671875,0.06483089923858643,0.1436704397201538,1.0958079099655151
1772567401053825300,8.2918251953125,0.09393385797739029,0.07571299374103546,1.192121982574463
1772567401063853600,8.301853515625,0.12753842771053314,-0.1175486147403717,1.2527743577957153
1772567401073882400,8.31188232421875,0.12806057929992676,-0.4320310652256012,1.2318671941757202
1772567401083910400,8.321910400390625,0.13531368970870972,-0.805456817150116,1.134385108947754
1772567401093939500,8.331939453125,0.24838978052139282,-1.0107649564743042,1.0624902248382568
1772567401103968300,8.34196826171875,0.4698939323425293,-0.7915204167366028,1.1477580070495605
1772567401113996500,8.35199658203125,0.7188229560852051,-0.2565250098705292,1.4083863496780396
1772567401124025300,8.362025390625,0.9538778066635132,0.38808301091194153,1.7105060815811157
1772567401134053400,8.372053466796874,1.1510456800460815,0.9450188875198364,1.8628261089324951
1772567401144082400,8.38208251953125,1.2461944818496704,1.2483057975769043,1.7144163846969604
1772567401154111500,8.392111572265625,1.136748194694519,1.2555944919586182,1.2079187631607056
1772567401164139500,8.402139404296875,0.8307520747184753,0.9430488348007202,0.47805365920066833
1772567401174168600,8.41216845703125,0.4683709144592285,0.40285879373550415,-0.2579396367073059
1772567401184196600,8.422196533203126,0.16689150035381317,-0.2946435809135437,-0.8515047430992126
1772567401194225700,8.4322255859375,-0.03899472951889038,-0.9991546273231506,-1.257962942123413
1772567401204254700,8.442254638671875,-0.19715186953544617,-1.4482691287994385,-1.4550166130065918
1772567401214282800,8.45228271484375,-0.3253037929534912,-1.4036779403686523,-1.4393115043640137
1772567401224311600,8.4623115234375,-0.400295227766037,-1.022797703742981,-1.3272403478622437
1772567401234339800,8.47233984375,-0.3775913715362549,-0.5129538774490356,-1.1874202489852905
1772567401244369000,8.482368896484376,-0.26071426272392273,0.013718169182538986,-1.0511960983276367
1772567401254397700,8.492397705078124,-0.09653260558843613,0.38586676120758057,-0.9420599341392517
1772567401264425700,8.50242578125,0.04579897224903107,0.5541092753410339,-0.8458050489425659
1772567401274454500,8.51245458984375,0.15081384778022766,0.5373314023017883,-0.7344409227371216
1772567401284482800,8.52248291015625,0.20339956879615784,0.27169284224510193,-0.6260167360305786
1772567401294511900,8.532511962890625,0.21470750868320465,-0.21291865408420563,-0.558250367641449
1772567401304539600,8.54253955078125,0.20337869226932526,-0.7596400380134583,-0.515349805355072
1772567401314568700,8.552568603515626,0.16533377766609192,-1.2106555700302124,-0.46178969740867615
1772567401324597500,8.562597412109374,0.09721171110868454,-1.4494478702545166,-0.3772503137588501
1772567401334625800,8.572625732421875,0.010366351343691349,-1.429780125617981,-0.2741445302963257
1772567401344654800,8.58265478515625,-0.10111623257398605,-1.1803090572357178,-0.16432616114616394
1772567401354682600,8.5926826171875,-0.2293548285961151,-0.7451682090759277,-0.08473241329193115
1772567401364711700,8.602711669921876,-0.3387438952922821,-0.22006234526634216,-0.06769431382417679
1772567401374741800,8.61274169921875,-0.4152509272098541,0.2525768280029297,-0.11824075877666473
1772567401384769800,8.622769775390625,-0.451163113117218,0.596028745174408,-0.2317582666873932
1772567401394798800,8.632798828125,-0.4214304983615875,0.7960166931152344,-0.3575391173362732
1772567401404827600,8.64282763671875,-0.3598662316799164,0.8435496091842651,-0.45683905482292175
1772567401414855700,8.652855712890625,-0.30913370847702026,0.7248110771179199,-0.5290147662162781
1772567401424884700,8.662884765625,-0.26819318532943726,0.5268647074699402,-0.550003170967102
1772567401434912800,8.672912841796874,-0.20580554008483887,0.3619716763496399,-0.5149133801460266
1772567401444941800,8.68294189453125,-0.13155022263526917,0.230173721909523,-0.437328577041626
1772567401454970600,8.692970703125,-0.0588601678609848,0.11251235753297806,-0.31357699632644653
1772567401464998700,8.70299853515625,0.029069950804114342,0.0787179097533226,-0.13703231513500214
1772567401475027700,8.71302783203125,0.10515803843736649,0.13424624502658844,0.07406710088253021
1772567401485055700,8.7230556640625,0.14180180430412292,0.2784215211868286,0.31306931376457214
1772567401495084800,8.733084716796874,0.14095322787761688,0.49000418186187744,0.5488687753677368
1772567401505113600,8.743113525390624,0.1390186995267868,0.7381636500358582,0.7383542656898499
1772567401515141600,8.7531416015625,0.15999150276184082,0.9379949569702148,0.8574963212013245
1772567401525170700,8.763170654296875,0.1574670970439911,0.9935072660446167,0.8614409565925598
1772567401535198700,8.77319873046875,0.12326820194721222,0.9496254324913025,0.7503491044044495
1772567401545227800,8.783227783203126,0.07828927785158157,0.9772112369537354,0.5241578221321106
1772567401555256600,8.793256591796874,0.03102276846766472,1.0430169105529785,0.21347996592521667
1772567401565284600,8.80328466796875,-0.0047978125512599945,1.0458012819290161,-0.10608179122209549
1772567401575314000,8.81331396484375,0.00222889706492424,0.8807882070541382,-0.3612475097179413
1772567401585341700,8.823341796875,0.06746994704008102,0.501545786857605,-0.47842952609062195
1772567401595370800,8.833370849609375,0.23688608407974243,0.061881303787231445,-0.33009886741638184
1772567401605399600,8.843399658203126,0.4911811947822571,-0.2769412100315094,0.06319007277488708
1772567401615427800,8.853427734375,0.7584725022315979,-0.5012238621711731,0.6280062198638916
1772567401625457000,8.863456787109374,0.9489585757255554,-0.6269559264183044,1.195401906967163
1772567401635484700,8.873484619140624,0.9904201626777649,-0.7389866709709167,1.6085865497589111
1772567401645513700,8.883513671875,0.8944313526153564,-0.8152910470962524,1.7718544006347656
1772567401655542500,8.89354248046875,0.6980777382850647,-0.8231430053710938,1.6345980167388916
1772567401665570800,8.90357080078125,0.4444539546966553,-0.7639678120613098,1.2429620027542114
1772567401675600000,8.913599853515626,0.17298437654972076,-0.5281501412391663,0.7020506858825684
1772567401685627600,8.923627685546874,-0.06874783337116241,-0.15043160319328308,0.09899675101041794
1772567401695656700,8.93365673828125,-0.25326910614967346,0.31497377157211304,-0.501692533493042
1772567401705685500,8.943685546875,-0.3564032316207886,0.7465004324913025,-1.03628408908844
1772567401715713800,8.9537138671875,-0.3876723647117615,1.0231006145477295,-1.4458365440368652
1772567401725742800,8.963742919921875,-0.4027876853942871,1.0937252044677734,-1.7009090185165405
1772567401735770600,8.9737705078125,-0.41524672508239746,1.0171449184417725,-1.8118945360183716
1772567401745799700,8.983799560546874,-0.42661282420158386,0.8293271660804749,-1.8172781467437744
1772567401755827700,8.99382763671875,-0.427933931350708,0.5161242485046387,-1.7419824600219727
1772567401765856800,9.003856689453125,-0.41955775022506714,0.09943832457065582,-1.6136287450790405
1772567401775885600,9.013885498046875,-0.3990331292152405,-0.3762344419956207,-1.4397211074829102
1772567401785913600,9.02391357421875,-0.3667026162147522,-0.84062260389328,-1.2383136749267578
1772567401795942700,9.033942626953126,-0.34175893664360046,-1.242942452430725,-1.0098878145217896
1772567401805970700,9.043970703125,-0.28848907351493835,-1.532831072807312,-0.7836105227470398
1772567401815999700,9.053999755859374,-0.1759001612663269,-1.6405339241027832,-0.566575825214386
1772567401826028500,9.064028564453125,-0.023256300017237663,-1.513155460357666,-0.3620522618293762
1772567401836056800,9.074056884765625,0.12272240221500397,-1.181325078010559,-0.18110708892345428
1772567401846086000,9.0840859375,0.234552264213562,-0.7449562549591064,-0.034426040947437286
1772567401856113700,9.09411376953125,0.29152417182922363,-0.3261673152446747,0.07800126820802689
1772567401866142700,9.104142822265626,0.2976960241794586,0.03250507637858391,0.1612817794084549
1772567401876171500,9.114171630859374,0.26553651690483093,0.31307750940322876,0.2146402895450592
1772567401886199800,9.12419970703125,0.1871514469385147,0.5185046792030334,0.22940218448638916
1772567401896228900,9.134228759765625,0.11446644365787506,0.6734285354614258,0.22398711740970612
1772567401906256600,9.144256591796875,0.055556520819664,0.7404121160507202,0.2192128598690033
1772567401916285700,9.15428564453125,0.0026649441570043564,0.6963381171226501,0.2416485697031021
1772567401926314500,9.164314453125,-0.03978504240512848,0.5820251107215881,0.29942288994789124
1772567401936342800,9.1743427734375,-0.04186472296714783,0.4678109884262085,0.38640180230140686
1772567401946371800,9.184371826171875,0.007181116379797459,0.4005099833011627,0.48647618293762207
1772567401956399600,9.194399658203125,0.077967569231987,0.42849037051200867,0.5971726179122925
1772567401966428700,9.2044287109375,0.1355469822883606,0.5709529519081116,0.7068397402763367
1772567401976457500,9.21445751953125,0.1642400622367859,0.7483928203582764,0.7998413443565369
1772567401986485800,9.22448583984375,0.1721040904521942,0.8798107504844666,0.8394923806190491
1772567401996514800,9.234514892578124,0.14854136109352112,0.9381018280982971,0.8208436965942383
1772567402006542600,9.24454248046875,0.07946056872606277,0.9039406776428223,0.7307713031768799
1772567402016571600,9.254571533203125,0.003656705841422081,0.744925320148468,0.587813138961792
1772567402026600700,9.2646005859375,-0.025554977357387543,0.5368586778640747,0.4200603663921356
1772567402036628700,9.274628662109375,-0.0004944810643792152,0.3148373067378998,0.26165375113487244
1772567402046657800,9.28465771484375,0.022395387291908264,0.2007991224527359,0.13691633939743042
1772567402056685600,9.294685546875,0.019827574491500854,0.2559396028518677,0.06045521795749664
1772567402066715000,9.30471484375,-0.025830458849668503,0.3679732084274292,0.06686251610517502
1772567402076743700,9.31474365234375,-0.05093708634376526,0.4039040505886078,0.1946191042661667
1772567402086771700,9.324771728515625,0.004649209789931774,0.26048722863197327,0.41324278712272644
1772567402096800800,9.33480078125,0.1256716549396515,0.060518376529216766,0.7127817869186401
1772567402106828800,9.344828857421875,0.2943781316280365,-0.1590946614742279,1.0681178569793701
1772567402116857900,9.35485791015625,0.4443344175815582,-0.37636852264404297,1.4000945091247559
1772567402126886700,9.36488671875,0.4718776345252991,-0.5501680374145508,1.6191480159759521
1772567402136914700,9.374914794921875,0.3194408118724823,-0.5911560654640198,1.654163122177124
1772567402146943700,9.38494384765625,0.04595865309238434,-0.50955730676651,1.421010971069336
1772567402156971800,9.3949716796875,-0.2515730857849121,-0.42053717374801636,0.9358578324317932
1772567402167000600,9.40500048828125,-0.49347519874572754,-0.24994920194149017,0.30663010478019714
1772567402177028600,9.415028564453126,-0.6437209844589233,-0.03596535697579384,-0.34919995069503784
1772567402187057400,9.425057373046876,-0.7155967354774475,0.08926073461771011,-0.9478857517242432
1772567402197086500,9.43508642578125,-0.7171735167503357,0.08119525015354156,-1.4357181787490845
1772567402207114500,9.445114501953125,-0.6821537613868713,-0.05829872190952301,-1.7643705606460571
1772567402217143600,9.4551435546875,-0.6330198645591736,-0.2505160868167877,-1.9267356395721436
1772567402227171600,9.465171630859375,-0.5934852361679077,-0.3824232518672943,-1.9401800632476807
1772567402237200400,9.475200439453126,-0.5661265850067139,-0.4033565819263458,-1.8194105625152588
1772567402247229700,9.485229736328124,-0.5261208415031433,-0.37441813945770264,-1.606454610824585
1772567402257257500,9.495257568359374,-0.4722379744052887,-0.3996630012989044,-1.3496307134628296
1772567402267286500,9.50528662109375,-0.4173491597175598,-0.5295019149780273,-1.0746718645095825
1772567402277314600,9.515314453125,-0.36457565426826477,-0.7569608092308044,-0.8087174892425537
1772567402287343600,9.525343505859375,-0.3205568194389343,-0.965079665184021,-0.5742841958999634
1772567402297372700,9.53537255859375,-0.2618543803691864,-1.044670820236206,-0.3704747259616852
1772567402307400400,9.545400390625,-0.17724734544754028,-0.9670407176017761,-0.1998867690563202
1772567402317429500,9.555429443359374,-0.0936029702425003,-0.7816939949989319,-0.08339003473520279
1772567402327457800,9.565457763671875,-0.017036287114024162,-0.5048584342002869,-0.0205245204269886
1772567402337486600,9.575486572265625,0.04635534808039665,-0.16858166456222534,0.00698679918423295
1772567402347515600,9.585515625,0.07781553268432617,0.15711040794849396,0.012553870677947998
1772567402357543400,9.59554345703125,0.08817757666110992,0.44284993410110474,0.008301163092255592
1772567402367572500,9.605572509765626,0.06884489208459854,0.6959277391433716,-0.0008949977345764637
1772567402377600800,9.615600830078124,0.027211453765630722,0.9042193293571472,-0.0005583339370787144
1772567402387629600,9.625629638671874,-0.010686392895877361,1.0187342166900635,0.011316169053316116
1772567402397658600,9.63565869140625,-0.01990056410431862,1.0507032871246338,0.04577293246984482
1772567402407686400,9.645686279296875,0.0052886782214045525,1.0019320249557495,0.11208484321832657
1772567402417715500,9.655715576171875,0.041298508644104004,0.9100476503372192,0.19890683889389038
1772567402427743700,9.66574365234375,0.08341560512781143,0.8007726073265076,0.2965407073497772
1772567402437772500,9.6757724609375,0.1430242955684662,0.7098740339279175,0.39959636330604553
1772567402447801600,9.685801513671874,0.21413922309875488,0.6184860467910767,0.5179858803749084
1772567402457829400,9.695829345703125,0.27050042152404785,0.5225920677185059,0.6506678462028503
1772567402467858400,9.7058583984375,0.3154284954071045,0.4400377869606018,0.7698869109153748
1772567402477886700,9.71588671875,0.3298341631889343,0.3882893919944763,0.8585763573646545
1772567402487915500,9.72591552734375,0.2712339758872986,0.4010922610759735,0.8704615235328674
1772567402497943600,9.735943603515626,0.16623511910438538,0.4996635913848877,0.8225277066230774
1772567402507972400,9.745972412109374,0.07811643928289413,0.5858344435691833,0.7296484112739563
1772567402518001700,9.756001708984375,0.03929560258984566,0.5541207790374756,0.6002853512763977
1772567402528029700,9.76602978515625,0.05253896862268448,0.40778568387031555,0.46226540207862854
1772567402538058500,9.77605859375,0.09063699841499329,0.31455111503601074,0.38118696212768555
1772567402548086500,9.78608642578125,0.1339477151632309,0.3328816592693329,0.3968295753002167
1772567402558115600,9.796115478515626,0.16853637993335724,0.36044755578041077,0.48042377829551697
1772567402568144600,9.80614453125,0.1649046242237091,0.2794264554977417,0.5833117961883545
1772567402578172700,9.816172607421874,0.1645343154668808,0.163352370262146,0.6777176856994629
1772567402588201500,9.826201416015625,0.14956921339035034,0.09917258471250534,0.7628805637359619
1772567402598229800,9.836229736328125,0.13714885711669922,0.004049675539135933,0.7592495083808899
1772567402608258600,9.846258544921875,0.14881989359855652,-0.12599541246891022,0.6435644626617432
1772567402618287600,9.85628759765625,0.1499944031238556,-0.30382055044174194,0.41029444336891174
1772567402628315600,9.866315673828124,0.14320121705532074,-0.46617591381073,0.1265692561864853
1772567402638344400,9.876344482421874,0.12105648964643478,-0.5345756411552429,-0.16640575230121613
1772567402648372700,9.886372802734375,0.07165111601352692,-0.5818784236907959,-0.4245331883430481
1772567402658401500,9.896401611328125,0.005792668089270592,-0.5747179985046387,-0.6293140053749084
1772567402668430600,9.9064306640625,0.002272767946124077,-0.4756491780281067,-0.7580344080924988
1772567402678458600,9.916458740234376,0.08734788745641708,-0.2907830774784088,-0.8184736967086792
1772567402688487400,9.9264873046875,0.26614028215408325,-0.055203843861818314,-0.8201831579208374
1772567402698515700,9.936515625,0.5009805560112,0.17389406263828278,-0.7433522343635559
1772567402708544500,9.94654443359375,0.6197644472122192,0.4181578755378723,-0.22075214982032776
1772567402718573600,9.956573486328125,0.5379598140716553,-0.2765760123729706,0.09415324032306671
1772567402728601600,9.9666015625,0.37158071994781494,-0.8057202696800232,0.19930309057235718
1772567402738630700,9.976630615234376,0.21454791724681854,-1.0848634243011475,0.09646455198526382
1772567402748658700,9.98665869140625,0.06734487414360046,-1.1526914834976196,-0.12788386642932892
1772567402758687500,9.9966875,0.003269350156188011,-1.0476573705673218,-0.4067518413066864
1772567402768716500,10.006716552734375,-0.041119687259197235,-0.7555240988731384,-0.665026068687439
