time,seconds_elapsed,z,y,x
1772566218103934200,0.080934326171875,0.0031890105456113815,-0.008166474290192127,0.003491829615086317
1772566218113962200,0.090962158203125,-0.0032848678529262543,-0.00035062897950410843,-0.016434207558631897
1772566218123991300,0.1009912109375,-0.013524643145501614,-0.0029677739366889,-0.007432058919221163
1772566218134019000,0.11101904296875,-0.019831806421279907,-0.01446277555078268,-0.00017201527953147888
1772566218144048000,0.121048095703125,-0.01932944357395172,-0.01776071824133396,0.011800117790699005
1772566218154076200,0.131076171875,-0.02510850504040718,-0.023272663354873657,0.03120710328221321
1772566218164105200,0.141105224609375,-0.02890743315219879,-0.026027299463748932,0.028036808595061302
1772566218174133200,0.15113330078125,-0.03485161066055298,-0.025385212153196335,0.017533035948872566
1772566218184162000,0.161162109375,-0.04012107476592064,-0.015690689906477928,0.011042600497603416
1772566218194190300,0.1711904296875,-0.0380970723927021,-0.004192224703729153,0.008705943822860718
1772566218204219100,0.18121923828125,-0.03743470460176468,-0.0009280145168304443,-0.005956023000180721
1772566218214247200,0.1912470703125,-0.03472999483346939,-0.0035166069865226746,-0.01615406572818756
1772566218224276200,0.201276123046875,-0.031989991664886475,-0.009046455845236778,-0.013172486796975136
1772566218234304300,0.21130419921875,-0.02750442922115326,-0.011494966223835945,0.005429693963378668
1772566218244333300,0.221333251953125,-0.019430842250585556,-0.014037481509149075,0.015713829547166824
1772566218254361000,0.231361083984375,-0.008328123018145561,-0.020008821040391922,0.017687499523162842
1772566218264390100,0.24139013671875,0.0008654557168483734,-0.021625418215990067,0.020797669887542725
1772566218274418200,0.251418212890625,0.008002194575965405,-0.014655925333499908,0.024511713534593582
1772566218284447200,0.261447265625,0.015300548635423183,-0.017399486154317856,0.01957361400127411
1772566218294475300,0.271475341796875,0.014891753904521465,-0.011603914201259613,0.0087207006290555
1772566218304504000,0.281504150390625,0.01684371568262577,-0.017113376408815384,-0.0034989905543625355
1772566218314532400,0.291532470703125,0.013365892693400383,-0.02478700876235962,-0.009094558656215668
1772566218324561200,0.30156103515625,0.007918461225926876,-0.026981938630342484,0.008462443947792053
1772566218334589200,0.311589111328125,0.008691043592989445,-0.031560178846120834,0.010155947878956795
1772566218344618200,0.3216181640625,0.011360668577253819,-0.02277134731411934,0.015321613289415836
1772566218354646300,0.331646240234375,0.00968820322304964,-0.01796460896730423,0.009792356751859188
1772566218364675300,0.34167529296875,0.00934354867786169,-0.009992405772209167,0.003203365486115217
1772566218374703000,0.351703125,0.009483630768954754,-0.0023320894688367844,0.001822515856474638
1772566218384732200,0.361732177734375,0.012338072061538696,-0.0018904972821474075,0.0017251544632017612
1772566218394760200,0.37176025390625,0.016949869692325592,-0.006314273923635483,-0.0019169850274920464
1772566218404789200,0.381789306640625,0.027427051216363907,-0.008412872441112995,0.0005062920972704887
1772566218414817000,0.391817138671875,0.026799075305461884,-0.01907430589199066,0.002457589842379093
1772566218424846000,0.40184619140625,0.024219375103712082,-0.02546427585184574,0.012265926226973534
1772566218434874400,0.411874267578125,0.023878756910562515,-0.025906359776854515,0.03053574450314045
1772566218444903200,0.421903076171875,0.02196178026497364,-0.029298830777406693,0.041044872254133224
1772566218454931200,0.43193115234375,0.018975576385855675,-0.015912452712655067,0.034127309918403625
1772566218464959200,0.441959228515625,0.016394373029470444,-0.007123902440071106,0.02310960553586483
1772566218474988300,0.45198828125,0.015279042534530163,0.007730410434305668,0.0014048423618078232
1772566218485016000,0.46201611328125,0.013672863133251667,0.013633503578603268,-0.015848757699131966
1772566218495045000,0.472045166015625,0.012349273078143597,0.005505002103745937,-0.01989969238638878
1772566218505073400,0.482073486328125,0.01586507260799408,-0.0019659744575619698,-0.005206408444792032
1772566218515102200,0.492102294921875,0.018495209515094757,-0.006130092777311802,0.014656245708465576
1772566218525130200,0.502130126953125,0.01178943645209074,-0.017226912081241608,0.011618486605584621
1772566218535159000,0.512158935546875,0.002011640928685665,-0.016918251290917397,0.003986134193837643
1772566218545187300,0.522187255859375,-0.0035703121684491634,-0.016156163066625595,0.002038553822785616
1772566218555216400,0.53221630859375,-0.00840927567332983,-0.010543284006416798,-0.0016736267134547234
1772566218565244200,0.542244140625,-0.012697003781795502,-0.0008794497698545456,-0.010059192776679993
1772566218575273200,0.552273193359375,-0.012948939576745033,0.003314230591058731,-0.016672354191541672
1772566218585301200,0.56230126953125,-0.0158039890229702,0.00015742797404527664,-0.024116843938827515
1772566218595330300,0.572330322265625,-0.013169855810701847,-0.0022916151210665703,-0.021594565361738205
1772566218605358000,0.582358154296875,-0.01262219063937664,-0.016658663749694824,-0.012066380120813847
1772566218615387100,0.59238720703125,-0.01387760415673256,-0.027267897501587868,0.0028909980319440365
1772566218625415200,0.602415283203125,-0.014432420954108238,-0.03442508354783058,0.018806185573339462
1772566218635444200,0.6124443359375,-0.013246781192719936,-0.031800538301467896,0.028464138507843018
1772566218645472300,0.62247216796875,-0.013661276549100876,-0.036302193999290466,0.02364354580640793
1772566218655501000,0.6325009765625,-0.021657951176166534,-0.03180225193500519,0.018436534330248833
1772566218665529300,0.642529296875,-0.026272622868418694,-0.021850943565368652,0.010490017011761665
1772566218675558100,0.65255810546875,-0.02763882465660572,-0.008871229365468025,0.0032107988372445107
1772566218685586200,0.662586181640625,-0.02165432646870613,0.001111476682126522,-0.004721158649772406
1772566218695615200,0.672615234375,-0.023842114955186844,0.010953454300761223,-0.022848762571811676
1772566218705643300,0.682643310546875,-0.03028012067079544,0.02112535573542118,-0.03285927698016167
1772566218715672300,0.69267236328125,-0.032354988157749176,0.023278789594769478,-0.030300511047244072
1772566218725700000,0.7027001953125,-0.0308394655585289,0.01927158236503601,-0.027954665943980217
1772566218735729200,0.712729248046875,-0.0258452370762825,0.014897873625159264,-0.020853348076343536
1772566218745757200,0.722757080078125,-0.015787744894623756,0.0024098223075270653,-0.0095883309841156
1772566218755786200,0.7327861328125,-0.011930689215660095,-0.0046819099225103855,-0.004567473195493221
1772566218765814300,0.742814208984375,-0.013436602428555489,-0.01685093529522419,0.003219525795429945
1772566218775843000,0.752843017578125,-0.01512770913541317,-0.01673135906457901,0.00445363437756896
1772566218785871400,0.762871337890625,-0.020395584404468536,-0.013244477100670338,-0.006530023645609617
1772566218795900200,0.772900146484375,-0.026887308806180954,0.000953899696469307,-0.019512135535478592
1772566218805928200,0.78292822265625,-0.027741584926843643,0.013378122821450233,-0.019975945353507996
1772566218815956200,0.792956298828125,-0.03212008625268936,0.022086126729846,-0.021117642521858215
1772566218825985300,0.8029853515625,-0.028655551373958588,0.02185327187180519,-0.024323686957359314
1772566218836013300,0.813013427734375,-0.0231928750872612,0.015912026166915894,-0.01779814437031746
1772566218846042000,0.8230419921875,-0.0120211411267519,0.009394707158207893,-0.017779968678951263
1772566218856070400,0.8330703125,-0.007471130695194006,-0.0038180341944098473,-0.008577948436141014
1772566218866099200,0.84309912109375,-0.007928438484668732,-0.016631634905934334,0.0066567761823534966
1772566218876127200,0.853127197265625,-0.008900226093828678,-0.020246610045433044,0.012853685766458511
1772566218886156300,0.86315625,-0.010699308477342129,-0.02279464341700077,0.0029880693182349205
1772566218896184300,0.873184326171875,-0.01609434001147747,-0.01786673069000244,-0.006045106798410416
1772566218906213400,0.88321337890625,-0.020135100930929184,-0.011740943416953087,-0.02228114940226078
1772566218916241700,0.89324169921875,-0.0241524800658226,-0.009144362062215805,-0.02673209086060524
1772566218926270700,0.903270751953125,-0.024901680648326874,-0.0008043898269534111,-0.026057962328195572
1772566218936298500,0.913298583984375,-0.024976514279842377,0.008777130395174026,-0.01696886122226715
1772566218946327800,0.923327880859375,-0.025583278387784958,0.01037509273737669,-0.013386081904172897
1772566218956355800,0.93335595703125,-0.026465050876140594,0.012712550349533558,-0.00234754616394639
1772566218966384600,0.943384521484375,-0.021164653822779655,0.011749165132641792,0.003554923925548792
1772566218976412700,0.95341259765625,-0.019885804504156113,0.00824151560664177,-0.006561625748872757
1772566218986441700,0.963441650390625,-0.017462965101003647,0.005031325854361057,-0.018418196588754654
1772566218996469800,0.9734697265625,-0.015187028795480728,0.0027146413922309875,-0.021018773317337036
1772566219006498800,0.983498779296875,-0.014082204550504684,0.010289461351931095,-0.015175284817814827
1772566219016526600,0.993526611328125,-0.016553351655602455,0.01738492026925087,-0.009730719029903412
1772566219026556000,1.003555908203125,-0.017431873828172684,0.01887919008731842,-0.01457323506474495
1772566219036583700,1.013583740234375,-0.02034696936607361,0.016973432153463364,-0.016765283420681953
1772566219046612700,1.02361279296875,-0.017667535692453384,0.01396359596401453,-0.016365764662623405
1772566219056640500,1.033640625,-0.008892952464520931,0.016803588718175888,-0.010768866166472435
1772566219066669800,1.043669921875,-0.0069859689101576805,0.013342805206775665,-0.008149287663400173
1772566219076697600,1.053697509765625,0.002139085903763771,0.009963788092136383,-0.005040579475462437
1772566219086726700,1.0637265625,0.0045966487377882,0.014072675257921219,-0.0036859221290796995
1772566219096754700,1.073754638671875,0.004350838251411915,0.0151605773717165,-0.012009898200631142
1772566219106783700,1.08378369140625,0.006472162902355194,0.01841328665614128,-0.019030582159757614
1772566219116811800,1.093811767578125,0.007298807613551617,0.030177533626556396,-0.017415642738342285
1772566219126840600,1.103840576171875,0.008833819068968296,0.04350250959396362,-0.014165504835546017
1772566219136868600,1.11386865234375,0.005567719228565693,0.04431584104895592,-0.01771176978945732
1772566219146898000,1.12389794921875,0.00026793405413627625,0.04235927015542984,-0.021521667018532753
1772566219156925700,1.13392578125,-0.005156125873327255,0.03959357738494873,-0.030240856111049652
1772566219166953700,1.14395361328125,-0.004793495871126652,0.038261882960796356,-0.03556413948535919
1772566219176982500,1.153982421875,-0.0035620499402284622,0.041137829422950745,-0.03409673646092415
1772566219187010800,1.1640107421875,-0.0023587006144225597,0.04133962094783783,-0.03211876004934311
1772566219197039600,1.17403955078125,-0.00029368558898568153,0.040471695363521576,-0.03987894579768181
1772566219207067600,1.184067626953125,0.007194003090262413,0.039989687502384186,-0.040666621178388596
1772566219217096700,1.1940966796875,0.016129441559314728,0.04254072904586792,-0.052878811955451965
1772566219227124700,1.204124755859375,0.02657272294163704,0.03689325600862503,-0.07559484243392944
1772566219237153800,1.21415380859375,0.029921114444732666,0.02877008356153965,-0.10634077340364456
1772566219247181600,1.224181640625,0.03354216367006302,0.019191619008779526,-0.14557801187038422
1772566219257210600,1.234210693359375,0.03148220479488373,0.011455402709543705,-0.17498783767223358
1772566219267238700,1.24423876953125,0.03236278146505356,0.0045424560084939,-0.18930289149284363
1772566219277267700,1.254267822265625,0.034381721168756485,-0.004884335212409496,-0.2011459767818451
1772566219287295700,1.264295654296875,0.038622017949819565,-0.0018332479521632195,-0.20240271091461182
1772566219297324500,1.274324462890625,0.039714980870485306,0.011440212838351727,-0.19291892647743225
1772566219307352800,1.284352783203125,0.040755294263362885,0.029241617769002914,-0.16820907592773438
1772566219317381600,1.294381591796875,0.0334039032459259,0.03909078612923622,-0.14340972900390625
1772566219327409700,1.30440966796875,0.029266465455293655,0.043473877012729645,-0.11029890924692154
1772566219337438700,1.314438720703125,0.03249235078692436,0.05481548234820366,-0.08037669956684113
1772566219347466800,1.324466796875,0.028809111565351486,0.03964262455701828,-0.061894968152046204
1772566219357495800,1.334495849609375,0.03362357243895531,0.026427751407027245,-0.05067453533411026
1772566219367523600,1.344523681640625,0.03303234279155731,0.009967916645109653,-0.04373276233673096
1772566219377552600,1.354552734375,0.02573581412434578,-0.013063366524875164,-0.05848081409931183
1772566219387580700,1.36458056640625,0.02454337850213051,-0.020243965089321136,-0.09310674667358398
1772566219397609700,1.374609619140625,0.02431860938668251,-0.003653803840279579,-0.13146744668483734
1772566219407637500,1.384637451171875,0.020426638424396515,0.0041132355108857155,-0.16297109425067902
1772566219417666600,1.39466650390625,0.017317399382591248,0.014422864653170109,-0.17280827462673187
1772566219427694800,1.40469482421875,0.018270689994096756,0.006207633763551712,-0.1777571588754654
1772566219437723600,1.4147236328125,0.021525342017412186,0.017886126413941383,-0.1573789119720459
1772566219447751700,1.424751708984375,0.019189495593309402,0.017897211015224457,-0.12722685933113098
1772566219457780500,1.434780517578125,0.021682213991880417,0.012726685963571072,-0.1114223301410675
1772566219467808800,1.444808837890625,0.023578742519021034,0.0007907738909125328,-0.11751069128513336
1772566219477837800,1.454837890625,0.025629112496972084,0.016062136739492416,-0.15012963116168976
1772566219487865600,1.464865478515625,0.02597969025373459,-0.02431989088654518,-0.1607552021741867
1772566219497894700,1.474894775390625,0.033592868596315384,-0.036308906972408295,-0.1703455001115799
1772566219507922700,1.484922607421875,0.028835732489824295,-0.037236347794532776,-0.14281833171844482
1772566219517951700,1.49495166015625,0.029931355267763138,-0.04389025270938873,-0.10665606707334518
1772566219527979500,1.5049794921875,0.03072323277592659,-0.053518734872341156,-0.05089300870895386
1772566219538008600,1.515008544921875,0.02977168560028076,-0.0540018305182457,0.007046726532280445
1772566219548036900,1.525036865234375,0.029372531920671463,-0.05645446106791496,0.03339959681034088
1772566219558065700,1.535065673828125,0.027620967477560043,-0.06535634398460388,0.02471662499010563
1772566219568093700,1.54509375,0.02406977489590645,-0.05367562547326088,0.01909491792321205
1772566219578121700,1.555121826171875,0.02201833948493004,-0.03953637182712555,0.013328376226127148
1772566219588150800,1.56515087890625,0.01626337319612503,-0.03567691147327423,0.00848143920302391
1772566219598178600,1.575178466796875,0.011083257384598255,-0.03717334568500519,0.009417805820703506
1772566219608207600,1.58520751953125,0.00706073921173811,-0.04731608182191849,0.009555196389555931
1772566219618235600,1.595235595703125,0.004039915278553963,-0.06330516934394836,0.007374068256467581
1772566219628264700,1.6052646484375,0.0018449081107974052,-0.08037924021482468,-0.0019384385086596012
1772566219638292700,1.615292724609375,0.000026768073439598083,-0.08094675838947296,-0.006055419333279133
1772566219648321500,1.625321533203125,0.0032974854111671448,-0.06980716437101364,0.0016162465326488018
1772566219658349800,1.635349853515625,0.005568895488977432,-0.06251729279756546,0.0044008479453623295
1772566219668378600,1.645378662109375,0.013579756952822208,-0.07040013372898102,-0.010722259990870953
1772566219678406700,1.65540673828125,0.027784790843725204,-0.07615043222904205,-0.023958969861268997
1772566219688435700,1.665435791015625,0.029857132583856583,-0.06461476534605026,-0.02008136361837387
1772566219698463700,1.675463623046875,0.020600782707333565,-0.050076037645339966,-0.0055351778864860535
1772566219708492800,1.685492919921875,0.016252387315034866,-0.03744183108210564,0.009828353300690651
1772566219718520600,1.6955205078125,0.013070974498987198,-0.0250735804438591,0.013185268267989159
1772566219728549600,1.705549560546875,0.007271819747984409,-0.02209590934216976,-0.010332327336072922
1772566219738577700,1.71557763671875,0.007215892896056175,-0.01594507321715355,-0.03150898590683937
1772566219748606700,1.725606689453125,0.012188336811959743,-0.014602604322135448,-0.04927608743309975
1772566219758634800,1.735634765625,0.02388574182987213,-0.015629518777132034,-0.04856022819876671
1772566219768663600,1.74566357421875,0.04107695072889328,-0.025450261309742928,-0.03633396700024605
1772566219778691800,1.75569189453125,0.04660940170288086,-0.03294386342167854,-0.014308027923107147
1772566219788720600,1.765720703125,0.02702997252345085,-0.04010901600122452,0.013038063421845436
1772566219798748700,1.775748779296875,0.009835806675255299,-0.034496139734983444,0.01847943291068077
1772566219808777700,1.78577783203125,0.007226494140923023,-0.026383209973573685,0.015249906107783318
1772566219818805800,1.7958056640625,0.011916319839656353,-0.018674423918128014,-0.01027302909642458
1772566219828834800,1.805834716796875,0.011231370270252228,-0.016218021512031555,-0.036088891327381134
1772566219838862600,1.815862548828125,0.007536766119301319,-0.01407737284898758,-0.052282772958278656
1772566219848891600,1.8258916015625,0.006307586096227169,-0.017451416701078415,-0.055903565138578415
1772566219858919700,1.835919677734375,0.015266993083059788,-0.013159465976059437,-0.04244101792573929
1772566219868948700,1.84594873046875,0.017610639333724976,-0.004386172629892826,-0.014357876032590866
1772566219878976800,1.855976806640625,0.012032114900648594,-0.00603759940713644,0.0015862034633755684
1772566219889005600,1.866005615234375,0.015581428073346615,-0.006167108193039894,0.001249250490218401
1772566219899033900,1.876033935546875,0.015773974359035492,-0.006706132087856531,-0.015213612467050552
1772566219909062700,1.886062744140625,0.010161790065467358,-0.00983403343707323,-0.02889258787035942
1772566219919091000,1.896091064453125,0.006499944254755974,-0.006283506751060486,-0.023634973913431168
1772566219929120000,1.9061201171875,0.011015601456165314,-0.0120174465700984,-0.020319240167737007
1772566219939148000,1.91614794921875,0.011241171509027481,-0.011906925588846207,-0.017486969009041786
1772566219949177000,1.926177001953125,0.004347149282693863,-0.015608547255396843,-0.016209367662668228
1772566219959204900,1.936204833984375,-0.007322289980947971,-0.013748329132795334,-0.019004888832569122
1772566219969234000,1.94623388671875,-0.0016812863759696484,-0.015733467414975166,-0.017606109380722046
1772566219979262000,1.956261962890625,0.013494203798472881,-0.026332050561904907,-0.011056598275899887
1772566219989291000,1.966291015625,0.02420976385474205,-0.031614385545253754,-0.0010797525756061077
1772566219999318800,1.97631884765625,0.029657524079084396,-0.03858361393213272,0.0059746946208179
1772566220009347800,1.986347900390625,0.019457686692476273,-0.05030493438243866,0.01976732164621353
1772566220019376000,1.996376220703125,-0.013943681493401527,-0.07578765600919724,0.024582048878073692
1772566220029405000,2.006405029296875,-0.008338578045368195,-0.031136710196733475,0.05095044896006584
1772566220039433000,2.016432861328125,-0.0024396763183176517,-0.040345922112464905,0.038218941539525986
1772566220049461800,2.026461669921875,0.0064417514950037,-0.05186128616333008,0.021249903365969658
1772566220059490000,2.036489990234375,0.005104844458401203,-0.040604107081890106,0.018833084031939507
1772566220069517800,2.046517822265625,-0.0071144793182611465,-0.029369594529271126,0.019321415573358536
1772566220079547000,2.056546875,-0.027867428958415985,-0.02512424997985363,0.010914080776274204
1772566220089575200,2.0665751953125,-0.045986954122781754,-0.009090843610465527,-0.002111018169671297
1772566220099604000,2.07660400390625,-0.058863069862127304,0.007307570427656174,-0.013339970260858536
1772566220109632000,2.086632080078125,-0.0629209503531456,0.014084446243941784,-0.03367404639720917
1772566220119660800,2.096660888671875,-0.061161406338214874,0.0069730086252093315,-0.04568836838006973
1772566220129689000,2.106689208984375,-0.06079627200961113,0.0004982324317097664,-0.0433540865778923
1772566220139718100,2.11671826171875,-0.06152331456542015,0.004678864032030106,-0.0266648530960083
1772566220149746000,2.126745849609375,-0.061004504561424255,0.018021903932094574,-0.00873960368335247
1772566220159775000,2.13677490234375,-0.06015042960643768,0.03534283488988876,0.0022232988849282265
1772566220169803000,2.146802978515625,-0.057975638657808304,0.03860508278012276,-0.0025870786048471928
1772566220179832000,2.15683203125,-0.06136051565408707,0.044564440846443176,-0.005470483098179102
1772566220189859800,2.16685986328125,-0.07011023908853531,0.04031015932559967,-0.016217775642871857
1772566220199889000,2.176888916015625,-0.07506212592124939,0.04161457717418671,-0.025963081046938896
1772566220209917200,2.186917236328125,-0.07226928323507309,0.04404560849070549,-0.027837172150611877
1772566220219946000,2.196946044921875,-0.07043889164924622,0.05116317421197891,-0.03241061791777611
1772566220229974000,2.20697412109375,-0.07272685319185257,0.05265882611274719,-0.03459900617599487
1772566220240002800,2.2170029296875,-0.07767793536186218,0.041966501623392105,-0.04562875255942345
1772566220250031000,2.227031005859375,-0.08053868263959885,0.0375538133084774,-0.05588296800851822
1772566220260060200,2.23706005859375,-0.08639764040708542,0.024531755596399307,-0.05209595337510109
1772566220270088000,2.247087890625,-0.08384169638156891,0.01637043058872223,-0.03652237355709076
1772566220280117000,2.257116943359375,-0.06853809952735901,0.015305963344871998,-0.017780911177396774
1772566220290145000,2.26714501953125,-0.054157719016075134,0.010648454539477825,-0.007794068194925785
1772566220300174000,2.277174072265625,-0.048749372363090515,0.011618112213909626,-0.012355264276266098
1772566220310201900,2.287201904296875,-0.044023241847753525,0.02241247519850731,-0.014326582662761211
1772566220320231000,2.29723095703125,-0.044385164976119995,0.0304190032184124,-0.020277949050068855
1772566220330259000,2.307259033203125,-0.036911655217409134,0.023396603763103485,-0.027290649712085724
1772566220340288000,2.3172880859375,-0.024465903639793396,0.017382655292749405,-0.028942076489329338
1772566220350316000,2.32731591796875,-0.018544090911746025,0.011775698512792587,-0.020049981772899628
1772566220360344800,2.3373447265625,-0.003621866926550865,0.0013270536437630653,-0.017073899507522583
1772566220370373000,2.347373046875,0.012475811876356602,-0.008089396171271801,-0.009084261953830719
1772566220380402000,2.35740185546875,0.024381473660469055,-0.008770633488893509,-0.0006255293264985085
1772566220390430000,2.367429931640625,0.02779722958803177,-0.009184390306472778,0.0011489121243357658
1772566220400459000,2.377458984375,0.026648875325918198,-0.003797082230448723,-0.004498853348195553
1772566220410487000,2.387487060546875,0.03331802785396576,-0.009904199279844761,-0.008783234283328056
1772566220420516000,2.39751611328125,0.04218848794698715,-0.01353568583726883,-0.008182158693671227
1772566220430544000,2.4075439453125,0.042943425476551056,-0.013049169443547726,0.0061609819531440735
1772566220440573000,2.417572998046875,0.04043286293745041,-0.011441951617598534,0.01516752690076828
1772566220450601000,2.42760107421875,0.03691289573907852,-0.006189526524394751,0.020987939089536667
1772566220460630000,2.437630126953125,0.03731902688741684,-0.013700705952942371,0.026323847472667694
1772566220470658000,2.447657958984375,0.04191784933209419,-0.013271181844174862,0.02580254152417183
1772566220480686800,2.457686767578125,0.039100755006074905,-0.021005799993872643,0.021047469228506088
1772566220490715100,2.467715087890625,0.04028227552771568,-0.02479919046163559,0.016250580549240112
1772566220500744000,2.477743896484375,0.043313220143318176,-0.029035478830337524,0.018031703308224678
1772566220510772000,2.48777197265625,0.048243433237075806,-0.03320197016000748,0.020672369748353958
1772566220520801000,2.497801025390625,0.052760154008865356,-0.034387607127428055,0.032457124441862106
1772566220530829000,2.5078291015625,0.055572815239429474,-0.030140811577439308,0.042821772396564484
1772566220540858000,2.517858154296875,0.0594802051782608,-0.025115160271525383,0.04262709617614746
1772566220550886000,2.527885986328125,0.06154128536581993,-0.023441314697265625,0.033198822289705276
1772566220560915000,2.5379150390625,0.05442532151937485,-0.016092853620648384,0.01775808073580265
1772566220570943000,2.54794287109375,0.04355441406369209,-0.009916247799992561,-0.0009123296476900578
1772566220580972000,2.557971923828125,0.03689784184098244,-0.00523068243637681,-0.00933031551539898
1772566220590999800,2.567999755859375,0.02916586771607399,-0.006070383358746767,-0.008820297196507454
1772566220601028900,2.57802880859375,0.027035873383283615,-0.0013603167608380318,-0.0004838043823838234
1772566220611057200,2.58805712890625,0.025973297655582428,0.006637759506702423,0.006553111132234335
1772566220621086000,2.5980859375,0.019502349197864532,0.011520398780703545,0.0031514554284512997
1772566220631114000,2.608114013671875,0.009216129779815674,0.017676757648587227,-0.002757877577096224
1772566220641142800,2.618142822265625,0.0066381897777318954,0.02293623611330986,-0.01376099418848753
1772566220651171000,2.628171142578125,0.004606131464242935,0.030150961130857468,-0.0212379302829504
1772566220661200100,2.6382001953125,0.01594160869717598,0.04068802297115326,-0.015982449054718018
1772566220671228000,2.648227783203125,0.03384248539805412,0.052242740988731384,0.008891237899661064
1772566220681257000,2.658257080078125,0.04217072203755379,0.051950059831142426,0.03154435008764267
1772566220691285000,2.668284912109375,0.036561015993356705,0.04344663396477699,0.04844335466623306
1772566220701314000,2.67831396484375,0.024776525795459747,0.03841672092676163,0.042399048805236816
1772566220711341800,2.688341796875,0.01680940017104149,0.03845478594303131,0.021357424557209015
1772566220721371000,2.698370849609375,0.006501367315649986,0.04069343954324722,-0.006603102665394545
1772566220731399200,2.708399169921875,-0.0036124293692409992,0.021342497318983078,-0.027820877730846405
1772566220741428000,2.718427978515625,-0.009092682041227818,0.008968387730419636,-0.01606355607509613
1772566220751456000,2.7284560546875,0.00790184922516346,-0.0013470696285367012,0.007557805627584457
1772566220761484800,2.73848486328125,0.023990806192159653,-0.007743982598185539,0.018812056630849838
1772566220771513000,2.74851318359375,0.024462159723043442,-0.01678096130490303,0.011479794979095459
1772566220781542100,2.758542236328125,0.014526438899338245,-0.01142614334821701,0.0036250692792236805
1772566220791570000,2.76856982421875,0.01221262477338314,-0.004781792871654034,0.0008335052989423275
1772566220801599000,2.778598876953125,0.010075172409415245,0.0009173713624477386,0.0000028656795620918274
1772566220811627000,2.788626953125,0.019727807492017746,0.004396345466375351,-0.004893412347882986
1772566220821656000,2.798656005859375,0.03123399429023266,0.01852361671626568,-0.00011756550520658493
1772566220831683800,2.808683837890625,0.032973840832710266,0.018202785402536392,-0.0061269099824130535
1772566220841713000,2.818712890625,0.024615777656435966,0.01897643506526947,-0.005265111103653908
1772566220851741000,2.828740966796875,0.007363384589552879,0.02017827332019806,-0.0029845349490642548
1772566220861770000,2.83877001953125,-0.0018801805563271046,-0.00021088961511850357,-0.008401937782764435
1772566220871798000,2.848798095703125,-0.0034687696024775505,-0.009952105581760406,-0.007822990417480469
1772566220881826800,2.858826904296875,-0.01661013811826706,-0.014971098862588406,-0.0008401819504797459
1772566220891855000,2.868855224609375,-0.03213983029127121,-0.016989775002002716,0.009977844543755054
1772566220901884000,2.8788837890625,-0.03754205256700516,-0.009133183397352695,0.017471179366111755
1772566220911912000,2.888911865234375,-0.04229685664176941,0.009082038886845112,0.022364206612110138
1772566220921940500,2.8989404296875,-0.0480777844786644,0.021889444440603256,0.013617320917546749
1772566220931968800,2.90896875,-0.05209209397435188,0.03224131464958191,0.0013915784657001495
1772566220941997600,2.91899755859375,-0.046028342097997665,0.03740491718053818,-0.003996795974671841
1772566220952025600,2.929025634765625,-0.04401350021362305,0.04382737725973129,0.002432157751172781
1772566220962054400,2.939054443359375,-0.036527618765830994,0.04673980921506882,0.013158304616808891
1772566220972082700,2.949082763671875,-0.035023804754018784,0.04313936084508896,0.021006189286708832
1772566220982111700,2.95911181640625,-0.02892782911658287,0.03928523510694504,0.019144373014569283
1772566220992139500,2.969139404296875,-0.029526129364967346,0.03146602213382721,0.014869188889861107
1772566221002167600,2.97916748046875,-0.021640243008732796,0.02399984747171402,0.009669100865721703
1772566221012196600,2.989196533203125,-0.011689594946801662,0.021884135901927948,0.002539041917771101
1772566221022225700,2.9992255859375,-0.008861050941050053,0.023853812366724014,0.004866910632699728
1772566221032253400,3.00925341796875,-0.011582711711525917,0.0216608215123415,0.009284458123147488
1772566221042282500,3.019282470703125,-0.01096565742045641,0.012301141396164894,0.012079446576535702
1772566221052310500,3.029310546875,-0.0030242125503718853,0.0019279513508081436,0.012068036943674088
1772566221062338600,3.039338623046875,0.00025999825447797775,-0.007301499601453543,0.012114642187952995
1772566221072367600,3.04936767578125,0.0035320594906806946,-0.008320780470967293,0.016584716737270355
1772566221082395600,3.059395751953125,0.0071457019075751305,-0.01697765290737152,0.02250146120786667
1772566221092424700,3.0694248046875,0.015450828708708286,-0.02719278261065483,0.027332866564393044
1772566221102453500,3.07945361328125,0.024192389100790024,-0.029818659648299217,0.033553481101989746
1772566221112481500,3.0894814453125,0.02750580944120884,-0.027308393269777298,0.04199601709842682
1772566221122509600,3.099509521484375,0.022382952272892,-0.02383456751704216,0.032371886074543
1772566221132538600,3.10953857421875,0.02265685424208641,-0.023519940674304962,0.02172214165329933
1772566221142566700,3.119566650390625,0.0358181968331337,-0.008922622539103031,0.0313236378133297
1772566221152595500,3.129595458984375,0.039703529328107834,0.011813587509095669,0.04173140972852707
1772566221162623700,3.139623779296875,0.03740601986646652,0.02152853086590767,0.025703439489006996
1772566221172652500,3.149652587890625,0.04052525758743286,0.028903096914291382,0.004877240397036076
1772566221182680600,3.1596806640625,0.046686746180057526,0.04093525558710098,-0.014345722272992134
1772566221192709600,3.169709716796875,0.04513198137283325,0.044503990560770035,-0.020852647721767426
1772566221202737700,3.179737548828125,0.03980033099651337,0.03655232489109039,-0.018159126862883568
1772566221212766700,3.1897666015625,0.041823551058769226,0.027047403156757355,-0.010646858252584934
1772566221222795500,3.19979541015625,0.04124431312084198,0.020926926285028458,0.003153908997774124
1772566221232823600,3.209823486328125,0.03595361113548279,0.0035802368074655533,0.016630154103040695
1772566221242851600,3.2198515625,0.0249590165913105,-0.005763464607298374,0.022692840546369553
1772566221252880600,3.229880615234375,0.02216656506061554,-0.0015605799853801727,0.03580201044678688
1772566221262908700,3.23990869140625,0.020980926230549812,0.005073620937764645,0.03948809206485748
1772566221272937500,3.2499375,0.015294923447072506,0.01943213865160942,0.02661968022584915
1772566221282965800,3.2599658203125,0.000421169213950634,0.03855017572641373,-0.0022700252011418343
1772566221292994600,3.26999462890625,-0.005745432339608669,0.056770049035549164,-0.02007414773106575
1772566221303023600,3.280023681640625,-0.01083286851644516,0.06360824406147003,-0.03301018476486206
1772566221313051400,3.290051513671875,-0.011776487343013287,0.05203607305884361,-0.04078331217169762
1772566221323080400,3.30008056640625,-0.0048011355102062225,0.04749271646142006,-0.01744896173477173
1772566221333108700,3.310108642578125,0.0006509739905595779,0.043715301901102066,0.02042592130601406
1772566221343136500,3.320136474609375,-0.0026297741569578648,0.030057016760110855,0.038432084023952484
1772566221353165600,3.33016552734375,-0.003210278693586588,0.013292730785906315,0.030018474906682968
1772566221363194400,3.3401943359375,0.0027088625356554985,0.010214650072157383,0.019893936812877655
1772566221373222700,3.35022265625,0.006675804033875465,0.006263027898967266,0.013851305469870567
1772566221383251700,3.360251708984375,0.011937678791582584,0.002386529929935932,0.01772194355726242
1772566221393279500,3.370279541015625,0.021989578381180763,-0.0006048278883099556,0.036240316927433014
1772566221403307800,3.380307861328125,0.03846069425344467,-0.0013957861810922623,0.04436056315898895
1772566221413336600,3.390336669921875,0.04603481665253639,-0.00880576390773058,0.03754306212067604
1772566221423364600,3.400364501953125,0.05012223869562149,-0.02009064331650734,0.025676019489765167
1772566221433393400,3.410393310546875,0.049786485731601715,-0.024019379168748856,0.024929942563176155
1772566221443422500,3.42042236328125,0.04567909240722656,-0.0242295041680336,0.025888683274388313
1772566221453450800,3.43045068359375,0.04220104217529297,-0.020540088415145874,0.039703890681266785
1772566221463479600,3.4404794921875,0.04152193292975426,-0.014760228805243969,0.04256518930196762
1772566221473507600,3.450507568359375,0.03676101565361023,-0.02214367687702179,0.031228188425302505
1772566221483536400,3.460536376953125,0.03674690052866936,-0.025296062231063843,0.01585748791694641
1772566221493564700,3.470564697265625,0.03717894107103348,-0.02218594029545784,0.010839402675628662
1772566221503592400,3.480592529296875,0.03412456437945366,-0.019278302788734436,0.016099411994218826
1772566221513621500,3.49062158203125,0.02548031136393547,-0.021390285342931747,0.01737634837627411
1772566221523649800,3.50064990234375,0.020671440288424492,-0.019225936383008957,0.02026640996336937
1772566221533678600,3.5106787109375,0.02024844102561474,-0.017163049429655075,0.02075943537056446
1772566221543707600,3.520707763671875,0.013191331177949905,-0.015602435916662216,0.01739533059298992
1772566221553735400,3.5307353515625,0.009526021778583527,-0.010157200507819653,0.004193003289401531
1772566221563764500,3.540764404296875,0.0017258897423744202,-0.011272000148892403,-0.0078117274679243565
1772566221573792800,3.550792724609375,0.0010338369756937027,-0.01677006483078003,-0.01872490718960762
1772566221583821600,3.560821533203125,0.000723312608897686,-0.03294583782553673,-0.012731995433568954
1772566221593849600,3.570849609375,-0.001222317572683096,-0.04148770123720169,-0.00010260846465826035
1772566221603877600,3.580877685546875,0.008487568236887455,-0.051203977316617966,0.02231614850461483
1772566221613906700,3.59090673828125,0.022881217300891876,-0.05947209149599075,0.028678325936198235
1772566221623935700,3.600935791015625,0.0348912738263607,-0.0662037655711174,0.02282336726784706
1772566221633963500,3.610963623046875,0.04197564721107483,-0.07140181958675385,0.011293111369013786
1772566221643992600,3.62099267578125,0.052192866802215576,-0.06589679419994354,-0.0010397210717201233
1772566221654020600,3.6310205078125,0.06374669075012207,-0.050984013825654984,-0.000843229703605175
1772566221664049700,3.641049560546875,0.06296718120574951,-0.03446575999259949,0.0025483062490820885
1772566221674077400,3.651077392578125,0.059066008776426315,-0.023068098351359367,0.006105123553425074
1772566221684106500,3.6611064453125,0.059467341750860214,-0.012843158096075058,-0.0010329470969736576
1772566221694134500,3.671134521484375,0.05259811133146286,-0.0029962677508592606,-0.010898650623857975
1772566221704163600,3.68116357421875,0.04888726398348808,0.007154370658099651,-0.012295212596654892
1772566221714191600,3.691191650390625,0.042576104402542114,0.015241858549416065,-0.007400322239845991
1772566221724220400,3.701220458984375,0.028854168951511383,0.018769480288028717,-0.0071081737987697124
1772566221734248700,3.711248779296875,0.01806420460343361,0.017191603779792786,-0.003073818050324917
1772566221744277500,3.721277587890625,0.004713244736194611,0.011997108347713947,0.0038860864005982876
1772566221754305500,3.731305419921875,-0.00201300997287035,0.010723041370511055,0.008374765515327454
1772566221764334600,3.74133447265625,-0.015970904380083084,0.0145390834659338,0.014896580949425697
1772566221774362600,3.751362548828125,-0.023367058485746384,0.020946837961673737,0.012609409168362617
1772566221784391700,3.7613916015625,-0.03212805837392807,0.03398461267352104,0.009751571342349052
1772566221794419500,3.77141943359375,-0.03389403969049454,0.046742238104343414,0.009020195342600346
1772566221804448500,3.781448486328125,-0.044042013585567474,0.04881950467824936,0.002916230820119381
1772566221814476500,3.7914765625,-0.04496990144252777,0.04798343405127525,-0.0012410557828843594
1772566221824505600,3.801505615234375,-0.03869922459125519,0.05180187523365021,-0.0016613025218248367
1772566221834533600,3.81153369140625,-0.03599522262811661,0.049900367856025696,-0.008605573326349258
1772566221844562400,3.8215625,-0.04230984300374985,0.036403730511665344,-0.011460482142865658
1772566221854590700,3.8315908203125,-0.03965495526790619,0.022415198385715485,-0.007956331595778465
1772566221864619500,3.84161962890625,-0.04398978501558304,0.010600081644952297,-0.004173577297478914
1772566221874647600,3.8516474609375,-0.04362716153264046,0.0024648718535900116,0.0032196887768805027
1772566221884676600,3.861676513671875,-0.044179767370224,0.0019450224936008453,0.00950474850833416
1772566221894704600,3.87170458984375,-0.04886564612388611,0.004820813424885273,0.007223919034004211
1772566221904733700,3.881733642578125,-0.048850737512111664,0.0016039814800024033,0.00222037173807621
1772566221914761700,3.89176171875,-0.04141257703304291,-0.0008157752454280853,-0.0028005498461425304
1772566221924790500,3.90179052734375,-0.03273865953087807,0.0025568511337041855,-0.008329538628458977
1772566221934818800,3.91181884765625,-0.027819547802209854,0.00983095820993185,-0.005906386766582727
1772566221944848000,3.921847900390625,-0.02580566331744194,0.004606635309755802,-0.0032600034028291702
1772566221954875600,3.931875732421875,-0.022550322115421295,0.0018836623057723045,-0.006097280420362949
1772566221964904700,3.94190478515625,-0.013082250952720642,-0.001836506649851799,-0.007776403333991766
1772566221974932700,3.9519326171875,-0.002745965961366892,-0.01030874252319336,-0.0056498185731470585
1772566221984961800,3.9619619140625,0.012028452940285206,-0.013367382809519768,-0.0027656150050461292
1772566221994989600,3.971989501953125,0.02655271627008915,-0.01383265107870102,0.0007871575653553009
1772566222005018600,3.9820185546875,0.0401042103767395,-0.017883852124214172,-0.0022573680616915226
1772566222015046700,3.992046630859375,0.03734348341822624,-0.020336726680397987,-0.0059561701491475105
1772566222025075700,4.00207568359375,0.03518525883555412,-0.02630513533949852,-0.011747213080525398
1772566222035103700,4.012103759765625,0.03560427948832512,-0.01738220825791359,-0.019991334527730942
1772566222045132500,4.022132568359375,0.035773392766714096,-0.017165159806609154,-0.0151092279702425
1772566222055160800,4.032160888671875,0.03588724508881569,-0.01649376191198826,-0.010191437788307667
1772566222065189600,4.042189697265625,0.032196104526519775,-0.012011394836008549,-0.007660103030502796
1772566222075217700,4.0522177734375,0.023542430251836777,-0.009289911016821861,-0.009126972407102585
1772566222085246700,4.062246826171875,0.015848558396100998,-0.010679548606276512,-0.014459686353802681
1772566222095274800,4.072274658203125,0.0054354071617126465,-0.019069071859121323,-0.022592566907405853
1772566222105303800,4.0823037109375,0.0015053804963827133,-0.03144877776503563,-0.02118615061044693
1772566222115331600,4.09233154296875,0.007143874652683735,-0.04014783725142479,-0.01606133207678795
1772566222125360600,4.102360595703125,0.012798829935491085,-0.05199863761663437,-0.006861974019557238
1772566222135388700,4.112388671875,0.013414137065410614,-0.05996887385845184,0.0012558456510305405
1772566222145417700,4.122417724609375,0.019508248195052147,-0.05666123330593109,0.00726846419274807
1772566222155445800,4.13244580078125,0.01881590113043785,-0.05071176588535309,0.003590518608689308
1772566222165474600,4.142474609375,0.01978049799799919,-0.04552552476525307,-0.007002736907452345
1772566222175502800,4.1525029296875,0.015187395736575127,-0.031923674046993256,-0.01834901049733162
1772566222185531600,4.16253173828125,0.015015888959169388,-0.033002253621816635,-0.030528711155056953
1772566222195559700,4.1725595703125,0.011271364986896515,-0.03278965502977371,-0.03138943761587143
1772566222205588700,4.182588623046875,0.02002064883708954,-0.02820662409067154,-0.02572702243924141
1772566222215616800,4.19261669921875,0.028215531259775162,-0.028064509853720665,-0.021640002727508545
1772566222225645800,4.202645751953125,0.02439948543906212,-0.02483249641954899,-0.017909979447722435
1772566222235673600,4.212673583984375,0.026069287210702896,-0.018029717728495598,-0.019958749413490295
1772566222245702700,4.22270263671875,0.026864241808652878,-0.009013586677610874,-0.023680251091718674
1772566222255730700,4.232730712890625,0.019432565197348595,-0.007664012722671032,-0.02876393496990204
1772566222265759700,4.242759765625,0.01410384476184845,-0.012090985663235188,-0.035051390528678894
1772566222275787500,4.25278759765625,0.019896000623703003,0.002430475316941738,-0.02784079872071743
1772566222285816600,4.262816650390625,0.017747893929481506,0.007590617053210735,-0.014004877768456936
1772566222295844900,4.272844970703125,0.010915745981037617,0.010706274770200253,-0.012516854330897331
1772566222305873700,4.282873779296875,0.013150406070053577,0.019781794399023056,-0.014275074005126953
1772566222315901700,4.292901611328125,0.02461780235171318,0.021567165851593018,-0.01614202931523323
1772566222325930500,4.302930419921875,0.027823448181152344,0.028093241155147552,-0.014496727846562862
1772566222335958800,4.312958740234375,0.03034236654639244,0.023038607090711594,-0.013997456058859825
1772566222345987800,4.32298779296875,0.026350822299718857,0.0022659488022327423,-0.022366173565387726
1772566222356015600,4.333015625,0.02825174853205681,-0.010074855759739876,-0.025552451610565186
1772566222366044700,4.343044677734375,0.03115219622850418,-0.013739898800849915,-0.012799106538295746
1772566222376072700,4.35307275390625,0.03125283494591713,-0.012638859450817108,0.0044879489578306675
1772566222386101800,4.363101806640625,0.0246356762945652,-0.02076815813779831,-0.001274332869797945
1772566222396129500,4.373129638671875,0.01502657774835825,-0.02099873684346676,-0.016050653532147408
1772566222406158600,4.38315869140625,0.012971417047083378,-0.019661828875541687,-0.0222086813300848
1772566222416187000,4.393186767578125,0.00952055398374796,-0.018337374553084373,-0.007363296579569578
1772566222426215700,4.403215576171875,0.008433450944721699,-0.020087869837880135,0.006967173423618078
1772566222436243700,4.41324365234375,0.008656258694827557,-0.02434365078806877,0.003172234632074833
1772566222446272500,4.4232724609375,0.013399082235991955,-0.025138072669506073,0.0024952590465545654
1772566222456300800,4.43330078125,0.022819049656391144,-0.01572028547525406,0.006444128695875406
1772566222466329900,4.443329833984375,0.02388964220881462,-0.014266998507082462,0.008279845118522644
1772566222476357600,4.453357666015625,0.018292412161827087,-0.01125502958893776,-0.0021446915343403816
1772566222486386700,4.46338671875,0.018879108130931854,-0.009122902527451515,-0.010486777871847153
1772566222496414700,4.473414794921875,0.017385035753250122,-0.013020423240959644,-0.012561720795929432
1772566222506443800,4.48344384765625,0.022389914840459824,-0.015643637627363205,-0.0041772909462451935
1772566222516471600,4.493471435546875,0.023711375892162323,-0.019310809671878815,-0.0008728406392037868
1772566222526500600,4.50350048828125,0.02465147152543068,-0.023888517171144485,0.0036864914000034332
1772566222536528600,4.513528564453125,0.025040708482265472,-0.03162452206015587,0.010751627385616302
1772566222546557700,4.5235576171875,0.02202174812555313,-0.03228392079472542,0.011559097096323967
1772566222556585700,4.533585693359375,0.02070668339729309,-0.03804689645767212,0.008323101326823235
1772566222566614500,4.543614501953125,0.023726709187030792,-0.038142502307891846,0.008183283731341362
1772566222576643600,4.5536435546875,0.021979674696922302,-0.035662032663822174,0.005696690641343594
1772566222586671600,4.563671630859375,0.011066573671996593,-0.03655526041984558,0.005380040965974331
1772566222596700700,4.57370068359375,0.009162412025034428,-0.03432885557413101,0.002506224438548088
1772566222606728700,4.583728759765625,0.008356806822121143,-0.028681356459856033,0.0026276642456650734
1772566222616757500,4.593757568359375,0.00115167535841465,-0.029454585164785385,0.0036432244814932346
1772566222626785800,4.603785888671875,-0.009987528435885906,-0.03159337118268013,-0.0007323487661778927
1772566222636814600,4.613814697265625,-0.012560712173581123,-0.03438248112797737,-0.001550278626382351
1772566222646842600,4.623842529296875,-0.018777329474687576,-0.03878575190901756,0.001583995297551155
1772566222656871700,4.63387158203125,-0.022609248757362366,-0.03870439529418945,0.005729163996875286
1772566222666899700,4.643899658203125,-0.024583715945482254,-0.03567957878112793,0.005639415234327316
1772566222676928800,4.6539287109375,-0.02965058758854866,-0.02905924618244171,-0.002225068863481283
1772566222686956500,4.66395654296875,-0.02742764726281166,-0.01738208532333374,-0.004815525375306606
1772566222696985600,4.673985595703125,-0.024364251643419266,-0.006698000710457563,-0.004759408533573151
1772566222707013600,4.684013671875,-0.025301948189735413,-0.0012582279741764069,-0.0058414507657289505
1772566222717042700,4.694042724609375,-0.024894652888178825,0.0062090614810585976,-0.002107763197273016
1772566222727070700,4.70407080078125,-0.02041228488087654,0.006372046656906605,0.0003090552054345608
1772566222737099500,4.714099609375,-0.017035089433193207,0.007826758548617363,-0.001040017232298851
1772566222747127800,4.7241279296875,-0.011073604226112366,0.010435324162244797,0.0031091878190636635
1772566222757156600,4.734156494140625,-0.0033393269404768944,0.004495182074606419,0.0052496930584311485
1772566222767184600,4.7441845703125,0.005335920490324497,-0.003007208928465843,0.0030680308118462563
1772566222777213700,4.754213623046875,0.012974406592547894,-0.00545539753511548,0.006606581155210733
1772566222787241700,4.76424169921875,0.015585637651383877,-0.01049303263425827,0.0073288301937282085
1772566222797270800,4.774270751953125,0.017315082252025604,-0.018672039732336998,0.006591642741113901
1772566222807298600,4.784298583984375,0.02234153263270855,-0.02271951362490654,0.008110176771879196
1772566222817327600,4.79432763671875,0.022615209221839905,-0.025497153401374817,0.02153739519417286
1772566222827355600,4.804355712890625,0.02258751355111599,-0.017048008739948273,0.04026074707508087
1772566222837384700,4.814384765625,0.010334441438317299,-0.020193783566355705,0.04001865163445473
1772566222847412500,4.82441259765625,0.004635808989405632,-0.015698367729783058,0.024288158863782883
1772566222857441500,4.834441650390625,-0.00648405309766531,-0.013507703319191933,0.005477250088006258
1772566222867469800,4.8444697265625,-0.02024434134364128,-0.0084969662129879,0.0007232413627207279
1772566222877498600,4.85449853515625,-0.029092896729707718,-0.003991897217929363,-0.004597096238285303
1772566222887526700,4.864526611328125,-0.033831458538770676,-0.007398346904665232,-0.003751808777451515
1772566222897555700,4.8745556640625,-0.03028588369488716,-0.019636940211057663,-0.0029249340295791626
1772566222907583700,4.884583740234375,-0.03793341666460037,-0.023189596831798553,0.006028613541275263
1772566222917612500,4.894612548828125,-0.06053531914949417,-0.019799327477812767,0.020855648443102837
1772566222927640600,4.904640625,-0.07855240255594254,-0.016592614352703094,0.01606542058289051
1772566222937669600,4.914669677734375,-0.08023413270711899,-0.018740564584732056,-0.0005030687898397446
1772566222947697700,4.92469775390625,-0.07774700969457626,-0.00971084926277399,-0.00649331696331501
1772566222957726500,4.9347265625,-0.07266148924827576,-0.00002216082066297531,-0.010821852833032608
1772566222967754500,4.94475439453125,-0.05796882510185242,0.002308371476829052,-0.015114868059754372
1772566222977783600,4.954783447265625,-0.04484442621469498,0.012315169908106327,-0.016039900481700897
1772566222987811600,4.9648115234375,-0.03404238075017929,0.011538325808942318,-0.01148536242544651
1772566222997840600,4.974840576171875,-0.03060402348637581,0.013118753209710121,-0.0116116963326931
1772566223007868400,4.984868408203125,-0.022706685587763786,0.008920546621084213,-0.013706538826227188
1772566223017897700,4.994897705078125,-0.012565823271870613,0.007873211055994034,-0.01594982109963894
1772566223027925500,5.004925537109375,-0.003252482507377863,0.014751356095075607,-0.005745919421315193
1772566223037954600,5.01495458984375,0.005057504400610924,0.020685262978076935,-0.003410882316529751
1772566223047982600,5.024982666015625,0.008890325203537941,0.02029005065560341,-0.0070199985057115555
1772566223058011600,5.03501171875,0.01762508600950241,0.022919252514839172,-0.00783867109566927
1772566223068039700,5.045039794921875,0.019473053514957428,0.01598890870809555,-0.01367259118705988
1772566223078068500,5.055068359375,0.0179075226187706,0.00847333949059248,-0.01255511213093996
1772566223088096500,5.065096435546875,0.019096357747912407,-0.001250128261744976,-0.0011852788738906384
1772566223098125800,5.075125732421875,0.016108136624097824,-0.012011740356683731,0.005553275812417269
1772566223108153600,5.085153564453125,0.017364082857966423,-0.009726482443511486,0.011602647602558136
1772566223118182700,5.0951826171875,0.009169741533696651,-0.000017727725207805634,0.016767455264925957
1772566223128210400,5.10521044921875,0.009168942458927631,0.0075424546375870705,0.005449553485959768
1772566223138239700,5.11523974609375,0.000005866400897502899,0.02127697318792343,-0.01063874363899231
1772566223148267500,5.125267578125,-0.007819299586117268,0.030401229858398438,-0.010558848269283772
1772566223158296600,5.135296630859375,-0.016549456864595413,0.045690279453992844,-0.008647331967949867
1772566223168324400,5.145324462890625,-0.012211168184876442,0.0433293879032135,-0.015541190281510353
1772566223178353700,5.155353759765625,-0.015772638842463493,0.03923709690570831,-0.021798603236675262
1772566223188382700,5.1653828125,-0.024680646136403084,0.03584582358598709,-0.017005711793899536
1772566223198410500,5.175410400390625,-0.02579527348279953,0.024440329521894455,-0.014299853704869747
1772566223208439600,5.185439453125,-0.028781209141016006,0.00819345097988844,-0.006891472265124321
1772566223218467600,5.195467529296875,-0.02733340859413147,-0.004405817948281765,-0.004744494333863258
1772566223228496600,5.20549658203125,-0.026662558317184448,-0.018512848764657974,0.009845633059740067
1772566223238524700,5.215524658203125,-0.018733598291873932,-0.022114664316177368,0.0255642831325531
1772566223248553500,5.225553466796875,-0.012998480349779129,-0.015226397663354874,0.0394662506878376
1772566223258581800,5.235581787109375,-0.016596751287579536,-0.01166359893977642,0.03330700099468231
1772566223268610600,5.245610595703125,-0.022587798535823822,-0.008189238607883453,0.018124321475625038
1772566223278638600,5.255638671875,-0.022548366338014603,0.0048279231414198875,0.00704564293846488
1772566223288667600,5.265667724609375,-0.0196380652487278,0.020363736897706985,0.004753726068884134
1772566223298695700,5.27569580078125,-0.02319268509745598,0.024189449846744537,0.0018788808956742287
1772566223308724700,5.285724853515625,-0.023708274587988853,0.01739892177283764,-0.0046258894726634026
1772566223318752500,5.29575244140625,-0.016061212867498398,0.010884241200983524,-0.0028334748931229115
1772566223328781600,5.305781494140625,-0.01405798364430666,0.01518577802926302,0.011037599295377731
1772566223338809600,5.3158095703125,-0.014499089680612087,0.01455206610262394,0.01919708214700222
1772566223348838700,5.325838623046875,-0.020787879824638367,-0.002184568904340267,0.007927916944026947
1772566223358866700,5.33586669921875,-0.02570400759577751,-0.02066832408308983,-0.0015527959913015366
1772566223368895500,5.3458955078125,-0.021578771993517876,-0.017208078876137733,0.010566184297204018
1772566223378923800,5.355923828125,-0.022999318316578865,-0.013128669932484627,0.027007434517145157
1772566223388952600,5.36595263671875,-0.02428802102804184,-0.013581141829490662,0.030854903161525726
1772566223398980600,5.375980712890625,-0.024311190471053123,-0.0143257612362504,0.013578446581959724
1772566223409009700,5.386009765625,-0.022692255675792694,-0.002239537425339222,-0.00045428285375237465
1772566223419037700,5.39603759765625,-0.01879115402698517,0.01853726990520954,-0.00008762255311012268
1772566223429066800,5.406066650390625,-0.013377212919294834,0.02965649776160717,0.004351068288087845
1772566223439094500,5.416094482421875,-0.014561710879206657,0.026677455753087997,0.00003955839201807976
1772566223449123600,5.42612353515625,-0.013113483786582947,0.02440284937620163,-0.01071828044950962
1772566223459151600,5.436151611328125,-0.012227267026901245,0.016318224370479584,-0.008377249352633953
1772566223469180700,5.4461806640625,-0.011009935289621353,0.009308517910540104,0.0001360774040222168
1772566223479208400,5.45620849609375,-0.012207793071866035,-0.004889148753136396,0.009141611866652966
1772566223489237500,5.466237548828125,-0.010836265981197357,-0.012127354741096497,0.01458671037107706
1772566223499265800,5.476265869140625,-0.009928777813911438,-0.012575890868902206,0.030125755816698074
1772566223509294600,5.486294677734375,-0.011341052129864693,-0.016952529549598694,0.0344051867723465
1772566223519322600,5.496322509765625,-0.011152712628245354,-0.022990446537733078,0.030054761096835136
1772566223529351400,5.506351318359375,-0.011107172816991806,-0.02277126908302307,0.024801677092909813
1772566223539379700,5.516379638671875,-0.008906049653887749,-0.018705980852246284,0.020407233387231827
1772566223549408800,5.52640869140625,-0.010853619314730167,-0.01801302656531334,0.013919775374233723
1772566223559436500,5.5364365234375,-0.00977398082613945,-0.017845582216978073,0.01033833809196949
1772566223569465600,5.546465576171875,-0.0075510405004024506,-0.006752983666956425,0.018625563010573387
1772566223579493600,5.55649365234375,-0.006560640409588814,-0.002744845114648342,0.023471923545002937
1772566223589522700,5.566522705078125,-0.006004572845995426,0.0015529636293649673,0.014592144638299942
1772566223599550500,5.576550537109375,-0.0033963825553655624,0.0037537040188908577,0.0024609779939055443
1772566223609579500,5.58657958984375,-0.0039354064501821995,0.009941558353602886,-0.0022080764174461365
1772566223619607800,5.59660791015625,-0.006553586106747389,0.0114921098574996,0.00006672274321317673
1772566223629636600,5.60663671875,-0.002200915478169918,0.009859592653810978,0.0014049606397747993
1772566223639664600,5.61666455078125,-0.002908480353653431,0.012847376987338066,0.009700516238808632
1772566223649693400,5.626693359375,-0.002965205814689398,0.012887591496109962,0.013008961454033852
1772566223659721700,5.6367216796875,-0.005127172917127609,0.014405953697860241,0.0063702077604830265
1772566223669750800,5.646750732421875,-0.00039260508492588997,0.01858232170343399,-0.001955099403858185
1772566223679778600,5.656778564453125,0.006468534469604492,0.025209050625562668,-0.009765543043613434
1772566223689807600,5.6668076171875,0.01376506220549345,0.019973542541265488,-0.013097690418362617
1772566223699836400,5.67683642578125,0.019645031541585922,0.012343773618340492,-0.017913268879055977
1772566223709864700,5.68686474609375,0.03173711523413658,-0.005365981254726648,-0.013447679579257965
1772566223719893800,5.696893798828125,0.042336687445640564,-0.011125567369163036,0.003761784639209509
1772566223729921500,5.706921630859375,0.044990260154008865,-0.01779678463935852,0.007046794053167105
1772566223739950600,5.71695068359375,0.0424506738781929,-0.026891667395830154,0.0032906951382756233
1772566223749978600,5.726978515625,0.04316600039601326,-0.024656742811203003,-0.004064156673848629
1772566223760007700,5.737007568359375,0.038688816130161285,-0.016971079632639885,0.00014412961900234222
1772566223770035500,5.747035400390625,0.032364606857299805,-0.0057985857129096985,-0.0034250388853251934
1772566223780064500,5.757064453125,0.02568267285823822,-0.0010108202695846558,-0.01780863106250763
1772566223790092500,5.767092529296875,0.019468985497951508,-0.0025850143283605576,-0.027817323803901672
1772566223800121600,5.77712158203125,0.017502915114164352,-0.0022511761635541916,-0.022780999541282654
1772566223810149600,5.787149658203125,0.014965985901653767,-0.0098198801279068,-0.0060073453933000565
1772566223820178400,5.797178466796875,0.012891305610537529,-0.025807181373238564,-0.008024051785469055
1772566223830206700,5.807206787109375,0.010841736570000648,-0.029309771955013275,-0.002210371196269989
1772566223840235500,5.817235595703125,0.0013162707909941673,-0.02153150737285614,0.00988676492124796
1772566223850263600,5.827263671875,-0.003110168967396021,-0.010594705119729042,0.015478868968784809
1772566223860292600,5.837292724609375,0.00007363315671682358,-0.001876145601272583,0.014795232564210892
1772566223870320600,5.847320556640625,-0.007355786859989166,0.010308882221579552,0.004109298810362816
1772566223880349700,5.857349609375,-0.014756519347429276,0.024782918393611908,-0.01766246370971203
1772566223890377500,5.86737744140625,-0.013167411088943481,0.03822921961545944,-0.03354901820421219
1772566223900406500,5.877406494140625,-0.008414163254201412,0.0478096641600132,-0.040441736578941345
1772566223910434600,5.8874345703125,-0.009927637875080109,0.044956352561712265,-0.03660358861088753
1772566223920464600,5.897464599609375,-0.011656731367111206,0.04448902979493141,-0.01984890177845955
1772566223930492400,5.907492431640625,-0.009077992290258408,0.0319194421172142,0.0007834071293473244
1772566223940521500,5.917521484375,-0.005323410499840975,0.01363868173211813,0.011045463383197784
1772566223950549200,5.92754931640625,0.0011454075574874878,-0.0002164142206311226,0.013978935778141022
1772566223960578600,5.93757861328125,0.0007019946351647377,-0.016947094351053238,0.0126697588711977
1772566223970606600,5.947606689453125,0.002939315512776375,-0.023350398987531662,0.018639234825968742
1772566223980635400,5.957635498046875,-0.0023378022015094757,-0.022845622152090073,0.023198939859867096
1772566223990663400,5.967663330078125,-0.0008962331339716911,-0.014204731211066246,0.0348992720246315
1772566224000692500,5.9776923828125,0.0021524233743548393,-0.00507750827819109,0.0360521636903286
1772566224010720500,5.987720458984375,0.002890652045607567,0.006039856933057308,0.028876543045043945
1772566224020749600,5.99774951171875,0.00330301932990551,0.013919851742684841,0.008952334523200989
1772566224030777300,6.00777734375,0.0007525095716118813,0.019625939428806305,-0.008661545813083649
1772566224040806700,6.017806640625,-0.004597903229296207,0.022704683244228363,-0.021657496690750122
1772566224050834400,6.02783447265625,-0.008870412595570087,0.018664665520191193,-0.020875059068202972
1772566224060863500,6.037863525390625,-0.018031179904937744,0.011073512025177479,-0.02025592513382435
1772566224070891300,6.047891357421875,-0.02402275800704956,0.0004970338195562363,-0.014031318947672844
1772566224080920600,6.057920654296875,-0.0219833105802536,-0.007835997268557549,-0.008384885266423225
1772566224090948400,6.0679482421875,-0.024111174046993256,-0.013780971989035606,-0.007722290698438883
1772566224100977400,6.077977294921875,-0.02212047576904297,-0.019080568104982376,-0.008474924601614475
1772566224111005400,6.08800537109375,-0.024147672578692436,-0.009975221008062363,-0.0028226319700479507
1772566224121034500,6.098034423828125,-0.019984886050224304,-0.005527209956198931,-0.0008244621567428112
1772566224131062500,6.1080625,-0.016123302280902863,0.004237004555761814,-0.0037414224352687597
1772566224141091300,6.11809130859375,-0.016420617699623108,0.01114403922110796,-0.0015048328787088394
1772566224151120400,6.128120361328125,-0.014134027995169163,0.017820850014686584,-0.0057959845289587975
1772566224161148700,6.138148681640625,-0.00946022942662239,0.015517051331698895,-0.01015754695981741
1772566224171177500,6.148177490234375,-0.008852495811879635,0.022827163338661194,-0.010988187044858932
1772566224181205500,6.15820556640625,-0.007482020650058985,0.02143663354218006,-0.010392412543296814
1772566224191234300,6.168234375,-0.00724100461229682,0.018936192616820335,-0.009812641888856888
1772566224201262600,6.1782626953125,0.0006879018619656563,0.015699248760938644,-0.014825765043497086
1772566224211291600,6.188291748046875,0.006788671016693115,0.011757505126297474,-0.005635729059576988
1772566224221319400,6.1983193359375,0.007580113597214222,0.0061897411942481995,0.003939565736800432
1772566224231348500,6.208348388671875,0.010664320550858974,0.010149061679840088,0.011021977290511131
1772566224241376500,6.21837646484375,0.009680441580712795,0.0044707925990223885,0.011149605736136436
1772566224251405600,6.228405517578125,0.00928895827382803,0.004172784276306629,0.007871787995100021
1772566224261433300,6.238433349609375,0.005781114101409912,0.004806862212717533,0.0058202436193823814
1772566224271462400,6.24846240234375,0.0021323170512914658,0.005128572694957256,0.009126026183366776
1772566224281490700,6.25849072265625,0.0037055788561701775,0.003334352746605873,0.006372033152729273
1772566224291519500,6.26851953125,0.0033204862847924232,0.0009851781651377678,0.004711019340902567
1772566224301547500,6.278547607421875,0.0003113560378551483,-0.0015875166282057762,0.0020869560539722443
1772566224311576300,6.288576416015625,-0.001992544624954462,-0.0049470942467451096,0.00004750723019242287
1772566224321604600,6.2986044921875,-0.004089971072971821,-0.011285873129963875,0.0019350489601492882
1772566224331633700,6.308633544921875,-0.006022627465426922,-0.017109673470258713,0.003551587462425232
1772566224341661400,6.318661376953125,-0.001720723696053028,-0.016579659655690193,0.009701022878289223
1772566224351690500,6.3286904296875,-0.0012528062798082829,-0.015166586264967918,0.013755686581134796
1772566224361718500,6.338718505859375,-0.0033617010340094566,-0.01772049255669117,0.013081500306725502
1772566224371747600,6.34874755859375,-0.00589383440092206,-0.02216557413339615,0.011169083416461945
1772566224381775400,6.358775390625,-0.00237385556101799,-0.022200383245944977,0.011918658390641212
1772566224391804400,6.368804443359375,-0.003185054287314415,-0.02137826383113861,0.018977632746100426
1772566224401832400,6.37883251953125,-0.008660666644573212,-0.021183107048273087,0.02382560633122921
1772566224411861500,6.388861572265625,-0.011848470196127892,-0.01812819391489029,0.031157823279500008
1772566224421889500,6.3988896484375,-0.01046825386583805,-0.02113867551088333,0.032027680426836014
1772566224431918300,6.40891845703125,-0.005151519551873207,-0.021538149565458298,0.02532104216516018
1772566224441946600,6.418946533203125,-0.006483558099716902,-0.01814957708120346,0.011228272691369057
1772566224451975400,6.428975341796875,-0.0030536730773746967,-0.014354039914906025,0.00199615815654397
1772566224462003500,6.43900341796875,-0.006196936592459679,-0.012786079198122025,-0.010193504393100739
1772566224472032500,6.449032470703125,-0.00993841141462326,-0.015087316744029522,-0.01429317519068718
1772566224482060500,6.459060546875,-0.0046283709816634655,-0.0076475003734230995,0.0010018129833042622
1772566224492089600,6.469089599609375,-0.003175350371748209,-0.0035691354423761368,0.0072248210199177265
1772566224502118400,6.479118408203125,-0.004300281405448914,-0.0012062890455126762,0.011539649218320847
1772566224512146400,6.489146484375,-0.006136797368526459,0.006212479434907436,0.006977386772632599
1772566224522175500,6.499175537109375,-0.0037468564696609974,0.013524713926017284,-0.009282520972192287
1772566224532203500,6.50920361328125,-0.0034579033963382244,0.020220432430505753,-0.019361786544322968
1772566224542232600,6.519232666015625,-0.0025730906054377556,0.02686482109129429,-0.02231123298406601
1772566224552260400,6.52926025390625,0.0008794311434030533,0.024605395272374153,-0.020365528762340546
1772566224562289400,6.539289306640625,0.007083424367010593,0.02085941471159458,-0.021076032891869545
1772566224572317400,6.5493173828125,0.008241367526352406,0.013337315991520882,-0.018132973462343216
1772566224582346500,6.559346435546875,0.013445762917399406,0.005237480625510216,-0.011238209903240204
1772566224592374500,6.56937451171875,0.00883476622402668,0.0020448826253414154,0.003733016550540924
1772566224602403300,6.5794033203125,0.004541229456663132,0.004876694642007351,0.018093569204211235
1772566224612431600,6.589431640625,-0.0010476801544427872,0.01455941703170538,0.01866348646581173
1772566224622460400,6.59946044921875,-0.0059644789434969425,0.024897126480937004,0.007774764206260443
1772566224632488400,6.609488525390625,-0.009277984499931335,0.03138352185487747,-0.005118131171911955
1772566224642517500,6.619517578125,-0.017568621784448624,0.03345349803566933,-0.016432732343673706
1772566224652545500,6.629545654296875,-0.015255667269229889,0.029207084327936172,-0.017202384769916534
1772566224662574600,6.63957470703125,-0.0079277278855443,0.024717524647712708,-0.006234216503798962
1772566224672602400,6.649602294921875,0.0034610144793987274,0.017663344740867615,0.0001544402912259102
1772566224682631400,6.65963134765625,0.008181263692677021,0.0063010323792696,-0.002819119021296501
1772566224692659500,6.669659423828125,0.010142681188881397,-0.0012530237436294556,-0.008333993144333363
1772566224702688500,6.6796884765625,0.011090829037129879,-0.002456436865031719,-0.003146028146147728
1772566224712716300,6.68971630859375,0.007992506958544254,0.007029475644230843,0.0017571179196238518
1772566224722745300,6.699745361328125,0.0003408798947930336,0.016909217461943626,0.010743752121925354
1772566224732773600,6.709773681640625,-0.0018551629036664963,0.019309788942337036,0.00532954465597868
1772566224742802400,6.719802490234375,0.003608688712120056,0.030755486339330673,0.0034269453026354313
1772566224752830500,6.72983056640625,0.005345335230231285,0.028641466051340103,-0.003837625263258815
1772566224762859300,6.739859375,0.007631635293364525,0.02741260454058647,-0.005488836206495762
1772566224772887600,6.749887451171875,0.007224704138934612,0.02643469348549843,0.00031845225021243095
1772566224782916600,6.75991650390625,0.010226387530565262,0.028137095272541046,0.006767690647393465
1772566224792944400,6.7699443359375,0.009822651743888855,0.035175297409296036,0.013700433075428009
1772566224802973400,6.779973388671875,0.008910353295505047,0.04046747088432312,0.00975991040468216
1772566224813001500,6.79000146484375,0.006153981201350689,0.04304301738739014,0.0035898988135159016
1772566224823030500,6.800030517578125,0.007419574074447155,0.03807779401540756,0.0008093868382275105
1772566224833059600,6.8100595703125,0.00934637151658535,0.03374269977211952,-0.0028734984807670116
1772566224843087400,6.82008740234375,0.014686336740851402,0.02961433306336403,-0.005183397326618433
1772566224853116400,6.830116455078125,0.014416292309761047,0.025153804570436478,0.0003719562664628029
1772566224863144400,6.84014453125,0.012888945639133453,0.026827894151210785,0.009340674616396427
1772566224873173500,6.850173583984375,0.010363735258579254,0.02734268456697464,0.010526313446462154
1772566224883201300,6.860201171875,0.012089693918824196,0.015832673758268356,0.0007055238820612431
1772566224893230300,6.870230224609375,0.016232773661613464,0.015369816683232784,-0.00716358469799161
1772566224903258600,6.880258544921875,0.0205722376704216,0.020059872418642044,-0.01172321941703558
1772566224913287400,6.890287353515625,0.024769913405179977,0.020228449255228043,-0.012708589434623718
1772566224923315200,6.900315185546875,0.02628529816865921,0.02489766851067543,-0.019817793741822243
1772566224933344300,6.91034423828125,0.03079935535788536,0.024988215416669846,-0.02250092849135399
1772566224943372300,6.920372314453125,0.03433747589588165,0.02410641685128212,-0.024740144610404968
1772566224953401300,6.9304013671875,0.03947710990905762,0.020627528429031372,-0.024604588747024536
1772566224963429000,6.94042919921875,0.039223991334438324,0.014930879697203636,-0.02475105971097946
1772566224973458200,6.950458251953125,0.03214850276708603,-0.0012030825018882751,-0.024064762517809868
1772566224983486500,6.960486572265625,0.03393564000725746,-0.014170670881867409,-0.005504051223397255
1772566224993515300,6.970515380859375,0.03634047508239746,-0.026192445307970047,0.006752881221473217
1772566225003543300,6.980543212890625,0.029084764420986176,-0.027716172859072685,0.021438196301460266
1772566225013572000,6.990572021484375,0.015563366003334522,-0.021760012954473495,0.01923709362745285
1772566225023600400,7.000600341796875,0.0047320956364274025,-0.019650276750326157,0.008440794423222542
1772566225033629400,7.01062939453125,-0.003999344538897276,-0.016612142324447632,-0.016285590827465057
1772566225043657200,7.0206572265625,-0.007682496216148138,-0.016347158700227737,-0.02376188337802887
1772566225053686300,7.030686279296875,-0.003900807583704591,-0.006924894638359547,-0.019204681739211082
1772566225063714300,7.04071435546875,0.0009050667285919189,-0.005563100799918175,-0.00765070877969265
1772566225073743400,7.050743408203125,-0.0007530171424150467,-0.0030022049322724342,-0.0014343583025038242
1772566225083771100,7.060771240234375,-0.005140025168657303,-0.0038248728960752487,0.00392743106931448
1772566225093800200,7.07080029296875,-0.00945913977921009,-0.00978928804397583,0.007353588007390499
1772566225103828500,7.080828369140625,-0.014185439795255661,-0.006670818664133549,0.009848196059465408
1772566225113857300,7.090857177734375,-0.01669972948729992,-0.009150221943855286,0.015537241473793983
1772566225123885300,7.10088525390625,-0.01628727838397026,-0.010552886873483658,0.004982446786016226
1772566225133914000,7.1109140625,-0.010602230206131935,-0.017930375412106514,0.0028745546005666256
1772566225143942400,7.1209423828125,-0.013359556905925274,-0.020349889993667603,0.002784240059554577
1772566225153971500,7.130971435546875,-0.014975029975175858,-0.014009968377649784,0.012137794867157936
1772566225164000300,7.141000244140625,-0.010612206533551216,-0.016752593219280243,0.017062027007341385
1772566225174028300,7.1510283203125,-0.008961845189332962,-0.008646196685731411,0.017722757533192635
1772566225184057300,7.161057373046875,-0.01171704102307558,-0.0032554659992456436,0.007462888956069946
1772566225194085400,7.17108544921875,-0.019100654870271683,0.0048179058358073235,-0.0024387435987591743
1772566225204114400,7.181114501953125,-0.026959426701068878,0.00530510488897562,-0.012380692176520824
1772566225214142200,7.19114208984375,-0.03329934924840927,0.008210347034037113,-0.015319490805268288
1772566225224171500,7.201171630859375,-0.03892792388796806,0.007395591586828232,-0.012725545093417168
1772566225234199300,7.21119921875,-0.03956495597958565,0.0038333479315042496,-0.010321510024368763
1772566225244228400,7.221228271484375,-0.03556795418262482,0.0024053268134593964,-0.0032891761511564255
1772566225254256000,7.231256103515625,-0.03769715130329132,0.011281642131507397,0.00011088186874985695
1772566225264285400,7.241285400390625,-0.03379722684621811,0.01235360000282526,-0.0018685925751924515
1772566225274313200,7.251313232421875,-0.022385582327842712,0.013658815063536167,-0.010120131075382233
1772566225284342300,7.26134228515625,-0.013177396729588509,0.016954340040683746,-0.008869485929608345
1772566225294370300,7.271370361328125,-0.014656515792012215,0.0032989811152219772,-0.007978392764925957
1772566225304399400,7.2813994140625,-0.004089747555553913,-0.00320486631244421,-0.012502030469477177
1772566225314427400,7.291427490234375,0.0044946856796741486,-0.01778780296444893,-0.012632524594664574
1772566225324456200,7.301456298828125,0.007182941772043705,-0.016452159732580185,-0.009770297445356846
1772566225334484200,7.311484130859375,0.006292646750807762,-0.014593272469937801,-0.004253027029335499
1772566225344513500,7.321513427734375,0.0014239531010389328,-0.005148308351635933,0.005646152421832085
1772566225354541300,7.331541259765625,-0.005847808439284563,0.009650345891714096,0.002759285271167755
1772566225364570400,7.3415703125,-0.013224414549767971,0.02239016443490982,-0.00849961582571268
1772566225374598100,7.35159814453125,-0.018198667094111443,0.02227165177464485,-0.019789287820458412
1772566225384627500,7.36162744140625,-0.019714441150426865,0.01591287925839424,-0.021598435938358307
1772566225394655200,7.3716552734375,-0.02191074937582016,0.024295713752508163,-0.006833337713032961
1772566225404684300,7.381684326171875,-0.029180090874433517,0.029558997601270676,-0.004717936739325523
1772566225414713300,7.39171337890625,-0.032586272805929184,0.0203697606921196,-0.02003404125571251
1772566225424741400,7.401741455078125,-0.02913716435432434,0.01704976335167885,-0.025161588564515114
1772566225434770400,7.4117705078125,-0.02419913187623024,0.019679101184010506,-0.011065210215747356
1772566225444798200,7.421798095703125,-0.014930169098079205,0.020984921604394913,0.007607756182551384
1772566225454827300,7.4318271484375,-0.01739492453634739,0.014886015094816685,0.007083646021783352
1772566225464855600,7.44185546875,-0.016429733484983444,0.01834648847579956,-0.006778287701308727
1772566225474884400,7.45188427734375,-0.009146521799266338,0.02484220266342163,-0.012559477239847183
1772566225484912400,7.461912353515625,-0.008183134719729424,0.02055199444293976,-0.019558802247047424
1772566225494941200,7.471941162109375,-0.013476699590682983,0.01009136438369751,-0.021025406196713448
1772566225504969500,7.481969482421875,-0.010403799824416637,0.005441606976091862,-0.010154643096029758
1772566225514998500,7.49199853515625,-0.004405295941978693,0.003336911089718342,0.004928169306367636
1772566225525026300,7.5020263671875,0.0003125518560409546,-0.002053924836218357,0.011087181977927685
1772566225535055400,7.512055419921875,-0.00014125090092420578,-0.008650574833154678,0.009641350246965885
1772566225545083400,7.52208349609375,0.0014905678108334541,-0.016111750155687332,0.009679056704044342
1772566225555112400,7.532112548828125,0.0069007789716124535,-0.013542866334319115,0.010547513142228127
1772566225565140200,7.54214013671875,0.006687654182314873,-0.005956302862614393,0.01896853558719158
1772566225575169300,7.552169189453125,-0.0026864060200750828,0.00021903496235609055,0.01902872323989868
1772566225585197600,7.562197509765625,-0.01233690232038498,0.0015892311930656433,0.004916367121040821
1772566225595226400,7.572226318359375,-0.01572151482105255,0.002274462953209877,-0.005789274349808693
1772566225605254400,7.58225439453125,-0.008778472431004047,0.008357767947018147,-0.010207906365394592
1772566225615283200,7.592283203125,-0.011701025068759918,0.001509450376033783,-0.003947347402572632
1772566225625311500,7.6023115234375,-0.010211470536887646,-0.002894989214837551,-0.004756578244268894
1772566225635340300,7.61234033203125,-0.0035383878275752068,-0.006710499990731478,-0.0018697120249271393
1772566225645368300,7.622368408203125,-0.0014723194763064384,-0.006865936331450939,0.006071009673178196
1772566225655397400,7.6323974609375,0.007038078270852566,-0.0011491943150758743,0.003135140985250473
1772566225665425400,7.64242529296875,0.012252474203705788,-0.0057282112538814545,-0.006339741870760918
1772566225675454500,7.652454345703125,0.01769011653959751,-0.009807108901441097,-0.012801636010408401
1772566225685483300,7.662483154296875,0.019746826961636543,-0.010728086344897747,-0.007254600524902344
1772566225695511300,7.67251123046875,0.021857382729649544,-0.011687356978654861,0.004422295372933149
1772566225705540400,7.682540283203125,0.022303365170955658,-0.01224562432616949,0.013143669813871384
1772566225715568400,7.692568359375,0.021790172904729843,-0.015223571099340916,0.013582559302449226
1772566225725597400,7.702597412109375,0.017757289111614227,-0.013074737973511219,0.015418944880366325
1772566225735625200,7.712625244140625,0.018990598618984222,-0.01178789883852005,0.014069788157939911
1772566225745654300,7.722654296875,0.019895140081644058,-0.007871664129197598,0.008606867864727974
1772566225755682300,7.732682373046875,0.020286625251173973,-0.0025775665417313576,0.003426486626267433
1772566225765711400,7.74271142578125,0.018083147704601288,0.004654494114220142,-0.0011775721795856953
1772566225775739400,7.752739501953125,0.013790133409202099,0.007673454470932484,-0.0067302631214261055
1772566225785768200,7.762768310546875,0.012059902772307396,0.006773118861019611,-0.0028020492754876614
1772566225795796500,7.77279638671875,0.013899348676204681,0.00544073898345232,0.004985565785318613
1772566225805825300,7.7828251953125,0.008238544687628746,0.005735035985708237,0.0054743243381381035
1772566225815853300,7.792853271484375,0.003729546442627907,0.0032798685133457184,0.0031866692006587982
1772566225825882400,7.80288232421875,-0.005334315821528435,0.002367391251027584,-0.0026167589239776134
1772566225835910400,7.812910400390625,-0.009684855118393898,-0.006500136572867632,-0.003217035438865423
1772566225845939500,7.822939453125,-0.007462363690137863,-0.012023902498185635,0.0003730934113264084
1772566225855967200,7.83296728515625,-0.0023259250447154045,-0.015499593690037727,0.012827366590499878
1772566225865996300,7.842996337890625,-0.004262623377144337,-0.02361425571143627,0.01728747971355915
1772566225876024300,7.8530244140625,-0.0035552876070141792,-0.02245284989476204,0.01885261945426464
1772566225886053400,7.863053466796875,-0.003911181818693876,-0.01851160079240799,0.01931930147111416
1772566225896081400,7.873081298828125,-0.01267164945602417,-0.013071294873952866,0.016052667051553726
1772566225906110200,7.883110107421875,-0.014860939234495163,-0.0019759656861424446,0.0134123545140028
1772566225916138500,7.893138427734375,-0.014348546974360943,0.010874053463339806,-0.0036577079445123672
1772566225926166300,7.903166259765625,-0.011668243445456028,0.019657110795378685,-0.01216874085366726
1772566225936195300,7.9131953125,-0.00863703340291977,0.015728946775197983,-0.019673528149724007
1772566225946223400,7.923223388671875,-0.006185799837112427,0.0035439906641840935,-0.018244612962007523
1772566225956252400,7.93325244140625,0.004823175258934498,0.00018414761871099472,-0.0021804249845445156
1772566225966280200,7.9432802734375,0.006986715830862522,-0.009338957257568836,0.010870635509490967
1772566225976309200,7.953309326171875,0.003578668460249901,-0.018938321620225906,0.013472011312842369
1772566225986337500,7.963337646484375,0.0031727049499750137,-0.026058077812194824,0.010597988963127136
1772566225996366300,7.973366455078125,-0.001490224152803421,-0.02711455337703228,0.006263426970690489
1772566226006394400,7.983394287109375,0.0032762400805950165,-0.019964300096035004,0.011031156405806541
1772566226016423200,7.993423095703125,0.00404882337898016,-0.013176966458559036,0.020480317994952202
1772566226026451500,8.003451416015626,0.002110261470079422,-0.009833699092268944,0.020627791061997414
1772566226036480500,8.01348046875,0.003139839507639408,-0.011379131115972996,0.007710394915193319
1772566226046508300,8.02350830078125,0.004102087579667568,-0.0158940851688385,-0.004533382132649422
1772566226056537300,8.033537353515625,0.0037382999435067177,-0.027605604380369186,-0.010111106559634209
1772566226066565400,8.0435654296875,0.01133221946656704,-0.033234886825084686,-0.006591391749680042
1772566226076594400,8.053594482421875,0.014549585059285164,-0.035450637340545654,0.007680221926420927
1772566226086622200,8.063622314453125,0.014758134260773659,-0.027501817792654037,0.02608111873269081
1772566226096651300,8.0736513671875,0.011829989030957222,-0.02058319002389908,0.030390646308660507
1772566226106679600,8.083679443359374,0.005090520717203617,-0.009793374687433243,0.018272841349244118
1772566226116708400,8.093708251953124,-0.0033578253351151943,-0.00324865709990263,0.0020288899540901184
1772566226126736400,8.103736328125,-0.009217009879648685,0.009709476493299007,-0.015600359998643398
1772566226136765200,8.11376513671875,-0.008658278733491898,0.02004360780119896,-0.014939363114535809
1772566226146793500,8.12379345703125,-0.008323253132402897,0.016624372452497482,-0.01642673835158348
1772566226156822500,8.133822509765626,-0.004310667980462313,0.008345670066773891,-0.015575592406094074
1772566226166850300,8.143850341796876,-0.004973286762833595,0.001144135370850563,-0.005530467256903648
1772566226176879400,8.15387939453125,-0.0011164969764649868,-0.008990257978439331,0.0057578738778829575
1772566226186908200,8.163908203125,-0.000440115574747324,-0.021545534953475,0.010477930307388306
1772566226196936400,8.1739365234375,0.009531025774776936,-0.026650547981262207,0.02170714922249317
1772566226206965500,8.183965576171875,0.007633959874510765,-0.02482304349541664,0.021963980048894882
1772566226216993300,8.1939931640625,0.0008034836500883102,-0.013322713784873486,0.01821158453822136
1772566226227022300,8.204022216796876,-0.006446168292313814,-0.006647173780947924,0.0034686881117522717
1772566226237050400,8.21405029296875,-0.006938586942851543,-0.01271918136626482,-0.010359243489801884
1772566226247079400,8.224079345703124,0.0020210212096571922,-0.005568197462707758,-0.0037204783875495195
1772566226257107200,8.234107177734375,0.007920189760625362,-0.00027143675833940506,0.016478532925248146
1772566226267136300,8.24413623046875,0.010996940545737743,-0.0038728294894099236,0.018087614327669144
1772566226277164300,8.254164306640625,0.017216220498085022,-0.0036366069689393044,0.01186913438141346
1772566226287193300,8.264193359375,0.021996326744556427,-0.0008887574076652527,0.005940671544522047
1772566226297221400,8.274221435546876,0.02227170020341873,-0.00449893856421113,0.006299665663391352
1772566226307250200,8.284250244140624,0.024202236905694008,-0.01127118244767189,0.005061854608356953
1772566226317278500,8.294278564453125,0.02444618009030819,-0.022021032869815826,0.0005440684035420418
1772566226327307300,8.304307373046875,0.024357182905077934,-0.023678747937083244,0.005923815071582794
1772566226337335300,8.314335205078125,0.01826014183461666,-0.0247352235019207,0.01077529601752758
1772566226347364400,8.3243642578125,0.01665167696774006,-0.02542615681886673,0.01615586318075657
1772566226357392400,8.334392333984376,0.010189516469836235,-0.01158863864839077,0.01603788509964943
1772566226367421400,8.34442138671875,0.006541288457810879,0.0029892316088080406,0.012444563210010529
1772566226377449200,8.35444921875,-0.0024793706834316254,0.010008791461586952,-0.005204738117754459
1772566226387478300,8.364478271484375,-0.007026416249573231,0.01624644175171852,-0.01809648796916008
1772566226397507300,8.37450732421875,-0.004107858054339886,0.02665380761027336,-0.021000664681196213
1772566226407535400,8.384535400390625,-0.00657231081277132,0.0261552594602108,-0.01729985512793064
1772566226417564400,8.394564453125,-0.006576039362698793,0.015970267355442047,-0.01722928136587143
1772566226427592200,8.40459228515625,-0.0028170240111649036,0.016377471387386322,-0.015438653528690338
1772566226437621200,8.414621337890624,0.002412625588476658,0.01524376217275858,-0.0051567209884524345
1772566226447649300,8.424649169921874,0.0033288951963186264,0.011040478944778442,-0.0010681748390197754
1772566226457678300,8.43467822265625,0.0027235588058829308,0.0028944024816155434,-0.007837929762899876
1772566226467706400,8.444706298828125,0.006403180770576,-0.011519810184836388,-0.014400443062186241
1772566226477735200,8.454735107421875,0.018664374947547913,-0.02646733447909355,-0.01039504911750555
1772566226487763500,8.464763427734376,0.03157038986682892,-0.028330590575933456,0.013194557279348373
1772566226497792300,8.474792236328126,0.026792146265506744,-0.034996483474969864,0.024767590686678886
1772566226507820300,8.4848203125,0.025621723383665085,-0.03730083256959915,0.01778888702392578
1772566226517849300,8.494849365234375,0.017755545675754547,-0.03445445001125336,0.009205520153045654
1772566226527877400,8.50487744140625,0.009423917159438133,-0.025927551090717316,0.009059738367795944
1772566226537906400,8.514906494140625,0.0022355131804943085,-0.013132927007973194,0.011111171916127205
1772566226547934200,8.524934326171875,-0.008247789926826954,-0.009594112634658813,0.005740027409046888
1772566226557963300,8.53496337890625,-0.01075142715126276,-0.006186597514897585,-0.00897154025733471
1772566226567991300,8.5449912109375,-0.011012997478246689,-0.0007501887157559395,-0.009400415234267712
1772566226578020400,8.555020263671874,-0.0144460778683424,0.005538865923881531,-0.00037203263491392136
1772566226588048100,8.565048095703125,-0.01766021177172661,0.002332678996026516,-0.0029999609105288982
1772566226598077200,8.5750771484375,-0.01465589925646782,0.004103414714336395,-0.005675105843693018
1772566226608105500,8.58510546875,-0.011297279968857765,0.006703441962599754,-0.00879795290529728
1772566226618134300,8.59513427734375,-0.012436313554644585,0.0020570242777466774,-0.007271961309015751
1772566226628163300,8.605163330078126,-0.004298913758248091,-0.0063368771225214005,-0.006927430164068937
1772566226638191000,8.615191162109374,0.006575837731361389,-0.012837653048336506,-0.010014033876359463
1772566226648220400,8.625220458984375,0.018170466646552086,-0.017183847725391388,-0.006371309049427509
1772566226658248400,8.63524853515625,0.0239226296544075,-0.022830016911029816,0.0019172467291355133
1772566226668277200,8.64527734375,0.022216789424419403,-0.025847800076007843,0.000969775952398777
1772566226678305300,8.65530517578125,0.025294870138168335,-0.02510957419872284,-0.006873765494674444
1772566226688334300,8.665334228515626,0.02364187315106392,-0.024459946900606155,-0.006216711830347776
1772566226698362400,8.6753623046875,0.027095459401607513,-0.02358403243124485,-0.006535225547850132
1772566226708391400,8.685391357421874,0.02662033587694168,-0.022578462958335876,0.0012905043549835682
1772566226718419200,8.695419189453125,0.02341495081782341,-0.021302277222275734,0.01108907163143158
1772566226728448500,8.705448486328125,0.025140902027487755,-0.01768467016518116,0.013767784461379051
1772566226738476300,8.715476318359375,0.01873733289539814,-0.019767528399825096,0.015479132533073425
1772566226748505300,8.72550537109375,0.012881232425570488,-0.0139486538246274,0.005177116021513939
1772566226758533000,8.735533203125,0.010682526975870132,-0.0016001081094145775,0.001049215905368328
1772566226768562400,8.7455625,0.0014269417151808739,0.00712281558662653,-0.0027810223400592804
1772566226778590500,8.755590576171874,-0.001954207196831703,0.01661565527319908,-0.004663877189159393
1772566226788619300,8.765619384765625,-0.008315978571772575,0.021117817610502243,-0.005907866172492504
1772566226798647300,8.775647216796875,-0.005980120040476322,0.01645622029900551,-0.015125066041946411
1772566226808676400,8.78567626953125,-0.0013883449137210846,0.009771252050995827,-0.01971965841948986
1772566226818704400,8.795704345703125,-0.0013332176022231579,-0.010480489581823349,-0.012299026362597942
1772566226828733400,8.8057333984375,0.0021462375298142433,-0.02518780529499054,-0.0068597071804106236
1772566226838762200,8.81576220703125,0.004547609947621822,-0.03967779874801636,0.005592169240117073
1772566226848790500,8.82579052734375,-0.0008212984539568424,-0.042690545320510864,0.017729047685861588
1772566226858819300,8.8358193359375,-0.004399788100272417,-0.041915565729141235,0.01588480733335018
1772566226868847400,8.845847412109375,-0.003445978742092848,-0.027492349967360497,0.015737298876047134
1772566226878876400,8.85587646484375,-0.0026811189018189907,-0.008513333275914192,0.004078245721757412
1772566226888904400,8.865904541015626,-0.0030131759122014046,0.008471106179058552,-0.005644132383167744
1772566226898933500,8.87593359375,-0.006026276387274265,0.023313436657190323,-0.01745125651359558
1772566226908961300,8.885961181640624,-0.004627767018973827,0.029331274330615997,-0.021900679916143417
1772566226918991600,8.89599169921875,-0.00599663145840168,0.03390791639685631,-0.019408762454986572
1772566226929019600,8.90601953125,-0.009963735938072205,0.02903718315064907,-0.01111660897731781
1772566226939048400,8.91604833984375,-0.009778646752238274,0.02445281855762005,0.0022125118412077427
1772566226949076700,8.92607666015625,-0.009949028491973877,0.02163340523838997,0.002486683428287506
1772566226959105500,8.93610546875,-0.008870981633663177,0.014137405902147293,-0.0020204498432576656
1772566226969133600,8.946133544921874,-0.0024624946527183056,-0.0013552308082580566,-0.008245104923844337
1772566226979162600,8.95616259765625,0.0014350414276123047,-0.005663160700351,-0.008191842585802078
1772566226989190700,8.966190673828125,0.006688548251986504,-0.009753473103046417,0.0008903718553483486
1772566226999219700,8.9762197265625,0.005759637802839279,-0.006451952271163464,0.007284622173756361
1772566227009247500,8.98624755859375,0.005609146319329739,-0.00022226665169000626,0.004206526093184948
1772566227019276500,8.996276611328126,0.005698627792298794,0.005419107154011726,0.0005662515759468079
1772566227029305600,9.0063056640625,0.005728383548557758,0.00948044378310442,-0.010454333387315273
1772566227039333600,9.016333740234375,0.005192555487155914,0.007244986481964588,-0.014814460650086403
1772566227049362700,9.02636279296875,0.0011789891868829727,0.00023517291992902756,-0.008232273161411285
1772566227059390500,9.036390380859375,-0.0007589925080537796,-0.0023787198588252068,0.004937857389450073
1772566227069419500,9.04641943359375,-0.0035633970983326435,-0.0029681427404284477,0.014547929167747498
1772566227079447600,9.056447509765626,-0.01255529373884201,-0.0016059363260865211,0.02094537392258644
1772566227089476600,9.0664765625,-0.014055078849196434,-0.0009881071746349335,0.015193184837698936
1772566227099504400,9.07650439453125,-0.017496414482593536,0.00543783325701952,0.004038268234580755
1772566227109533400,9.086533447265625,-0.021176951006054878,0.013065490871667862,-0.002059145364910364
1772566227119561700,9.096561767578125,-0.019281312823295593,0.016690585762262344,-0.01035462599247694
1772566227129590500,9.106590576171875,-0.015636611729860306,0.01730663701891899,-0.013880541548132896
1772566227139618600,9.11661865234375,-0.01135238353163004,0.016477860510349274,-0.00516081927344203
1772566227149647400,9.1266474609375,-0.011139921844005585,0.009575816802680492,0.0036625838838517666
1772566227159675600,9.136675537109374,-0.006640511564910412,0.002738150767982006,0.013288579881191254
1772566227169704700,9.14670458984375,-0.0048386650159955025,-0.004508898127824068,0.01978529989719391
1772566227179732500,9.156732421875,0.000020804814994335175,-0.01630483753979206,0.013363884761929512
1772566227189761500,9.166761474609375,0.003427690826356411,-0.01658160611987114,0.010677343234419823
1772566227199789600,9.17678955078125,0.0013693338260054588,-0.016625549644231796,0.00855959765613079
1772566227209818600,9.186818603515626,0.0010751625522971153,-0.020092209801077843,0.011468007229268551
1772566227219846400,9.196846435546876,0.000369424931704998,-0.021956156939268112,0.01320811826735735
1772566227229875500,9.20687548828125,-0.0015100804157555103,-0.021028418093919754,0.012406593188643456
1772566227239904800,9.21690478515625,-0.005127452313899994,-0.012122273445129395,0.009466730058193207
1772566227249932500,9.2269326171875,-0.007885623723268509,-0.00972362607717514,0.004644882865250111
1772566227259961600,9.236961669921875,-0.006513296626508236,-0.009393660351634026,0.0006437497213482857
1772566227269989400,9.2469892578125,-0.005691311322152615,-0.010873368941247463,-0.005441063083708286
1772566227280018700,9.257018798828126,-0.002079798374325037,-0.008227251470088959,-0.004425333347171545
1772566227290046700,9.267046630859374,-0.003899445291608572,-0.00324347335845232,0.0036485777236521244
1772566227300075500,9.277075439453125,0.003299611620604992,0.006354291923344135,-0.00009209802374243736
1772566227310103600,9.287103515625,0.005160948261618614,0.012211674824357033,-0.002225513570010662
1772566227320132600,9.297132568359375,0.006233403459191322,0.012004746124148369,-0.014473125338554382
1772566227330160600,9.30716064453125,0.011600986123085022,0.0026833899319171906,-0.021851904690265656
1772566227340189700,9.317189697265626,0.01946903020143509,0.0012639248743653297,-0.02007424458861351
1772566227350217500,9.327217529296876,0.028083976358175278,-0.0014317557215690613,-0.009287440218031406
1772566227360246800,9.337246826171874,0.030723169445991516,-0.005000391975045204,0.0015726638957858086
1772566227370274600,9.347274658203125,0.03086235374212265,-0.010432391427457333,0.001998872496187687
1772566227380303600,9.3573037109375,0.025183696299791336,-0.0013901609927415848,0.006570987403392792
1772566227390331400,9.367331298828125,0.019074704498052597,-0.0019433051347732544,-0.0014133546501398087
1772566227400360700,9.377360595703125,0.014393400400876999,0.0036147115752100945,-0.009311225265264511
1772566227410388500,9.387388427734376,0.015105700120329857,0.004722781479358673,-0.01634271815419197
1772566227420417500,9.39741748046875,0.01078818365931511,0.001329914666712284,-0.017445798963308334
1772566227430446600,9.407446533203125,0.013932347297668457,-0.007011911366134882,-0.006634616293013096
1772566227440474600,9.417474609375,0.011045746505260468,-0.006191923748701811,0.00650249095633626
1772566227450503700,9.427503662109375,0.008031652309000492,-0.007472117897123098,0.01227025967091322
1772566227460531500,9.437531494140625,0.005317092873156071,-0.00939332228153944,0.007323171943426132
1772566227470560500,9.447560546875,0.00414421409368515,-0.009657971560955048,-0.004056347534060478
1772566227480588800,9.4575888671875,0.002835270017385483,-0.006065634079277515,-0.004626263864338398
1772566227490617600,9.46761767578125,0.0035892101004719734,-0.007041302975267172,-0.0032048900611698627
1772566227500645600,9.477645751953125,0.006734402850270271,-0.006764600519090891,-0.006105072796344757
1772566227510674400,9.48767431640625,0.004443783313035965,-0.016258498653769493,-0.003686203621327877
1772566227520702700,9.49770263671875,0.005509047769010067,-0.016623884439468384,0.004790904466062784
1772566227530731800,9.507731689453125,0.004947155714035034,-0.02033606916666031,0.009762040339410305
1772566227540759600,9.517759521484376,0.00450027734041214,-0.0160148236900568,0.0141304237768054
1772566227550788600,9.52778857421875,0.006234367378056049,-0.007948389276862144,0.010630208998918533
1772566227560816600,9.537816650390624,0.005331023596227169,-0.0001674313098192215,0.004455138463526964
1772566227570845700,9.547845703125,0.005216910503804684,0.009236917831003666,-0.005647062789648771
1772566227580873500,9.55787353515625,0.0040440550073981285,0.007038210518658161,-0.019541572779417038
1772566227590902500,9.567902587890625,0.0012287264689803123,0.005777008831501007,-0.018278587609529495
1772566227600930800,9.577930908203125,0.001932067796587944,-0.0037858709692955017,-0.005691155791282654
1772566227610959600,9.587959716796876,-0.0027520661242306232,-0.010503764264285564,0.005843145772814751
1772566227620988700,9.59798876953125,-0.007273580878973007,-0.011922163888812065,0.012533006258308887
1772566227631016400,9.608016357421874,-0.018430834636092186,-0.002912609837949276,0.01212727464735508
1772566227641045500,9.61804541015625,-0.02833086997270584,0.00741353165358305,0.0038533667102456093
1772566227651073800,9.62807373046875,-0.03382040560245514,0.023279575631022453,-0.006835681386291981
1772566227661102600,9.6381025390625,-0.03672884404659271,0.03421264886856079,-0.01745903119444847
1772566227671130600,9.648130615234376,-0.040198929607868195,0.032347422093153,-0.01668247953057289
1772566227681159400,9.658159423828126,-0.034668076783418655,0.03280787914991379,-0.0052154408767819405
1772566227691187700,9.668187744140624,-0.025491029024124146,0.024793436750769615,0.008372936397790909
1772566227701216800,9.678216796875,-0.020623037591576576,0.02060961164534092,0.019233839586377144
1772566227711244500,9.68824462890625,-0.013872219249606133,0.011380743235349655,0.013718705624341965
1772566227721273600,9.698273681640625,-0.009536859579384327,0.005840569734573364,0.0066450838930904865
1772566227731301600,9.708301513671875,-0.005272907204926014,-0.0018716752529144287,-0.00301801273599267
1772566227741330700,9.71833056640625,-0.0006480617448687553,-0.004805679898709059,-0.0029698098078370094
1772566227751358500,9.7283583984375,0.004549534060060978,-0.009148837998509407,-0.0019473726861178875
1772566227761387500,9.738387451171874,0.007948260754346848,-0.01566692441701889,0.012029696255922318
1772566227771415600,9.74841552734375,0.007959410548210144,-0.016934582963585854,0.027048245072364807
1772566227781444600,9.758444580078125,0.00733196921646595,-0.010537936352193356,0.032994817942380905
1772566227791472600,9.76847265625,0.00179370678961277,-0.0011099101975560188,0.03295497968792915
1772566227801501400,9.77850146484375,-0.0014265873469412327,0.00898959580808878,0.01812223717570305
1772566227811530500,9.788530517578126,-0.004046267364174128,0.019747955724596977,0.0033343983814120293
1772566227821558500,9.79855859375,-0.0083219725638628,0.02445456199347973,-0.006430614739656448
1772566227831587600,9.808587646484375,-0.01168867014348507,0.03003361076116562,-0.0010790936648845673
1772566227841615600,9.81861572265625,-0.008158650249242783,0.02954758331179619,0.00846913829445839
1772566227851644400,9.82864453125,-0.006426175124943256,0.02509879320859909,0.010069021955132484
1772566227861672700,9.838672607421875,-0.009654724970459938,0.02172376960515976,0.003434822428971529
1772566227871701500,9.848701416015626,-0.015334561467170715,0.022279199212789536,0.00021940888836979866
1772566227881729500,9.8587294921875,-0.01307833194732666,0.01940964162349701,-0.004654974676668644
1772566227891758600,9.868758544921874,-0.009906092658638954,0.01689785346388817,0.0025030625984072685
1772566227901786600,9.87878662109375,-0.002663625869899988,0.012777143158018589,0.007222183980047703
1772566227911815700,9.888815673828125,0.0006398577243089676,0.004269621334969997,0.011350778862833977
1772566227921846500,9.898846435546876,0.0006603645160794258,0.010673458687961102,0.027873296290636063
1772566227931875600,9.90887548828125,-0.018857207149267197,0.051773007959127426,0.07887061685323715
1772566227941903600,9.918903564453124,-0.016811098903417587,0.04769543930888176,0.057229503989219666
1772566227951932700,9.9289326171875,-0.004158677067607641,0.04343322664499283,0.004162054043263197
1772566227961960400,9.93896044921875,-0.018651068210601807,0.03455451503396034,-0.020222647115588188
1772566227971989500,9.948989501953125,-0.026340482756495476,0.022630486637353897,-0.00004856567829847336
1772566227982018600,9.9590185546875,-0.012298699468374252,0.000054338015615940094,0.019287582486867905
1772566227992046600,9.969046630859374,0.007331265136599541,-0.021086644381284714,0.023495804518461227
1772566228002075600,9.97907568359375,0.01383204199373722,-0.030619429424405098,0.028458338230848312
1772566228012103700,9.989103759765625,0.008595723658800125,-0.03475043550133705,0.020160967484116554
1772566228022132700,9.9991328125,0.00780929159373045,-0.03125583380460739,0.012467093765735626
1772566228032160500,10.009160400390625,0.004696322605013847,-0.020429551601409912,0.003862953744828701
1772566228042189600,10.019189453125,-0.003710478078573942,0.0002618776634335518,0.0037154145538806915
1772566228052217600,10.029217529296876,-0.026345400139689445,0.02291782572865486,0.013603923842310905
1772566228062246700,10.03924658203125,-0.034537285566329956,0.034434132277965546,0.012395646423101425
