time,seconds_elapsed,z,y,x
1772527372821712000,0.0787119140625,0.07303367202877997,0.05076163446605205,0.045188802769780156
1772527372831709000,0.088708984375,0.060765726608037945,0.04545183762013912,0.04489771086871624
1772527372841706800,0.098706787109375,0.05689531491547822,0.027580665364861486,0.02590484110713005
1772527372851704800,0.108704833984375,0.05019932440817356,0.030465865412354468,0.03364186509996652
1772527372861703000,0.118702880859375,0.05164397025853395,0.00651508098244667,0.0489513701736927
1772527372871700700,0.12870068359375,0.043370647431910034,0.008191489762067794,0.047886663551628586
1772527372881698800,0.13869873046875,0.03267681946009397,0.004818798458576202,0.026125790381431577
1772527372891697000,0.14869677734375,0.010224164633452892,-0.036027591192722315,0.01678162345290184
1772527372901693700,0.158693603515625,-0.021693945413827895,-0.0853366887629032,0.02831511711925268
1772527372911692000,0.168692138671875,-0.07805471506118775,-0.10810381636619568,0.023130992479622362
1772527372921689900,0.17868994140625,-0.08470715868771075,-0.11079144801497459,0.026602760243415832
1772527372931688000,0.18868798828125,-0.07846680299341678,-0.12833002731502055,0.015248130275309085
1772527372941686000,0.19868603515625,-0.05734042833447456,-0.11467384240627287,0.022405893075466154
1772527372951683800,0.208683837890625,-0.03768967918604612,-0.07403788063526154,0.03974368910640478
1772527372961682000,0.218681884765625,-0.004340951813757419,-0.060084174084663385,0.02810761184841394
1772527372971680000,0.228679931640625,0.001497252820432186,0.01617079807817936,0.053505087955296037
1772527372981676800,0.2386767578125,0.01822773060798645,0.02078092222213745,0.07985270439386367
1772527372991675000,0.2486748046875,0.06397066012918949,-0.007852467066049576,0.053339083738625045
1772527373001672700,0.258672607421875,0.06905015535056591,-0.0034048400074243542,0.038941725073754783
1772527373011670800,0.2686708984375,0.07585486692935228,-0.009148352095484733,0.02858224362283945
1772527373021668900,0.2786689453125,0.07287965051084756,-0.035731823116540905,0.018451894752681254
1772527373031666700,0.288666748046875,0.0546612722530961,-0.07299626262784004,0.005701426512002944
1772527373041664800,0.298664794921875,0.022350071235001087,-0.06451309644281863,0.031056817042827603
1772527373051661800,0.308661865234375,0.006273965702950954,-0.058895256561040873,0.027264146761596202
1772527373061660000,0.318659912109375,0.021133096660673617,-0.05711480288505554,0.013137713992595671
1772527373071658000,0.328657958984375,0.02336509349644184,-0.05831307275891304,-0.008636895442008971
1772527373081655800,0.33865576171875,0.008700023806095122,-0.047449733439087864,-0.011679331877827643
1772527373091654000,0.34865380859375,0.002613397368788719,-0.006674655458331108,0.006428864003717899
1772527373101652000,0.35865185546875,0.013165771043300628,-0.004779635491967201,-0.007035597725212573
1772527373111649800,0.36864990234375,0.013168109130859374,-0.025002339309453964,-0.02361117721199989
1772527373121647900,0.37864794921875,0.0029711247652769086,-0.034039632245898246,0.0012079144850373267
1772527373131644700,0.388644775390625,-0.01772737987041473,-0.016285364368557927,0.028219840051233767
1772527373141642800,0.398642822265625,-0.044048985084891315,-0.006398176604509353,0.048748248817026614
1772527373151640800,0.408640869140625,-0.030638883891701697,-0.03545943591594696,0.043725452218949794
1772527373161638700,0.418638671875,-0.025841712743043897,-0.027127076378464697,0.08090075214207172
1772527373171636700,0.42863671875,-0.020724808120727536,-0.005624854144454002,0.1195569382727146
1772527373181634800,0.438634765625,-0.008875088112056255,-0.004375146344304084,0.1350333243459463
1772527373191632600,0.448632568359375,-0.031016777293384073,-0.003964811977744102,0.1424605517372489
1772527373201630700,0.458630615234375,-0.013364508485794067,-0.01115267765522003,0.13968728763163088
1772527373211627800,0.468627685546875,0.004358487470448017,-0.01045125138759613,0.1290121643602848
1772527373221625900,0.4786259765625,0.010929974815249443,-0.0014858546435832975,0.10289981798231601
1772527373231624000,0.4886240234375,0.048097968214750285,0.015942250019311904,0.0731371324032545
1772527373241621800,0.498621826171875,0.09485328964889049,0.02001753663420677,0.05306172810196876
1772527373251619800,0.508619873046875,0.11549129626899957,-0.014653379252552985,0.032628888665139674
1772527373261618000,0.518617919921875,0.11362462561428546,0.01561784037053585,-0.024592589464783668
1772527373271615700,0.52861572265625,0.07571896559000015,-0.00029050737917423245,0.01381312903612852
1772527373281612800,0.53861279296875,0.08144348071664571,-0.015464695635437965,0.01894347766190767
1772527373291611000,0.54861083984375,0.057499418288469314,0.029639935982227323,0.020804303097724915
1772527373301608700,0.558608642578125,0.039304713167250156,-0.0007996259450912475,0.011136311042308807
1772527373311606800,0.568606689453125,0.0025575755283236503,0.024464579170942306,0.031819910369813444
1772527373321604600,0.5786044921875,0.02259820077717304,0.006380056425929069,-0.006159399412572384
1772527373331602700,0.588602783203125,0.032574235868453975,0.0005693243205547332,-0.05969254441857338
1772527373341600800,0.598600830078125,0.014918167668581008,0.001855272477865219,-0.05080488908588886
1772527373351598800,0.608598876953125,0.017637071238458157,-0.027825580036640166,-0.05416735125631093
1772527373361596000,0.618595947265625,0.059274611267447465,-0.042374329870939254,-0.0288850259616971
1772527373371594000,0.628593994140625,0.07589958285391331,-0.0628939708083868,-0.01675122831463814
1772527373381591800,0.638591796875,0.06262216812968253,-0.08322247308790683,-0.022618951304256913
1772527373391590000,0.64858984375,0.032408231651782984,-0.11923194410204886,-0.001456336288154125
1772527373401587700,0.658587646484375,0.0112672439455986,-0.1394160694748163,0.03209668148458004
1772527373411585800,0.668585693359375,0.008878887504339218,-0.09771393977701663,0.0627346885934472
1772527373421584000,0.678583984375,0.055196986564993854,-0.03038870852291584,0.03434036875814199
1772527373431580700,0.68858056640625,0.06961071184277534,0.00078209028840065,0.012618366293609141
1772527373441578800,0.698578857421875,0.09876198752522468,-0.0067442135632038115,0.013818974255025386
1772527373451576800,0.708576904296875,0.09561989010721444,-0.014269932892918585,0.015365326914191246
1772527373461575000,0.718574951171875,0.041136020247638225,-0.027245734322071075,0.02708908245563507
1772527373471573000,0.728572998046875,-0.015422317798435687,-0.04056581914424896,0.0267544436737895
1772527373481571000,0.738571044921875,-0.019644319407641886,-0.016999650117754936,-0.012899813583493232
1772527373491569000,0.74856884765625,-0.012588555677235125,0.015337854385375976,-0.04762976618111133
1772527373501567000,0.75856689453125,0.019666531239449978,0.010719546934962272,-0.06377338399142027
1772527373511563800,0.768563720703125,0.044241292786598205,-0.006086041915416717,-0.0647369683265686
1772527373521561900,0.778561767578125,0.029375439827144145,-0.038217210191488264,-0.04835486558526754
1772527373531560000,0.788559814453125,0.013712591271102428,-0.08840075250864028,-0.013334990130364894
1772527373541557800,0.798557861328125,-0.014310557164251803,-0.09127718472778797,0.006354629723727702
1772527373551555800,0.808555908203125,-0.03655921385139227,-0.07338380064070224,0.02914952211678028
1772527373561554000,0.818553955078125,-0.04810439795553684,-0.07277063717842101,0.08249445107430219
1772527373571551700,0.8285517578125,-0.007813596360385417,-0.04682604858279228,0.165217157946527
1772527373581549000,0.838549072265625,0.021104455088078976,0.03657528820335865,0.17783493971824646
1772527373591547000,0.848546875,0.046396132732927794,0.052740825584530825,0.1501607508510351
1772527373601545000,0.858544921875,0.04900660749226808,0.038974750560522076,0.11955606148988007
1772527373611543000,0.86854296875,0.05156272171586752,0.028907530054450032,0.12030571081340312
1772527373621540900,0.878540771484375,0.09022416854351759,0.004751578441262245,0.10265227296203375
1772527373631539000,0.8885390625,0.10921440795660019,-0.019381576818227768,0.03801993405371904
1772527373641537000,0.898537109375,0.10673340479582548,-0.043193829560279846,-0.02723053675293922
1772527373651534800,0.908534912109375,0.09678191962391137,-0.050690907317399975,-0.04199176029413938
1772527373661532000,0.918531982421875,0.07080079841017722,-0.019589082089066505,-0.056955812931060786
1772527373671529700,0.92852978515625,0.03555997368097305,-0.044262920096516604,-0.08185206151753664
1772527373681527800,0.93852783203125,0.013266893330216406,-0.07463467748463154,-0.09101444213837384
1772527373691526000,0.94852587890625,-0.028709961655735968,-0.07105155830085277,-0.10177519786655902
1772527373701523700,0.958523681640625,-0.03577683130204677,-0.0643143590003252,-0.10519055926799774
1772527373711521800,0.968521728515625,-0.011825754611194133,-0.05535480747520923,-0.10866583416312932
1772527373721519900,0.978519775390625,0.001650105294585228,-0.09487959313392638,-0.1259168286934495
1772527373731517700,0.988517578125,-0.016362228997051715,-0.10400865600705146,-0.07234773559123277
1772527373741515000,0.998514892578125,-0.044072073699533934,-0.05750935516059398,-0.00653992316275835
1772527373751512600,1.0085126953125,-0.011201777493953704,-0.025866262662410735,0.04695756600797176
1772527373761510700,1.0185107421875,0.07686930466890335,-0.01291734924018383,0.06300444544553756
1772527373771508700,1.0285087890625,0.10414017343223095,0.02540858202278614,0.07807663463205099
1772527373781506600,1.038506591796875,0.10831687459498643,0.040028643527626986,0.08999532822370529
1772527373791504600,1.048504638671875,0.12933920435756444,0.02629647077322006,0.08375935644358395
1772527373801502700,1.058502685546875,0.07451280467063189,-0.015271218889951706,0.06146393800526857
1772527373811499500,1.06849951171875,0.016091595362126825,-0.025543022057414055,0.07558189520686864
1772527373821497600,1.07849755859375,-0.021977146269381045,-0.045321489238739014,0.07387187641859054
1772527373831495400,1.088495361328125,-0.028547464570403098,-0.06325403629243373,0.07509440395087004
1772527373841493500,1.098493408203125,-0.025804011081159112,-0.06150339323282242,0.06720861913710832
1772527373851491600,1.10849169921875,-0.03538841650635004,-0.04997603704631328,0.05985533376485109
1772527373861489400,1.118489501953125,-0.037544133235514164,-0.056226914134621615,0.03316021906286478
1772527373871487700,1.12848779296875,-0.023161095356941223,-0.07496493235230445,-0.003787701845169067
1772527373881485800,1.13848583984375,-0.04269347882270813,-0.06561375116109848,-0.014615969851613043
1772527373891482600,1.148482666015625,-0.06266279240101576,-0.060060208687186235,0.02037263368219137
1772527373901480700,1.158480712890625,-0.027186989872157574,-0.04434416863918304,0.050802550998330115
1772527373911478500,1.168478515625,0.00633124884814024,-0.025455928295850753,0.048802024830877776
1772527373921476600,1.1784765625,0.03545008356571197,0.0013426467806100845,0.01706570109128952
1772527373931474700,1.188474609375,0.05726677857637405,0.005537760382890701,0.005387538257241249
1772527373941472500,1.198472412109375,0.05405833792388439,-0.006539630901813507,0.008690086933970451
1772527373951470600,1.208470703125,0.03595481821745634,-0.023076924204826352,-0.0004579729005694389
1772527373961467400,1.21846728515625,0.018862229119241236,0.008165186277031899,0.005329670590162277
1772527373971465500,1.228465576171875,0.015690905606746672,0.027202479702234265,0.004323416157066821
1772527373981463600,1.238463623046875,0.02523994745761156,0.0047381344377994536,-0.005784136359393596
1772527373991461600,1.248461669921875,0.030178572903573512,-0.026396424016356466,0.02292231816500425
1772527374001459700,1.258459716796875,0.008192366544902324,-0.05168225644230842,0.027253333106637
1772527374011457800,1.268457763671875,-0.01167728605121374,0.008560907596349716,0.04563187036216259
1772527374021455600,1.27845556640625,-0.008304010225832463,0.0014846855998039245,0.06100421153903007
1772527374031453700,1.28845361328125,0.014727613532543182,0.006868132203817367,0.06958791548907757
1772527374041450500,1.298450439453125,0.036114100432395935,-0.023417115944623947,0.05450725073516369
1772527374051448600,1.308448486328125,0.04555471347272396,0.011077274331450462,0.09544365675747395
1772527374061446700,1.31844677734375,0.07729425208270549,0.026612112593650816,0.08241174122691154
1772527374071444500,1.328444580078125,0.10584756187200546,-0.0186830731600523,0.031088965746760365
1772527374081442600,1.338442626953125,0.0725315677255392,-0.053793549507856364,-0.011578501851856708
1772527374091440600,1.348440673828125,0.020125088661909103,-0.09518354451656341,-0.01697948411256075
1772527374101438500,1.3584384765625,-0.02305792724341154,-0.12745090639293194,0.011216682802140712
1772527374111436500,1.3684365234375,-0.06940934405177832,-0.10841770462095737,0.028342297387123107
1772527374121433600,1.37843359375,-0.08843290121257305,-0.12158347566425799,0.03854541923254728
1772527374131431700,1.388431640625,-0.06386690749377012,-0.07786532996892928,0.04866057053357362
1772527374141429800,1.3984296875,-0.03182487880587578,-0.04139291761815548,0.045777124051749704
1772527374151427600,1.408427490234375,-0.003763444186747074,-0.022292495828866957,0.03150952924638986
1772527374161425700,1.41842578125,0.049960547216236585,0.0010614917516708372,0.008018471282720565
1772527374171423700,1.428423828125,0.08040332401394844,0.050934068423509594,-0.00831628518551588
1772527374181421600,1.438421630859375,0.10404781897366046,0.07279401805400848,-0.005628361275792122
1772527374191418600,1.448418701171875,0.09028466655910014,0.05593932936489582,-0.009563947159051895
1772527374201416400,1.45841650390625,0.06468319231271744,0.025067221239209174,-0.0083785367667675
1772527374211414500,1.46841455078125,0.014660393515229225,0.0028337621212005614,0.0031219314128160475
1772527374221412600,1.47841259765625,-0.007257423782348633,0.0021335048973560333,0.009621522565186023
1772527374231410400,1.488410400390625,-0.010499474443495273,-0.013224807754158973,0.014406418754160403
1772527374241408500,1.498408447265625,0.0033799978271126744,-0.02857435257732868,0.01881985128223896
1772527374251406600,1.508406494140625,0.04379997875988483,-0.030430209577083586,0.045028643772006036
1772527374261403600,1.518403564453125,0.053859892742335796,-0.004757423660159111,0.07050912198722362
1772527374271401700,1.528401611328125,0.07826748102903365,-0.04696224218308925,0.060818333578109736
1772527374281399600,1.538399658203125,0.07045066979825496,-0.06672083562016487,0.027438334284722803
1772527374291397600,1.548397705078125,0.06626373950242996,-0.04286825086772442,0.014800386507809161
1772527374301395700,1.558395751953125,0.07430734522640704,-0.03588379880785942,-0.011373919190466403
1772527374311393500,1.5683935546875,0.05614975724518299,-0.012479542344808577,-0.01840367169678211
1772527374321391600,1.5783916015625,0.07128741288334131,0.0008925649255514145,-0.01973345899581909
1772527374331389700,1.5883896484375,0.09493278462588786,0.008083937734365464,-0.05030892226248979
1772527374341386500,1.598386474609375,0.1077367366194725,-0.012389525973796844,-0.05192600207030773
1772527374351384600,1.608384521484375,0.10915887837707995,-0.03859773394167423,-0.06152765089124441
1772527374361382400,1.61838232421875,0.0829886643320322,-0.05837035590410232,-0.06759060419201851
1772527374371380500,1.62838037109375,0.0540314499169588,-0.07467851662635802,-0.06890811653137206
1772527374381378600,1.638378662109375,0.0039127895295619965,-0.08579144679307937,-0.06637567544430494
1772527374391376400,1.64837646484375,-0.055680970689654344,-0.07190086860656737,-0.03934592196047306
1772527374401374500,1.65837451171875,-0.09869301394224167,-0.044805940932035444,-0.004380699302256107
1772527374411372500,1.66837255859375,-0.05807692591547966,-0.07070084516704082,0.03321428733766079
1772527374421369600,1.67836962890625,-0.03802870188206434,-0.07393734287023544,0.0927855434641242
1772527374431367700,1.68836767578125,-0.033469723403453826,-0.07027297514379025,0.13396978676766155
1772527374441365500,1.698365478515625,-0.010092354947328568,-0.0878729292422533,0.12094605454355478
1772527374451363600,1.708363525390625,-0.028291736243665218,-0.08947335017621516,0.10055471616089344
1772527374461361700,1.718361572265625,-0.0143368606492877,-0.08089899857640266,0.0657367930188775
1772527374471359500,1.728359375,0.028426760800182818,-0.02648351777791977,0.05162848042845726
1772527374481357600,1.738357666015625,0.08578793966174125,0.026589900761842727,0.04177665623873472
1772527374491354600,1.748354736328125,0.13159458206892014,0.03746902217268944,0.0012988076388835907
1772527374501352400,1.7583525390625,0.12335077759772538,0.0024620061993598937,-0.026942075200378893
1772527374511350500,1.7683505859375,0.06493190637677908,-0.058578445696830746,-0.03177870157659054
1772527374521348400,1.778348388671875,-0.005636544582247734,-0.04086158722043037,0.016596330013871192
1772527374531346400,1.788346435546875,-0.029950024844706057,-0.039008068308234216,0.034215573334693904
1772527374541344800,1.7983447265625,-0.0207461431697011,-0.046971010011434555,0.02515051560848951
1772527374551342600,1.808342529296875,-0.0199812962770462,-0.03514437861740589,0.05605711052566766
1772527374561340700,1.818340576171875,-0.020735914036631584,-0.03447451653182507,0.08717588688880204
1772527374571337700,1.828337646484375,-0.046616497485339636,-0.03435878119766712,0.1045145597025752
1772527374581335600,1.83833544921875,-0.050393385675549504,-0.04108429006040096,0.08669044145941734
1772527374591333600,1.848333740234375,-0.022901567637920377,-0.038083354678750035,0.07964403007924556
1772527374601331500,1.85833154296875,0.019848609808087347,-0.028883564656972883,0.08751257149726152
1772527374611329500,1.86832958984375,0.04765753097087144,-0.010561141502857207,0.07166647532880306
1772527374621327600,1.87832763671875,0.06337853945493697,0.02155950537919998,0.052980479559302324
1772527374631325400,1.888325439453125,0.07783084317743778,0.02320902615189552,0.05197627095282077
1772527374641322500,1.898322509765625,0.09049450991749763,0.04811375030577183,0.05275163923949003
1772527374651320600,1.908320556640625,0.0975719009578228,0.0772679485976696,0.04657996486723423
1772527374661318700,1.918318603515625,0.11375380495190619,0.10836802026033401,0.0390977924183011
1772527374671316700,1.928316650390625,0.11853460948765278,0.04028057246208191,0.029220833787322043
1772527374681314800,1.938314697265625,0.0656368397757411,-0.022731471768021583,0.03774550102651119
1772527374691312600,1.948312744140625,-0.017532441820204258,-0.056033437389135354,0.06151186880022287
1772527374701310700,1.958310791015625,-0.08149462638199328,-0.06483399896025657,0.07147592119276523
1772527374711308500,1.96830859375,-0.09774696526378393,-0.04305763595998287,0.06043371817469596
1772527374721305600,1.9783056640625,-0.0347866512209177,-0.010268880558013916,0.05867284598201513
1772527374731303700,1.9883037109375,0.018315408891439438,-0.020008184283971785,0.044212651214003564
1772527374741301500,1.998301513671875,0.03610065642893314,-0.02206219420433044,0.03770195414572954
1772527374751300000,2.008300048828125,0.030654665982723234,0.006994388931989669,0.044398821435868735
1772527374761298000,2.0182978515625,0.04623158982098102,-0.001250292322039604,0.03685585871040821
1772527374771296000,2.0282958984375,0.045698213596642015,-0.06081307288110256,0.004731996957957744
1772527374781294000,2.038294189453125,0.013413023802638053,-0.06375906320512294,0.014199498005211352
1772527374791291000,2.048290771484375,-0.011904372805356979,-0.03513035009205341,0.0273687761798501
1772527374801289000,2.0582890625,0.001866378393769264,-0.03305003668665886,0.020595628783106803
1772527374811287000,2.068287109375,0.012476619735360146,-0.014233108013868331,0.026737200278043747
1772527374821285000,2.07828515625,0.027356208959221837,-0.011633739170432091,-0.0012906243324279784
1772527374831283200,2.088283203125,0.04152092791199684,0.007309446230530738,0.0006412205129861831
1772527374841281000,2.098281005859375,0.05406096827238798,0.03922901758253574,0.01875175448209047
1772527374851279000,2.108279052734375,0.054764732627570624,0.043214872348308564,0.04855184946209192
1772527374861277200,2.118277099609375,0.05159720850735902,0.04448679198026657,0.0795531369253993
1772527374871274000,2.12827392578125,0.037974341346323486,0.059387423992156976,0.09703063368797302
1772527374881272000,2.13827197265625,0.03928367037922144,0.043862522602081296,0.09043576546758413
1772527374891270000,2.148269775390625,0.03318243089467287,0.0168880064368248,0.07137947508096694
1772527374901268000,2.15826806640625,0.002651391291618347,-0.0365817179441452,0.036676410490274425
1772527374911266000,2.16826611328125,-0.041025545610487456,-0.08949205487668514,0.012637947776913643
1772527374921263900,2.178263916015625,-0.09388473687767981,-0.08139642670452595,0.035606443171203137
1772527374931262000,2.188261962890625,-0.0904106310263276,-0.0774029731541872,0.06110065765082836
1772527374941259000,2.198259033203125,-0.035199908196926116,-0.07752280014157295,0.0809404996305704
1772527374951257000,2.208257080078125,0.020238193647563456,-0.05157762702405452,0.07877659959495067
1772527374961255200,2.218255126953125,0.06026537587046623,-0.029411972445249557,0.07776040828973055
1772527374971253000,2.2282529296875,0.07101882507503032,-0.02971767739355564,0.08235095095038414
1772527374981251000,2.2382509765625,0.044853287205100054,-0.06016425358355045,0.09330985959917307
1772527374991249200,2.248249267578125,0.015423779103159903,-0.06266834535896777,0.06390168654620647
1772527375001247000,2.2582470703125,-0.006565057604014873,-0.05892097552418708,0.045994566194713114
1772527375011245000,2.2682451171875,-0.002589139710366726,-0.07091302661299705,0.018077216221392155
1772527375021241900,2.278241943359375,0.0002741407662630081,-0.06710486650168895,0.004758300442993641
1772527375031240000,2.288239990234375,0.010747603985667228,-0.011314590218663215,-0.00907353329360485
1772527375041238000,2.298238037109375,0.0262839035525918,0.03365209423303604,-0.014133154770731925
1772527375051235800,2.30823583984375,0.052666883565485476,0.018013795596361157,-0.01992868930697441
1772527375061234000,2.31823388671875,0.04811813421994447,-0.031363691034913065,-0.011964286299049854
1772527375071232000,2.32823193359375,0.018620821578800677,-0.0740308663725853,0.021676117496192453
1772527375081229800,2.338229736328125,-0.03741875329017639,-0.0872667800426483,0.020383447337150574
1772527375091228000,2.348227783203125,-0.05963818388283253,-0.11573065798282622,0.015425824929773806
1772527375101225000,2.358224853515625,-0.08180471524447203,-0.10867372520864009,0.02672083366513252
1772527375111223000,2.36822314453125,-0.0757774177789688,-0.09172726658284663,0.04219400486797094
1772527375121221000,2.37822119140625,-0.061437049998342985,-0.07006488535106181,0.05549480046778917
1772527375131219000,2.388218994140625,-0.03431961823105812,0.0060644146054983136,0.09780717101842164
1772527375141217000,2.398217041015625,0.02985796264708042,0.04129471794068813,0.10073533342480659
1772527375151215000,2.408215087890625,0.07020633964836596,0.0435486343473196,0.06924801601022482
1772527375161213000,2.418212890625,0.0652425797611475,0.036544308543205256,0.07387392224520445
1772527375171211000,2.4282109375,0.03877367503046989,0.04233165977299213,0.07444441560953854
1772527375181207800,2.438207763671875,0.04982084648460149,0.05383914221525192,0.0559682631984353
1772527375191206000,2.448205810546875,0.05356295562237501,0.02105798559784889,0.05265840799808502
1772527375201204000,2.458203857421875,0.014870529134571552,-0.023563246417045592,0.023608839124441144
1772527375211201800,2.468201904296875,-0.051915772937238217,-0.04036182100474834,0.03647767304778099
1772527375221200000,2.478199951171875,-0.08416559915691614,-0.03488543542027473,0.08454787647277116
1772527375231198000,2.488197998046875,-0.06240501824766397,-0.06112637661397457,0.12135317403972148
1772527375241196000,2.498196044921875,-0.01192658463716507,-0.0791542007356882,0.11949556347429752
1772527375251193000,2.508193115234375,0.00027530981004238127,-0.0724222621321678,0.13258651571571825
1772527375261191000,2.51819091796875,-0.00400631303191185,-0.06471475649476051,0.11196692153513431
1772527375271189000,2.52818896484375,0.009513678276538848,-0.048320671054720876,0.04887099841386079
1772527375281187000,2.53818701171875,0.034173487758636475,-0.046961657661199564,-0.016767010405659675
1772527375291185000,2.548184814453125,0.05847878471463918,-0.023550386935472487,-0.018325930285453797
1772527375301183000,2.558182861328125,0.0850455968618393,0.025085925939679145,-0.008882102374732494
1772527375311181000,2.56818115234375,0.11885901913642882,0.06167348910272121,-0.030829438027739523
1772527375321179000,2.578178955078125,0.12560673983097076,0.0321288301885128,-0.04278934041261673
1772527375331176000,2.588176025390625,0.08037526696324349,-0.00338671982884407,-0.015880875220894812
1772527375341174000,2.598174072265625,0.026001287218928335,-0.02758300345242023,0.006001286241412163
1772527375351172000,2.608172119140625,0.0062307110831141465,-0.052912090498209,-0.0008355740413069724
1772527375361170200,2.618170166015625,-0.02377455108016729,-0.07638941219747065,0.011842998006939887
1772527375371168000,2.62816796875,-0.020752280649542806,-0.04601823933124542,0.05443564680367708
1772527375381166000,2.638166015625,-0.0087903324380517,0.033738603472709655,0.07491963190585374
1772527375391164200,2.6481640625,0.050932607118785375,0.047994507840275764,0.04851327101737261
1772527375401161000,2.658160888671875,0.08628595231175422,0.026115853509306907,0.03137625825554132
1772527375411159000,2.668158935546875,0.07561141356229782,-0.006117606097459793,0.044721769779920574
1772527375421157000,2.6781572265625,0.047321723145246505,-0.017925532791018484,0.043052667523920535
1772527375431155000,2.688155029296875,0.051992929826676845,-0.0023217209458351136,0.053691258177161215
1772527375441153000,2.698153076171875,0.06382277609109878,0.021810265269875524,0.04957154789865017
1772527375451150800,2.70815087890625,0.04748860414475202,0.01629413219690323,0.0448690692961216
1772527375461149000,2.71814892578125,0.027763328455388543,-0.04317454033792019,0.05652998873442411
1772527375471147000,2.72814697265625,-0.0058253451526165,-0.07294774731099606,0.0554369328007102
1772527375481144000,2.73814404296875,-0.03707476215809583,-0.08975742781460284,0.033498072715103626
1772527375491142100,2.74814208984375,-0.05327712441831827,-0.07420096224248408,0.009292436741292476
1772527375501140200,2.75814013671875,-0.03251139976531267,-0.07044833171069621,-0.003505377772450447
1772527375511138000,2.768137939453125,-0.0057356210425496094,-0.04320961165130138,-0.008748831383883953
1772527375521136000,2.77813623046875,0.03415770566761493,-0.020440730482339856,-0.008609715174138546
1772527375531134000,2.788134033203125,0.08989128332734107,-0.01816810937523842,-0.00865881501287222
1772527375541132000,2.798132080078125,0.09887859964221715,-0.008492518535256385,0.012999766826629637
1772527375551130000,2.808130126953125,0.08569237033277749,-0.019414310044050215,0.033599487262964245
1772527375561127000,2.818126953125,0.0641164983406663,-0.016271920365095137,0.053689796872436996
1772527375571125000,2.828125,0.0491997919768095,-0.032706337815523144,0.05950462063103914
1772527375581123000,2.838123046875,0.024524784925580023,-0.04260521601736545,0.06557166558504104
1772527375591121000,2.848120849609375,-0.004553717781603336,-0.02608078219592571,0.057796939930319785
1772527375601119000,2.858118896484375,-0.021193302415311335,-0.0037239889591932293,0.06280366217643023
1772527375611117000,2.868116943359375,0.004890110129117965,0.0014665654212236404,0.07563245635032653
1772527375621115000,2.878114990234375,0.02973112139701843,0.014644026902318,0.09770604873150586
1772527375631113000,2.888113037109375,0.047931963998079294,-0.016153262421488762,0.07204407646954059
1772527375641110000,2.898110107421875,0.03953530705273151,-0.0322597630918026,0.037051965804398054
1772527375651108000,2.908108154296875,0.01134089370369911,-0.03349953401982784,0.006510989329218864
1772527375661106200,2.918106201171875,0.018635434626042842,-0.03013853315412998,0.020090894131362436
1772527375671104000,2.92810400390625,0.047423722214996814,-0.04838672202825546,0.020529285548627374
1772527375681102000,2.93810205078125,0.06372545319646597,-0.04413607884645462,0.000635083033144474
1772527375691100200,2.94810009765625,0.05472293931245804,-0.0567506457477808,-0.03580050443857908
1772527375701098000,2.958097900390625,0.031004502333700654,-0.06006663842797279,-0.03331102571040392
1772527375711095000,2.968094970703125,0.026869594486057757,-0.05909691661298275,-0.03702741588503122
1772527375721092900,2.9780927734375,0.02653700153082609,-0.055898412832617754,-0.024167934311926362
1772527375731091000,2.988091064453125,0.03474398112297058,-0.006029343292117118,0.005321195022761822
1772527375741089000,2.998089111328125,0.06983546050935983,0.012558452799916266,-0.016352584385871886
1772527375751086600,3.008086669921875,0.0868684283748269,-0.00793371560871601,-0.04230447950512171
1772527375761084700,3.018084716796875,0.03032850276827812,-0.01681903285384178,-0.041914018882811065
1772527375771082500,3.02808251953125,-0.03413870870620012,-0.028683073648810384,-0.03685293610095978
1772527375781080600,3.03808056640625,-0.0710720165669918,-0.04060965828597545,-0.0315583368241787
1772527375791077600,3.04807763671875,-0.08043839532732963,-0.10484744491875171,0.004319909025728702
1772527375801075500,3.058075439453125,-0.09295242446362972,-0.04165887507796287,0.0635521424561739
1772527375811073500,3.068073486328125,-0.07022533660978078,-0.0001344400346279144,0.1402232942044735
1772527375821071600,3.078071533203125,0.014350012391805647,-0.0014379238486289978,0.15838965001404284
1772527375831069400,3.0880693359375,0.10335516053438186,0.03596446282863617,0.15557926876842976
1772527375841067500,3.098067626953125,0.14923603722155093,0.04535656055212021,0.12651128745526075
1772527375851065300,3.1080654296875,0.1749783812433481,0.05513794985413551,0.09390461062192916
1772527375861062400,3.1180625,0.16201310120820997,0.06273614989817142,0.060550914813578126
1772527375871060700,3.128060791015625,0.14521540340334177,0.10450549961328506,0.050987259915471074
1772527375881058600,3.13805859375,0.13673223721832037,0.11199439406394958,0.026630817294120788
1772527375891056600,3.148056640625,0.1549991307929158,0.04623334338665008,-0.00995499230325222
1772527375901054700,3.1580546875,0.12865326792001724,-0.009297405177354811,-0.047806291791796685
1772527375911052500,3.168052490234375,0.06007014555931091,-0.048402504119277,-0.061705930067598815
1772527375921050600,3.178050537109375,0.02829553563594818,-0.06417991896569729,-0.05915478428006172
1772527375931048400,3.18804833984375,0.023472937785089014,-0.08560907596349716,-0.07415010883808136
1772527375941045500,3.19804541015625,0.021026713676750658,-0.0981079075306654,-0.1079629465907812
1772527375951043600,3.208043701171875,0.015338438907265663,-0.1312602355480194,-0.13660919536054134
1772527375961041400,3.21804150390625,0.016789806759357453,-0.17987842824459074,-0.18086188632398842
1772527375971039500,3.22803955078125,-0.008926233777403831,-0.14556816236376763,-0.2281625666812062
1772527375981037600,3.23803759765625,-0.018920973569154738,-0.13245499829053878,-0.2231505837380886
1772527375991035400,3.248035400390625,0.02371054593324661,-0.17690321182608604,-0.14069149623811245
1772527376001033500,3.258033447265625,0.049234863290190695,-0.17405308309197426,-0.1529968510597944
1772527376011030500,3.268030517578125,0.05832067154347896,-0.1390419754654169,-0.17137538831532
1772527376021028600,3.278028564453125,0.06558481732755898,-0.13028466851413248,-0.0945434930473566
1772527376031026700,3.288026611328125,0.03656593585312366,-0.07710545151233672,-0.07821604310274123
1772527376041024500,3.2980244140625,0.006485562627017497,-0.07376315534710884,0.015266542714834212
1772527376051022600,3.308022705078125,0.012733224844932556,-0.05664134015440941,0.09174626354426145
1772527376061020700,3.318020751953125,0.013102350418269633,-0.032114801663160324,0.09560235445052384
1772527376071018500,3.3280185546875,0.03637567397803068,0.0010106383472681046,0.11190496221482753
1772527376081016600,3.3380166015625,0.02772475001066923,0.016895020699501037,0.10279664986878632
1772527376091013400,3.348013427734375,-0.01663169358819723,0.05370236409306526,0.1208835107013583
1772527376101011500,3.358011474609375,-0.011048340497910977,0.08884206653535366,0.16766893501281738
1772527376111009500,3.368009521484375,0.010958908648788929,0.0831190127134323,0.2101721519604325
1772527376121007400,3.37800732421875,0.03552753271609545,0.019657471150159835,0.21894845587313175
1772527376131005400,3.38800537109375,0.02016746649891138,-0.0020154314756393433,0.19526129081547258
1772527376141003500,3.39800341796875,-0.015149930597841739,-0.01516775851547718,0.15155629686266184
1772527376151001300,3.40800146484375,-0.043624329932034016,-0.016285948890447616,0.13320552439689634
1772527376160999400,3.41799951171875,-0.03844517372846603,0.01586567765176296,0.12568360445946455
1772527376170996500,3.42799658203125,0.014747487276792525,0.026294717207551,0.10497457842975855
1772527376180994600,3.43799462890625,0.03621142332702875,0.016385902133584023,0.07182108136862515
1772527376190992600,3.44799267578125,0.037246903854608535,0.010869769060611724,0.060979077097773546
1772527376200990500,3.457990478515625,0.01829261253774166,0.005467033234238625,0.05715834976583719
1772527376210988500,3.467988525390625,0.009735212072730063,-0.011046879193186759,0.061732525813579554
1772527376220986600,3.477986572265625,-0.00884177036434412,-0.01711363188624382,0.06883125190287828
1772527376230984400,3.487984375,-0.048801440308988094,-0.01189209784567356,0.06953092460483312
1772527376240981500,3.4979814453125,-0.06824234609901905,-0.017657237243652344,0.06480886451900005
1772527376250979300,3.507979248046875,-0.08570493755340576,-0.0782832631200552,0.05899520980417728
1772527376260977400,3.517977294921875,-0.09553367312848568,-0.10373743785023688,0.043808746588230134
1772527376270975500,3.5279755859375,-0.1038084572598338,-0.08613631470799446,0.028073709578812122
1772527376280973300,3.537973388671875,-0.06996785471737385,-0.0693815792620182,0.034442660088837146
1772527376290971400,3.547971435546875,0.0020715455770492553,-0.00696340927183628,0.009322247357666492
1772527376300969700,3.5579697265625,0.04088818296641111,0.020913608691096305,0.005529284815490245
1772527376310967600,3.567967529296875,0.10704846209436654,-0.013459201031923293,-0.0009027940586209297
1772527376320964600,3.577964599609375,0.10372720871716737,-0.003003273469209671,0.02143500221669674
1772527376330962400,3.58796240234375,0.07697188826054334,-0.005057867911458016,0.02276595855951309
1772527376340960500,3.59796044921875,0.06907558205276727,-0.009004559710621833,0.020299568445980548
1772527376350958600,3.60795849609375,0.06694967593997717,-0.01809562866091728,-0.0065504445567727086
1772527376360956400,3.617956298828125,0.06220160463005304,-0.014637012639641761,0.02073562177568674
1772527376370954500,3.62795458984375,0.03602788345366716,-0.04501344620287418,0.030909225265681742
1772527376380952600,3.63795263671875,-0.005922668047249317,-0.07452770997881888,0.013449848681688309
1772527376390949400,3.647949462890625,-0.03863923499584198,-0.07329904496669769,0.026306407645344733
1772527376400947500,3.657947509765625,-0.03855857097506523,-0.04964461313486099,0.02953472204208374
1772527376410945500,3.667945556640625,0.0017518121033906935,-0.05694119988381862,0.010153145223855973
1772527376420943600,3.677943603515625,0.003787701845169067,-0.046211131554841994,0.008143266706168651
1772527376430941700,3.687941650390625,0.0049009237840771675,-0.017132921108603476,0.03267857302576303
1772527376440939500,3.697939453125,0.03326221813261509,-0.0319938056319952,0.03910217633247375
1772527376450937600,3.7079375,0.029535306563973424,-0.06345043564736842,0.0339718277066946
1772527376460935700,3.717935791015625,0.014757131887972353,-0.08766483944952487,0.002676233471930027
1772527376470932500,3.727932373046875,0.010222118806838989,-0.07471592602729797,-0.002573357619345188
1772527376480930600,3.7379306640625,0.011035773277282715,-0.049559857460856435,-0.005124795667827129
1772527376490928400,3.747928466796875,0.010386661718785762,-0.02690612710416317,-0.008843231669068335
1772527376500926500,3.757926513671875,0.005428454789519309,0.028046529310941693,-0.001073182189464569
1772527376510924500,3.767924560546875,0.03353343628942966,0.05162205068767071,-0.015198738175630569
1772527376520922400,3.77792236328125,0.06895604732632636,0.0022194296151399613,-0.04060439758896828
1772527376530920400,3.78792041015625,0.05183890830874443,-0.045859249377250666,-0.023227438591420648
1772527376540918500,3.79791845703125,0.001342062258720398,-0.07728606877624988,-0.008553016550838947
1772527376550915600,3.80791552734375,-0.020284078615903853,-0.04454290608167648,0.008876841677725315
1772527376560913700,3.81791357421875,0.009161211577057838,-0.0027308862686157226,0.027145488817989824
1772527376570911500,3.827911376953125,0.043997839419543744,-0.005403904870152473,0.021480010402202605
1772527376580909600,3.83790966796875,0.04276099110096693,-0.038655601608753205,0.024715631322562694
1772527376590907600,3.84790771484375,0.026872224834561347,-0.05148994874060154,0.030231472134590147
1772527376600905500,3.857905517578125,0.01414864460080862,-0.03534837675690651,0.030646774937212466
1772527376610903600,3.867903564453125,0.0246150935575366,-0.025537176838517188,0.01563654507100582
1772527376620900400,3.877900390625,0.04722849190384149,-0.01248947921693325,-0.006275719268620014
1772527376630898400,3.8878984375,0.06927811888754368,0.012134674429893492,0.0061804422006011
1772527376640896500,3.897896484375,0.0962163946956396,0.014160042777657507,0.004176993423700332
1772527376650894300,3.907894287109375,0.07467500949501991,-0.01288461601436138,-0.009041676850616931
1772527376660892400,3.917892333984375,0.02833937477767467,-0.05027472773194313,-0.006631693099439144
1772527376670890500,3.927890380859375,0.0035679216146469114,-0.09493453819155692,-0.009262041603028773
1772527376680888300,3.937888427734375,-0.005784136359393596,-0.09930676192641258,-0.008225099770724774
1772527376690886400,3.947886474609375,-0.027275252677500247,-0.05598141494095325,-0.032873218815028665
1772527376700883500,3.957883544921875,-0.034228725077211856,-0.033439912787079806,-0.027601708152890203
1772527376710881500,3.967881591796875,0.0001654196947813034,-0.03918634748458862,-0.0023319500789046287
1772527376720879600,3.977879638671875,0.03407674938589334,-0.043401919353008266,0.013943477417528629
1772527376730877400,3.98787744140625,0.03896656725406646,-0.052366731575131414,-0.0008308978661894798
1772527376740875500,3.99787548828125,0.027339257824420926,-0.03158113317787647,-0.0062742579638957975
1772527376750873600,4.00787353515625,0.023597148686647414,-0.023700024539232253,0.0010536007061600684
1772527376760871400,4.017871337890625,0.033822774624824525,-0.004150689938664436,-0.002010170778632164
1772527376770869500,4.027869384765625,0.05780395419299602,0.002729717224836349,0.005768354268372059
1772527376780866300,4.0378662109375,0.057301849889755244,-0.009027940586209296,-0.006031389118731021
1772527376790864400,4.047864501953125,0.038028994143009184,-0.04050444434583187,0.0007376666247844696
1772527376800862200,4.0578623046875,0.007009294240176677,-0.06781681416332722,0.036244156552851195
1772527376810860300,4.0678603515625,-0.033008243371546266,-0.06810264536738395,0.033979718752205366
1772527376820858400,4.0778583984375,-0.03830459621399641,-0.05221592492759228,0.04592617713361978
1772527376830856400,4.0878564453125,-0.02560936529189348,-0.02740413975417614,0.06738514474779367
1772527376840854500,4.0978544921875,-0.0069116790845990175,0.0020668694019317624,0.07492430808097124
1772527376850851300,4.107851318359375,-0.011390870325267314,0.01473462779521942,0.07737403932064771
1772527376860849400,4.117849365234375,-0.008918927253782748,0.005741758522391319,0.08344897532016038
1772527376870847500,4.127847412109375,-0.013495149128139018,-0.008942600390315055,0.08125468014627694
1772527376880845300,4.13784521484375,-0.016197101563215254,-0.006359598159790039,0.0816506937265396
1772527376890843400,4.147843505859375,-0.004668868593871593,-0.0032709844946861265,0.07527940512895584
1772527376900841500,4.157841552734375,0.03808540050536394,0.023572598767280576,0.04255173226445913
1772527376910839300,4.16783935546875,0.0414005164027214,0.0382896909058094,0.03336597076803446
1772527376920837400,4.17783740234375,0.05122457580268383,0.012503507742285728,0.047393911598622794
1772527376930834200,4.187834228515625,0.06690642132014035,0.006560089167952537,0.0602624532610178
1772527376940832300,4.197832275390625,0.03793751646727323,0.00630114597082138,0.050910979808866975
1772527376950830300,4.207830322265625,0.00892448021173477,-0.030092940446734426,0.04902648123651743
1772527376960828400,4.217828369140625,-0.0022355039671063423,-0.0644406157284975,0.02744330272078514
1772527376970826500,4.227826416015625,-0.026856735004484652,-0.10894202075600623,0.04285305329859256
1772527376980824600,4.237824462890625,-0.06861877819597721,-0.15060498748719692,0.012672142307460308
1772527376990822400,4.247822509765625,-0.10148819761872291,-0.10617314056456088,0.036623803520202634
1772527377000819500,4.2578193359375,-0.08609569043666124,-0.062081485381722444,0.026426234632730482
1772527377010817300,4.2678173828125,-0.03930442090630531,-0.012045827102661132,0.04444032249003649
1772527377020815400,4.2778154296875,0.03389028690308332,0.03019523177742958,0.03636690614968538
1772527377030813400,4.2878134765625,0.10510755715966225,0.04859598086476326,0.0438733362570405
1772527377040811300,4.297811279296875,0.12813947317898272,0.015921791753172872,0.02963350624144077
1772527377050809300,4.307809326171875,0.08675415434539317,-0.012787585380673408,0.01805558891147375
1772527377060807400,4.317807373046875,0.01700111142247915,-0.017651976546645163,-0.004906184481084347
1772527377070805200,4.32780517578125,-0.02101794584840536,-0.012831424522399902,-0.02606646140962839
1772527377080802600,4.337802490234375,-0.01184855096489191,-0.04203413813114166,-0.028084815494716166
1772527377090800400,4.34780029296875,-0.01713496693521738,-0.0704272889226675,0.003951952496170997
1772527377100798500,4.357798583984375,-0.0227633282110095,-0.04445230518877506,0.03918196357041597
1772527377110796500,4.367796630859375,-0.005122457580268382,-0.01037935519516468,0.06595102029144763
1772527377120794400,4.37779443359375,0.03596183248013258,0.00017886369824409484,0.06080810444504022
1772527377130792400,4.38779248046875,0.04397621210962534,-0.018564999738335607,0.06123538994640112
1772527377140790500,4.39779052734375,0.039727322493493554,-0.021862872239947317,0.04755494737923145
1772527377150788400,4.407788330078125,0.03061521075516939,-0.02888940987586975,0.044164135897159576
1772527377160785400,4.417785400390625,0.03353665115982294,-0.036817280265688895,0.04531272141039371
1772527377170783200,4.427783203125,0.026900574146211147,-0.02337035419344902,0.026479718385636807
1772527377180781300,4.43778125,0.012938099767267704,-0.024150106394290924,0.009447919563949107
1772527377190779400,4.447779296875,0.016154139204323292,-0.012658990564942359,0.04422375712990761
1772527377200777200,4.457777099609375,0.037760406334698196,-0.008691840499639511,0.05254764109998941
1772527377210775300,4.467775390625,0.0627393647685647,-0.01142681842148304,0.035895781506597994
1772527377220773400,4.4777734375,0.0626496406584978,0.023175708404183388,0.016827800682187078
1772527377230770400,4.4877705078125,0.05786766707897186,0.03943652285337448,-0.014821429295837879
1772527377240768500,4.4977685546875,0.03694587508141994,0.026019991919398307,-0.02835515686869621
1772527377250766300,4.507766357421875,-0.017947160100936888,-0.024444120904803274,-0.02869417956471443
1772527377260764400,4.517764404296875,-0.05788637177944183,-0.0787187319278717,0.004293605540692806
1772527377270762500,4.527762451171875,-0.07973346192836761,-0.09092588707208633,0.05038140297681093
1772527377280760300,4.53776025390625,-0.04257686670571565,-0.0692769498437643,0.09305617709904909
1772527377290758400,4.54775830078125,0.008432312780618668,-0.06326338864266871,0.07473784559816121
1772527377300756500,4.557756591796875,0.020874737985432146,-0.05451251143217087,0.03345511035621166
1772527377310753300,4.567753173828125,0.02730857042521238,-0.055393385919928546,0.020079788215458392
1772527377320751400,4.57775146484375,0.01845949353724718,-0.054879006657004355,0.029826690725982187
1772527377330749200,4.587749267578125,0.029907939268648622,-0.028368016350269316,0.03860474820435047
1772527377340747300,4.597747314453125,0.041594869931042194,-0.019488544324040413,0.04263853376507759
1772527377350745300,4.607745361328125,0.04770429272204637,0.011449614775180816,0.045265959659218785
1772527377360743200,4.6177431640625,0.04137976587563753,0.03960311159193516,0.056446986626088616
1772527377370741200,4.6277412109375,0.034089024345576764,0.034633506485819816,0.05605769504755735
1772527377380739300,4.6377392578125,0.017233751134574413,0.009258242210745811,0.04882219083607196
1772527377390736400,4.647736328125,0.001615326242148876,-0.027134090641140935,0.03393324926197529
1772527377400734500,4.657734375,-0.045348669506609436,-0.05162964947223663,0.04944119951725006
1772527377410732300,4.667732177734375,-0.06898235081136227,-0.051112347599864,0.061306117095053195
1772527377420730400,4.67773046875,-0.06072217972725629,-0.021834815189242362,0.06694149263352155
1772527377430728400,4.687728515625,-0.03192278622239828,0.005431961920857429,0.07274316464960574
1772527377440726300,4.697726318359375,-0.013637187947332858,-0.002069207489490509,0.09709726918339728
1772527377450724400,4.707724365234375,-0.002459375850856304,-0.007065700602531433,0.11287030011564493
1772527377460721400,4.717721435546875,0.027513737608492374,-0.014008651608228683,0.10981558872014284
1772527377470719200,4.72771923828125,0.06561988864094019,-0.02863105120062828,0.09784253459274768
1772527377480717300,4.73771728515625,0.09886866277009249,-0.009432429733872413,0.08539981712698937
1772527377490715400,4.74771533203125,0.09430033194124698,0.00652034167945385,0.058519116725027555
1772527377500713500,4.75771337890625,0.07104279047250747,-0.001793313157558441,0.016627309674024583
1772527377510711600,4.767711669921875,0.05203472314178943,-0.0407382531017065,-0.002822363944351673
1772527377520709400,4.77770947265625,-0.003404547746479511,-0.06199789875149726,-0.006380056425929069
1772527377530707500,4.78770751953125,-0.03520136950165033,-0.07075052952766418,0.00029781390279531476
1772527377540704500,4.79770458984375,-0.04808364742845297,-0.08294365614652634,-0.005462357059121132
1772527377550702300,4.807702392578125,-0.053823360124230384,-0.08615151227712631,-0.002012216605246067
1772527377560700400,4.817700439453125,-0.04539309317022562,-0.05623159030973911,0.0520209868773818
1772527377570698500,4.827698486328125,-0.0022241057902574538,-0.000827098473906517,0.07539104880988598
1772527377580696300,4.8376962890625,0.057976680411398404,0.0075169515013694755,0.057900984826683995
1772527377590694400,4.8476943359375,0.08391600831001997,-0.028142390900850293,0.03490384785979986
1772527377600692200,4.857692138671875,0.06787555861324071,-0.06414777026176452,0.022712474806606767
1772527377610690300,4.867690185546875,0.040407121451199055,-0.07592763990461826,0.014681436303257942
1772527377620687400,4.877687255859375,0.00689414342790842,-0.04796002104878425,0.010027473017573356
1772527377630685400,4.887685546875,0.004442366361618042,-0.010536007061600685,0.013144435994327068
1772527377640683500,4.89768359375,0.023941139818727968,-0.007020692417025565,0.03185995011925697
1772527377650681600,4.907681640625,0.05628390501886606,-0.0145481653124094,0.041869302958250046
1772527377660679400,4.917679443359375,0.0551844193443656,-0.03006196078658104,0.04686521154940128
1772527377670677500,4.927677490234375,0.036327743183076376,-0.028563831183314323,0.025791151599586008
1772527377680675300,4.93767529296875,0.01674889022707939,0.011895020455121993,0.039925183153152466
1772527377690672400,4.94767236328125,0.01293868428915739,0.04641746778190136,0.024494682048261163
1772527377700670500,4.95767041015625,0.035300153701007364,0.06056114394664764,0.0022109540477395057
1772527377710668300,4.967668212890625,0.049831660139560696,0.08127484615147114,-0.00459755692332983
1772527377720666400,4.977666259765625,0.07333908471614121,0.055072483402490616,0.0030029812082648277
1772527377730664400,4.98766455078125,0.09661913027763366,0.012805705559253693,-0.00670417381376028
1772527377740662300,4.997662353515625,0.07327887896150351,-0.02217792953848839,0.008639525790512562
1772527377750660400,5.007660400390625,0.04993336694836616,-0.03660685238540173,0.019838380675017833
1772527377760659200,5.0176591796875,0.04592237774133682,-0.03788929341137409,0.030211598390340804
1772527377770656000,5.027656005859375,0.04307195674628019,-0.06484627391994,0.0195478732958436
1772527377780654000,5.037654052734375,0.000744096365571022,-0.10272270784974098,-0.00826835439056158
1772527377790652200,5.047652099609375,-0.02740443201512098,-0.13929741153120995,-0.007926409085094928
1772527377800650200,5.057650146484375,-0.011514204443991184,-0.13714578645527362,0.023234160593152045
1772527377810648300,5.0676484375,-0.0011707973450422286,-0.10972294200062752,0.036735447201132775
1772527377820646400,5.077646484375,0.010845219141244887,-0.06893208192884921,0.028615269109606743
1772527377830644200,5.087644287109375,0.027461422899365425,-0.06087912385463714,0.0033940263524651526
1772527377840641300,5.097641357421875,0.006453121662139892,-0.06978723745346069,-0.024414894810318947
1772527377850639000,5.10763916015625,-0.023401333853602407,-0.030541853258013722,-0.020496552322804926
1772527377860637200,5.11763720703125,-0.007827624885737896,0.004070025917887687,0.006330079804360866
1772527377870635300,5.12763525390625,0.05329407555311918,0.011866963404417038,0.044677346116304396
1772527377880633000,5.137633056640625,0.12551233954578636,-0.0007984569013118743,0.03939969797432422
1772527377890631200,5.147631103515625,0.15192425339221954,0.022041151416301728,0.012473697125911712
1772527377900629200,5.157629150390625,0.1263543433278799,0.032094343397021295,0.005483692108094692
1772527377910627000,5.167626953125,0.09582739537805318,0.010747603985667228,0.038431437464058395
1772527377920624400,5.177624267578125,0.08464023093134164,-0.03286182063817978,0.06278320391029119
1772527377930622200,5.187622314453125,0.04009206415265798,-0.052635611644387244,0.06388678123801947
1772527377940620300,5.197620361328125,-0.00826747760772705,-0.04501344620287418,0.07159808626770973
1772527377950618400,5.207618408203125,-0.027696985220909118,-0.029827567508816717,0.08640840964764356
1772527377960616200,5.2176162109375,-0.03191314161121845,0.004398527219891548,0.0854486247047782
1772527377970614300,5.2276142578125,-0.03593640577793121,0.018155249893665314,0.0861696324557066
1772527377980612400,5.2376123046875,0.003584580488502979,0.023965981999039647,0.08971154284626245
1772527377990610200,5.247610107421875,0.04085544974058866,0.024863807621598243,0.08789221846461295
1772527378000607200,5.257607177734375,0.06071282737702131,0.004770867663621902,0.0481757096260786
1772527378010605000,5.26760498046875,0.057342474161088466,-0.005198153164982795,0.03197013249546289
1772527378020603100,5.27760302734375,0.030598259620368478,0.008515314888954162,0.011848258703947066
1772527378030601200,5.287601318359375,0.02719049700349569,0.02619242587685585,0.00777560243755579
1772527378040599000,5.29759912109375,0.04516805224269628,-0.0012573065847158432,0.025783845075964925
1772527378050597000,5.30759716796875,0.05709872853308916,-0.02263794826567173,0.05089636676162481
1772527378060595200,5.31759521484375,0.03395487657189369,-0.04227963732481003,0.06077449443638324
1772527378070590200,5.327590087890625,-0.0122737906396389,-0.0628501316666603,0.0606412234455347
1772527378080588000,5.337588134765625,-0.03142302000671625,-0.05526829823553562,0.03113455845415592
1772527378090586000,5.347586181640625,-0.01980243257880211,-0.05905190842747688,0.012163900524377822
1772527378100584200,5.357584228515625,-0.014307342293858527,-0.019429507613182066,-0.002152501858770847
1772527378110582000,5.36758203125,0.018490765458345413,-0.03324059082269668,0.025631577123701572
1772527378120580000,5.377580078125,0.03969225118011236,-0.040789106506109236,0.030839667160809037
1772527378130578200,5.387578125,0.040866847917437554,-0.03507540503442287,0.025159867958724498
1772527378140575200,5.3975751953125,0.04314326841682196,-0.011239771416783333,-0.00029255320578813553
1772527378150573300,5.4075732421875,0.06360270359963179,-0.01637304265201092,0.014791910940408706
1772527378160571100,5.417571044921875,0.07012772145420312,-0.015000585255026816,0.012551438537240028
1772527378170569200,5.4275693359375,0.05842500870078802,0.02693009250164032,0.026470950557291505
1772527378180567300,5.4375673828125,0.06287468158602715,0.0684101038813591,0.029018004691600797
1772527378190565000,5.447565185546875,0.1020943468183279,0.005440145227313041,0.03937280996739864
1772527378200563200,5.457563232421875,0.06405483128130436,0.03953706061840057,-0.016907880181074142
1772527378210560300,5.467560302734375,0.07961217363625764,0.024924597898125646,0.0011570610806345939
1772527378220558000,5.47755810546875,0.11134995868057011,-0.028301965376734732,-0.0596238630965352
1772527378230556200,5.48755615234375,0.1173547520533204,-0.02110591639280319,-0.08118307621479035
1772527378240554200,5.49755419921875,0.09037672875672578,-0.078453358989954,-0.1277206632450223
1772527378250552000,5.507552001953125,0.054393561227619645,-0.10378770673274994,-0.12149287477135658
1772527378260550100,5.517550048828125,0.019813830755650998,-0.09385200365185738,-0.13711831392645835
1772527378270548200,5.52754833984375,-0.025384324364364146,-0.10653203700482845,-0.11624942115992307
1772527378280545300,5.537545166015625,-0.06220861889272928,-0.0324292744398117,-0.03350888637006283
1772527378290543400,5.54754345703125,-0.005502689069509506,-0.03129121032059193,0.029570085616409777
1772527378300541200,5.557541259765625,0.03769114049077034,-0.05819032316207885,0.03677168755829334
1772527378310539300,5.567539306640625,0.03884557122290134,-0.0707540366590023,0.08437339668869971
1772527378320537300,5.577537353515625,-0.009144844964146614,-0.08078150967657566,0.08208762383908033
1772527378330535200,5.58753515625,-0.02231938383579254,-0.07375497204065322,0.05439765288084745
1772527378340533200,5.597533203125,0.005065466696023941,-0.10179039543569088,0.05438420887738466
1772527378350531000,5.607531005859375,0.009305296222865581,-0.06434826126992702,0.050662558005750175
1772527378360529200,5.617529052734375,0.055173897950351235,-0.022592940080165862,0.09036825318932533
1772527378370526200,5.627526123046875,0.08169131799787283,0.010870353582501411,0.060378773117065423
1772527378380524000,5.63752392578125,0.06530921525657177,0.031109424012899397,-0.01279401512145996
1772527378390522400,5.6475224609375,0.05198299295455217,0.016669979771971703,-0.013219839318096636
1772527378400520400,5.6575205078125,0.020646774448454377,0.00012274959683418273,-0.03972235405743122
1772527378410518300,5.667518310546875,0.03660626786351204,-0.027480712121725082,0.04481792363077402
1772527378420516400,5.677516357421875,0.015014906041324138,-0.0683054744631052,0.13847060531824826
1772527378430514200,5.68751416015625,-0.06604542057663201,-0.06296411343514918,0.062606386038661
1772527378440511200,5.69751123046875,-0.04614508058130741,0.033065818777680396,0.10577274307012557
1772527378450509300,5.70750927734375,-0.051308746954798694,0.05718962168693542,0.08091185805797577
1772527378460507100,5.717507080078125,0.011622340993583202,0.06310322964489459,0.022579203815758227
1772527378470505200,5.727505126953125,0.07225362756699323,0.021128712746500966,0.09053805679827928
1772527378480503300,5.73750341796875,0.0675149086073041,-0.03407178094983101,0.15525807399004696
1772527378490501000,5.747501220703125,0.02335632566809654,-0.02633972539305687,0.1087365613117814
1772527378500499200,5.757499267578125,0.006393792690336704,0.005894903257489204,0.05374971036612987
1772527378510497300,5.767497314453125,-0.011077858853340148,0.02411094342768192,0.002187280911207199
1772527378520494300,5.777494384765625,0.005742927566170692,0.06222820037603378,0.017874094864726065
1772527378530492400,5.787492431640625,0.03804506849497556,0.06055939038097858,0.03763970256447792
1772527378540490200,5.797490234375,0.029151275682449337,0.02559153737425804,0.003927110315859317
1772527378550488300,5.80748828125,0.030317981374263763,-0.0746142192184925,0.05388911883682012
1772527378560486400,5.817486328125,-0.033029578420519824,-0.10194470921456814,0.03895604586005211
1772527378570484200,5.827484130859375,-0.11391659429818392,-0.09138064510226249,0.052767421330511564
1772527378580482300,5.837482421875,-0.09126198715865612,-0.07939151662290096,0.08325695987939834
1772527378590479000,5.84747900390625,-0.04236322395503521,-0.06843932997584343,0.09994476756900549
1772527378600477200,5.857477294921875,-0.011978022563457489,-0.06351356401145458,0.08705459859669208
1772527378610475300,5.867475341796875,-0.021797698049247263,-0.04819441432654857,0.08926263003498315
1772527378620473000,5.87747314453125,0.00666238049864769,-0.04435936620831489,0.09695260001569986
1772527378630471200,5.88747119140625,0.02525689859241247,-0.06543781007230282,0.08248889811635017
1772527378640469200,5.89746923828125,0.005684767638146877,-0.07691314381062984,0.07207476386874914
1772527378650467000,5.907467041015625,-0.025508827526867388,-0.03945113590061664,0.06767272951751947
1772527378660465200,5.917465087890625,0.013460954597592353,-0.005387538257241249,0.05720628056079149
1772527378670462200,5.927462158203125,0.023884148934483526,0.012362637966871261,0.052482174648344516
1772527378680460300,5.937460205078125,0.025590952852368353,0.037975218129158016,0.09079670773446559
1772527378690458400,5.947458251953125,0.01567453899383545,0.04193009323477745,0.10441811359077692
1772527378700456200,5.957456298828125,0.003310439722239971,-0.03148001089096069,0.07361468678712844
1772527378710454300,5.967454345703125,-0.03546674243956804,-0.07461538826227188,0.02428746903836727
1772527378720452400,5.977452392578125,-0.09497574698477983,-0.07108312248289585,0.033492812018096445
1772527378730450200,5.9874501953125,-0.10237696315199137,-0.07767711392045021,0.06242723007947206
1772527378740448300,5.9974482421875,-0.1102677164018154,-0.06515548599958419,0.03415302949249744
1772527378750445000,6.007445068359375,-0.10445464620888233,-0.05759703344404697,0.04701777176260948
1772527378760443400,6.017443359375,-0.0933560368284583,-0.03920972836017608,0.12347615754306315
1772527378770441200,6.027441162109375,-0.04777092821747064,-0.01699555846452713,0.15363631800711153
1772527378780439300,6.037439208984375,-0.02159749930202961,-0.02401508183777332,0.1456032336771488
1772527378790437000,6.04743701171875,-0.008920388558506966,-0.01862988166809082,0.12708324212431907
1772527378800435200,6.057435302734375,-0.0037672435790300366,-0.01785831277370453,0.12204612473994493
1772527378810433300,6.067433349609375,-0.006646013885736465,0.0008469722181558609,0.09965455245077609
1772527378820430300,6.077430419921875,0.004541442821919918,0.010105214428901672,0.08805208520144224
1772527378830428400,6.087428466796875,-0.019319325236976145,0.004723521390557289,0.10760989536941051
1772527378840426500,6.097426513671875,-0.0648936201930046,-0.0038180969834327697,0.12482552632540464
1772527378850424300,6.10742431640625,-0.09586977321505546,-0.0063636898130178445,0.13763210866749287
1772527378860422400,6.11742236328125,-0.10455343040823936,-0.01863338879942894,0.14752221904098986
1772527378870420500,6.12742041015625,-0.07991846310645341,-0.01358136610686779,0.17221154687851667
1772527378880418300,6.137418212890625,-0.039622108553349966,-0.0022767127603292464,0.18442659306824205
1772527378890416400,6.14741650390625,0.00006692775636911391,0.012857728007435797,0.15141045865118502
1772527378900413200,6.1574130859375,0.03771978206336498,0.013975333860516548,0.10104629907011985
1772527378910411300,6.167411376953125,0.07081161206513643,0.019263503396511075,0.052498541261255735
1772527378920409300,6.177409423828125,0.09183072695732117,0.007198387071490287,0.02738748088032007
1772527378930407200,6.1874072265625,0.09345774363726377,-0.00954582698047161,0.015059914226830005
1772527378940405200,6.1974052734375,0.10432049843519925,0.01549099912047386,0.006101824006438255
1772527378950403300,6.2074033203125,0.10015782579779624,0.044835167026519775,-0.024715631322562694
1772527378960401400,6.2174013671875,0.0913435279622674,0.06043079556524753,-0.018801731103658674
1772527378970399500,6.2273994140625,0.08034019564986228,0.02935994999706745,-0.0028410686448216435
1772527378980396300,6.237396240234375,0.045614626966416834,-0.01815758798122406,0.018287644101679323
1772527378990394400,6.247394287109375,0.001130173073709011,-0.07053659451603889,0.02333236027061939
1772527379000392400,6.257392333984375,-0.056983285459876055,-0.07013152084648609,0.014742226579785345
1772527379010390300,6.267390380859375,-0.0830865717485547,-0.053181555089354515,-0.00038490766435861584
1772527379020388400,6.277388427734375,-0.06518938826918602,-0.06447451799809932,0.007908288906514644
1772527379030386400,6.287386474609375,-0.05159253233224153,-0.08974339928925038,0.0007885200291872024
1772527379040384300,6.29738427734375,-0.051205578841269014,-0.10902034668922424,-0.008090075214207171
1772527379050382300,6.30738232421875,-0.0360240840613842,-0.10023907434046268,-0.04087970739901066
1772527379060379400,6.31737939453125,-0.019107436051964757,-0.0766799195766449,-0.06403232718855142
1772527379070377500,6.32737744140625,0.030196400821208953,-0.05233341382741928,-0.07606850968003273
1772527379080375600,6.33737548828125,0.07772446019351482,-0.010158990442752838,-0.07637947532534599
1772527379090373400,6.347373291015625,0.1169888413503766,0.005220364996790886,-0.09341741162687539
1772527379100371500,6.357371337890625,0.14277648581862448,0.03380874609947204,-0.07330021401047707
1772527379110369500,6.36736962890625,0.12385872711986302,0.014831073907017708,-0.06248392870277166
1772527379120367400,6.377367431640625,0.05168050287663936,-0.033223055166006085,-0.02135989115387201
1772527379130364400,6.387364501953125,-0.018011749769747256,-0.081681673386693,0.0281269010707736
1772527379140362200,6.3973623046875,-0.05864946510642766,-0.08159224153757094,0.05288227988183498
1772527379150360300,6.4073603515625,-0.07719634466618298,-0.06079729079008102,0.051800037603080266
1772527379160358400,6.4173583984375,-0.047828795884549614,-0.04230418724417686,0.027427228368818758
1772527379170356200,6.427356201171875,0.007901859165728092,-0.0045019875943660735,0.03274053234606981
1772527379180354300,6.437354248046875,0.05167494991868734,0.020661679756641387,0.031357845816016194
1772527379190352400,6.447352294921875,0.0983665584668517,-0.00039221418797969816,0.017010171511769295
1772527379200350200,6.45735009765625,0.11059884805232285,-0.0612251608133316,0.003167524120211601
1772527379210347500,6.467347412109375,0.05434913756400347,-0.09036942223310471,-0.020531039114296434
1772527379220345300,6.477345458984375,-0.018165479026734828,-0.09362170202732085,-0.027301848423480986
1772527379230343400,6.487343505859375,-0.06318681627511978,-0.10899053607285022,-0.00984042601287365
1772527379240341500,6.497341552734375,-0.08745324252545833,-0.07595160530209541,0.016678163078427313
1772527379250339300,6.50733935546875,-0.07520049467384815,-0.043563831916451454,0.03159048552811146
1772527379260337400,6.51733740234375,-0.025185294660925863,-0.04400865307450294,0.046027591681480406
1772527379270335500,6.52733544921875,0.030006723468005654,-0.036406361377239224,0.05770780034214258
1772527379280333300,6.537333251953125,0.06945318319350481,-0.01986205381155014,0.03491787638515234
1772527379290330400,6.547330322265625,0.0742117758974433,-0.030464111846685408,0.0072542089119553566
1772527379300328200,6.557328125,0.05440349809974432,-0.04652794241905212,-0.02668985400497913
1772527379310326300,6.567326171875,0.020370295594632624,-0.035187633237242694,-0.028219840051233767
1772527379320324400,6.577324462890625,0.010396014069020748,-0.020462357792258263,-0.004592003965377807
1772527379330322200,6.587322265625,0.026397300799190997,0.0063005614489316936,0.012747545631229876
1772527379340320300,6.5973203125,0.041670857776701445,-0.026847090393304823,0.004984218153357506
1772527379350318300,6.607318359375,0.028145021249353884,-0.07254325816333293,0.016326573161780832
1772527379360315400,6.6173154296875,-0.023426760555803776,-0.08143675871491432,0.03338146059811115
1772527379370313500,6.6273134765625,-0.07582973248809576,-0.06627718350589275,0.03841740893870592
1772527379380311300,6.637311279296875,-0.07142828265875578,-0.056874564388394354,0.032176176461577416
1772527379390309400,6.647309326171875,-0.04841624038368463,-0.035677462580800054,0.0376841262280941
1772527379400307500,6.657307373046875,-0.026953181116282938,0.004712415474653244,0.05267302104532719
1772527379410305300,6.66730517578125,0.029272563974559306,0.0010772738426923752,0.06892915931940079
1772527379420303400,6.677303466796875,0.08152443699836731,-0.00004325461983680725,0.07773293576091528
1772527379430301400,6.687301513671875,0.08977525573223828,-0.0035796120524406432,0.06761807672083378
1772527379440298200,6.69729833984375,0.08189882326871156,-0.032581834653019906,0.04892682025432586
1772527379450296300,6.70729638671875,0.03764408647865057,-0.056952305799722665,0.06934855377525091
1772527379460294100,6.717294189453125,0.0019908815562725067,-0.03375321651995182,0.0880254894554615
1772527379470292200,6.727292236328125,0.006157061325013637,-0.0038128362864255903,0.1249123278260231
1772527379480290300,6.737290283203125,0.03632160570323467,0.011439093381166457,0.1280818977728486
1772527379490288400,6.747288330078125,0.06783055042773485,0.017186112600564955,0.10768296060562133
1772527379500286500,6.757286376953125,0.07075549796372652,0.009695464584231376,0.05511398445665836
1772527379510284500,6.767284423828125,0.06385112540274858,-0.01926759504973888,0.019930150611698626
1772527379520281300,6.77728125,0.045776247268915174,-0.049689621320366854,-0.013475567644834518
1772527379530279400,6.787279541015625,0.0023819267004728316,-0.0635737697660923,-0.045754035437107085
1772527379540277200,6.79727734375,-0.019249182610213755,-0.05698971520066261,-0.04641600647717714
1772527379550275300,6.807275390625,-0.02220861693769693,-0.03520867602527141,-0.04982347683310508
1772527379560273400,6.8172734375,0.005354512770473957,-0.018874796339869496,-0.03806348093450069
1772527379570271200,6.827271240234375,0.013031038747727871,-0.013893500795960426,-0.033466800794005394
1772527379580269300,6.837269287109375,0.03250876941680908,-0.010826514440774917,-0.0013633973076939581
1772527379590267400,6.847267333984375,0.045537177816033364,-0.01851999155282974,0.018902268868684766
1772527379600264200,6.85726416015625,0.03979541929364204,-0.05058218624591827,0.007753975127637386
1772527379610262300,6.86726220703125,0.02066723271459341,-0.0500058476626873,0.011598960117995738
1772527379620260400,6.87726025390625,0.0031809681236743925,-0.045080081698298455,0.030957448321580885
1772527379630258400,6.887258544921875,0.020618717397749422,-0.01884030954837799,0.02792027258276939
1772527379640256500,6.897256591796875,0.050213937455415726,0.0019371055424213409,0.030268589274585245
1772527379650254300,6.90725439453125,0.08320055351704359,0.008216624203324318,0.04305822048187256
1772527379660252400,6.91725244140625,0.09723141695708036,-0.012300094124674796,0.05570347478240728
1772527379670249200,6.927249267578125,0.09073474841415882,-0.04148994825184345,0.035944004562497134
1772527379680247300,6.937247314453125,0.04293488636314869,-0.038861937835812564,0.030652327895164488
1772527379690245400,6.947245361328125,-0.015255436798930168,-0.03672083415389061,0.017238427309691905
1772527379700243200,6.9572431640625,-0.04355710991472005,-0.04251753773391247,0.02201221758276224
1772527379710241300,6.9672412109375,-0.02312456273883581,-0.020986673927307128,0.05027151286154985
1772527379720239400,6.9772392578125,0.003187397864460945,-0.009893032982945442,0.05476064097434282
1772527379730237200,6.9872373046875,0.02787380309253931,-0.024711831930279732,0.05878390514105558
1772527379740235300,6.9972353515625,0.029921383272111413,-0.03197685449719429,0.07340221308022737
1772527379750232600,7.007232666015625,0.002698445303738117,-0.004592588487267494,0.08855360498279333
1772527379760230100,7.017230224609375,0.0046533787637948985,0.028364509218931196,0.1055062010884285
1772527379770228200,7.027228271484375,0.027741993406414985,0.05165303034782409,0.09583908581584691
1772527379780226300,7.037226318359375,0.06012158348560333,0.06341477981209755,0.09237287101000546
1772527379790224100,7.04722412109375,0.08966039718091487,0.04962473939061165,0.10722761805355548
1772527379800222200,7.05722216796875,0.10892857675254344,0.040703181788325306,0.08388941256403923
1772527379810220300,7.06722021484375,0.07538637263476848,0.05337152470350265,0.049501989793777464
1772527379820218000,7.077218017578125,0.053265141719579696,0.06871171717643737,0.02561550277173519
1772527379830215200,7.087215087890625,0.04370674751847982,0.045409167522192,0.022155425445735455
1772527379840213000,7.097212890625,0.047451487004756925,-0.026561259189248083,0.027606092067062854
1772527379850211000,7.107211181640625,0.024451135167479515,-0.07491758607923985,0.005523731857538223
1772527379860209200,7.117209228515625,-0.035815117485821245,-0.06512275277376174,0.003739771050214767
1772527379870207000,7.12720703125,-0.06102320850044488,-0.059814124971628184,-0.00248743290156126
1772527379880205000,7.137205078125,-0.03656739715784788,-0.06157938107848167,0.0016164952859282493
1772527379890203100,7.147203125,0.024684359401464462,-0.02913374002575874,0.019344167417287825
1772527379900201000,7.157200927734375,0.06817395703792571,-0.014488544079661369,0.033197043941915035
1772527379910198300,7.1671982421875,0.08762684552669525,-0.016493454161286353,0.01758241844177246
1772527379920196000,7.177196044921875,0.09596505028307438,-0.033520576807856556,-0.004126432280242443
1772527379930194200,7.187194091796875,0.05381342325210571,-0.06589958236515521,-0.0066410454496741295
1772527379940192300,7.197192138671875,0.012692892834544181,-0.07266366967260837,0.0005348375290632248
1772527379950190000,7.207190185546875,0.008422375908493995,-0.04870762454569339,0.00024520693272352215
1772527379960188200,7.217188232421875,0.023483166918158528,-0.001070259580016136,-0.007998305277526378
1772527379970186200,7.227186279296875,0.05140694663226604,0.014589081844687461,0.010189970102906227
1772527379980184000,7.23718408203125,0.06587620148956776,0.030652912417054173,-0.007220891164243221
1772527379990181000,7.24718115234375,0.05836918686032295,0.025212182667851447,-0.005703764599561691
1772527380000179000,7.257178955078125,0.034001638323068614,-0.029662147814035415,0.022827333357930184
1772527380010177000,7.267177001953125,0.006778115832805633,-0.06511690755486488,0.018126023799180983
1772527380020175000,7.277175048828125,-0.010504735140502453,-0.059285717183351516,0.00810410373955965
1772527380030173200,7.287173095703125,0.022134382657706737,-0.0752326433777809,-0.015311843161284923
1772527380040171300,7.297171142578125,0.046833647367358205,-0.06258125159740448,-0.008623451438546181
1772527380050169300,7.30716943359375,0.054176119084656235,-0.020731822383403778,0.006918693347275256
1772527380060166100,7.317166259765625,0.06787059017717838,-0.016249124011397362,0.013085691544413566
1772527380070164200,7.327164306640625,0.0816878108665347,-0.008608838391304016,-0.010600888991355896
1772527380080162000,7.337162109375,0.08113339185416699,-0.019083470654487608,-0.027648762165009975
1772527380090160000,7.34716015625,0.07574643811881542,-0.04357084617912769,-0.04277531188726425
1772527380100158200,7.357158203125,0.036982407699525356,-0.02338730532824993,-0.018528174859285353
1772527380110156000,7.367156005859375,0.009670330142974854,-0.0358802916765213,-0.014300620292127132
1772527380120154000,7.377154052734375,-0.001911386579275131,-0.060060793209075924,0.015535715045034884
1772527380130152200,7.387152099609375,-0.020247545997798443,-0.058875382816791534,0.06990560313612222
1772527380140149000,7.39714892578125,-0.024618892949819563,-0.04014437886178493,0.08594400700628757
1772527380150147000,7.40714697265625,-0.009908522813022137,-0.019070611172914503,0.06130582483410835
1772527380160145200,7.417145263671875,0.017174422162771225,-0.044292146191000935,0.022105741085112093
1772527380170143200,7.427143310546875,0.05569587599784136,-0.054226680228114124,-0.0077729720890522
1772527380180141300,7.437141357421875,0.04798486322909593,-0.029110943672060966,-0.014234277057647704
1772527380190139100,7.44713916015625,0.059953533442318435,0.006865209594368934,0.009225508984923362
1772527380200137200,7.45713720703125,0.07891746937036513,0.021902619728446007,0.022017770540714264
1772527380210135300,7.46713525390625,0.06426876629292964,0.021821955707669257,0.006286240662634372
1772527380220132000,7.477132080078125,0.037003158226609226,-0.006622633010149002,0.014921090278029441
1772527380230130200,7.487130126953125,-0.02083265240937471,-0.03877133694291115,0.03626841421127319
1772527380240128000,7.4971279296875,-0.07992167797684668,-0.06738134535551071,0.06738134535551071
1772527380250126000,7.5071259765625,-0.1207552081465721,-0.07931903590857982,0.1201981587857008
1772527380260124200,7.517124267578125,-0.13612316540926694,-0.04944762925803661,0.14340192424058915
1772527380270122000,7.5271220703125,-0.06252630653977394,-0.017115969973802565,0.1425941149890423
1772527380280120000,7.5371201171875,0.017593524357676506,0.0012637363255023955,0.1520899653479457
1772527380290118100,7.5471181640625,0.062407064074277874,-0.004734627306461334,0.17242226701974867
1772527380300115200,7.557115234375,0.07814531595408916,-0.008494856622815131,0.17971856150776147
1772527380310113300,7.56711328125,0.06415332321971655,0.012562544453144073,0.18125673086047173
1772527380320111000,7.577111083984375,0.08863573030829429,0.032839024284482,0.15591887598633766
1772527380330109200,7.587109130859375,0.12062719785273074,0.05770867712497711,0.1234156595274806
1772527380340107300,7.597107177734375,0.1249488604441285,0.05912906531691551,0.08486439507603645
1772527380350105000,7.60710498046875,0.1239428982719779,0.008276829957962036,0.04136486056745052
1772527380360103200,7.617103271484375,0.07799217121899127,-0.016623802542686462,0.014793664506077766
1772527380370101200,7.627101318359375,0.019933365482091903,-0.026018822875618932,-0.01458002175539732
1772527380380098000,7.63709814453125,-0.011740998937189578,-0.03371405355334282,-0.0528054152533412
1772527380390096100,7.64709619140625,-0.018135376149415967,0.005647650498151779,-0.05227408485561609
1772527380400094000,7.657093994140625,-0.0035632454395294185,-0.01868482672572136,-0.06164250944256782
1772527380410092000,7.667092041015625,0.0003793547064065933,-0.07113806754052639,-0.08836071275919676
1772527380420090000,7.677090087890625,-0.020033026464283465,-0.09266659325957298,-0.061486734358966344
1772527380430088000,7.687087890625,-0.04578121570497751,-0.11500935797095298,-0.04595335740149021
1772527380440086000,7.6970859375,-0.06550269200205802,-0.12523556843101977,-0.03704378249794245
1772527380450083000,7.7070830078125,-0.04582330128103494,-0.10152852962911128,-0.028384967485070228
1772527380460081200,7.7170810546875,0.005418225656449794,-0.05594342101812362,-0.0014420155018568038
1772527380470079200,7.727079345703125,0.058382338602840894,-0.023010873231291768,0.03731675422042608
1772527380480077000,7.7370771484375,0.1255792673021555,-0.0024286884516477583,0.05975158112943172
1772527380490075100,7.7470751953125,0.18908347896337507,0.05378361263573169,0.08037439018040896
1772527380500073200,7.7570732421875,0.20090075800716875,0.09186170661747455,0.06119125854372978
1772527380510071000,7.767071044921875,0.19555939697921276,0.1253647477686405,0.0525718987584114
1772527380520069000,7.777069091796875,0.1988286279082298,0.09947685779631137,0.029930151100456714
1772527380530067200,7.787067138671875,0.15419862806499005,0.02120353154838085,0.009515431842207909
1772527380540064000,7.79706396484375,0.06045593000650405,-0.0497054034113884,0.002235211706161499
1772527380550062000,7.80706201171875,-0.020128011271357535,-0.08699322379827498,-0.013632511772215366
1772527380560060000,7.817059814453125,-0.04678980822563171,-0.12537994533777236,-0.051988838173449035
1772527380570058000,7.82705810546875,-0.08241086444407701,-0.13652619325220583,-0.05812690253704786
1772527380580056000,7.83705615234375,-0.1089957967698574,-0.11394786621928214,-0.023861937102675437
1772527380590054100,7.84705419921875,-0.09553104277998209,-0.07070201421082019,-0.0006193009421229362
1772527380600052200,7.85705224609375,-0.02838525974601507,-0.03509995495378971,0.00957066916078329
1772527380610050300,7.86705029296875,0.014856792870163917,0.00783785401880741,0.01315174251794815
1772527380620047000,7.877047119140625,0.0675447192236781,0.04049275390803814,0.022781448389589787
1772527380630045200,7.887045166015625,0.10588555579483508,0.041129298245906824,-0.0002779401585459709
1772527380640043000,7.89704296875,0.10555880805850028,0.011703297275304794,0.008289397178590297
1772527380650041000,7.907041015625,0.07314911510199308,-0.03068973729610443,0.02624298702031374
1772527380660039200,7.9170390625,0.032527766378223896,-0.05252630605101585,0.004399111741781234
1772527380670037000,7.927037109375,-0.010066635984182358,-0.046024084550142286,0.0012877017229795456
1772527380680035000,7.93703515625,-0.005093231485784054,-0.028005028256773947,0.008221592639386653
1772527380690033200,7.947033203125,0.009040507806837558,-0.036921325162053105,0.005386076952517032
1772527380700030200,7.9570302734375,0.02520253805667162,-0.06164250944256782,-0.018026655077934266
1772527380710028300,7.9670283203125,0.02823942153453827,-0.0501408722192049,-0.0009276362389326095
1772527380720026000,7.977026123046875,0.03240384773761034,-0.021832477101683616,0.017847499118745325
1772527380730024200,7.987024169921875,0.03450841880142688,-0.03853635914325714,0.01600128673017025
1772527380740022300,7.997022216796875,0.050339609661698335,-0.04992167651057243,0.007662205190956592
1772527380750020000,8.00702001953125,0.031038112342357635,-0.06805003839731216,0.022647008354961872
1772527380760017400,8.017017333984375,0.006347030939161777,-0.05731763198077678,0.05429390024542808
1772527380770014200,8.02701416015625,-0.019359364986419676,-0.06210661982297897,0.07687281180024147
1772527380780012300,8.03701220703125,-0.020283786354959008,-0.050634793215990063,0.05503069008737802
1772527380790010400,8.04701025390625,-0.01505319222509861,-0.07390577868819237,0.03488806576877832
1772527380800008200,8.05700830078125,-0.015349544823169707,-0.05532791946828365,0.02073825212419033
1772527380810006300,8.06700634765625,-0.011512743139266967,-0.0336450799703598,-0.0018044190734624861
1772527380820004400,8.07700439453125,0.030181203252077102,-0.00023439327776432036,-0.02866583025306463
1772527380830002400,8.08700244140625,0.07381897718757391,0.025198154142498968,-0.060656713275611396
1772527380840000500,8.09700048828125,0.08804010250270367,-0.024456395864486693,-0.07010492510050535
1772527380849997300,8.106997314453125,0.030141748024523258,-0.045994273933768266,-0.0022089082211256025
1772527380859995400,8.116995361328126,-0.011597206552326678,-0.10820376960933208,0.037520460098981856
1772527380869993500,8.126993408203125,-0.0309872589379549,-0.1098369237691164,0.08860825777947902
1772527380879991300,8.1369912109375,-0.046797407010197634,-0.06706628805696964,0.1202677168905735
1772527380889989400,8.1469892578125,-0.046340310892462724,-0.004592003965377807,0.1506637319371104
1772527380899987500,8.156987548828125,0.003424421490728855,0.05910568444132804,0.22774784840047357
1772527380909985300,8.1669853515625,0.056497840030491346,0.10912556062936782,0.24821838949918745
1772527380919983400,8.1769833984375,0.09846008196920156,0.1264496203958988,0.23344109160602092
1772527380929980200,8.186980224609375,0.1266775839328766,0.11698796456754207,0.22855770347863436
1772527380939978200,8.196978271484374,0.1136336857035756,0.09811725988090038,0.21765227858275174
1772527380949976300,8.206976318359375,0.07474369081705808,0.08411796062290668,0.13922200820744038
1772527380959974400,8.216974365234375,0.0414139604061842,0.0737953040510416,0.06902268282175064
1772527380969972500,8.226972412109374,0.033328853628039355,0.03947860842943191,0.0033849662631750105
1772527380979970600,8.236970458984375,0.02183218484073877,0.017461422410607337,-0.03397095092386007
1772527380989968400,8.246968505859375,0.024518647445738315,-0.0045949265748262405,-0.020849019022285937
1772527380999966500,8.256966552734376,0.028500410558283326,-0.08915303218066692,-0.058225394475460046
1772527381009963300,8.26696337890625,-0.029046938525140283,-0.15953414387404918,-0.023363632191717623
1772527381019961300,8.27696142578125,-0.097181732596457,-0.13074936341643334,0.028355741390585897
1772527381029959400,8.28695947265625,-0.1403665020674467,-0.11895078907310962,0.05896481466591358
1772527381039957200,8.296957275390625,-0.1379778533652425,-0.11908464458584785,0.04919014736562967
1772527381049955300,8.306955322265624,-0.10501228009164333,-0.12969663949310778,0.007977847011387347
1772527381059953400,8.316953369140625,-0.054099546717107296,-0.04662555757462978,0.03601853110343218
1772527381069951200,8.326951171875,0.017721242390573023,0.010478139394521713,0.019265256962180136
1772527381079949300,8.33694921875,0.08109393662661314,-0.0041740708142519,-0.026032559140026567
1772527381089946400,8.3469462890625,0.11738543945252895,-0.00282031811773777,-0.0191252639696002
1772527381099944400,8.3569443359375,0.12926497007757423,-0.021986790880560873,0.0007350362762808799
1772527381109942500,8.366942626953126,0.12893266938328743,-0.029476854375004767,0.03327215500473976
1772527381119940400,8.3769404296875,0.11801000109165906,-0.04949263744354248,0.07087298686355352
1772527381129938400,8.3869384765625,0.06377046138197183,-0.04534896176755428,0.10111293456554413
1772527381139936500,8.3969365234375,0.02019230867922306,-0.04442483265995979,0.11449790131747722
1772527381149934300,8.406934326171875,-0.0171951726898551,-0.01462006150484085,0.12262187880128621
1772527381159932400,8.416932373046874,-0.03126432231366634,0.04853986676335335,0.1368938575208187
1772527381169929200,8.42692919921875,0.002577449272572994,0.08355974221825599,0.09254881209880113
1772527381179927300,8.43692724609375,0.07924070997536183,0.013288520640134811,0.00504500842988491
1772527381189925400,8.44692529296875,0.09270283361673355,-0.08970657441020011,-0.08077069602161645
1772527381199923200,8.456923095703125,0.05208411524146795,-0.13455343187451363,-0.11282120027691125
1772527381209921300,8.46692138671875,-0.009802139829099178,-0.09712941788733005,-0.13029460538625717
1772527381219919400,8.47691943359375,-0.02744622533023357,-0.05720832638740539,-0.13410481132417917
1772527381229917200,8.486917236328125,-0.010361819538474083,-0.07175707622170448,-0.13507833253145218
1772527381239915300,8.496915283203125,-0.008822481141984462,-0.1175619650632143,-0.10797317572385072
1772527381249912300,8.506912353515625,-0.012390110495686531,-0.15497487313449382,-0.04965922618210315
1772527381259910400,8.516910400390625,-0.019367840553820133,-0.17630466141104698,-0.01630494585186243
1772527381269908500,8.526908447265624,-0.049230479376018044,-0.14912088640928267,-0.0030661095723509787
1772527381279906300,8.53690625,-0.053147360558807845,-0.05511398445665836,0.01720247921347618
1772527381289904400,8.546904296875,-0.005774199487268925,-0.02087327668070793,0.07796177608072757
1772527381299902500,8.55690234375,0.035384032592177386,0.0500625462859869,0.10968202546834944
1772527381309900300,8.566900390625,0.08010229524075985,0.10938041217327117,0.12456512182354926
1772527381319898400,8.5768984375,0.13221622109860182,0.07642565255463123,0.05423252544701099
1772527381329895200,8.586895263671876,0.12599047845155,0.028016718694567677,-0.02581190212666988
1772527381339893200,8.596893310546875,0.05853752916455268,0.002611643803119659,-0.026995266692340373
1772527381349891300,8.606891357421874,0.013787994594871997,0.0068096800148487084,0.007006371630728245
1772527381359889200,8.61688916015625,-0.0065425535112619395,-0.008312485793232917,0.006829261498153209
1772527381369887200,8.62688720703125,-0.017559622088074683,-0.015149053815007208,0.010714578498899936
1772527381379885300,8.63688525390625,-0.018863105902075766,-0.006276011529564857,0.05527531249821186
1772527381389883400,8.64688330078125,0.01630932976603508,-0.016361352214217185,0.07602963897436857
1772527381399880400,8.65688037109375,0.03135843033790588,-0.04417933346629142,0.09119885879456996
1772527381409878300,8.666878173828126,0.004468962107598781,-0.040108138504624365,0.1073836853981018
1772527381419876400,8.67687646484375,-0.005762509049475193,-0.031736616000533104,0.09789251121431589
1772527381429874400,8.68687451171875,-0.0030579262658953664,-0.030322657549381255,0.08178571828305721
1772527381439872300,8.696872314453126,0.018728958128392696,-0.04757774373292923,0.060629825268685815
1772527381449870300,8.706870361328125,0.01366933665126562,-0.03823533037006855,0.054823184816539285
1772527381459868400,8.716868408203124,-0.011869301491975784,-0.02979132715165615,0.058905777955055236
1772527381469866200,8.7268662109375,-0.014142214860022068,-0.018007950377464294,0.056384735044836994
1772527381479863300,8.73686328125,-0.0015866846695542336,0.0016109423279762267,0.04096884698718786
1772527381489861400,8.746861328125,0.005259527963399887,-0.002482464465498924,0.028462124374508856
1772527381499859500,8.756859375,0.017877601996064186,0.009586158990859985,0.02824760484099388
1772527381509857500,8.766857421875,0.021365444111824033,0.0005418517917394638,0.014767945542931557
1772527381519855400,8.77685546875,0.010552373674511908,-0.01622866574525833,-0.012810966256260872
1772527381529853400,8.786853515625,-0.016716449262201786,-0.0013987608820199965,0.018827157805860043
1772527381539851500,8.7968515625,-0.014390344402194022,0.02237257532775402,0.03869885622859001
1772527381549849300,8.806849365234376,0.009274316562712192,0.025597382593154906,0.06250614053457974
1772527381559846400,8.816846435546875,0.02516454413384199,0.0008867197066545486,0.0824964969009161
1772527381569844200,8.82684423828125,0.022370529501140116,-0.03334288215339184,0.14202888232171534
1772527381579842300,8.83684228515625,-0.02008855604380369,-0.045810734060406685,0.16434592806994913
1772527381589840400,8.84684033203125,-0.07894874129146337,-0.02314239065647125,0.1689253648146987
1772527381599838200,8.856838134765624,-0.07232377019375562,-0.018877134427428246,0.1674550000011921
1772527381609836300,8.866836181640625,-0.02965542581230402,-0.001640168422460556,0.1625248501226306
1772527381619834400,8.87683447265625,-0.0007081482693552971,0.004577390918135643,0.14119447732418774
1772527381629832200,8.886832275390624,0.01307458562850952,-0.001093055933713913,0.13107903376221655
1772527381639829500,8.89682958984375,0.019091361699998376,0.004815875849127769,0.10334317783564329
1772527381649827300,8.906827392578125,0.014208850355446338,0.0009743979901075362,0.08229746719747781
1772527381659825400,8.916825439453126,0.0007841361150145531,-0.015128595548868178,0.06855068139582872
1772527381669823500,8.926823486328125,-0.003743278181552887,0.0007692308068275451,0.05218845239877701
1772527381679821300,8.9368212890625,0.010308920307457446,0.019731705430150032,0.06758680479973554
1772527381689819400,8.9468193359375,0.020445698918402193,0.03477963695824146,0.09632336220145225
1772527381699817500,8.9568173828125,0.045293139927089214,0.012357377269864082,0.08288345039188862
1772527381709815300,8.966815185546874,0.05122691389024257,-0.02420388240814209,0.04759790973812342
1772527381719812400,8.976812255859375,0.019831366412341594,-0.03797288004159927,0.03447130166143179
1772527381729810200,8.98681005859375,-0.011234510719776153,-0.03068447659909725,0.009473054005205631
1772527381739808300,8.996808349609376,0.02314034482985735,-0.032574235868453975,0.01249473991394043
1772527381749806300,9.006806396484375,0.05061228912323713,-0.04662731114029884,0.01660480558127165
1772527381759804200,9.01680419921875,0.05138005862534046,-0.037166239833831785,0.00468903459906578
1772527381769802800,9.026802734375,0.04766279166787862,-0.02031739636361599,0.0191056824862957
1772527381779800800,9.03680078125,0.04272387396097183,-0.030873861691355704,0.028550679440796374
1772527381789798700,9.046798583984375,0.015382278048992157,-0.07570552158653736,0.02986263882219791
1772527381799796000,9.0567958984375,-0.0040963294029235835,-0.08739303677082061,0.053103521417081356
1772527381809794000,9.0667939453125,-0.018851707725226877,-0.057040568605065345,0.04589665877819061
1772527381819792000,9.0767919921875,-0.014693419001996517,-0.04306465022265911,0.01232610534876585
1772527381829790000,9.0867900390625,-0.00037789340168237684,-0.03263911779820919,0.017666589593887328
1772527381839787800,9.096787841796875,0.01266249769628048,0.022022446715831756,0.04536766646802425
1772527381849785900,9.106785888671874,0.018421499614417552,0.08746493296325206,0.05872048451602459
1772527381859784000,9.116783935546875,0.044397652392089364,0.07996610164046287,0.02686199570149183
1772527381869781800,9.12678173828125,0.06865560307502747,0.04387479756176471,0.032178806810081007
1772527381879778800,9.13677880859375,0.07320581372529268,0.006578793868422508,0.05064619139283895
1772527381889777000,9.14677685546875,0.07282879710644483,-0.010149638092517852,0.03627279812544584
1772527381899774700,9.156774658203124,0.07204875264465808,-0.03537994093894958,0.029431553928554056
1772527381909772800,9.166772705078126,0.07119330485910177,-0.07191431261003017,0.03866612300276756
1772527381919771000,9.17677099609375,0.03907967223972082,-0.06719254478514194,0.04974398185610771
1772527381929768700,9.186768798828124,-0.00414835185110569,-0.040047932749986644,0.0783811705365777
1772527381939766800,9.196766845703126,-0.035542438024282454,-0.00817512314915657,0.10251520257890225
1772527381949764600,9.2067646484375,-0.0005292845711112023,0.006253799697756767,0.10631780973225831
1772527381959762000,9.216761962890626,0.060255146737396716,-0.007715104421973228,0.10728723928630352
1772527381969760000,9.226760009765625,0.07529109556674957,-0.04649696275889873,0.06570815144628286
1772527381979757800,9.2367578125,0.05781301428228616,-0.046909050691127774,0.009978373178839683
1772527381989756000,9.246755859375,0.026342063480615616,-0.046458968836069106,-0.030631869629025456
1772527381999754000,9.25675390625,-0.005474339757859706,-0.046530280506610865,-0.05347790768742561
1772527382009751800,9.266751708984375,-0.0014756255105137824,-0.008780687826871872,-0.042999183771014214
1772527382019750000,9.27675,0.03703443014770746,0.01141629702746868,-0.032305940321087835
1772527382029747700,9.286747802734375,0.09099106126278639,-0.0021229835033416745,-0.02381692891716957
1772527382039744800,9.296744873046874,0.07070026064515113,-0.05467091686427593,0.011787468427419661
1772527382049742800,9.306742919921875,0.032787001836299894,-0.11218202559053897,0.015214520266652107
1772527382059740700,9.31674072265625,-0.01007131215929985,-0.106215810662508,0.0262839035525918
1772527382069738800,9.32673876953125,-0.08318155655562877,-0.06886252382397651,0.04212415450215339
1772527382079736800,9.33673681640625,-0.09206891962736845,-0.026675825479626655,0.07376461665183305
1772527382089735000,9.34673486328125,-0.07641220855116844,0.04389817843735218,0.0830818955734372
1772527382099733000,9.35673291015625,-0.015200491741299628,0.06779051067829131,0.10045563970059156
1772527382109731000,9.36673095703125,0.08951251314282417,0.060713119637966155,0.09182342043370008
1772527382119727900,9.376727783203124,0.1257441024750471,0.04417757990062236,0.03861263924986124
1772527382129726000,9.386725830078126,0.12319149538278579,-0.005009352594614029,-0.008108487653732298
1772527382139723800,9.396723876953125,0.09149988756775855,-0.023949615386128425,-0.018189152163267136
1772527382149721900,9.406721923828124,0.06434095474630594,-0.027632103291153905,-0.009692541974782943
1772527382159720000,9.416719970703125,0.025966508166491983,-0.009807108265161514,0.009101882605254649
1772527382169717800,9.4267177734375,0.003952829279005528,-0.028070494708418846,0.03922434140741825
1772527382179715800,9.4367158203125,-0.015409458316862582,-0.05400689999759197,0.051527358141541475
1772527382189714000,9.4467138671875,-0.056120238889753815,-0.05440963557958602,0.07752776857763528
1772527382199710700,9.456710693359375,-0.026971593555808065,-0.031919571352005,0.10382482387274503
1772527382209709000,9.466708984375,0.0035223289072513577,0.009742810857295989,0.0916413418650627
1772527382219707000,9.476706787109375,0.022496493968367576,-0.0006476502537727355,0.05795476084053516
1772527382229705000,9.486705078125,0.05137596697211265,-0.007170914542675018,0.052882572142779825
1772527382239703000,9.496703125,0.06360270359963179,0.007322305712103843,0.04976531690508127
1772527382249700900,9.506700927734375,0.09054010262489319,-0.009767945298552513,0.033572599256038664
1772527382259699000,9.516698974609374,0.07821341275423764,-0.03439735964238643,0.024538813450932503
1772527382269697000,9.526697021484376,0.02929711389392614,-0.06900164003372192,0.028141514118015763
1772527382279693800,9.53669384765625,-0.031389409998059274,-0.07905658558011054,0.04391775992065668
1772527382289692000,9.54669189453125,-0.053406303755939,-0.04840075055360794,0.06595043576955795
1772527382299689700,9.556689697265625,-0.05123889658898115,-0.02967500729560852,0.10142682282030582
1772527382309687800,9.566687744140625,-0.005507949766516685,-0.04139057953059673,0.10824965457767248
1772527382319686000,9.576685791015626,0.016959025846421717,-0.05477379271686077,0.08842091851383448
1772527382329683700,9.58668359375,0.035491292358934876,-0.05389993249177932,0.07299509358406066
1772527382339681800,9.596681884765625,0.03872252936512231,-0.0295101721227169,0.0486050409540534
1772527382349678800,9.606678955078126,0.024618308427929878,0.00542670122385025,-0.0013423545196652412
1772527382359677000,9.616677001953125,0.03685293610095978,0.015036241090297699,0.015032149437069892
1772527382369675000,9.626675048828124,0.04689268407821655,0.024563947892189023,0.027789047418534753
1772527382379672800,9.6366728515625,0.07397738261967897,0.033093291306495666,0.008565876032412052
1772527382389671000,9.6466708984375,0.0837400672212243,-0.012442132943868636,0.007615735700726508
1772527382399669000,9.6566689453125,0.04405015412867069,-0.07645429412722587,0.012005202831327914
1772527382409666800,9.666666748046875,0.018370061688125133,-0.043296120890974996,0.06288081906586886
1772527382419665000,9.676664794921875,0.0025099369943141934,-0.05776069957315921,0.05391162292957306
1772527382429661700,9.68666162109375,-0.023588673119246957,-0.08240764957368374,0.04624649512916803
1772527382439659800,9.69665966796875,-0.03552870175987482,-0.06776712980270386,0.05136252296864986
1772527382449657900,9.706657958984374,-0.02300824288278818,-0.04085983365476131,0.028669629645347593
1772527382459655700,9.71665576171875,0.02927139493077993,-0.026177812829613685,-0.0032701077118515967
1772527382469653800,9.72665380859375,0.01765431463420391,-0.0018716390907764435,-0.019916706608235836
1772527382479652900,9.73665283203125,0.05497106885462999,-0.0030839374899864196,-0.04150222321152687
1772527382489650700,9.746650634765626,0.10041618447303771,0.009133739048242568,-0.03531301318258047
1772527382499647700,9.756647705078125,0.10482932474017143,0.007229366731643676,-0.04841244099140167
1772527382509645800,9.766645751953124,0.10802753625959158,-0.045594460961222646,-0.050663142527639864
1772527382519644000,9.776643798828125,0.06811141319572925,-0.08681085296869277,-0.04123392766416072
1772527382529642000,9.78664208984375,-0.016857611298561094,-0.08547872758209704,-0.01303542266190052
1772527382539640000,9.79664013671875,-0.07329553783535957,-0.03226502378880977,0.03913111016601324
1772527382549638000,9.806637939453125,-0.05631634598374367,-0.01824468174278736,0.06224369020611047
1772527382559636000,9.816635986328125,0.0034174072280526158,-0.030924715095758438,0.056825756810605525
1772527382569633800,9.8266337890625,0.03919657661765814,-0.013301964643597602,0.04674363099634647
1772527382579630800,9.836630859375,0.054957624851167196,0.017676526466012,0.04320318191051483
1772527382589629000,9.84662890625,0.06138239720165729,0.02460778703391552,0.018301088105142114
1772527382599626800,9.856626708984376,0.039349429091811175,0.026430910807847974,0.016458967369794845
1772527382609624800,9.866624755859375,0.04612403779327869,0.016373627173900604,0.027938977283239363
1772527382619623000,9.876622802734374,0.048714054286479944,0.0256499895632267,0.016051555612683295
1772527382629620700,9.886620849609375,0.04538520212471485,-0.003443418452143669,-0.013460954597592353
1772527382639618800,9.896618896484375,0.0007227613165974616,-0.025378771406412124,-0.021282442003488538
1772527382649616000,9.906615966796876,-0.029341245296597478,-0.049236616855859755,0.013020225092768668
1772527382659614000,9.916614013671875,-0.06179916130900383,-0.035247838991880415,0.04546674292832613
1772527382669612000,9.926612060546875,-0.058496612632274625,-0.002670680513978004,0.07120587207973003
1772527382679609900,9.93660986328125,-0.012362930227816104,-0.0005786766707897186,0.10230419017672539
1772527382689608000,9.94660791015625,0.03528787874132395,-0.0034130233138799666,0.11617431009709835
1772527382699606000,9.95660595703125,0.07004822647720575,-0.006789221748709678,0.12795125713050365
1772527382709603800,9.966603759765626,0.050804596824944016,-0.02697100903391838,0.13862433457523585
1772527382719602000,9.976601806640625,0.05156505980342626,-0.002003156515955925,0.14719693260937927
1772527382729598700,9.9865986328125,0.055771279321610925,0.016041034218668936,0.11470336076170205
1772527382739596800,9.9965966796875,0.05859247422218322,0.017124737802147863,0.07257716043293476
1772527382749595000,10.006594970703125,0.0370960972070694,0.010049684849381447,0.07521539998203515
1772527382759592700,10.0165927734375,0.030759879922866818,0.006267828223109245,0.0450628383025527
1772527382769590500,10.026590576171875,0.04776040682345629,0.0003109656453132629,0.005418225656449794
1772527382779588600,10.036588623046875,0.03431640336066484,-0.01686696364879608,-0.02038403185904026
1772527382789586400,10.04658642578125,0.0170534261316061,0.040375265008211134,0.017993629591166974
1772527382799584500,10.05658447265625,0.03448182305544614,-0.014651041164994239,0.0014306173250079155
1772527382809581600,10.06658154296875,0.04151040651798248,-0.0839163005709648,-0.03016863603144884
1772527382819579600,10.07657958984375,-0.003453647585213184,-0.010917115333676338,0.0010115151301026343
1772527382829577700,10.08657763671875,-0.050717795324325556,0.009675590839982031,-0.010865677407383919
1772527382839575600,10.096575439453124,-0.03027092736214399,-0.032734979388117785,0.029030864173173902
1772527382849573600,10.10657373046875,0.007509937238693237,-0.08966507335603237,0.08820201506614685
1772527382859571700,10.11657177734375,0.008078969298303127,-0.07232289341092109,0.07552081266939639
1772527382869569500,10.126569580078124,-0.0035872108370065686,-0.07245148822665214,0.07591478042304516
1772527382879567600,10.136567626953125,0.009956453607976435,-0.07307341951727866,0.08522679864764213
1772527382889564400,10.146564453125,0.011115852776169777,-0.021695698979496955,0.09953326415866613
1772527382899562500,10.1565625,0.010566109938919543,0.0012947159856557845,0.09026245472729205
1772527382909560600,10.166560546875,0.05618512081950903,-0.027813305076956747,0.07274404143244027
1772527382919558400,10.176558349609374,0.07935819887518883,-0.04891922146975994,0.042510231210291384
1772527382929556700,10.186556640625,0.06834960586577654,-0.031574703437089915,0.037199849842488766
1772527382939554800,10.196554931640625,0.0832432236149907,-0.028525837260484695,0.018898469476401804
1772527382949552600,10.206552734375,0.08078589359074831,-0.0071545479297637935,-0.015625146894156932
1772527382959550700,10.21655078125,0.07353928346335888,-0.02768763287067413,-0.04296002080440521
1772527382969547500,10.226547607421875,0.024630291126668452,-0.01099193413555622,-0.05286649779081344
1772527382979545600,10.236545654296876,0.00003419453054666519,-0.009365209716558456,0.015169512081146239
1772527382989543700,10.246543701171875,0.013786825551092624,-0.025371172621846197,-0.01122983454465866
1772527382999541500,10.25654150390625,-0.011872224101424217,-0.03366729180216789,-0.011634031431376934
1772527383009539600,10.26653955078125,-0.028275369630753992,-0.1144774430513382,-0.02151771206408739
1772527383019537700,10.27653759765625,-0.05134878670424223,-0.128911042073369,-0.022116847001016137
1772527383029535500,10.286535400390624,-0.07564063965678215,-0.09687748895287514,0.04235620969235897
1772527383039533600,10.296533447265626,-0.03967033160924911,-0.07587269484698772,0.07831891895532607
1772527383049531600,10.30653173828125,0.015796704068779945,-0.010412088420987129,0.08914367983043193
1772527383059528700,10.31652880859375,0.07035188559889793,0.011864040794968604,0.06397329047769308
1772527383069526800,10.32652685546875,0.09191080645620822,0.0006651859104633331,0.05888064351379871
1772527383079524600,10.336524658203125,0.06837386352419852,-0.02231938383579254,0.03472644546627998
1772527383089522700,10.346522705078126,0.049501405271887775,0.0074812956660985945,0.06208031633794307
1772527383099520800,10.356520751953125,0.052770051679015155,0.00613514175415039,0.03693418464362621
1772527383109518600,10.3665185546875,0.02269026297479868,0.0571077886223793,0.06608078415095806
1772527383119516700,10.3765166015625,0.017917641745507716,0.03572188624441623,0.0741281892672181
1772527383129513500,10.386513427734375,0.026674071913957594,0.00303425312936306,0.06511135459691286
1772527383139511600,10.396511474609374,0.01920885059982538,-0.023587796336412427,0.05175707524418831
1772527383149509600,10.406509521484375,0.0289025616183877,-0.04698854566812515,0.055064007835090155
1772527383159507500,10.416507568359375,0.03454875081181526,0.025147300738096234,0.0775704386755824
1772527383169505500,10.426505615234374,0.04547054232060909,0.06131517718434334,0.05340045853704214
1772527383179503600,10.436503662109375,0.05280220038294792,0.044622401058673856,0.05321458057612181
1772527383189501400,10.44650146484375,0.06759031193107366,-0.015172434690594672,0.08339841417670249
1772527383199499500,10.45649951171875,0.07617460040301084,-0.04268412647247314,0.02692132467329502
1772527383209496600,10.46649658203125,0.028448972631990907,-0.0426379492431879,0.013707038313150404
1772527383219494700,10.47649462890625,-0.022137013006210324,-0.06984393607676029,0.02851122421324253
1772527383229492700,10.48649267578125,-0.05679711523801088,-0.08937047432363032,-0.02724631884396076
1772527383239490600,10.496490478515625,-0.05487199239432811,-0.09070318423211574,-0.04963409174084663
1772527383249488600,10.506488525390624,-0.05092296250760555,-0.07014204224050044,-0.02917524107992649
1772527383259486700,10.51648681640625,-0.03347878349274397,-0.06248129835426807,0.01693009201288223
1772527383269484500,10.526484619140625,-0.015097031366825104,-0.08020049491822719,0.022600246603786945
1772527383279482600,10.536482666015624,-0.002207154655456543,-0.04314414519965648,0.024980711999535558
