time,seconds_elapsed,z,y,x
1772527372821712000,0.0787119140625,0.0031779054552316666,-0.0068450188264250755,-0.004504140932112932
1772527372831709000,0.088708984375,0.004240773152559996,-0.013233941979706287,-0.003795473836362362
1772527372841706800,0.098706787109375,0.00580244418233633,-0.01427961140871048,-0.0014152941294014454
1772527372851704800,0.108704833984375,0.00355953024700284,-0.01199888065457344,-0.002588416449725628
1772527372861703000,0.118702880859375,0.006825750693678856,-0.012122278101742268,-0.0018202285282313824
1772527372871700700,0.12870068359375,0.00619085319340229,-0.01686030812561512,-0.001890535932034254
1772527372881698800,0.13869873046875,0.003697069361805916,-0.012393920682370663,-0.000624469481408596
1772527372891697000,0.14869677734375,0.003319166600704193,-0.010765397921204567,-0.0015696249902248383
1772527372901693700,0.158693603515625,-0.003570850007236004,-0.003258685814216733,-0.0014964109286665916
1772527372911692000,0.168692138671875,-0.006002316251397133,0.0020748269744217396,-0.00026523182168602943
1772527372921689900,0.17868994140625,-0.010519110597670078,0.0020219162106513977,0.00015827734023332596
1772527372931688000,0.18868798828125,-0.011570793576538563,0.00663744006305933,0.0005646757781505585
1772527372941686000,0.19868603515625,-0.011503775604069233,0.00253805099055171,0.004234914667904377
1772527372951683800,0.208683837890625,-0.006960955448448658,0.0012067370116710663,-0.0000021741725504398346
1772527372961682000,0.218681884765625,-0.007108834572136402,-0.006813818588852882,-0.005988362245261669
1772527372971680000,0.228679931640625,-0.003852853551506996,-0.00654563819989562,-0.003592582419514656
1772527372981676800,0.2386767578125,-0.006406058557331562,-0.0004731309600174427,-0.008809871040284634
1772527372991675000,0.2486748046875,-0.003229972906410694,0.0020121312700212,-0.011362245306372643
1772527373001672700,0.258672607421875,-0.008455360308289528,0.004469962324947119,-0.009437312372028828
1772527373011670800,0.2686708984375,-0.01058083027601242,0.008235139772295952,-0.010155832394957542
1772527373021668900,0.2786689453125,-0.013156873174011707,0.013796385377645493,-0.007395043969154358
1772527373031666700,0.288666748046875,-0.01909252628684044,0.016889380291104317,-0.001792818307876587
1772527373041664800,0.298664794921875,-0.022158615291118622,0.018540654331445694,-0.0008927816525101662
1772527373051661800,0.308661865234375,-0.020264044404029846,0.022557765245437622,0.0014635827392339706
1772527373061660000,0.318659912109375,-0.019802086055278778,0.023277780041098595,0.005294337403029203
1772527373071658000,0.328657958984375,-0.015281638130545616,0.015537569299340248,0.0038152183406054974
1772527373081655800,0.33865576171875,-0.009099774062633514,0.004210749641060829,0.004947686567902565
1772527373091654000,0.34865380859375,-0.005670154467225075,-0.0035350543912500143,0.00419720821082592
1772527373101652000,0.35865185546875,-0.001237388700246811,-0.005527965258806944,0.007629443425685167
1772527373111649800,0.36864990234375,0.0018822387792170048,-0.0005553108640015125,0.003034158144146204
1772527373121647900,0.37864794921875,0.004015907645225525,-0.001799113117158413,0.0037344847805798054
1772527373131644700,0.388644775390625,0.008398138917982578,-0.009686064906418324,0.005055945832282305
1772527373141642800,0.398642822265625,0.008836544118821621,-0.011145216412842274,0.00851399078965187
1772527373151640800,0.408640869140625,0.007369142025709152,-0.012104487046599388,0.010561695322394371
1772527373161638700,0.418638671875,0.01192163024097681,-0.010867157019674778,0.01853582262992859
1772527373171636700,0.42863671875,0.009840902872383595,-0.005176780745387077,0.019341427832841873
1772527373181634800,0.438634765625,0.005431958474218845,0.005696081090718508,0.020940832793712616
1772527373191632600,0.448632568359375,0.0027285837568342686,0.0076867942698299885,0.023758191615343094
1772527373201630700,0.458630615234375,0.005430353339761496,0.009123722091317177,0.020602459087967873
1772527373211627800,0.468627685546875,0.006056995131075382,0.013348028063774109,0.016634082421660423
1772527373221625900,0.4786259765625,0.0037765451706945896,0.005651452112942934,0.01780058816075325
1772527373231624000,0.4886240234375,0.0010750340297818184,0.008833663538098335,0.016746776178479195
1772527373241621800,0.498621826171875,0.004877375904470682,0.01998734287917614,0.017962375655770302
1772527373251619800,0.508619873046875,-0.0018159467726945877,0.011789333075284958,0.005766696762293577
1772527373261618000,0.518617919921875,0.0018526427447795868,0.015560083091259003,0.0003354963846504688
1772527373271615700,0.52861572265625,-0.0038949912413954735,0.014163788408041,0.003973108250647783
1772527373281612800,0.53861279296875,-0.002008720301091671,0.011394532397389412,0.00795159861445427
1772527373291611000,0.54861083984375,-0.0020063240081071854,0.01011781394481659,0.006111087743192911
1772527373301608700,0.558608642578125,-0.005920665338635445,0.0076475427486002445,0.010645383968949318
1772527373311606800,0.568606689453125,0.0016453755088150501,0.004731647204607725,0.020970460027456284
1772527373321604600,0.5786044921875,0.002359196078032255,0.0028565051034092903,0.016689741984009743
1772527373331602700,0.588602783203125,0.004093713127076626,-0.0010061436332762241,0.015667088329792023
1772527373341600800,0.598600830078125,0.00617756275460124,-0.003866025246679783,0.018056008964776993
1772527373351598800,0.608598876953125,0.007451086305081844,-0.010510079562664032,0.011065211147069931
1772527373361596000,0.618595947265625,0.004901675041764975,-0.006574693601578474,0.002849250566214323
1772527373371594000,0.628593994140625,0.0014147982001304626,0.0032417182810604572,-0.007018826436251402
1772527373381591800,0.638591796875,-0.0031143510714173317,0.0033944575116038322,-0.016546577215194702
1772527373391590000,0.64858984375,-0.010272662155330181,0.00939482543617487,-0.019828390330076218
1772527373401587700,0.658587646484375,-0.01166869793087244,0.006887079682201147,-0.016392000019550323
1772527373411585800,0.668585693359375,-0.008289146237075329,-0.0014933552592992783,-0.010616669431328773
1772527373421584000,0.678583984375,-0.005473866127431393,-0.0010197404772043228,-0.007672459352761507
1772527373431580700,0.68858056640625,-0.002184329554438591,0.0036304048262536526,-0.0019882083870470524
1772527373441578800,0.698578857421875,-0.00030839815735816956,0.004905260633677244,0.000827285461127758
1772527373451576800,0.708576904296875,-0.0019273338839411736,0.0048477365635335445,-0.0019754250533878803
1772527373461575000,0.718574951171875,0.004054046235978603,-0.0016179122030735016,0.0071953474543988705
1772527373471573000,0.728572998046875,0.006588044110685587,-0.009636957198381424,0.01611107960343361
1772527373481571000,0.738571044921875,0.00789189338684082,-0.01553402841091156,0.018721086904406548
1772527373491569000,0.74856884765625,0.011576376855373383,-0.013467948883771896,0.021816745400428772
1772527373501567000,0.75856689453125,0.013954333029687405,-0.01600746437907219,0.0192668829113245
1772527373511563800,0.768563720703125,0.014201740734279156,-0.017951305955648422,0.008641403168439865
1772527373521561900,0.778561767578125,0.009865694679319859,-0.013447573408484459,-0.0015476066619157791
1772527373531560000,0.788559814453125,0.00674686674028635,-0.010659243911504745,-0.01130702719092369
1772527373541557800,0.798557861328125,0.009675259701907635,-0.018181417137384415,-0.013084002770483494
1772527373551555800,0.808555908203125,0.0022501000203192234,-0.011301938444375992,-0.012594247236847878
1772527373561554000,0.818553955078125,-0.0035502994433045387,0.0010625501163303852,-0.0011401474475860596
1772527373571551700,0.8285517578125,0.0038951002061367035,0.00085082883015275,-0.0036158221773803234
1772527373581549000,0.838549072265625,0.005687662400305271,0.001006933394819498,-0.0101193031296134
1772527373591547000,0.848546875,0.0037438208237290382,0.009060066193342209,-0.006087011191993952
1772527373601545000,0.858544921875,0.0005351966246962547,0.0076422058045864105,0.005510857794433832
1772527373611543000,0.86854296875,-0.0011665625497698784,0.013633253052830696,0.010285373777151108
1772527373621540900,0.878540771484375,-0.005717732012271881,0.012438302859663963,0.005821600090712309
1772527373631539000,0.8885390625,-0.008405661210417747,0.015984036028385162,0.0028881276957690716
1772527373641537000,0.898537109375,-0.014853213913738728,0.013920738361775875,0.0026625143364071846
1772527373651534800,0.908534912109375,-0.017808791249990463,0.0165596641600132,-0.0030267969705164433
1772527373661532000,0.918531982421875,-0.019755639135837555,0.024474555626511574,-0.008790232241153717
1772527373671529700,0.92852978515625,-0.019643787294626236,0.02492382936179638,-0.010167885571718216
1772527373681527800,0.93852783203125,-0.017060985788702965,0.01775067299604416,-0.009757978841662407
1772527373691526000,0.94852587890625,-0.01173599623143673,0.0062532746233046055,-0.009405642747879028
1772527373701523700,0.958523681640625,-0.00908690970391035,-0.0004601418040692806,-0.006877725478261709
1772527373711521800,0.968521728515625,-0.005171796306967735,-0.00021619629114866257,-0.013007789850234985
1772527373721519900,0.978519775390625,-0.0036240480840206146,-0.008553515188395977,-0.0180729441344738
1772527373731517700,0.988517578125,-0.008884057402610779,-0.01581382378935814,-0.021846110001206398
1772527373741515000,0.998514892578125,-0.016803912818431854,-0.007078483700752258,-0.014272214844822884
1772527373751512600,1.0085126953125,-0.019933924078941345,0.004513989668339491,-0.012347015552222729
1772527373761510700,1.0185107421875,-0.018920816481113434,0.009801575914025307,-0.0076456936076283455
1772527373771508700,1.0285087890625,-0.019418828189373016,0.013535594567656517,-0.006425166968256235
1772527373781506600,1.038506591796875,-0.016806460916996002,0.016479365527629852,-0.004080585669726133
1772527373791504600,1.048504638671875,-0.016352925449609756,0.02169303596019745,-0.014739621430635452
1772527373801502700,1.058502685546875,-0.017618395388126373,0.03059019148349762,-0.020672565326094627
1772527373811499500,1.06849951171875,-0.018782194703817368,0.03166903927922249,-0.018426455557346344
1772527373821497600,1.07849755859375,-0.020252544432878494,0.028892353177070618,-0.009248784743249416
1772527373831495400,1.088495361328125,-0.02125336229801178,0.034411486238241196,-0.0075824446976184845
1772527373841493500,1.098493408203125,-0.016889825463294983,0.031153805553913116,-0.007806502282619476
1772527373851491600,1.10849169921875,-0.00847769808024168,0.0209517665207386,-0.0010487306863069534
1772527373861489400,1.118489501953125,-0.0007746191695332527,0.014155054464936256,0.0017039338126778603
1772527373871487700,1.12848779296875,-0.0009003207087516785,0.010358450934290886,-0.002680694218724966
1772527373881485800,1.13848583984375,0.008678019046783447,0.008524556644260883,0.00007199123501777649
1772527373891482600,1.148482666015625,0.017750609666109085,0.002317792735993862,0.0035383617505431175
1772527373901480700,1.158480712890625,0.02336674928665161,-0.006677497178316116,0.00989084504544735
1772527373911478500,1.168478515625,0.029410528019070625,-0.01565607823431492,0.011714044958353043
1772527373921476600,1.1784765625,0.0310252346098423,-0.018983133137226105,0.018077291548252106
1772527373931474700,1.188474609375,0.03445778414607048,-0.018974345177412033,0.01996920257806778
1772527373941472500,1.198472412109375,0.037080369889736176,-0.017288554459810257,0.018979789689183235
1772527373951470600,1.208470703125,0.03603427857160568,-0.0223672017455101,0.021159853786230087
1772527373961467400,1.21846728515625,0.03617949038743973,-0.023295776918530464,0.02081262320280075
1772527373971465500,1.228465576171875,0.033589303493499756,-0.01243540644645691,0.02069118246436119
1772527373981463600,1.238463623046875,0.03363940119743347,-0.01325669139623642,0.017739225178956985
1772527373991461600,1.248461669921875,0.02664141356945038,-0.0039023379795253277,0.015104293823242188
1772527374001459700,1.258459716796875,0.03086576983332634,-0.006972860544919968,0.015525158494710922
1772527374011457800,1.268457763671875,0.029520608484745026,-0.022779254242777824,0.02268080599606037
1772527374021455600,1.27845556640625,0.030067553743720055,-0.01959364488720894,0.023777369409799576
1772527374031453700,1.28845361328125,0.026824889704585075,-0.009910124354064465,0.022438865154981613
1772527374041450500,1.298450439453125,0.025834161788225174,-0.009707756340503693,0.02035505138337612
1772527374051448600,1.308448486328125,0.0270251277834177,-0.011587681248784065,0.01751319132745266
1772527374061446700,1.31844677734375,0.024383198469877243,-0.010640041902661324,0.015466351062059402
1772527374071444500,1.328444580078125,0.019874999299645424,-0.004578154534101486,0.0030837180092930794
1772527374081442600,1.338442626953125,0.01183480303734541,0.007636640220880508,-0.0009999508038163185
1772527374091440600,1.348440673828125,0.0046298871748149395,0.015170722268521786,-0.004940630402415991
1772527374101438500,1.3584384765625,0.0023324191570281982,0.02057841792702675,-0.012616083025932312
1772527374111436500,1.3684365234375,-0.0011821547523140907,0.024365432560443878,-0.012370539829134941
1772527374121433600,1.37843359375,-0.0036518340930342674,0.019400479272007942,-0.00539973471313715
1772527374131431700,1.388431640625,0.006153658963739872,0.011611532419919968,-0.0009226943366229534
1772527374141429800,1.3984296875,0.011649202555418015,0.005851434078067541,0.0021570450626313686
1772527374151427600,1.408427490234375,0.018339063972234726,-0.0021870513446629047,0.006320097949355841
1772527374161425700,1.41842578125,0.025317488238215446,-0.01496426947414875,0.014456108212471008
1772527374171423700,1.428423828125,0.027950555086135864,-0.011801499873399734,0.01554720476269722
1772527374181421600,1.438421630859375,0.02466759830713272,-0.00586411589756608,0.010471325367689133
1772527374191418600,1.448418701171875,0.02550942450761795,0.0011349376291036606,0.006206272169947624
1772527374201416400,1.45841650390625,0.023085657507181168,-0.00021402770653367043,0.002498956862837076
1772527374211414500,1.46841455078125,0.02352188341319561,-0.008392062969505787,0.003179927822202444
1772527374221412600,1.47841259765625,0.028057869523763657,-0.014799220487475395,0.004482187796384096
1772527374231410400,1.488410400390625,0.0271177738904953,-0.017850138247013092,0.009699054062366486
1772527374241408500,1.498408447265625,0.02870577573776245,-0.02512124553322792,0.006864607334136963
1772527374251406600,1.508406494140625,0.027115602046251297,-0.03341539576649666,0.006714671850204468
1772527374261403600,1.518403564453125,0.02648630365729332,-0.029766486957669258,0.008725512772798538
1772527374271401700,1.528401611328125,0.021770911291241646,-0.03162031248211861,0.007161970715969801
1772527374281399600,1.538399658203125,0.01671464741230011,-0.02274099551141262,0.01124977320432663
1772527374291397600,1.548397705078125,0.007193314842879772,-0.01707911491394043,0.016348926350474358
1772527374301395700,1.558395751953125,0.0029909126460552216,-0.0047671003267169,0.01557738147675991
1772527374311393500,1.5683935546875,-0.00243367999792099,-0.002658142941072583,0.01960115134716034
1772527374321391600,1.5783916015625,-0.0038105277344584465,-0.0005564200691878796,0.018694039434194565
1772527374331389700,1.5883896484375,-0.0011798571795225143,0.001198336947709322,0.011673416011035442
1772527374341386500,1.598386474609375,-0.00005765445530414581,0.00020769238471984863,0.0005210023373365402
1772527374351384600,1.608384521484375,-0.001315465196967125,0.00313397403806448,-0.013245409354567528
1772527374361382400,1.61838232421875,-0.0013387752696871758,0.003959571477025747,-0.02446235902607441
1772527374371380500,1.62838037109375,-0.0016535613685846329,0.00026363693177700043,-0.03175568953156471
1772527374381378600,1.638378662109375,-0.003411639481782913,-0.004592388868331909,-0.03589000180363655
1772527374391376400,1.64837646484375,-0.008158991113305092,-0.00030842795968055725,-0.02885179966688156
1772527374401374500,1.65837451171875,-0.012807573191821575,0.002258559223264456,-0.02021718956530094
1772527374411372500,1.66837255859375,-0.01121313776820898,-0.0005508097819983959,-0.017700769007205963
1772527374421369600,1.67836962890625,-0.01196825597435236,-0.0022875170689076185,-0.012267365120351315
1772527374431367700,1.68836767578125,-0.011976244859397411,0.003953867591917515,-0.007092044223099947
1772527374441365500,1.698365478515625,-0.011454862542450428,0.004999465309083462,0.0022720047272741795
1772527374451363600,1.708363525390625,-0.01327166985720396,0.004637807607650757,0.01039011962711811
1772527374461361700,1.718361572265625,-0.009700123220682144,-0.003219915321096778,0.016066715121269226
1772527374471359500,1.728359375,-0.006888890638947487,-0.011221116408705711,0.019783424213528633
1772527374481357600,1.738357666015625,-0.001682337373495102,-0.011643314734101295,0.02141507714986801
1772527374491354600,1.748354736328125,0.005109788849949837,-0.011649173684418201,0.016867462545633316
1772527374501352400,1.7583525390625,0.006971273105591536,-0.008512303233146667,0.012106750160455704
1772527374511350500,1.7683505859375,0.009260792285203934,-0.013989361003041267,0.009641993790864944
1772527374521348400,1.778348388671875,0.013249853625893593,-0.020533684641122818,0.01785334385931492
1772527374531346400,1.788346435546875,0.016572680324316025,-0.02048841118812561,0.017663992941379547
1772527374541344800,1.7983447265625,0.018312424421310425,-0.020236577838659286,0.019970353692770004
1772527374551342600,1.808342529296875,0.014639392495155334,-0.017329737544059753,0.020685944706201553
1772527374561340700,1.818340576171875,0.014105549082159996,-0.01377493143081665,0.017403272911906242
1772527374571337700,1.828337646484375,0.013889833353459835,-0.007488805800676346,0.019274143502116203
1772527374581335600,1.83833544921875,0.011302106082439423,-0.0027803820557892323,0.021330874413251877
1772527374591333600,1.848333740234375,0.00906105525791645,-0.0021121948957443237,0.017760373651981354
1772527374601331500,1.85833154296875,0.004997468087822199,0.002401463221758604,0.01423870399594307
1772527374611329500,1.86832958984375,0.0031644143164157867,0.0032576690427958965,0.012267164885997772
1772527374621327600,1.87832763671875,0.0016976669430732727,0.005632317624986172,0.011431863531470299
1772527374631325400,1.888325439453125,-0.002144475467503071,0.006956441327929497,0.009129827842116356
1772527374641322500,1.898322509765625,-0.004419327713549137,0.012355804443359375,0.008695393800735474
1772527374651320600,1.908320556640625,-0.004625989124178886,0.020363930612802505,-0.00006294297054409981
1772527374661318700,1.918318603515625,-0.006227593868970871,0.026324693113565445,-0.00588902598246932
1772527374671316700,1.928316650390625,-0.01137149054557085,0.031135160475969315,-0.017954478040337563
1772527374681314800,1.938314697265625,-0.010678566992282867,0.032811325043439865,-0.0250058863312006
1772527374691312600,1.948312744140625,-0.009799990803003311,0.03061421401798725,-0.021795976907014847
1772527374701310700,1.958310791015625,-0.008372406475245953,0.02231779508292675,-0.011551421135663986
1772527374711308500,1.96830859375,-0.005050645209848881,0.015602633357048035,0.00009458232671022415
1772527374721305600,1.9783056640625,-0.0037991227582097054,0.01422082632780075,0.0019291690550744534
1772527374731303700,1.9883037109375,-0.003609239123761654,0.01770983263850212,0.0018865582533180714
1772527374741301500,1.998301513671875,-0.00548115000128746,0.01659601926803589,0.002258871216326952
1772527374751300000,2.008300048828125,-0.0012714909389615059,0.018266620114445686,0.0010207677260041237
1772527374761298000,2.0182978515625,-0.002872890792787075,0.029671460390090942,-0.010489724576473236
1772527374771296000,2.0282958984375,-0.005769877694547176,0.029518596827983856,-0.013417070731520653
1772527374781294000,2.038294189453125,-0.005527441389858723,0.028358928859233856,-0.010283088311553001
1772527374791291000,2.048290771484375,-0.0001909993588924408,0.026356231421232224,-0.01707201823592186
1772527374801289000,2.0582890625,-0.0010003019124269485,0.020571880042552948,-0.01620766520500183
1772527374811287000,2.068287109375,0.0018966849893331528,0.018575306981801987,-0.00961341243237257
1772527374821285000,2.07828515625,-0.0011571617797017097,0.01544076669961214,-0.00394487427547574
1772527374831283200,2.088283203125,-0.0008719367906451225,0.01176746841520071,-0.000350405927747488
1772527374841281000,2.098281005859375,0.00032063480466604233,0.011813653632998466,0.004535316489636898
1772527374851279000,2.108279052734375,-0.00035634078085422516,0.015259252861142159,0.0020527178421616554
1772527374861277200,2.118277099609375,0.001255716197192669,0.018986715003848076,-0.0032759944442659616
1772527374871274000,2.12827392578125,0.008459034375846386,0.014488901942968369,-0.004763369914144278
1772527374881272000,2.13827197265625,0.013141743838787079,0.015582998283207417,-0.009731903672218323
1772527374891270000,2.148269775390625,0.011292710900306702,0.01373929250985384,-0.014722401276230812
1772527374901268000,2.15826806640625,0.006497799884527922,0.018263105303049088,-0.016667254269123077
1772527374911266000,2.16826611328125,0.0016124970279633999,0.017586661502718925,-0.020639626309275627
1772527374921263900,2.178263916015625,-0.005347859114408493,0.01603555679321289,-0.01677696406841278
1772527374931262000,2.188261962890625,-0.009146326221525669,0.01747019961476326,-0.015342585742473602
1772527374941259000,2.198259033203125,-0.014630765654146671,0.02617518976330757,-0.0165858156979084
1772527374951257000,2.208257080078125,-0.019544031471014023,0.03217156231403351,-0.013064317405223846
1772527374961255200,2.218255126953125,-0.01927793212234974,0.03671395406126976,-0.016477685421705246
1772527374971253000,2.2282529296875,-0.017986031249165535,0.0391952209174633,-0.022905757650732994
1772527374981251000,2.2382509765625,-0.015309072099626064,0.03439529985189438,-0.02054114267230034
1772527374991249200,2.248249267578125,-0.014576968736946583,0.032682355493307114,-0.019979216158390045
1772527375001247000,2.2582470703125,-0.014647231437265873,0.03113052062690258,-0.011300839483737946
1772527375011245000,2.2682451171875,-0.011586195789277554,0.025138145312666893,-0.004634947516024113
1772527375021241900,2.278241943359375,-0.008492871187627316,0.013756816275417805,0.0029435018077492714
1772527375031240000,2.288239990234375,-0.004085872322320938,0.010775675065815449,0.008791270665824413
1772527375041238000,2.298238037109375,-0.004245443269610405,0.005901297554373741,0.01054050400853157
1772527375051235800,2.30823583984375,0.003146959003061056,0.01220766268670559,0.00543575594201684
1772527375061234000,2.31823388671875,0.004459453281015158,0.004938171245157719,-0.0003579752519726753
1772527375071232000,2.32823193359375,0.012045200914144516,0.003310447558760643,0.001444186083972454
1772527375081229800,2.338229736328125,0.011563406325876713,-0.00367547944188118,0.004573664627969265
1772527375091228000,2.348227783203125,0.008909033611416817,-0.0040318104438483715,0.005288456566631794
1772527375101225000,2.358224853515625,0.012793468311429024,-0.005878016352653503,0.006156827788800001
1772527375111223000,2.36822314453125,0.010926593095064163,-0.005584269762039185,0.006730205845087767
1772527375121221000,2.37822119140625,0.009937549941241741,-0.009158549830317497,0.0089676883071661
1772527375131219000,2.388218994140625,0.011576725170016289,-0.009097829461097717,0.01480693370103836
1772527375141217000,2.398217041015625,0.012532372027635574,-0.00891370140016079,0.011553633958101273
1772527375151215000,2.408215087890625,0.008224708959460258,-0.001669637393206358,0.009901141747832298
1772527375161213000,2.418212890625,0.008349951356649399,0.0003217882476747036,0.014029772952198982
1772527375171211000,2.4282109375,0.008935048244893551,-0.007542259991168976,0.01551741547882557
1772527375181207800,2.438207763671875,0.00806061178445816,-0.0065578618086874485,0.014760146848857403
1772527375191206000,2.448205810546875,0.004499433096498251,-0.007883050478994846,0.01264213491231203
1772527375201204000,2.458203857421875,-0.0015996182337403297,-0.002088372129946947,0.01492379605770111
1772527375211201800,2.468201904296875,-0.002196964807808399,-0.0020401692017912865,0.024409443140029907
1772527375221200000,2.478199951171875,0.0034577972255647182,-0.005577998701483011,0.029460065066814423
1772527375231198000,2.488197998046875,0.0014548338949680328,-0.009940789081156254,0.031049437820911407
1772527375241196000,2.498196044921875,0.009139890782535076,-0.01162462867796421,0.02413853444159031
1772527375251193000,2.508193115234375,0.015306706540286541,-0.008195542730391026,0.017726439982652664
1772527375261191000,2.51819091796875,0.01488133892416954,-0.007915595546364784,0.0199427492916584
1772527375271189000,2.52818896484375,0.013509011827409267,-0.006235939450562,0.01968815177679062
1772527375281187000,2.53818701171875,0.014633413404226303,-0.00924641638994217,0.014494495466351509
1772527375291185000,2.548184814453125,0.02014802023768425,-0.015011628158390522,0.015453232452273369
1772527375301183000,2.558182861328125,0.018964219838380814,-0.01785276271402836,0.019026469439268112
1772527375311181000,2.56818115234375,0.01785661280155182,-0.01625034026801586,0.017852548509836197
1772527375321179000,2.578178955078125,0.014505400322377682,-0.012970443814992905,0.013673153705894947
1772527375331176000,2.588176025390625,0.01597786135971546,-0.00903322733938694,0.017825555056333542
1772527375341174000,2.598174072265625,0.01577400416135788,-0.0097403135150671,0.0209499541670084
1772527375351172000,2.608172119140625,0.01590689644217491,-0.005231581628322601,0.02161308191716671
1772527375361170200,2.618170166015625,0.011373454704880714,-0.006509947124868631,0.01863396167755127
1772527375371168000,2.62816796875,0.011108470149338245,-0.00919974036514759,0.019642500206828117
1772527375381166000,2.638166015625,0.00680930633097887,-0.0055777584202587605,0.018898412585258484
1772527375391164200,2.6481640625,-0.0012528812512755394,-0.00034704385325312614,0.007115521933883429
1772527375401161000,2.658160888671875,-0.01265946589410305,0.012679808773100376,-0.0034985067322850227
1772527375411159000,2.668158935546875,-0.023539012297987938,0.02025197446346283,-0.012246457859873772
1772527375421157000,2.6781572265625,-0.02916019782423973,0.028122153133153915,-0.014556149020791054
1772527375431155000,2.688155029296875,-0.035198114812374115,0.029365848749876022,-0.018413471058011055
1772527375441153000,2.698153076171875,-0.038731902837753296,0.030081026256084442,-0.01957119069993496
1772527375451150800,2.70815087890625,-0.03658353164792061,0.0330914631485939,-0.018332023173570633
1772527375461149000,2.71814892578125,-0.037001363933086395,0.03430049866437912,-0.013860267587006092
1772527375471147000,2.72814697265625,-0.03066277503967285,0.0358256921172142,-0.010135570541024208
1772527375481144000,2.73814404296875,-0.019194042310118675,0.02834337204694748,-0.004692931659519672
1772527375491142100,2.74814208984375,-0.011235184967517853,0.02040715329349041,0.004534654784947634
1772527375501140200,2.75814013671875,-0.001359141431748867,0.006459463387727737,0.013794995844364166
1772527375511138000,2.768137939453125,0.011124426499009132,-0.003651760518550873,0.01826564408838749
1772527375521136000,2.77813623046875,0.020233267918229103,-0.01134852971881628,0.01848631165921688
1772527375531134000,2.788134033203125,0.02135578915476799,-0.014628744684159756,0.013230828568339348
1772527375541132000,2.798132080078125,0.024202749133110046,-0.01040668971836567,0.013872427865862846
1772527375551130000,2.808130126953125,0.01940852776169777,-0.010573402978479862,0.012743514031171799
1772527375561127000,2.818126953125,0.015205783769488335,-0.0025637943763285875,0.012082364410161972
1772527375571125000,2.828125,0.008836834691464901,0.00508533651009202,0.009667942300438881
1772527375581123000,2.838123046875,0.005233373027294874,0.0034341304562985897,0.011859696358442307
1772527375591121000,2.848120849609375,0.003779553808271885,0.004963317420333624,0.014899695292115211
1772527375601119000,2.858118896484375,-0.0017054742202162743,0.008351998403668404,0.013196984305977821
1772527375611117000,2.868116943359375,-0.002009606920182705,0.014206957072019577,0.016216477379202843
1772527375621115000,2.878114990234375,-0.0010969415307044983,0.02180335856974125,0.00915643572807312
1772527375631113000,2.888113037109375,-0.0019046785309910774,0.026180528104305267,0.0022047869861125946
1772527375641110000,2.898110107421875,-0.006555543281137943,0.02584606409072876,0.001032551284879446
1772527375651108000,2.908108154296875,-0.008443989790976048,0.022017769515514374,0.0011068535968661308
1772527375661106200,2.918106201171875,-0.01015678234398365,0.019226185977458954,0.00479668565094471
1772527375671104000,2.92810400390625,-0.005556703545153141,0.021263767033815384,0.006863298825919628
1772527375681102000,2.93810205078125,-0.0031251907348632812,0.018956132233142853,0.005618734750896692
1772527375691100200,2.94810009765625,-0.0005216840654611588,0.014897740446031094,0.010314153507351875
1772527375701098000,2.958097900390625,0.0034393887035548687,0.002792016137391329,0.018266906961798668
1772527375711095000,2.968094970703125,0.01158360205590725,-0.0008937986567616463,0.017295919358730316
1772527375721092900,2.9780927734375,0.019206944853067398,-0.01660699024796486,0.018492940813302994
1772527375731091000,2.988091064453125,0.023570001125335693,-0.01932847499847412,0.021760109812021255
1772527375741089000,2.998089111328125,0.0264687929302454,-0.013684121891856194,0.017412258312106133
1772527375751086600,3.008086669921875,0.02227085269987583,-0.006921024527400732,0.01710519567131996
1772527375761084700,3.018084716796875,0.023052256554365158,-0.004849852062761784,0.018048644065856934
1772527375771082500,3.02808251953125,0.020642627030611038,-0.0013126414269208908,0.017457155510783195
1772527375781080600,3.03808056640625,0.026908116415143013,-0.005600729491561651,0.02001982182264328
1772527375791077600,3.04807763671875,0.026726221665740013,-0.020126141607761383,0.013791754841804504
1772527375801075500,3.058075439453125,0.03666334226727486,-0.0312490351498127,0.01447809673845768
1772527375811073500,3.068073486328125,0.038700927048921585,-0.03799322247505188,0.018047798424959183
1772527375821071600,3.078071533203125,0.03829628601670265,-0.043898195028305054,0.017891911789774895
1772527375831069400,3.0880693359375,0.0349886380136013,-0.035319890826940536,0.018063686788082123
1772527375841067500,3.098067626953125,0.0316661074757576,-0.023693937808275223,0.013466807082295418
1772527375851065300,3.1080654296875,0.025518197566270828,-0.018060820177197456,0.013849237933754921
1772527375861062400,3.1180625,0.01975569687783718,-0.0160599946975708,0.010216083377599716
1772527375871060700,3.128060791015625,0.016762303188443184,-0.016753748059272766,0.007969440892338753
1772527375881058600,3.13805859375,0.015323251485824585,-0.007633847184479237,0.004362321458756924
1772527375891056600,3.148056640625,0.007991302758455276,0.0003777402453124523,0.0003521330654621124
1772527375901054700,3.1580546875,0.00011849217116832733,0.008345040492713451,0.0018701376393437386
1772527375911052500,3.168052490234375,-0.00311431847512722,0.014742220751941204,0.005268597975373268
1772527375921050600,3.178050537109375,-0.011368099600076675,0.013594870455563068,0.005159696098417044
1772527375931048400,3.18804833984375,-0.013967078179121017,0.010702145285904408,0.011007465422153473
1772527375941045500,3.19804541015625,-0.017057625576853752,0.014654112979769707,0.009088743478059769
1772527375951043600,3.208043701171875,-0.02304733917117119,0.024200746789574623,0.009653333574533463
1772527375961041400,3.21804150390625,-0.024772629141807556,0.017164425924420357,0.006444893777370453
1772527375971039500,3.22803955078125,-0.034456949681043625,0.01477823406457901,0.008924029767513275
1772527375981037600,3.23803759765625,-0.03305970877408981,0.007987530902028084,0.009698878973722458
1772527375991035400,3.248035400390625,-0.025423891842365265,-0.005241721868515015,0.007919620722532272
1772527376001033500,3.258033447265625,-0.01355570089071989,-0.00806730892509222,0.005689311306923628
1772527376011030500,3.268030517578125,-0.005518280901014805,-0.014982473105192184,0.005048821214586496
1772527376021028600,3.278028564453125,0.0014421707019209862,-0.024760842323303223,-0.0014561745338141918
1772527376031026700,3.288026611328125,0.0072577157989144325,-0.01957699842751026,-0.004510554019361734
1772527376041024500,3.2980244140625,0.011140570044517517,-0.02837745100259781,0.0007980349473655224
1772527376051022600,3.308022705078125,0.020218487828969955,-0.0369831882417202,0.001893126405775547
1772527376061020700,3.318020751953125,0.026671119034290314,-0.03365268185734749,0.0006621056236326694
1772527376071018500,3.3280185546875,0.0281587615609169,-0.03865915909409523,0.0014290958642959595
1772527376081016600,3.3380166015625,0.02765730395913124,-0.042341820895671844,0.00036999862641096115
1772527376091013400,3.348013427734375,0.02499574050307274,-0.04176577925682068,0.010977636091411114
1772527376101011500,3.358011474609375,0.02128206193447113,-0.0379035621881485,0.013807445764541626
1772527376111009500,3.368009521484375,0.02030734345316887,-0.025732114911079407,0.017645860090851784
1772527376121007400,3.37800732421875,0.019245194271206856,-0.018971707671880722,0.01944420486688614
1772527376131005400,3.38800537109375,0.017569266259670258,-0.016344767063856125,0.021757427603006363
1772527376141003500,3.39800341796875,0.015474865213036537,-0.014861906878650188,0.024338249117136
1772527376151001300,3.40800146484375,0.016830414533615112,-0.01581558585166931,0.028606761246919632
1772527376160999400,3.41799951171875,0.018203262239694595,-0.013875962235033512,0.027181927114725113
1772527376170996500,3.42799658203125,0.017368625849485397,-0.014151865616440773,0.018765274435281754
1772527376180994600,3.43799462890625,0.013299493119120598,-0.004718291573226452,0.009882327169179916
1772527376190992600,3.44799267578125,0.005314271431416273,0.0018799561075866222,0.0025852653197944164
1772527376200990500,3.457990478515625,0.002128001768141985,0.0028860336169600487,0.0011891894973814487
1772527376210988500,3.467988525390625,-0.0010001473128795624,0.00911969505250454,-0.0026942319236695766
1772527376220986600,3.477986572265625,-0.011325465515255928,0.018458519130945206,-0.008095652796328068
1772527376230984400,3.487984375,-0.016725558787584305,0.02877480536699295,-0.0073084221221506596
1772527376240981500,3.4979814453125,-0.020211201161146164,0.03658442944288254,-0.011906039901077747
1772527376250979300,3.507979248046875,-0.020254608243703842,0.0379631444811821,-0.009237552061676979
1772527376260977400,3.517977294921875,-0.017982294782996178,0.04050987586379051,-0.010996745899319649
1772527376270975500,3.5279755859375,-0.009961118921637535,0.03599501773715019,-0.00007645459845662117
1772527376280973300,3.537973388671875,-0.006632475182414055,0.022230587899684906,0.004192016553133726
1772527376290971400,3.547971435546875,-0.00016845110803842545,0.02266867831349373,0.0026612314395606518
1772527376300969700,3.5579697265625,0.004125372972339392,0.021845344454050064,-0.0008619772270321846
1772527376310967600,3.567967529296875,0.00692914891988039,0.0194743312895298,-0.002148816827684641
1772527376320964600,3.577964599609375,0.004001808352768421,0.027503076940774918,-0.0042168740183115005
1772527376330962400,3.58796240234375,0.00279140193015337,0.02805115282535553,-0.0036245868541300297
1772527376340960500,3.59796044921875,-0.0014104610309004784,0.028305932879447937,-0.0015705563127994537
1772527376350958600,3.60795849609375,-0.00472742784768343,0.032081227749586105,-0.003903485368937254
1772527376360956400,3.617956298828125,-0.005945364013314247,0.03237559646368027,-0.009109633043408394
1772527376370954500,3.62795458984375,-0.006243372336030006,0.03204483166337013,-0.007247284986078739
1772527376380952600,3.63795263671875,-0.006669154390692711,0.028862036764621735,-0.0007298379205167294
1772527376390949400,3.647949462890625,-0.00894935242831707,0.030505210161209106,0.004252403508871794
1772527376400947500,3.657947509765625,-0.009388571605086327,0.036228012293577194,0.0033074677921831608
1772527376410945500,3.667945556640625,-0.007462840527296066,0.03782058134675026,-0.00034505780786275864
1772527376420943600,3.677943603515625,-0.0068687694147229195,0.038270361721515656,-0.004638959653675556
1772527376430941700,3.687941650390625,-0.005569146946072578,0.0410805307328701,-0.007571100257337093
1772527376440939500,3.697939453125,-0.00885334424674511,0.04917197301983833,-0.015947766602039337
1772527376450937600,3.7079375,-0.010328734293580055,0.055503904819488525,-0.011063793674111366
1772527376460935700,3.717935791015625,-0.011219835840165615,0.05686067044734955,-0.007366149220615625
1772527376470932500,3.727932373046875,-0.015146399848163128,0.05466649681329727,-0.004868903197348118
1772527376480930600,3.7379306640625,-0.01385735534131527,0.05161815509200096,-0.002672394271939993
1772527376490928400,3.747928466796875,-0.012964930385351181,0.043929606676101685,0.0009729405865073204
1772527376500926500,3.757926513671875,-0.003711545839905739,0.04015640541911125,0.0077718342654407024
1772527376510924500,3.767924560546875,-0.002262253314256668,0.030234798789024353,0.007779824081808329
1772527376520922400,3.77792236328125,0.005935461260378361,0.02252049930393696,0.00969330407679081
1772527376530920400,3.78792041015625,0.01059466227889061,0.011439884081482887,0.012388423085212708
1772527376540918500,3.79791845703125,0.013177989982068539,0.00572549644857645,0.016211016103625298
1772527376550915600,3.80791552734375,0.014193452894687653,0.0016481964848935604,0.014330824837088585
1772527376560913700,3.81791357421875,0.013613794930279255,0.007768998853862286,0.013154750689864159
1772527376570911500,3.827911376953125,0.007528471760451794,0.012821548618376255,0.007281947880983353
1772527376580909600,3.83790966796875,0.005713840946555138,0.012326725758612156,0.0005123899318277836
1772527376590907600,3.84790771484375,-0.0011698976159095764,0.009412162005901337,-0.0001422152854502201
1772527376600905500,3.857905517578125,-0.004015306010842323,0.012503953650593758,0.0028591915033757687
1772527376610903600,3.867903564453125,-0.00823188852518797,0.011980108916759491,0.0023393421433866024
1772527376620900400,3.877900390625,-0.01342417299747467,0.01764174923300743,0.0006648348644375801
1772527376630898400,3.8878984375,-0.01384229026734829,0.02347034402191639,-0.0008422480896115303
1772527376640896500,3.897896484375,-0.01761724054813385,0.02541501075029373,-0.009281983599066734
1772527376650894300,3.907894287109375,-0.015519735403358936,0.029469408094882965,-0.013563280925154686
1772527376660892400,3.917892333984375,-0.0111952293664217,0.02412530779838562,-0.012337914668023586
1772527376670890500,3.927890380859375,-0.009901197627186775,0.016954215243458748,-0.010000191628932953
1772527376680888300,3.937888427734375,-0.008079354651272297,0.011125167831778526,-0.006253659259527922
1772527376690886400,3.947886474609375,-0.007323284633457661,0.0011654780246317387,0.003144369926303625
1772527376700883500,3.957883544921875,-0.004427635110914707,-0.007601228542625904,0.008142702281475067
1772527376710881500,3.967881591796875,-0.003126414492726326,-0.0066739157773554325,0.010523302480578423
1772527376720879600,3.977879638671875,0.003455360420048237,-0.004611417185515165,0.013583850115537643
1772527376730877400,3.98787744140625,0.006880718283355236,-0.009573152288794518,0.015117032453417778
1772527376740875500,3.99787548828125,0.015238016843795776,-0.014393175020813942,0.021339397877454758
1772527376750873600,4.00787353515625,0.023523909971117973,-0.026941191405057907,0.022407593205571175
1772527376760871400,4.017871337890625,0.030014768242836,-0.0343048982322216,0.02092869207262993
1772527376770869500,4.027869384765625,0.03038361296057701,-0.037384044378995895,0.01762317679822445
1772527376780866300,4.0378662109375,0.03077283874154091,-0.032616205513477325,0.015853486955165863
1772527376790864400,4.047864501953125,0.027636170387268066,-0.02921481803059578,0.01607426442205906
1772527376800862200,4.0578623046875,0.022407185286283493,-0.026067255064845085,0.014694727957248688
1772527376810860300,4.0678603515625,0.019121643155813217,-0.017629826441407204,0.015413248911499977
1772527376820858400,4.0778583984375,0.015139000490307808,-0.013619845733046532,0.015237458981573582
1772527376830856400,4.0878564453125,0.013089165091514587,-0.008041322231292725,0.01707157865166664
1772527376840854500,4.0978544921875,0.008342720568180084,-0.005763414781540632,0.012680307030677795
1772527376850851300,4.107851318359375,0.008422348648309708,0.00324526010081172,0.00976414605975151
1772527376860849400,4.117849365234375,0.003819381818175316,0.005799378268420696,0.007253893185406923
1772527376870847500,4.127847412109375,0.0008339779451489449,0.00994698517024517,0.001843682024627924
1772527376880845300,4.13784521484375,0.0012468406930565834,0.006354028359055519,0.004307306371629238
1772527376890843400,4.147843505859375,0.0011139493435621262,0.004563851282000542,0.0016356231644749641
1772527376900841500,4.157841552734375,-0.00002758018672466278,0.00818602740764618,-0.004706823267042637
1772527376910839300,4.16783935546875,-0.0012521017342805862,0.012850819155573845,-0.0031856258865445852
1772527376920837400,4.17783740234375,-0.0048468587920069695,0.01333693042397499,-0.007056534290313721
1772527376930834200,4.187834228515625,-0.007639716379344463,0.01881212368607521,-0.012758628465235233
1772527376940832300,4.197832275390625,-0.007483921013772488,0.02464817464351654,-0.013022014871239662
1772527376950830300,4.207830322265625,-0.01453623827546835,0.03283792734146118,-0.012437451630830765
1772527376960828400,4.217828369140625,-0.00922718457877636,0.03085828199982643,-0.011826744303107262
1772527376970826500,4.227826416015625,-0.006724877282977104,0.03306364268064499,-0.010909019038081169
1772527376980824600,4.237824462890625,-0.005739695392549038,0.02590296044945717,-0.008308886550366879
1772527376990822400,4.247822509765625,0.0003661336377263069,0.012498739175498486,0.00010856660082936287
1772527377000819500,4.2578193359375,0.0030092736706137657,0.0022937795147299767,0.011954642832279205
1772527377010817300,4.2678173828125,0.0030745211988687515,0.0032684961333870888,0.012960251420736313
1772527377020815400,4.2778154296875,0.008421090431511402,0.00465478515252471,0.015097592025995255
1772527377030813400,4.2878134765625,0.0091260289773345,0.01291378028690815,0.009847169741988182
1772527377040811300,4.297811279296875,0.015577764250338078,0.014880645088851452,0.005462497938424349
1772527377050809300,4.307809326171875,0.019377030432224274,0.009135407395660877,0.0009646848775446415
1772527377060807400,4.317807373046875,0.021355491131544113,0.00518407579511404,0.002791347447782755
1772527377070805200,4.32780517578125,0.022570159286260605,-0.0029305764473974705,0.0020613749511539936
1772527377080802600,4.337802490234375,0.024441836401820183,-0.011492792516946793,0.001578963827341795
1772527377090800400,4.34780029296875,0.02136055752635002,-0.01785615086555481,0.0016601900570094585
1772527377100798500,4.357798583984375,0.016570743173360825,-0.016373207792639732,0.0029860464856028557
1772527377110796500,4.367796630859375,0.014277229085564613,-0.014453334733843803,0.004953056573867798
1772527377120794400,4.37779443359375,0.009965998120605946,-0.004359902814030647,0.0032975454814732075
1772527377130792400,4.38779248046875,0.004559780936688185,0.007722858805209398,-0.0005025193095207214
1772527377140790500,4.39779052734375,0.003194637130945921,0.015489323064684868,-0.004240686073899269
1772527377150788400,4.407788330078125,0.00434538908302784,0.011177930980920792,-0.0051179314032197
1772527377160785400,4.417785400390625,0.004337224178016186,0.007495826575905085,-0.012839369475841522
1772527377170783200,4.427783203125,0.0096848513931036,0.005254776682704687,-0.014403710141777992
1772527377180781300,4.43778125,0.007465055678039789,0.0011480809189379215,-0.009241525083780289
1772527377190779400,4.447779296875,0.010595335625112057,-0.0023920591920614243,-0.002547137439250946
1772527377200777200,4.457777099609375,0.010186359286308289,-0.00587613508105278,0.0023762239143252373
1772527377210775300,4.467775390625,0.010901151224970818,-0.010018415749073029,0.004191701300442219
1772527377220773400,4.4777734375,0.009617396630346775,-0.0042409030720591545,0.003426404669880867
1772527377230770400,4.4877705078125,0.009305806830525398,0.0016353619284927845,-0.0009824587032198906
1772527377240768500,4.4977685546875,0.010676044039428234,0.003020618576556444,-0.009939158335328102
1772527377250766300,4.507766357421875,0.008736464194953442,-0.00006305519491434097,-0.007834994234144688
1772527377260764400,4.517764404296875,0.015211924910545349,-0.010539202019572258,-0.00769875617697835
1772527377270762500,4.527762451171875,0.02075076848268509,-0.021997720003128052,-0.005934145767241716
1772527377280760300,4.53776025390625,0.027805522084236145,-0.02373182214796543,-0.005516252014786005
1772527377290758400,4.54775830078125,0.027028147131204605,-0.025005878880620003,-0.004337803460657597
1772527377300756500,4.557756591796875,0.022251412272453308,-0.017412547022104263,0.001760327722877264
1772527377310753300,4.567753173828125,0.017768513411283493,-0.015119032934308052,0.00927550159394741
1772527377320751400,4.57775146484375,0.014419812709093094,-0.014178551733493805,0.015265438705682755
1772527377330749200,4.587749267578125,0.010833599604666233,-0.010379285551607609,0.020561134442687035
1772527377340747300,4.597747314453125,0.009083451703190804,-0.01095450110733509,0.01666554994881153
1772527377350745300,4.607745361328125,0.006241059862077236,-0.010631460696458817,0.016030119732022285
1772527377360743200,4.6177431640625,0.00990203581750393,-0.011167201213538647,0.00900396890938282
1772527377370741200,4.6277412109375,0.011952669359743595,-0.0119656166061759,0.00610272167250514
1772527377380739300,4.6377392578125,0.015529479831457138,-0.00957492459565401,0.00197366951033473
1772527377390736400,4.647736328125,0.016344407573342323,-0.011051647365093231,-0.00015552807599306107
1772527377400734500,4.657734375,0.01698894426226616,-0.013637097552418709,-0.0034180067013949156
1772527377410732300,4.667732177734375,0.017385754734277725,-0.012298059649765491,0.00016820617020130157
1772527377420730400,4.67773046875,0.01585778221487999,-0.013452554121613503,-0.0015678494237363338
1772527377430728400,4.687728515625,0.01501595787703991,-0.010112150572240353,-0.0009446698240935802
1772527377440726300,4.697726318359375,0.009763630107045174,-0.005710890516638756,0.0023165931925177574
1772527377450724400,4.707724365234375,0.007769188843667507,-0.0016764677129685879,0.010176647454500198
1772527377460721400,4.717721435546875,0.004407125990837812,-0.0015088287182152271,0.017333118245005608
1772527377470719200,4.72771923828125,0.004730167333036661,0.0057205879129469395,0.01578182727098465
1772527377480717300,4.73771728515625,0.0009635603055357933,0.00699268002063036,0.01612836681306362
1772527377490715400,4.74771533203125,0.003005139995366335,0.007138354703783989,0.016752611845731735
1772527377500713500,4.75771337890625,0.0051557887345552444,0.010343562811613083,0.009029578417539597
1772527377510711600,4.767711669921875,0.005828237161040306,0.012047188356518745,0.0076210335828363895
1772527377520709400,4.77770947265625,0.01570613496005535,0.0002882326953113079,0.010197484865784645
1772527377530707500,4.78770751953125,0.018019355833530426,-0.009834442287683487,0.009654998779296875
1772527377540704500,4.79770458984375,0.01985732465982437,-0.007343948818743229,0.007007683161646128
1772527377550702300,4.807702392578125,0.02268373593688011,-0.01050645299255848,0.012686874717473984
1772527377560700400,4.817700439453125,0.02538248896598816,-0.011805794201791286,0.02118622325360775
1772527377570698500,4.827698486328125,0.02671593427658081,-0.010680874809622765,0.021942028775811195
1772527377580696300,4.8376962890625,0.029636509716510773,-0.0006844936870038509,0.01684582605957985
1772527377590694400,4.8476943359375,0.02601567655801773,0.005854898598045111,0.010370349511504173
1772527377600692200,4.857692138671875,0.022948894649744034,0.010541323572397232,0.0047289528883993626
1772527377610690300,4.867690185546875,0.021257519721984863,0.008727976121008396,0.0008167694322764874
1772527377620687400,4.877687255859375,0.016471389681100845,0.0038687167689204216,0.0018746680580079556
1772527377630685400,4.887685546875,0.008557274006307125,0.004719597287476063,0.0020056958310306072
1772527377640683500,4.89768359375,0.007929310202598572,0.011869767680764198,0.003241822123527527
1772527377650681600,4.907681640625,0.008492568507790565,0.012345407158136368,0.0033904267475008965
1772527377660679400,4.917679443359375,0.007861834019422531,0.017444461584091187,0.0007134801708161831
1772527377670677500,4.927677490234375,0.006663411855697632,0.012601502239704132,0.00037312787026166916
1772527377680675300,4.93767529296875,0.005781905259937048,0.006855999585241079,0.0009702085517346859
1772527377690672400,4.94767236328125,0.008563577197492123,0.0007626875303685665,-0.004189665894955397
1772527377700670500,4.95767041015625,0.005478463135659695,-0.009372187778353691,-0.00270184688270092
1772527377710668300,4.967668212890625,0.0033351508900523186,-0.006756164133548737,-0.0008637332357466221
1772527377720666400,4.977666259765625,0.0031211264431476593,-0.0005816356278955936,-0.009973293170332909
1772527377730664400,4.98766455078125,-0.0008935891091823578,0.007066963240504265,-0.01617952436208725
1772527377740662300,4.997662353515625,-0.0053154537454247475,0.007827821187675,-0.017646728083491325
1772527377750660400,5.007660400390625,-0.008320831693708897,0.006901574321091175,-0.01611754111945629
1772527377760659200,5.0176591796875,-0.006588081829249859,0.009635673835873604,-0.01734026148915291
1772527377770656000,5.027656005859375,-0.012954368256032467,0.019094156101346016,-0.019073979929089546
1772527377780654000,5.037654052734375,-0.018175074830651283,0.027412481606006622,-0.012692756950855255
1772527377790652200,5.047652099609375,-0.020971927791833878,0.02656186744570732,-0.0011106696911156178
1772527377800650200,5.057650146484375,-0.021039854735136032,0.02450663223862648,0.0036759800277650356
1772527377810648300,5.0676484375,-0.015883708372712135,0.0247348640114069,0.005907709244638681
1772527377820646400,5.077646484375,-0.011683620512485504,0.021154584363102913,0.0062132892198860645
1772527377830644200,5.087644287109375,-0.004249938763678074,0.01198665238916874,0.006747519131749868
1772527377840641300,5.097641357421875,0.002049695700407028,0.004803661722689867,0.00674385717138648
1772527377850639000,5.10763916015625,0.006701173260807991,-0.001806570217013359,0.015770375728607178
1772527377860637200,5.11763720703125,0.01593562588095665,-0.012095913290977478,0.022021453827619553
1772527377870635300,5.12763525390625,0.02579811029136181,-0.01807257905602455,0.018503950908780098
1772527377880633000,5.137633056640625,0.02922517992556095,-0.02039239928126335,0.014116104692220688
1772527377890631200,5.147631103515625,0.0293870996683836,-0.021970588713884354,0.01744425669312477
1772527377900629200,5.157629150390625,0.03366808593273163,-0.0216938778758049,0.019205208867788315
1772527377910627000,5.167626953125,0.03461883217096329,-0.01886586658656597,0.021429747343063354
1772527377920624400,5.177624267578125,0.03485053405165672,-0.021548090502619743,0.023014213889837265
1772527377930622200,5.187622314453125,0.03310856223106384,-0.023851191624999046,0.02123389020562172
1772527377940620300,5.197620361328125,0.026898741722106934,-0.019978709518909454,0.0223915483802557
1772527377950618400,5.207618408203125,0.02044590190052986,-0.0156747754663229,0.02124345861375332
1772527377960616200,5.2176162109375,0.015866514295339584,-0.0028641989920288324,0.014137791469693184
1772527377970614300,5.2276142578125,0.013407085090875626,-0.0037174758035689592,0.003377289045602083
1772527377980612400,5.2376123046875,0.012743240222334862,-0.003474833909422159,-0.005219839513301849
1772527377990610200,5.247610107421875,0.014469500631093979,0.005820929538458586,-0.019694386050105095
1772527378000607200,5.257607177734375,0.01786142587661743,0.0015810849145054817,-0.028758056461811066
1772527378010605000,5.26760498046875,0.014095182530581951,0.0026692524552345276,-0.02432309463620186
1772527378020603100,5.27760302734375,0.012696481309831142,0.005069178994745016,-0.020938370376825333
1772527378030601200,5.287601318359375,0.00949509534984827,0.008473765105009079,-0.012727046385407448
1772527378040599000,5.29759912109375,0.009138020686805248,0.01030426099896431,-0.008902661502361298
1772527378050597000,5.30759716796875,0.01525690034031868,0.01451818086206913,-0.008877628482878208
1772527378060595200,5.31759521484375,0.019351769238710403,0.008952595293521881,-0.011562781408429146
1772527378070590200,5.327590087890625,0.029935704544186592,-0.0014390596188604832,-0.004327771253883839
1772527378080588000,5.337588134765625,0.030665799975395203,-0.010989137925207615,-0.004353051073849201
1772527378090586000,5.347586181640625,0.032541465014219284,-0.01904813013970852,-0.0029823221266269684
1772527378100584200,5.357584228515625,0.03480616584420204,-0.02050791308283806,-0.0004971460439264774
1772527378110582000,5.36758203125,0.033986710011959076,-0.019406162202358246,-0.009336177259683609
1772527378120580000,5.377580078125,0.035419441759586334,-0.01718960888683796,-0.02145082876086235
1772527378130578200,5.387578125,0.03237784653902054,-0.01606149412691593,-0.026487665250897408
1772527378140575200,5.3975751953125,0.028953827917575836,-0.016528498381376266,-0.034269534051418304
1772527378150573300,5.4075732421875,0.02465708553791046,-0.006049757823348045,-0.04116445779800415
1772527378160571100,5.417571044921875,0.02158207818865776,-0.010967458598315716,-0.039422884583473206
1772527378170569200,5.4275693359375,0.01381070725619793,-0.008303498849272728,-0.03326565399765968
1772527378180567300,5.4375673828125,0.014807578176259995,-0.0033289853017777205,-0.018888648599386215
1772527378190565000,5.447565185546875,0.0022395881824195385,-0.001983556430786848,-0.01831899769604206
1772527378200563200,5.457563232421875,-0.0013486100360751152,0.002602765802294016,-0.003085049567744136
1772527378210560300,5.467560302734375,-0.005644022487103939,0.0015130005776882172,0.005742263980209827
1772527378220558000,5.47755810546875,-0.012191378511488438,0.007323666010051966,0.005029685795307159
1772527378230556200,5.48755615234375,-0.016108356416225433,0.014152010902762413,0.0026831747964024544
1772527378240554200,5.49755419921875,-0.01579560525715351,0.005457581952214241,-0.0019488134421408176
1772527378250552000,5.507552001953125,-0.014664294198155403,0.00532868504524231,-0.01638554222881794
1772527378260550100,5.517550048828125,-0.00620628148317337,-0.005940721370279789,-0.02266678586602211
1772527378270548200,5.52754833984375,-0.007488594390451908,-0.01891777291893959,-0.023057738319039345
1772527378280545300,5.537545166015625,-0.0018053753301501274,-0.01665485091507435,-0.024359602481126785
1772527378290543400,5.54754345703125,0.0021640663035213947,-0.019352899864315987,-0.030554113909602165
1772527378300541200,5.557541259765625,0.011784404516220093,-0.021869922056794167,-0.02834693342447281
1772527378310539300,5.567539306640625,0.012030746787786484,-0.023563692346215248,-0.017486030235886574
1772527378320537300,5.577537353515625,0.01053986232727766,-0.02469153329730034,-0.002308872528374195
1772527378330535200,5.58753515625,0.0090040173381567,-0.02109013870358467,0.0033596656285226345
1772527378340533200,5.597533203125,0.00731899356469512,-0.019966697320342064,0.010062266141176224
1772527378350531000,5.607531005859375,0.00694535207003355,-0.019670022651553154,0.013173902407288551
1772527378360529200,5.617529052734375,0.004849197342991829,-0.01988540217280388,0.010651551187038422
1772527378370526200,5.627526123046875,0.0017436849884688854,-0.015024068765342236,0.00732366694137454
1772527378380524000,5.63752392578125,0.0030925897881388664,-0.015487229451537132,0.004462060984224081
1772527378390522400,5.6475224609375,0.0019721980206668377,-0.012536978349089622,0.00047477614134550095
1772527378400520400,5.6575205078125,0.00298695033416152,-0.017987530678510666,-0.0009444472379982471
1772527378410518300,5.667518310546875,0.016816480085253716,-0.025911767035722733,-0.01779533177614212
1772527378420516400,5.677516357421875,0.015029611997306347,-0.031787969172000885,-0.01988833211362362
1772527378430514200,5.68751416015625,0.019187606871128082,-0.03440585732460022,-0.029302608221769333
1772527378440511200,5.69751123046875,0.02321578934788704,-0.03142930194735527,-0.02627989649772644
1772527378450509300,5.70750927734375,0.01707773655653,-0.01801096647977829,-0.026439154520630836
1772527378460507100,5.717507080078125,0.009491200558841228,-0.010487578809261322,-0.03376892954111099
1772527378470505200,5.727505126953125,0.006952941883355379,-0.00909075140953064,-0.03436760976910591
1772527378480503300,5.73750341796875,0.0053066289983689785,-0.011062978766858578,-0.03147061914205551
1772527378490501000,5.747501220703125,-0.0008878838270902634,-0.009733528830111027,-0.02940373867750168
1772527378500499200,5.757499267578125,-0.012201056815683842,-0.006382539868354797,-0.017776956781744957
1772527378510497300,5.767497314453125,-0.020313046872615814,0.0017209267243742943,-0.007688636425882578
1772527378520494300,5.777494384765625,-0.021883077919483185,0.0015004277229309082,-0.009046178311109543
1772527378530492400,5.787492431640625,-0.019479576498270035,0.012720590457320213,-0.012915218248963356
1772527378540490200,5.797490234375,-0.008963371627032757,0.012273195199668407,-0.024574320763349533
1772527378550488300,5.80748828125,-0.005241338163614273,0.003505004569888115,-0.03912929445505142
1772527378560486400,5.817486328125,0.0008804313838481903,-0.0015769856981933117,-0.036017969250679016
1772527378570484200,5.827484130859375,0.001407470554113388,-0.01115104928612709,-0.019401442259550095
1772527378580482300,5.837482421875,0.0010771974921226501,-0.014919036068022251,-0.018424903973937035
1772527378590479000,5.84747900390625,-0.002869606949388981,-0.013403431512415409,-0.011850091628730297
1772527378600477200,5.857477294921875,-0.010752376168966293,-0.007441971451044083,-0.005844485014677048
1772527378610475300,5.867475341796875,-0.013886917382478714,0.0021640509366989136,0.0009588259272277355
1772527378620473000,5.87747314453125,-0.01223999634385109,0.008424527943134308,0.004828667733818293
1772527378630471200,5.88747119140625,-0.0074993036687374115,0.006542471703141928,0.003934378270059824
1772527378640469200,5.89746923828125,-0.0021203793585300446,-0.0026330491527915,0.007660313975065947
1772527378650467000,5.907467041015625,0.003455214202404022,-0.0038455864414572716,0.007642737124115229
1772527378660465200,5.917465087890625,0.005840199533849955,-0.004684733226895332,0.001192580908536911
1772527378670462200,5.927462158203125,0.005500912666320801,-0.01020892895758152,-0.0035371927078813314
1772527378680460300,5.937460205078125,0.006169348955154419,-0.004044842906296253,-0.007593649439513683
1772527378690458400,5.947458251953125,0.0006523439660668373,0.005816309712827206,-0.007946251891553402
1772527378700456200,5.957456298828125,-0.007181870751082897,0.017261622473597527,-0.009464100003242493
1772527378710454300,5.967454345703125,-0.009642631746828556,0.02685326337814331,-0.0022581187076866627
1772527378720452400,5.977452392578125,-0.012537872418761253,0.02889254130423069,0.004715236835181713
1772527378730450200,5.9874501953125,-0.010818270966410637,0.03132214397192001,-0.0024028602056205273
1772527378740448300,5.9974482421875,-0.010700445622205734,0.033894285559654236,-0.004578684456646442
1772527378750445000,6.007445068359375,-0.010078063234686852,0.03085002303123474,-0.0054253037087619305
1772527378760443400,6.017443359375,-0.005889381282031536,0.030245549976825714,-0.0040004663169384
1772527378770441200,6.027441162109375,-0.003988683223724365,0.028017017990350723,-0.00505321379750967
1772527378780439300,6.037439208984375,-0.003798411227762699,0.02747497335076332,-0.009109608829021454
1772527378790437000,6.04743701171875,-0.0029344819486141205,0.03414805606007576,-0.009365538135170937
1772527378800435200,6.057435302734375,-0.0035582352429628372,0.036768727004528046,-0.009599141776561737
1772527378810433300,6.067433349609375,-0.010439577512443066,0.045789383351802826,-0.010949363932013512
1772527378820430300,6.077430419921875,-0.014445070177316666,0.051365144550800323,-0.012991413474082947
1772527378830428400,6.087428466796875,-0.02089551091194153,0.05397797375917435,-0.012323225848376751
1772527378840426500,6.097426513671875,-0.026515789330005646,0.054999515414237976,-0.002851000986993313
1772527378850424300,6.10742431640625,-0.02629661187529564,0.0550336018204689,0.0008356128819286823
1772527378860422400,6.11742236328125,-0.020702779293060303,0.051550474017858505,0.004212253261357546
1772527378870420500,6.12742041015625,-0.014143680222332478,0.04310319200158119,0.008334826678037643
1772527378880418300,6.137418212890625,-0.006379466503858566,0.03980144113302231,0.006782094482332468
1772527378890416400,6.14741650390625,0.0020973756909370422,0.03439895436167717,0.0017646984197199345
1772527378900413200,6.1574130859375,0.008500726893544197,0.031053481623530388,0.0002982933074235916
1772527378910411300,6.167411376953125,0.009421647526323795,0.024973750114440918,-0.00336062372662127
1772527378920409300,6.177409423828125,0.00883640255779028,0.01758631318807602,0.0005261260084807873
1772527378930407200,6.1874072265625,0.00750002870336175,0.014889863319694996,-0.001763659529387951
1772527378940405200,6.1974052734375,0.005233259405940771,0.017204584553837776,0.0013006259687244892
1772527378950403300,6.2074033203125,0.004754422698169947,0.019775068387389183,0.0013198009692132473
1772527378960401400,6.2174013671875,0.005567866377532482,0.020395802333950996,-0.0037264537531882524
1772527378970399500,6.2273994140625,0.009211337193846703,0.020808592438697815,-0.0069800373166799545
1772527378980396300,6.237396240234375,0.016474401578307152,0.016754982993006706,-0.007879870012402534
1772527378990394400,6.247394287109375,0.012961159460246563,0.00985313393175602,-0.0063767824321985245
1772527379000392400,6.257392333984375,0.012156352400779724,0.004926818888634443,-0.00359590956941247
1772527379010390300,6.267390380859375,0.009102771990001202,0.005262909922748804,0.002004984300583601
1772527379020388400,6.277388427734375,0.00573311373591423,0.006872672121971846,0.0005679866299033165
1772527379030386400,6.287386474609375,0.0006209099665284157,0.007893195375800133,0.0010212566703557968
1772527379040384300,6.29738427734375,0.00011798366904258728,0.00948772020637989,0.005084043834358454
1772527379050382300,6.30738232421875,-0.005229644477367401,0.014787677675485611,0.0056845867075026035
1772527379060379400,6.31737939453125,-0.009024783968925476,0.01348727848380804,0.004326926078647375
1772527379070377500,6.32737744140625,-0.006257493048906326,0.015071860514581203,0.004584187176078558
1772527379080375600,6.33737548828125,-0.005207467824220657,0.013790503144264221,-0.0032306774519383907
1772527379090373400,6.347373291015625,-0.0020260559394955635,0.015290394425392151,-0.009124785661697388
1772527379100371500,6.357371337890625,0.0005974024534225464,0.019018104299902916,-0.022603578865528107
1772527379110369500,6.36736962890625,0.0006714379414916039,0.016616465523838997,-0.027811922132968903
1772527379120367400,6.377367431640625,-0.002543611451983452,0.012557780370116234,-0.02806687541306019
1772527379130364400,6.387364501953125,-0.0032823728397488594,0.001202594954520464,-0.01838681660592556
1772527379140362200,6.3973623046875,-0.003988522104918957,-0.0033083593007177114,-0.006988890003412962
1772527379150360300,6.4073603515625,-0.008792865090072155,0.0013364600017666817,0.006932518444955349
1772527379160358400,6.4173583984375,-0.014497178606688976,0.003101726993918419,0.00811205804347992
1772527379170356200,6.427356201171875,-0.020219512283802032,0.009440315887331963,0.006160493474453688
1772527379180354300,6.437354248046875,-0.026206310838460922,0.021649353206157684,-0.0004989686422049999
1772527379190352400,6.447352294921875,-0.03198563680052757,0.031236998736858368,-0.016927210614085197
1772527379200350200,6.45735009765625,-0.03333483263850212,0.03369734436273575,-0.029194042086601257
1772527379210347500,6.467347412109375,-0.035883475095033646,0.031323935836553574,-0.03901737928390503
1772527379220345300,6.477345458984375,-0.040832821279764175,0.029137998819351196,-0.03672415018081665
1772527379230343400,6.487343505859375,-0.041797950863838196,0.024621808901429176,-0.03363461792469025
1772527379240341500,6.497341552734375,-0.042592018842697144,0.026447543874382973,-0.026218801736831665
1772527379250339300,6.50733935546875,-0.040073201060295105,0.028271010145545006,-0.01981895975768566
1772527379260337400,6.51733740234375,-0.03528916463255882,0.01842295192182064,-0.009345783852040768
1772527379270335500,6.52733544921875,-0.02571083977818489,0.014436200261116028,0.001131624449044466
1772527379280333300,6.537333251953125,-0.019855134189128876,0.014592576771974564,0.00035142526030540466
1772527379290330400,6.547330322265625,-0.011805464513599873,0.009301409125328064,0.0026084543205797672
1772527379300328200,6.557328125,-0.008207447826862335,-0.002184025477617979,0.0006657284684479237
1772527379310326300,6.567326171875,-0.0061597442254424095,-0.004301771521568298,0.009431522339582443
1772527379320324400,6.577324462890625,-0.007116628810763359,-0.002942078048363328,0.006144496612250805
1772527379330322200,6.587322265625,-0.006995188072323799,0.0010718381963670254,0.006258212961256504
1772527379340320300,6.5973203125,-0.005950511433184147,0.006793396081775427,0.00872957706451416
1772527379350318300,6.607318359375,-0.004759812727570534,0.0032830839045345783,0.006230731960386038
1772527379360315400,6.6173154296875,-0.005317641422152519,-0.0006741625256836414,0.006613252218812704
1772527379370313500,6.6273134765625,-0.002529578283429146,-0.002885917667299509,0.009116623550653458
1772527379380311300,6.637311279296875,0.003228346351534128,-0.0024878724943846464,0.010769177228212357
1772527379390309400,6.647309326171875,0.0016765226610004902,-0.0010385802015662193,0.014532757923007011
1772527379400307500,6.657307373046875,0.005245950073003769,-0.0012954231351613998,0.017044497653841972
1772527379410305300,6.66730517578125,0.005969264544546604,0.0002894243225455284,0.02003762498497963
1772527379420303400,6.677303466796875,0.008215179666876793,0.0007420750334858894,0.01542496308684349
1772527379430301400,6.687301513671875,0.007227413356304169,0.0020100059919059277,0.008613396435976028
1772527379440298200,6.69729833984375,0.0014151772484183311,0.0005969922058284283,0.00815238244831562
1772527379450296300,6.70729638671875,0.0013081179931759834,-0.005149310454726219,0.006078045349568129
1772527379460294100,6.717294189453125,-0.0028135739266872406,-0.013023185543715954,0.010988736525177956
1772527379470292200,6.727292236328125,-0.0040053389966487885,-0.014929475262761116,0.012951485812664032
1772527379480290300,6.737290283203125,-0.007833519950509071,-0.004549479577690363,0.015748847275972366
1772527379490288400,6.747288330078125,-0.013157445937395096,0.007314370945096016,0.01486441120505333
1772527379500286500,6.757286376953125,-0.014293856918811798,0.017476845532655716,0.017393305897712708
1772527379510284500,6.767284423828125,-0.017529064789414406,0.021786106750369072,0.011460581794381142
1772527379520281300,6.77728125,-0.022414326667785645,0.028231371194124222,0.01029389537870884
1772527379530279400,6.787279541015625,-0.022347748279571533,0.02730751782655716,0.005543880630284548
1772527379540277200,6.79727734375,-0.025307457894086838,0.023760739713907242,0.007734084036201239
1772527379550275300,6.807275390625,-0.02442888170480728,0.01688579097390175,0.0023044305853545666
1772527379560273400,6.8172734375,-0.0285508893430233,0.018377196043729782,-0.0052489363588392735
1772527379570271200,6.827271240234375,-0.029076863080263138,0.026042306795716286,-0.005801009479910135
1772527379580269300,6.837269287109375,-0.025349479168653488,0.02561718225479126,-0.007956302724778652
1772527379590267400,6.847267333984375,-0.023418154567480087,0.025831568986177444,-0.007826341316103935
1772527379600264200,6.85726416015625,-0.02109156735241413,0.022217385470867157,-0.009758266620337963
1772527379610262300,6.86726220703125,-0.014089584350585938,0.015311011113226414,-0.0026942319236695766
1772527379620260400,6.87726025390625,-0.010328584350645542,0.006659712176769972,0.00023982301354408264
1772527379630258400,6.887258544921875,-0.006659547798335552,0.00177307752892375,0.0028984565287828445
1772527379640256500,6.897256591796875,-0.005996770225465298,-0.005513576325029135,0.007010859902948141
1772527379650254300,6.90725439453125,-0.006409293040633202,0.0021704426035284996,0.007264924701303244
1772527379660252400,6.91725244140625,-0.00642281211912632,0.01403435692191124,0.00821971520781517
1772527379670249200,6.927249267578125,-0.010104365646839142,0.01373235322535038,0.004725913982838392
1772527379680247300,6.937247314453125,-0.00582527182996273,0.004785818513482809,0.0038918782956898212
1772527379690245400,6.947245361328125,-0.003709656186401844,-0.0001908303238451481,0.009155882522463799
1772527379700243200,6.9572431640625,0.0007335618138313293,-0.004620200023055077,0.012327972799539566
1772527379710241300,6.9672412109375,0.007724359631538391,-0.0037951525300741196,0.010719424113631248
1772527379720239400,6.9772392578125,0.01195646170526743,0.0013097734190523624,0.004639627877622843
1772527379730237200,6.9872373046875,0.015875035896897316,-0.007336445152759552,-0.007438873406499624
1772527379740235300,6.9972353515625,0.020798565819859505,-0.016834251582622528,-0.01018765289336443
1772527379750232600,7.007232666015625,0.019595351070165634,-0.020650561898946762,-0.0067822691053152084
1772527379760230100,7.017230224609375,0.01634564809501171,-0.01958189532160759,-0.0028365072794258595
1772527379770228200,7.027228271484375,0.00872634444385767,-0.013217739760875702,0.006863791029900312
1772527379780226300,7.037226318359375,0.0023940582759678364,-0.004013305064290762,0.007379328366369009
1772527379790224100,7.04722412109375,-0.005550418049097061,0.011885765939950943,0.003701769281178713
1772527379800222200,7.05722216796875,-0.012913519516587257,0.01914869248867035,-0.00007649464532732964
1772527379810220300,7.06722021484375,-0.01582861691713333,0.02300122193992138,-0.005083503667265177
1772527379820218000,7.077218017578125,-0.01473221369087696,0.02202712371945381,-0.010476941242814064
1772527379830215200,7.087215087890625,-0.01009192131459713,0.020235082134604454,-0.01821129396557808
1772527379840213000,7.097212890625,-0.010361945256590843,0.019081048667430878,-0.025219665840268135
1772527379850211000,7.107211181640625,-0.009704677388072014,0.01693587191402912,-0.030645323917269707
1772527379860209200,7.117209228515625,-0.008162266574800014,0.013420406728982925,-0.027359718456864357
1772527379870207000,7.12720703125,-0.010967374779284,0.0035006641410291195,-0.017969945445656776
1772527379880205000,7.137205078125,-0.010913844220340252,0.0030367407016456127,-0.01612623780965805
1772527379890203100,7.147203125,-0.009853641502559185,0.009644044563174248,-0.013581588864326477
1772527379900201000,7.157200927734375,-0.009871622547507286,0.01210828498005867,-0.015324875712394714
1772527379910198300,7.1671982421875,-0.01085938885807991,0.015345890074968338,-0.01625405251979828
1772527379920196000,7.177196044921875,-0.011590544134378433,0.01631239801645279,-0.019056132063269615
1772527379930194200,7.187194091796875,-0.010225407779216766,0.00797990057617426,-0.012959623709321022
1772527379940192300,7.197192138671875,-0.004593744874000549,0.0012425100430846214,-0.010044889524579048
1772527379950190000,7.207190185546875,-0.0005947425961494446,-0.0034787419717758894,-0.009288018569350243
1772527379960188200,7.217188232421875,0.0019631520844995975,-0.005195062141865492,-0.011223005130887032
1772527379970186200,7.227186279296875,-0.00206860713660717,-0.004448045510798693,-0.015172207728028297
1772527379980184000,7.23718408203125,0.000844072550535202,-0.0025148200802505016,-0.02196756936609745
1772527379990181000,7.24718115234375,-0.0007106810808181763,0.0017297263257205486,-0.02941909432411194
1772527380000179000,7.257178955078125,-0.002401609905064106,-0.00039839092642068863,-0.03266233950853348
1772527380010177000,7.267177001953125,-0.0015137121081352234,-0.006776128895580769,-0.029294241219758987
1772527380020175000,7.277175048828125,-0.0029434235766530037,-0.00614071823656559,-0.028468945994973183
1772527380030173200,7.287173095703125,-0.003518667072057724,-0.00605123583227396,-0.023197218775749207
1772527380040171300,7.297171142578125,-0.007460985332727432,-0.005232726689428091,-0.02014501579105854
1772527380050169300,7.30716943359375,-0.008858611807227135,-0.0028989987913519144,-0.01906190812587738
1772527380060166100,7.317166259765625,-0.012152932584285736,-0.0006730146706104279,-0.017338156700134277
1772527380070164200,7.327164306640625,-0.011255713179707527,0.004328668117523193,-0.013431032188236713
1772527380080162000,7.337162109375,-0.010017978958785534,-0.0009247860871255398,-0.010990447364747524
1772527380090160000,7.34716015625,-0.007996373809874058,-0.010583804920315742,-0.011742791160941124
1772527380100158200,7.357158203125,-0.003770633600652218,-0.011590909212827682,-0.004736343864351511
1772527380110156000,7.367156005859375,0.001373262144625187,-0.010978116653859615,-0.0009320182725787163
1772527380120154000,7.377154052734375,0.008196977898478508,-0.022015690803527832,0.005618622526526451
1772527380130152200,7.387152099609375,0.011993846856057644,-0.028332442045211792,0.011588631197810173
1772527380140149000,7.39714892578125,0.012595434673130512,-0.029121074825525284,0.01817469857633114
1772527380150147000,7.40714697265625,0.014694271609187126,-0.026121823117136955,0.02402140200138092
1772527380160145200,7.417145263671875,0.014983553439378738,-0.019185025244951248,0.023785492405295372
1772527380170143200,7.427143310546875,0.018348459154367447,-0.017043575644493103,0.028379712253808975
1772527380180141300,7.437141357421875,0.023846492171287537,-0.022208308801054955,0.03378002345561981
1772527380190139100,7.44713916015625,0.02807745337486267,-0.02146581932902336,0.03002842888236046
1772527380200137200,7.45713720703125,0.025491679087281227,-0.014660969376564026,0.025004129856824875
1772527380210135300,7.46713525390625,0.018689699470996857,0.0001723053865134716,0.014473194256424904
1772527380220132000,7.477132080078125,0.006814898923039436,0.017326492816209793,0.006168768275529146
1772527380230130200,7.487130126953125,-0.0024086926132440567,0.024496253579854965,0.0017660302110016346
1772527380240128000,7.4971279296875,-0.009252938441932201,0.025997769087553024,-0.0014035762287676334
1772527380250126000,7.5071259765625,-0.012766179628670216,0.018667686730623245,-0.007593295071274042
1772527380260124200,7.517124267578125,-0.017501112073659897,0.01330622099339962,-0.004104682710021734
1772527380270122000,7.5271220703125,-0.017985541373491287,0.013800770044326782,-0.01065392792224884
1772527380280120000,7.5371201171875,-0.010483190417289734,0.017294690012931824,-0.019285811111330986
1772527380290118100,7.5471181640625,-0.013917069882154465,0.019284604117274284,-0.025113873183727264
1772527380300115200,7.557115234375,-0.0115855997428298,0.017402686178684235,-0.021676890552043915
1772527380310113300,7.56711328125,-0.01219013798981905,0.010682995431125164,-0.014063444919884205
1772527380320111000,7.577111083984375,-0.014358008280396461,0.01162351667881012,-0.003671076847240329
1772527380330109200,7.587109130859375,-0.013055721297860146,0.020374130457639694,0.0014294092543423176
1772527380340107300,7.597107177734375,-0.011466766707599163,0.02368156984448433,0.003130615223199129
1772527380350105000,7.60710498046875,-0.009327449835836887,0.022857055068016052,0.0051114740781486034
1772527380360103200,7.617103271484375,-0.004554614424705505,0.018339773640036583,0.0085548534989357
1772527380370101200,7.627101318359375,0.0009626559913158417,0.011062951758503914,0.013561596162617207
1772527380380098000,7.63709814453125,0.005094689782708883,0.0027614841237664223,0.021408239379525185
1772527380390096100,7.64709619140625,0.007116561755537987,0.0009867539629340172,0.02065270207822323
1772527380400094000,7.657093994140625,0.017040904611349106,0.008921288885176182,0.012909229844808578
1772527380410092000,7.667092041015625,0.021862559020519257,0.0048722196370363235,0.00249174190685153
1772527380420090000,7.677090087890625,0.026522476226091385,-0.0015699947252869606,-0.005650161765515804
1772527380430088000,7.687087890625,0.035974301397800446,-0.015503920614719391,-0.01218422781676054
1772527380440086000,7.6970859375,0.03854558244347572,-0.028638895601034164,-0.012082494795322418
1772527380450083000,7.7070830078125,0.03698443993926048,-0.03602837026119232,-0.008712797425687313
1772527380460081200,7.7170810546875,0.03310733288526535,-0.043642524629831314,-0.0022947797551751137
1772527380470079200,7.727079345703125,0.027013489976525307,-0.044986624270677567,0.006958373822271824
1772527380480077000,7.7370771484375,0.021812256425619125,-0.03993649780750275,0.0171643178910017
1772527380490075100,7.7470751953125,0.01594797521829605,-0.02907559461891651,0.02509947121143341
1772527380500073200,7.7570732421875,0.012040648609399796,-0.014924559742212296,0.031192034482955933
1772527380510071000,7.767071044921875,0.014180231839418411,-0.0058229402638971806,0.02491256594657898
1772527380520069000,7.777069091796875,0.01826835609972477,-0.0016200346872210503,0.013528680428862572
1772527380530067200,7.787067138671875,0.01549733616411686,0.0014814822934567928,0.0076260496862232685
1772527380540064000,7.79706396484375,0.01579130068421364,-0.0007281368598341942,0.006170967128127813
1772527380550062000,7.80706201171875,0.014291941188275814,-0.004832600709050894,-0.0010840161703526974
1772527380560060000,7.817059814453125,0.008045392110943794,-0.008435588330030441,-0.008242719806730747
1772527380570058000,7.82705810546875,0.005998486187309027,-0.007199881132692099,-0.006904215551912785
1772527380580056000,7.83705615234375,0.0032708034850656986,-0.010661586187779903,-0.004268116317689419
1772527380590054100,7.84705419921875,0.0010896744206547737,-0.016041170805692673,-0.007724633440375328
1772527380600052200,7.85705224609375,-0.0019734855741262436,-0.011307025328278542,-0.009951148182153702
1772527380610050300,7.86705029296875,0.004213036969304085,-0.011052693240344524,-0.01002997811883688
1772527380620047000,7.877047119140625,0.004760200157761574,-0.005438969470560551,-0.0105380117893219
1772527380630045200,7.887045166015625,0.007626027800142765,-0.002780069364234805,-0.011493287980556488
1772527380640043000,7.89704296875,0.010393734090030193,0.00172518752515316,-0.014030687510967255
1772527380650041000,7.907041015625,0.013384463265538216,0.0006780326366424561,-0.014633893966674805
1772527380660039200,7.9170390625,0.012937773019075394,-0.007869991473853588,-0.007274107076227665
1772527380670037000,7.927037109375,0.014234732836484909,-0.010481487028300762,0.0019015483558177948
1772527380680035000,7.93703515625,0.011981269344687462,-0.011510270647704601,0.003655101638287306
1772527380690033200,7.947033203125,0.010031568817794323,-0.008381854742765427,0.005923581775277853
1772527380700030200,7.9570302734375,0.00882865022867918,-0.005968200974166393,0.006821224000304937
1772527380710028300,7.9670283203125,0.009137044660747051,-0.006857430562376976,0.002714629750698805
1772527380720026000,7.977026123046875,0.009876982308924198,-0.010962633416056633,0.0002820761874318123
1772527380730024200,7.987024169921875,0.009061522781848907,-0.01491556316614151,-0.0022287522442638874
1772527380740022300,7.997022216796875,0.004532202146947384,-0.006800252012908459,-0.009983772411942482
1772527380750020000,8.00702001953125,-0.0018719015643000603,0.0019929734990000725,-0.012487676925957203
1772527380760017400,8.017017333984375,-0.0036920588463544846,0.005913315806537867,-0.011480150744318962
1772527380770014200,8.02701416015625,-0.009526778012514114,0.010677710175514221,-0.008630301803350449
1772527380780012300,8.03701220703125,-0.010059576481580734,0.010879837907850742,-0.010762300342321396
1772527380790010400,8.04701025390625,-0.012431919574737549,0.011146419681608677,-0.0050263842567801476
1772527380800008200,8.05700830078125,-0.008162420243024826,0.0052474914118647575,0.0018226453103125095
1772527380810006300,8.06700634765625,-0.007174387574195862,-0.002067679539322853,0.006753221619874239
1772527380820004400,8.07700439453125,-0.004343651235103607,-0.004138757009059191,0.009707514196634293
1772527380830002400,8.08700244140625,0.0004377877339720726,0.0019811871461570263,0.006776172202080488
1772527380840000500,8.09700048828125,0.0021826084703207016,0.0043364581651985645,-0.0019937041215598583
1772527380849997300,8.106997314453125,0.013378803618252277,0.010626310482621193,0.003392272163182497
1772527380859995400,8.116995361328126,0.019522404298186302,0.006766492035239935,0.003642603289335966
1772527380869993500,8.126993408203125,0.038061998784542084,-0.00219904026016593,0.018499048426747322
1772527380879991300,8.1369912109375,0.051723264157772064,-0.012992731295526028,0.03199142962694168
1772527380889989400,8.1469892578125,0.060869358479976654,-0.031001824885606766,0.04690193384885788
1772527380899987500,8.156987548828125,0.07313857972621918,-0.03589785471558571,0.05087678134441376
1772527380909985300,8.1669853515625,0.07573676109313965,-0.030574729666113853,0.048695117235183716
1772527380919983400,8.1769833984375,0.08179109543561935,-0.02275833860039711,0.04405203461647034
1772527380929980200,8.186980224609375,0.08043155074119568,-0.019061338156461716,0.04160885140299797
1772527380939978200,8.196978271484374,0.07533299922943115,-0.011722286231815815,0.035281118005514145
1772527380949976300,8.206976318359375,0.06553389132022858,-0.00577944191172719,0.026801610365509987
1772527380959974400,8.216974365234375,0.049656808376312256,0.008430210873484612,0.015213001519441605
1772527380969972500,8.226972412109374,0.03216969221830368,0.02431276999413967,0.0058479951694607735
1772527380979970600,8.236970458984375,0.0184111800044775,0.04342363029718399,-0.00030102767050266266
1772527380989968400,8.246968505859375,0.00781259872019291,0.048259932547807693,-0.01436225138604641
1772527380999966500,8.256966552734376,-0.0017654858529567719,0.05408365651965141,-0.028887059539556503
1772527381009963300,8.26696337890625,-0.007169571705162525,0.05646771565079689,-0.03526559844613075
1772527381019961300,8.27696142578125,-0.0018167942762374878,0.047880496829748154,-0.036782559007406235
1772527381029959400,8.28695947265625,0.007143411319702864,0.03866143524646759,-0.029016515240073204
1772527381039957200,8.296957275390625,0.01230616495013237,0.03191059082746506,-0.021873848512768745
1772527381049955300,8.306955322265624,0.013866511173546314,0.03307119756937027,-0.023781737312674522
1772527381059953400,8.316953369140625,0.020660897716879845,0.029863175004720688,-0.028019607067108154
1772527381069951200,8.326951171875,0.021070227026939392,0.028304696083068848,-0.037896737456321716
1772527381079949300,8.33694921875,0.01626162976026535,0.03383592516183853,-0.05512776970863342
1772527381089946400,8.3469462890625,0.009184811264276505,0.038316693156957626,-0.06214040517807007
1772527381099944400,8.3569443359375,0.00046470388770103455,0.037386227399110794,-0.0674450546503067
1772527381109942500,8.366942626953126,-0.01201620139181614,0.04605082422494888,-0.06686475872993469
1772527381119940400,8.3769404296875,-0.024397850036621094,0.06235285475850105,-0.06003566086292267
1772527381129938400,8.3869384765625,-0.02955186367034912,0.06709487736225128,-0.0422942154109478
1772527381139936500,8.3969365234375,-0.03220179304480553,0.07330294698476791,-0.024129945784807205
1772527381149934300,8.406934326171875,-0.03457839787006378,0.06932684779167175,-0.008943803608417511
1772527381159932400,8.416932373046874,-0.03384054824709892,0.06086459383368492,0.007594715338200331
1772527381169929200,8.42692919921875,-0.026167981326580048,0.06371151655912399,0.010578522458672523
1772527381179927300,8.43692724609375,-0.024449340999126434,0.06898824870586395,0.00008336035534739494
1772527381189925400,8.44692529296875,-0.023602455854415894,0.06540203094482422,-0.011325888335704803
1772527381199923200,8.456923095703125,-0.026559803634881973,0.050455715507268906,-0.017303377389907837
1772527381209921300,8.46692138671875,-0.03308401629328728,0.0465850755572319,-0.027222853153944016
1772527381219919400,8.47691943359375,-0.04094279929995537,0.05628553032875061,-0.03446274250745773
1772527381229917200,8.486917236328125,-0.050358403474092484,0.06975046545267105,-0.04191959276795387
1772527381239915300,8.496915283203125,-0.057927247136831284,0.07305988669395447,-0.043105367571115494
1772527381249912300,8.506912353515625,-0.060968849807977676,0.07233470678329468,-0.04519035667181015
1772527381259910400,8.516910400390625,-0.05846443772315979,0.06515374034643173,-0.035613518208265305
1772527381269908500,8.526908447265624,-0.05658744275569916,0.04929966852068901,-0.02402397431433201
1772527381279906300,8.53690625,-0.04154089093208313,0.03207525983452797,-0.009687423706054688
1772527381289904400,8.546904296875,-0.03328642621636391,0.011693025007843971,-0.0009360103867948055
1772527381299902500,8.55690234375,-0.023153048008680344,0.00782344676554203,0.004639515187591314
1772527381309900300,8.566900390625,-0.017866939306259155,0.008268993347883224,0.011293688789010048
1772527381319898400,8.5768984375,-0.016243036836385727,0.020922329276800156,0.00661773607134819
1772527381329895200,8.586895263671876,-0.01847130060195923,0.02407151646912098,-0.00035575078800320625
1772527381339893200,8.596893310546875,-0.01830204762518406,0.01779986172914505,-0.004052349831908941
1772527381349891300,8.606891357421874,-0.02179158665239811,0.013333740644156933,-0.004639576654881239
1772527381359889200,8.61688916015625,-0.0280187726020813,0.009714800864458084,-0.0072485883720219135
1772527381369887200,8.62688720703125,-0.035403985530138016,0.015675753355026245,-0.0046035367995500565
1772527381379885300,8.63688525390625,-0.039796002209186554,0.021338343620300293,-0.00400359183549881
1772527381389883400,8.64688330078125,-0.0384974405169487,0.022422250360250473,-0.007142393849790096
1772527381399880400,8.65688037109375,-0.04102610424160957,0.0172723475843668,-0.005943285766988993
1772527381409878300,8.666878173828126,-0.032732754945755005,0.010826164856553078,-0.006384305190294981
1772527381419876400,8.67687646484375,-0.02609339728951454,0.0038856901228427887,-0.004736478440463543
1772527381429874400,8.68687451171875,-0.017064213752746582,-0.0024715415202081203,-0.0015824967995285988
1772527381439872300,8.696872314453126,-0.015392469242215157,-0.014522319659590721,-0.004373933654278517
1772527381449870300,8.706870361328125,-0.013941844925284386,-0.018154338002204895,-0.004448768682777882
1772527381459868400,8.716868408203124,-0.01165096927434206,-0.017489958554506302,0.00048793479800224304
1772527381469866200,8.7268662109375,-0.007463148795068264,-0.02030758187174797,0.0031327204778790474
1772527381479863300,8.73686328125,-0.0049669742584228516,-0.014619184657931328,0.008102558553218842
1772527381489861400,8.746861328125,-0.00024545658379793167,-0.017849333584308624,0.00887540727853775
1772527381499859500,8.756859375,0.004820182453840971,-0.01968144066631794,0.009333780035376549
1772527381509857500,8.766857421875,0.009627453982830048,-0.020186109468340874,0.006214420776814222
1772527381519855400,8.77685546875,0.013458420522511005,-0.023213744163513184,0.004149825777858496
1772527381529853400,8.786853515625,0.016134364530444145,-0.027508888393640518,0.0060681006871163845
1772527381539851500,8.7968515625,0.014494809322059155,-0.02870417758822441,0.0021918918937444687
1772527381549849300,8.806849365234376,0.011173848062753677,-0.013377152383327484,-0.0032018085476011038
1772527381559846400,8.816846435546875,0.005327576771378517,-0.00851740688085556,-0.010504591278731823
1772527381569844200,8.82684423828125,-0.0050483644008636475,-0.00038917316123843193,-0.02423851191997528
1772527381579842300,8.83684228515625,-0.014736771583557129,0.01266389712691307,-0.02223632112145424
1772527381589840400,8.84684033203125,-0.022528382018208504,0.018237095326185226,-0.01874571666121483
1772527381599838200,8.856838134765624,-0.032670579850673676,0.026646316051483154,-0.01581709086894989
1772527381609836300,8.866836181640625,-0.0387556366622448,0.0372060164809227,-0.018020056188106537
1772527381619834400,8.87683447265625,-0.04051634669303894,0.04493223503232002,-0.024142637848854065
1772527381629832200,8.886832275390624,-0.03966200351715088,0.04319265857338905,-0.02592269703745842
1772527381639829500,8.89682958984375,-0.03473031893372536,0.0385434590280056,-0.033301204442977905
1772527381649827300,8.906827392578125,-0.02855897694826126,0.033874671906232834,-0.034386444836854935
1772527381659825400,8.916825439453126,-0.025361215695738792,0.03323225677013397,-0.0305255688726902
1772527381669823500,8.926823486328125,-0.02126474305987358,0.02070022188127041,-0.02480190247297287
1772527381679821300,8.9368212890625,-0.017548557370901108,0.012714585289359093,-0.016251936554908752
1772527381689819400,8.9468193359375,-0.01472960039973259,0.013042420148849487,-0.006109820678830147
1772527381699817500,8.9568173828125,-0.015086588449776173,0.015532832592725754,-0.004129891283810139
1772527381709815300,8.966815185546874,-0.013766991905868053,0.015006856992840767,-0.0013748514465987682
1772527381719812400,8.976812255859375,-0.008933508768677711,0.01612970605492592,0.006309944670647383
1772527381729810200,8.98681005859375,-0.002051101066172123,0.009482989087700844,0.005696085747331381
1772527381739808300,8.996808349609376,0.0025641685351729393,0.00894008670002222,0.008932245895266533
1772527381749806300,9.006806396484375,0.005057419650256634,0.003095247782766819,-0.001286037266254425
1772527381759804200,9.01680419921875,0.004058199469000101,0.004052541684359312,-0.0042123920284211636
1772527381769802800,9.026802734375,0.002468292135745287,0.011601537466049194,-0.011556591838598251
1772527381779800800,9.03680078125,-0.0009884480386972427,0.021404894068837166,-0.01167711429297924
1772527381789798700,9.046798583984375,-0.002361840568482876,0.026283271610736847,-0.01546972244977951
1772527381799796000,9.0567958984375,-0.006559071131050587,0.030286017805337906,-0.015488147735595703
1772527381809794000,9.0667939453125,-0.016323283314704895,0.0369228832423687,-0.017983796074986458
1772527381819792000,9.0767919921875,-0.0208126213401556,0.04737313464283943,-0.023618977516889572
1772527381829790000,9.0867900390625,-0.02729821763932705,0.04759550839662552,-0.029352495446801186
1772527381839787800,9.096787841796875,-0.0326143242418766,0.04776737838983536,-0.0355401486158371
1772527381849785900,9.106785888671874,-0.03646498918533325,0.050687532871961594,-0.04150882363319397
1772527381859784000,9.116783935546875,-0.041685327887535095,0.049244411289691925,-0.04913368076086044
1772527381869781800,9.12678173828125,-0.044999100267887115,0.05374835059046745,-0.056322887539863586
1772527381879778800,9.13677880859375,-0.050623051822185516,0.05547855421900749,-0.058739881962537766
1772527381889777000,9.14677685546875,-0.05426172912120819,0.0569576732814312,-0.06474317610263824
1772527381899774700,9.156774658203124,-0.060951050370931625,0.0647781565785408,-0.06710871309041977
1772527381909772800,9.166772705078126,-0.06522196531295776,0.06636806577444077,-0.06971567869186401
1772527381919771000,9.17677099609375,-0.06930599361658096,0.06617411226034164,-0.0691421627998352
1772527381929768700,9.186768798828124,-0.07307063788175583,0.062265392392873764,-0.056486282497644424
1772527381939766800,9.196766845703126,-0.06744126975536346,0.052301108837127686,-0.04296872764825821
1772527381949764600,9.2067646484375,-0.06027469411492348,0.04979880154132843,-0.03707036003470421
1772527381959762000,9.216761962890626,-0.04518751800060272,0.0428612120449543,-0.030630478635430336
1772527381969760000,9.226760009765625,-0.03628163784742355,0.03538092225790024,-0.026485268026590347
1772527381979757800,9.2367578125,-0.02592700533568859,0.02360469289124012,-0.025796575471758842
1772527381989756000,9.246755859375,-0.026782413944602013,0.012145642191171646,-0.01728777587413788
1772527381999754000,9.25675390625,-0.02603321708738804,0.009428148157894611,-0.01240893267095089
1772527382009751800,9.266751708984375,-0.02959226630628109,0.006356458179652691,-0.007821904495358467
1772527382019750000,9.27675,-0.030132118612527847,0.011097868904471397,-0.0029993795324116945
1772527382029747700,9.286747802734375,-0.021131165325641632,0.015967993065714836,-0.005833781789988279
1772527382039744800,9.296744873046874,-0.013854271732270718,0.011843199841678143,-0.00986986793577671
1772527382049742800,9.306742919921875,-0.0035819271579384804,-0.0019857967272400856,-0.014468880370259285
1772527382059740700,9.31674072265625,0.0065123550593853,-0.019419651478528976,-0.013677794486284256
1772527382069738800,9.32673876953125,0.012414985336363316,-0.034633226692676544,-0.005745835602283478
1772527382079736800,9.33673681640625,0.013702050782740116,-0.04670361801981926,-0.0007439302280545235
1772527382089735000,9.34673486328125,0.01150281261652708,-0.047166209667921066,0.008649570867419243
1772527382099733000,9.35673291015625,0.00750624667853117,-0.0458025224506855,0.014485932886600494
1772527382109731000,9.36673095703125,0.004671577829867601,-0.03353254124522209,0.009660817682743073
1772527382119727900,9.376727783203124,0.0041730753146111965,-0.023672306910157204,-0.0005947058089077473
1772527382129726000,9.386725830078126,0.0008475854992866516,-0.02233992889523506,-0.0013374611735343933
1772527382139723800,9.396723876953125,-0.000017095357179641724,-0.019723378121852875,-0.004067802801728249
1772527382149721900,9.406721923828124,-0.0023963628336787224,-0.02156335674226284,-0.008246568962931633
1772527382159720000,9.416719970703125,-0.005352253094315529,-0.021863754838705063,-0.00845369417220354
1772527382169717800,9.4267177734375,-0.0074649378657341,-0.021087177097797394,-0.006912788841873407
1772527382179715800,9.4367158203125,-0.008953050710260868,-0.024958018213510513,-0.006782246753573418
1772527382189714000,9.4467138671875,-0.011054283939301968,-0.022144921123981476,-0.004871694836765528
1772527382199710700,9.456710693359375,-0.013394671492278576,-0.016825789585709572,-0.0029020209331065416
1772527382209709000,9.466708984375,-0.011266271583735943,-0.009457089938223362,-0.0014308909885585308
1772527382219707000,9.476706787109375,-0.01399155706167221,-0.009960072115063667,-0.004993069916963577
1772527382229705000,9.486705078125,-0.012854652479290962,-0.006647898815572262,-0.005575769580900669
1772527382239703000,9.496703125,-0.01657963916659355,0.006564391776919365,-0.008814975619316101
1772527382249700900,9.506700927734375,-0.020091550424695015,0.008053631521761417,-0.012735680676996708
1772527382259699000,9.516698974609374,-0.020374871790409088,0.012840010225772858,-0.014786271378397942
1772527382269697000,9.526697021484376,-0.02351713366806507,0.013748148456215858,-0.01586857996881008
1772527382279693800,9.53669384765625,-0.026168351992964745,0.013314173556864262,-0.01716877892613411
1772527382289692000,9.54669189453125,-0.020673183724284172,0.009856325574219227,-0.012103445827960968
1772527382299689700,9.556689697265625,-0.013824946247041225,0.005355821456760168,-0.012854811735451221
1772527382309687800,9.566687744140625,-0.009448573924601078,0.004471919033676386,-0.008587628602981567
1772527382319686000,9.576685791015626,-0.0046949852257966995,0.0028083017095923424,-0.008408686146140099
1772527382329683700,9.58668359375,-0.006273706443607807,0.00565175898373127,-0.005915701389312744
1772527382339681800,9.596681884765625,-0.0036730077117681503,0.0041168369352817535,-0.002754700370132923
1772527382349678800,9.606678955078126,-0.006365463137626648,0.0016733864322304726,0.00800926424562931
1772527382359677000,9.616677001953125,-0.007996832951903343,0.000889115035533905,0.010336687788367271
1772527382369675000,9.626675048828124,-0.01020858809351921,0.0032164514996111393,0.006394143681973219
1772527382379672800,9.6366728515625,-0.014629928395152092,-0.0005943849682807922,0.002082263585180044
1772527382389671000,9.6466708984375,-0.016266705468297005,0.009388474747538567,-0.009574126452207565
1772527382399669000,9.6566689453125,-0.020735982805490494,0.013190818950533867,-0.012110477313399315
1772527382409666800,9.666666748046875,-0.018108773976564407,0.012235276401042938,-0.009159428998827934
1772527382419665000,9.676664794921875,-0.016581464558839798,0.019009755924344063,-0.014881612733006477
1772527382429661700,9.68666162109375,-0.013683944940567017,0.02073734812438488,-0.010676747187972069
1772527382439659800,9.69665966796875,-0.010317808017134666,0.014950042590498924,-0.0012575415894389153
1772527382449657900,9.706657958984374,-0.006356355734169483,0.00658771675080061,0.0019291969947516918
1772527382459655700,9.71665576171875,-0.0077288104221224785,0.006078656762838364,0.00853560771793127
1772527382469653800,9.72665380859375,-0.009515791200101376,0.008307456970214844,0.012425154447555542
1772527382479652900,9.73665283203125,-0.01268677692860365,0.00819681491702795,0.01049866620451212
1772527382489650700,9.746650634765626,-0.01370996329933405,0.019279560074210167,0.0034852325916290283
1772527382499647700,9.756647705078125,-0.014911506325006485,0.0211859829723835,-0.005852179601788521
1772527382509645800,9.766645751953124,-0.015740813687443733,0.016593627631664276,-0.020578129217028618
1772527382519644000,9.776643798828125,-0.016888737678527832,0.014564624056220055,-0.027769021689891815
1772527382529642000,9.78664208984375,-0.01809009164571762,0.00863908976316452,-0.02780843712389469
1772527382539640000,9.79664013671875,-0.01323813945055008,0.007540472783148289,-0.022452866658568382
1772527382549638000,9.806637939453125,-0.011577658355236053,0.007774031721055508,-0.015834910795092583
1772527382559636000,9.816635986328125,-0.012351060286164284,0.01296110451221466,-0.014781670644879341
1772527382569633800,9.8266337890625,-0.01064210943877697,0.01085401140153408,-0.010009286925196648
1772527382579630800,9.836630859375,-0.009134943597018719,0.005631848704069853,-0.005674637854099274
1772527382589629000,9.84662890625,-0.009904331527650356,0.006562622729688883,-0.006204340606927872
1772527382599626800,9.856626708984376,-0.008813193999230862,0.012112798169255257,-0.006964895874261856
1772527382609624800,9.866624755859375,-0.014594384469091892,0.014795932918787003,-0.008987033739686012
1772527382619623000,9.876622802734374,-0.00955149345099926,0.01764453761279583,-0.011599795892834663
1772527382629620700,9.886620849609375,-0.00960688665509224,0.016775814816355705,-0.021726999431848526
1772527382639618800,9.896618896484375,-0.0025285352021455765,0.011546366848051548,-0.024889549240469933
1772527382649616000,9.906615966796876,-0.0038571860641241074,-0.0017729001119732857,-0.023682337254285812
1772527382659614000,9.916614013671875,0.002984025049954653,-0.005125574767589569,-0.025638911873102188
1772527382669612000,9.926612060546875,0.006579292938113213,-0.019381742924451828,-0.0217946395277977
1772527382679609900,9.93660986328125,0.011669355444610119,-0.021419847384095192,-0.014786116778850555
1772527382689608000,9.94660791015625,0.010908490046858788,-0.01834043301641941,-0.006665872875601053
1772527382699606000,9.95660595703125,0.011623574420809746,-0.009540895000100136,0.0005563562735915184
1772527382709603800,9.966603759765626,0.007943619042634964,-0.009400812909007072,0.010313911363482475
1772527382719602000,9.976601806640625,0.013481725007295609,-0.00886811688542366,0.01899959333240986
1772527382729598700,9.9865986328125,0.013845779001712799,-0.012136348523199558,0.020965805277228355
1772527382739596800,9.9965966796875,0.018000859767198563,-0.011168592609465122,0.02379731833934784
1772527382749595000,10.006594970703125,0.017594994977116585,-0.01913117803633213,0.02114081382751465
1772527382759592700,10.0165927734375,0.023154262453317642,-0.019514167681336403,0.01998118683695793
1772527382769590500,10.026590576171875,0.021319610998034477,-0.02173098362982273,0.013617295771837234
1772527382779588600,10.036588623046875,0.020890098065137863,-0.02624855563044548,0.010479721240699291
1772527382789586400,10.04658642578125,0.023906392976641655,-0.018748827278614044,0.005747550167143345
1772527382799584500,10.05658447265625,0.02462836354970932,-0.013224218040704727,-0.003376059466972947
1772527382809581600,10.06658154296875,0.022791314870119095,-0.019405148923397064,-0.008410499431192875
1772527382819579600,10.07657958984375,0.016277221962809563,-0.01467958465218544,-0.014642526395618916
1772527382829577700,10.08657763671875,0.011022805236279964,-0.014511538669466972,-0.022171281278133392
1772527382839575600,10.096575439453124,0.006412825547158718,-0.00943261943757534,-0.022555241361260414
1772527382849573600,10.10657373046875,-0.0005649225786328316,-0.010012123733758926,-0.033456891775131226
1772527382859571700,10.11657177734375,-0.005868906155228615,-0.0033843463752418756,-0.03917938098311424
1772527382869569500,10.126569580078124,-0.015233112499117851,0.0031225550919771194,-0.0380757674574852
1772527382879567600,10.136567626953125,-0.026016222313046455,0.007047554012387991,-0.0364990197122097
1772527382889564400,10.146564453125,-0.03122776187956333,0.015942245721817017,-0.03687133267521858
1772527382899562500,10.1565625,-0.03244881331920624,0.022252719849348068,-0.03352624550461769
1772527382909560600,10.166560546875,-0.037542372941970825,0.02142687514424324,-0.03424236923456192
1772527382919558400,10.176558349609374,-0.03778832405805588,0.023052752017974854,-0.025316232815384865
1772527382929556700,10.186556640625,-0.03358212858438492,0.022894294932484627,-0.014328030869364738
1772527382939554800,10.196554931640625,-0.027651432901620865,0.016815463081002235,-0.0076808445155620575
1772527382949552600,10.206552734375,-0.014126835390925407,0.005777993239462376,-0.004542842041701078
1772527382959550700,10.21655078125,-0.00906223151832819,-0.009389328770339489,-0.007754679303616285
1772527382969547500,10.226547607421875,0.002319853287190199,-0.0218310859054327,0.004676956217736006
1772527382979545600,10.236545654296876,0.009651084430515766,-0.02910015545785427,0.008809737861156464
1772527382989543700,10.246543701171875,0.01752392202615738,-0.03597084432840347,0.008959140628576279
1772527382999541500,10.25654150390625,0.018912218511104584,-0.033801816403865814,0.015297044068574905
1772527383009539600,10.26653955078125,0.01563147082924843,-0.03352431207895279,0.012982223182916641
1772527383019537700,10.27653759765625,0.016193058341741562,-0.029856521636247635,0.01760420762002468
1772527383029535500,10.286535400390624,0.011166341602802277,-0.03272581100463867,0.024780625477433205
1772527383039533600,10.296533447265626,0.008505987003445625,-0.02936667390167713,0.02796909585595131
1772527383049531600,10.30653173828125,0.007792792282998562,-0.025460882112383842,0.02208271250128746
1772527383059528700,10.31652880859375,0.012488959357142448,-0.0337076261639595,0.019092850387096405
1772527383069526800,10.32652685546875,0.012541158124804497,-0.03206045925617218,0.008042862638831139
1772527383079524600,10.336524658203125,0.011349516920745373,-0.022793548181653023,0.00642033014446497
1772527383089522700,10.346522705078126,0.004118235781788826,-0.01591140776872635,0.002884984016418457
1772527383099520800,10.356520751953125,-0.0044498201459646225,-0.010287586599588394,-0.008171643130481243
1772527383109518600,10.3665185546875,-0.010745533742010593,-0.010829007253050804,-0.007556186523288488
1772527383119516700,10.3765166015625,-0.016638770699501038,-0.014002516865730286,-0.008856408298015594
1772527383129513500,10.386513427734375,-0.020834313705563545,-0.004263069946318865,-0.012931044213473797
1772527383139511600,10.396511474609374,-0.027167843654751778,0.0031655519269406796,-0.007537077646702528
1772527383149509600,10.406509521484375,-0.02989598549902439,-0.0019674249924719334,-0.00015958910807967186
1772527383159507500,10.416507568359375,-0.03265007585287094,0.0022834534756839275,-0.00004984484985470772
1772527383169505500,10.426505615234374,-0.034243978559970856,0.0008812989108264446,-0.005277896299958229
1772527383179503600,10.436503662109375,-0.03322345390915871,-0.001150215044617653,0.0046146465465426445
1772527383189501400,10.44650146484375,-0.02909928187727928,0.00006631668657064438,0.00008194614201784134
1772527383199499500,10.45649951171875,-0.025610554963350296,0.0012209424749016762,-0.01249338686466217
1772527383209496600,10.46649658203125,-0.01854332536458969,-0.0004099775105714798,-0.01682342030107975
1772527383219494700,10.47649462890625,-0.013185715302824974,-0.003923250362277031,-0.020547151565551758
1772527383229492700,10.48649267578125,-0.0013591507449746132,-0.012231780216097832,-0.017619539052248
1772527383239490600,10.496490478515625,-0.0025798510760068893,-0.017142023891210556,-0.008686293847858906
1772527383249488600,10.506488525390624,-0.0017273733392357826,-0.01632709614932537,-0.011829356662929058
1772527383259486700,10.51648681640625,-0.00038201548159122467,-0.014586633071303368,-0.01113074366003275
1772527383269484500,10.526484619140625,-0.0004627099260687828,-0.020893797278404236,-0.014020273461937904
1772527383279482600,10.536482666015624,-0.003888532519340515,-0.024547163397073746,-0.015287700109183788
