time,seconds_elapsed,z,y,x
1772565827151067100,0.076067138671875,-0.001645316369831562,-0.0008704029023647308,-0.00042800046503543854
1772565827161095000,0.086094970703125,-0.0016162735410034657,0.0006664125248789787,-0.0010351822711527348
1772565827171124000,0.0961240234375,0.0012681959196925163,0.0005753329023718834,-0.002098316326737404
1772565827181153000,0.106153076171875,-0.00011851638555526733,-0.0019191689789295197,0.003990320488810539
1772565827191181000,0.11618115234375,0.0001904098317027092,-0.0007556341588497162,0.0010158363729715347
1772565827201208800,0.126208740234375,-0.0003830576315522194,0.0016276761889457703,-0.0002442849799990654
1772565827211238000,0.13623779296875,-0.001045385841280222,-0.0007827505469322205,0.002729400061070919
1772565827221266000,0.146265869140625,-0.0018146135844290257,0.0014535309746861458,0.0008715270087122917
1772565827231295000,0.156294921875,0.001947101205587387,-0.00045409146696329117,-0.0005229036323726177
1772565827241323000,0.166322998046875,-0.0012174900621175766,-0.00023345090448856354,0.0012217899784445763
1772565827251351800,0.176351806640625,-0.00009017391130328178,0.0003828052431344986,0.0012777168303728104
1772565827261379800,0.1863798828125,0.00206028763204813,-0.0019134050235152245,0.0009689093567430973
1772565827271409200,0.1964091796875,0.0008176565170288086,0.00014468561857938766,0.002714079339057207
1772565827281437000,0.20643701171875,-0.00007245317101478577,-0.00012663938105106354,-0.0007366086356341839
1772565827291466000,0.216466064453125,0.001748349517583847,-0.002657441422343254,0.0008908486925065517
1772565827301493800,0.22649365234375,-0.0010288753546774387,0.0012866491451859474,0.0007369485683739185
1772565827311523000,0.236523193359375,-0.00021261628717184067,-0.0037171635776758194,-0.00184232322499156
1772565827321550800,0.24655078125,0.00028879381716251373,-0.0013211444020271301,0.0019946168176829815
1772565827331580000,0.256579833984375,0.0006957249715924263,-0.0009991684928536415,-0.0003633457235991955
1772565827341608000,0.26660791015625,0.0003272993490099907,0.001591995358467102,-0.0006219898350536823
1772565827351637000,0.276636962890625,0.0007946845144033432,0.001712637022137642,-0.00012238090857863426
1772565827361665000,0.2866650390625,0.000912313349545002,-0.00012180022895336151,0.00046528782695531845
1772565827371693800,0.29669384765625,-0.0006930404342710972,0.0016787629574537277,-0.0011640340089797974
1772565827381721900,0.306721923828125,-0.0001382078044116497,0.0008109463378787041,-0.0016373605467379093
1772565827391751200,0.316751220703125,0.002125212922692299,-0.001367785967886448,-0.0002676970325410366
1772565827401779000,0.326779052734375,0.002399822697043419,0.0006367648020386696,-0.000670301727950573
1772565827411808000,0.33680810546875,-0.0004630754701793194,0.0013994937762618065,-0.00017442135140299797
1772565827421835800,0.346835693359375,-0.00098351389169693,-0.0006938483566045761,0.0033061550930142403
1772565827431865000,0.356864990234375,0.00009293574839830399,0.00046249572187662125,-0.001983415801078081
1772565827441892900,0.366892822265625,-0.0011204802431166172,-0.0007246201857924461,-0.000581938773393631
1772565827451922000,0.376921875,0.0004089735448360443,0.0031004780903458595,0.0004945108667016029
1772565827461950000,0.386949951171875,-0.000037043821066617966,0.003590088337659836,-0.000693062786012888
1772565827471979000,0.39697900390625,-0.0006780670955777168,0.0011740690097212791,0.0019511901773512363
1772565827482007000,0.407007080078125,0.00011694710701704025,0.00011161528527736664,0.0009944629855453968
1772565827492035800,0.417035888671875,-0.00009184470400214195,-0.000023140572011470795,-0.0028071999549865723
1772565827502063900,0.42706396484375,-0.0034263147972524166,0.0011326456442475319,0.00114098796620965
1772565827512093000,0.437093017578125,-0.00007659103721380234,0.0005392925813794136,-0.0006747557781636715
1772565827522121000,0.447120849609375,0.0014680689200758934,-0.0004115533083677292,-0.0005493033677339554
1772565827532150300,0.457150390625,0.0006105303764343262,0.0006646299734711647,-0.00016287900507450104
1772565827542178300,0.46717822265625,0.0006725070998072624,-0.0009333379566669464,0.000948956236243248
1772565827552207400,0.477207275390625,-0.0010731951333582401,0.00026481784880161285,0.0011300519108772278
1772565827562235400,0.4872353515625,-0.0012213271111249924,0.00160242710262537,0.002241065725684166
1772565827572264400,0.497264404296875,-0.0017646122723817825,-0.00022716447710990906,-0.000060171354562044144
1772565827582292200,0.507292236328125,-0.00197597686201334,-0.0011218180879950523,-0.00025449134409427643
1772565827592321300,0.5173212890625,-0.0006979256868362427,0.0009578438475728035,-0.002446539234369993
1772565827602349300,0.527349365234375,0.001471252180635929,0.003295774571597576,-0.00010184384882450104
1772565827612377300,0.53737744140625,0.0009055966511368752,-0.0007868511602282524,-0.0007407362572848797
1772565827622406100,0.54740625,-0.0010032709687948227,0.0010454561561346054,-0.00036136433482170105
1772565827632434400,0.557434326171875,-0.0009217783808708191,-0.0011740224435925484,-0.0006367354653775692
1772565827642463500,0.56746337890625,0.0013984199613332748,0.0009211907163262367,0.0003298884257674217
1772565827652491300,0.5774912109375,0.00061784777790308,-0.0002716388553380966,0.0022766590118408203
1772565827662520300,0.587520263671875,-0.00020385393872857094,0.0010558906942605972,0.0024588769301772118
1772565827672548400,0.59754833984375,0.0006845761090517044,-0.0019979560747742653,-0.0025939387269318104
1772565827682577400,0.607577392578125,0.00025962386280298233,-0.0014996910467743874,-0.0005719535984098911
1772565827692605200,0.617605224609375,-0.0006692865863442421,-0.0018216678872704506,0.0008914531208574772
1772565827702634200,0.62763427734375,-0.0006338353268802166,0.00027617812156677246,-0.0001781298778951168
1772565827712662500,0.63766259765625,0.0008375616744160652,0.000387764535844326,-0.0015605767257511616
1772565827722691300,0.64769140625,-0.0002920576371252537,0.00021446868777275085,-0.0009195380844175816
1772565827732719400,0.65771923828125,-0.000757311936467886,-0.0005748923867940903,0.00018327683210372925
1772565827742748200,0.667748046875,0.0008931811898946762,-0.000481652095913887,0.0010372954420745373
1772565827752776400,0.6777763671875,-0.0009284215047955513,-0.00029629655182361603,0.0003928099758923054
1772565827762805500,0.687805419921875,0.002279900945723057,0.0022828364744782448,0.001585101243108511
1772565827772833300,0.697833251953125,-0.0003427802585065365,-0.0001659393310546875,0.0024596829898655415
1772565827782862300,0.7078623046875,0.00007423479110002518,0.0004287753254175186,-0.0016105757094919682
1772565827792890400,0.717890380859375,-0.0015476299449801445,0.0013771271333098412,-0.00048512406647205353
1772565827802919400,0.72791943359375,-0.0013274853117763996,0.002249455079436302,-0.0000012260861694812775
1772565827812947200,0.737947265625,-0.0008188216015696526,-0.0013266373425722122,0.00019691325724124908
1772565827822976300,0.747976318359375,0.00006038695573806763,-0.0007581301033496857,0.0010864520445466042
1772565827833004500,0.758004638671875,-0.00011298526078462601,-0.0003338884562253952,0.003425505943596363
1772565827843033300,0.768033447265625,0.001574154943227768,0.0002009822055697441,0.0000022565945982933044
1772565827853061400,0.778061279296875,0.0039765918627381325,0.0009962022304534912,0.0014760494232177734
1772565827863090200,0.788090087890625,-0.00025486061349511147,0.001113206148147583,0.0005355211906135082
1772565827873118500,0.798118408203125,-0.0011688577942550182,-0.0010088002309203148,0.002008249517530203
1772565827883147300,0.808147216796875,0.0022023608908057213,0.0010961592197418213,0.00018854578956961632
1772565827893175300,0.81817529296875,0.000022563152015209198,0.0029009832069277763,0.00048815179616212845
1772565827903204400,0.828204345703125,0.00031859613955020905,0.00012721866369247437,-0.00022294744849205017
1772565827913232400,0.838232421875,0.0010365843772888184,0.002291569486260414,-0.00003812415525317192
1772565827923261400,0.848261474609375,-0.0019001234322786331,-0.001353466883301735,-0.0012182267382740974
1772565827933289200,0.858289306640625,-0.0004356512799859047,0.0004305848851799965,-0.001571095548570156
1772565827943318300,0.868318359375,-0.00015054410323500633,0.0007186923176050186,-0.0002640075981616974
1772565827953346300,0.87834619140625,-0.001526066567748785,0.0013474645093083382,-0.0019239559769630432
1772565827963375400,0.888375244140625,-0.0018325354903936386,-0.0006010802462697029,0.000019409693777561188
1772565827973403400,0.8984033203125,-0.0007390417158603668,-0.0006727194413542747,0.0010844077914953232
1772565827983432200,0.90843212890625,0.002183196134865284,0.002156360074877739,-0.0000612335279583931
1772565827993460500,0.91846044921875,0.00028888974338769913,0.001128646545112133,0.0010418472811579704
1772565828003489300,0.9284892578125,-0.000015514902770519257,-0.0019107721745967865,-0.0011620307341217995
1772565828013517300,0.938517333984375,-0.00041152723133563995,0.0006067138165235519,0.0013642432168126106
1772565828023545300,0.94854541015625,-0.0006833351217210293,-0.0011838143691420555,0.0020913132466375828
1772565828033574400,0.958574462890625,0.001029876060783863,-0.00015769898891448975,0.00044334912672638893
1772565828043602400,0.9686025390625,0.001583881676197052,-0.00042361579835414886,0.001291145570576191
1772565828053631200,0.97863134765625,0.0005907891318202019,0.00047972891479730606,-0.00027878768742084503
1772565828063659500,0.988659423828125,0.0012921122834086418,-0.0005748970434069633,-0.0004179030656814575
1772565828073688300,0.998688232421875,-0.0005630454979836941,0.0005537504330277443,0.0013040974736213684
1772565828083716400,1.00871630859375,-0.0000365222804248333,-0.0027415500953793526,-0.00029890891164541245
1772565828093745400,1.018745361328125,-0.0003297366201877594,0.0004318729043006897,0.0018390771001577377
1772565828103773400,1.0287734375,-0.000658511184155941,-0.0005798563361167908,-0.0006200135685503483
1772565828113802500,1.038802490234375,-0.0013147140853106976,-0.0005159405991435051,0.0008593727834522724
1772565828123830300,1.048830322265625,0.0006270697340369225,0.0017892802134156227,0.0024529597721993923
1772565828133859300,1.058859375,0.0012779459357261658,0.0003517055884003639,0.00250009773299098
1772565828143887400,1.068887451171875,-0.002180820796638727,-0.00013351906090974808,-0.002353041898459196
1772565828153916400,1.07891650390625,0.0007571782916784286,-0.00021874066442251205,-0.0015860511921346188
1772565828163944200,1.088944091796875,0.0018259380012750626,0.0011290712282061577,-0.0006879554130136967
1772565828173973200,1.09897314453125,-0.00024546869099140167,-0.00017135031521320343,0.0012851809151470661
1772565828184001500,1.10900146484375,-0.0017207530327141285,-0.002804948017001152,0.002827680204063654
1772565828194030300,1.1190302734375,0.0012097898870706558,0.00008085370063781738,-0.002304763998836279
1772565828204058400,1.129058349609375,0.0005988581106066704,0.00010938476771116257,0.0002670539543032646
1772565828214087200,1.139087158203125,-0.0015633618459105492,-0.0005484167486429214,0.0016447072848677635
1772565828224115500,1.149115478515625,0.00031956005841493607,0.003247639164328575,-0.0005583465099334717
1772565828234144500,1.15914453125,-0.0008873846381902695,-0.0008887825533747673,0.0028385156765580177
1772565828244172300,1.16917236328125,0.001233840361237526,0.0009613353759050369,0.002340464387089014
1772565828254201300,1.179201416015625,0.001775527372956276,-0.0005723787471652031,-0.001350942999124527
1772565828264229400,1.1892294921875,-0.0007606889121234417,0.00046318210661411285,-0.0004881317727267742
1772565828274258400,1.199258544921875,-0.001749787013977766,-0.0020335307344794273,0.00021121418103575706
1772565828284286200,1.2092861328125,-0.0008882987312972546,-0.002504117786884308,-0.0011989343911409378
1772565828294315300,1.219315185546875,0.0001255664974451065,-0.0007440345361828804,0.0007057581096887589
1772565828304343600,1.229343505859375,-0.0012744013220071793,0.002535361796617508,-0.00021447427570819855
1772565828314372400,1.239372314453125,-0.002359106671065092,0.0005374578759074211,-0.002751667983829975
1772565828324400400,1.249400390625,0.0008904691785573959,0.0015854807570576668,-0.0008688061498105526
1772565828334429200,1.25942919921875,0.0005924608558416367,-0.00016288459300994873,0.001106194220483303
1772565828344457500,1.26945751953125,0.00044490210711956024,-0.0008596526458859444,-0.00047946861013770103
1772565828354486500,1.279486572265625,-0.0014307624660432339,-0.0015779072418808937,-0.00037880102172493935
1772565828364514300,1.289514404296875,-0.00025553395971655846,-0.00029745884239673615,-0.0004908256232738495
1772565828374542600,1.29954248046875,0.0013255844824016094,-0.003900716081261635,0.0018391739577054977
1772565828384571400,1.3095712890625,0.001267263200134039,-0.00017892848700284958,0.00020084530115127563
1772565828394599400,1.319599365234375,0.001991110388189554,-0.0007389914244413376,-0.0010612267069518566
1772565828404628200,1.329628173828125,0.0006591221317648888,0.0014548888429999352,-0.0013993657194077969
1772565828414656500,1.339656494140625,0.0012820353731513023,-0.002740655094385147,0.0003769625909626484
1772565828424685300,1.349685302734375,0.0004047378897666931,-0.0007228152826428413,-0.0004913834854960442
1772565828434713300,1.35971337890625,-0.0005798330530524254,-0.000049835070967674255,0.002341687213629484
1772565828444742400,1.369742431640625,0.0018639229238033295,0.001316913403570652,0.0012087756767868996
1772565828454770400,1.3797705078125,0.0011904090642929077,-0.0025025922805070877,0.001330481842160225
1772565828464799500,1.389799560546875,0.000658450648188591,0.0003796573728322983,-0.00017732009291648865
1772565828474827300,1.3998271484375,-0.0013189460150897503,0.0020545190200209618,-0.0026636472903192043
1772565828484856300,1.409856201171875,-0.0012464039027690887,0.0010772449895739555,-0.0018064719624817371
1772565828494884400,1.41988427734375,0.0008441777899861336,0.0013941610231995583,-0.0008559897541999817
1772565828504913400,1.429913330078125,0.0003950963728129864,0.0001917695626616478,0.001119317952543497
1772565828514941400,1.43994140625,0.00021799607202410698,0.0009856577962636948,-0.0016897842288017273
1772565828524970500,1.449970458984375,-0.0019554905593395233,-0.0026947660371661186,0.0006295242346823215
1772565828534998500,1.45999853515625,0.0007372316904366016,0.0006781267002224922,0.0006284588016569614
1772565828545027600,1.470027587890625,-0.00003787362948060036,-0.00007839035242795944,0.0008270666003227234
1772565828555055400,1.480055419921875,-0.00019846251234412193,0.0026422953233122826,-0.0008515235967934132
1772565828565084400,1.49008447265625,0.00027700792998075485,0.00008432101458311081,-0.001611389685422182
1772565828575112700,1.50011279296875,-0.0015853405930101871,-0.0018073217943310738,-0.0012292256578803062
1772565828585141500,1.5101416015625,-0.0009968462400138378,-0.000655757263302803,0.0030913022346794605
1772565828595169500,1.52016943359375,-0.00022772513329982758,-0.0008791964501142502,-0.0009489795193076134
1772565828605198300,1.5301982421875,-0.0004124878905713558,0.0011575715616345406,-0.0003968724049627781
1772565828615226600,1.5402265625,-0.00011634454131126404,0.0001327870413661003,-0.00023575080558657646
1772565828625255700,1.550255615234375,-0.00007968302816152573,0.003764854744076729,-0.0008682734332978725
1772565828635283500,1.560283447265625,-0.0011766394600272179,-0.0008264351636171341,-0.0008381800726056099
1772565828645312500,1.5703125,-0.00048035942018032074,-0.0005943570286035538,0.004304659087210894
1772565828655340500,1.580340576171875,-0.00026544230058789253,0.0004999367520213127,0.0027184798382222652
1772565828665369600,1.59036962890625,0.0012645428068935871,-0.002499186433851719,-0.0007586809806525707
1772565828675397400,1.6003974609375,-0.0012159249745309353,-0.0005681291222572327,-0.0016263388097286224
1772565828685426400,1.610426513671875,-0.0010220231488347054,0.0019331537187099457,-0.002329872455447912
1772565828695454700,1.620454833984375,0.0018954696133732796,-0.00004930328577756882,-0.002135728020220995
1772565828705482500,1.630482421875,0.0012993086129426956,0.00018071848899126053,0.002229255624115467
1772565828715511600,1.640511474609375,0.00028544291853904724,-0.0012616496533155441,0.0014159269630908966
1772565828725539300,1.650539306640625,-0.0006621773354709148,0.0014368463307619095,-0.0006776223890483379
1772565828735568600,1.660568603515625,-0.0011735041625797749,0.000163322314620018,0.0010073594748973846
1772565828745596400,1.670596435546875,-0.0013141711242496967,-0.0007276898249983788,-0.002718423493206501
1772565828755625500,1.68062548828125,0.0021836250089108944,0.0009607542306184769,-0.00119376415386796
1772565828765653200,1.6906533203125,0.0008651711978018284,0.002243504859507084,-0.000020172912627458572
1772565828775682600,1.7006826171875,-0.0008232733234763145,0.00003441236913204193,0.0010757176205515862
1772565828785710600,1.710710693359375,-0.0004789354279637337,-0.00170170608907938,-0.00037441495805978775
1772565828795739400,1.720739501953125,-0.001172688789665699,0.0021590786054730415,-0.0012599159963428974
1772565828805767400,1.730767333984375,-0.002657869830727577,-0.00292948167771101,0.0010348958894610405
1772565828815796500,1.74079638671875,-0.0019356203265488148,-0.0006175907328724861,-0.000917467288672924
1772565828825824500,1.750824462890625,0.0001644589938223362,0.0008284533396363258,0.00043105054646730423
1772565828835853600,1.760853515625,-0.00046617724001407623,0.0008830474689602852,-0.001307993195950985
1772565828845881300,1.77088134765625,0.0009305570274591446,0.0018457015976309776,0.0007470711134374142
1772565828855910700,1.78091064453125,0.000020555220544338226,-0.001048089936375618,0.00033215107396245003
1772565828865938400,1.7909384765625,0.0004849191755056381,0.0020574266090989113,-0.0008075791411101818
1772565828875967500,1.800967529296875,0.0010577654466032982,0.000792425125837326,0.0010363939218223095
1772565828885995300,1.810995361328125,0.0018663541413843632,-0.00010022241622209549,0.0011745481751859188
1772565828896024600,1.821024658203125,0.00034275976940989494,-0.0015878640115261078,-0.0031674699857831
1772565828906052600,1.831052490234375,-0.0017407252453267574,0.0009301472455263138,-0.0014061867259442806
1772565828916081400,1.841081298828125,0.00005797389894723892,0.0004925904795527458,-0.0016799597069621086
1772565828926109400,1.851109375,-0.00005202135071158409,0.0010156622156500816,-0.00029502250254154205
1772565828936138500,1.861138427734375,0.0010806210339069366,-0.0007958197966217995,0.0012085982598364353
1772565828946166500,1.87116650390625,0.0002771788276731968,0.002228405326604843,0.0001674615778028965
1772565828956195600,1.881195556640625,-0.003033130895346403,0.002902984619140625,-0.0017758472822606564
1772565828966223400,1.891223388671875,-0.001485409215092659,-0.0006885910406708717,0.0015572085976600647
1772565828976252700,1.901252685546875,-0.000143442302942276,0.004066748544573784,-0.0006987550295889378
1772565828986280400,1.911280517578125,-0.0009234468452632427,0.0004469333216547966,-0.0005025151185691357
1772565828996309500,1.9213095703125,-0.000015574973076581955,0.0003848811611533165,-0.0000436524860560894
1772565829006337300,1.931337158203125,0.0008699847385287285,0.0014782370999455452,-0.00023202132433652878
1772565829016366600,1.94136669921875,-0.001123923808336258,-0.0003148689866065979,0.0009877067059278488
1772565829026394400,1.951394287109375,-0.0028683957643806934,0.00101364403963089,-0.0009811935015022755
1772565829036423400,1.96142333984375,0.000729268416762352,-0.000586116686463356,0.0001852712593972683
1772565829046451500,1.971451416015625,0.0011270120739936829,-0.0017052730545401573,-0.00010342290624976158
1772565829056480500,1.98148046875,0.001585608348250389,0.000012998469173908234,0.0009914026595652103
1772565829066508500,1.991508544921875,-0.0017873127944767475,-0.0009590014815330505,-0.0026764636859297752
1772565829076537300,2.001537353515625,-0.0004237741231918335,0.00031851697713136673,-0.0006753643974661827
1772565829086565400,2.0115654296875,0.001779997255653143,-0.000316837802529335,0.0007533468306064606
1772565829096593400,2.021593505859375,-0.000318839680403471,-0.000353056937456131,0.002289990894496441
1772565829106622500,2.03162255859375,-0.0019632517360150814,0.0003856634721159935,-0.000247846357524395
1772565829116650500,2.041650390625,0.0012415959499776363,0.0012274887412786484,0.002771113533526659
1772565829126679300,2.05167919921875,0.0013413126580417156,-0.0015976261347532272,0.0000781114213168621
1772565829136707600,2.06170751953125,-0.0004195692017674446,-0.0009773755446076393,-0.00009499397128820419
1772565829146736400,2.071736328125,0.002370135858654976,-0.0012092655524611473,0.0014514247886836529
1772565829156764400,2.081764404296875,-0.0009329831227660179,-0.0023666750639677048,0.0016208016313612461
1772565829166793500,2.09179345703125,0.000019235536456108093,0.00036094896495342255,-0.0005410211160778999
1772565829176821500,2.101821533203125,0.00028235604986548424,0.0020203646272420883,-0.001332778949290514
1772565829186850600,2.1118505859375,0.000031251925975084305,-0.000987999141216278,0.00017516547814011574
1772565829196878300,2.12187841796875,0.002188944723457098,0.0022237729281187057,-0.0005966187454760075
1772565829206907400,2.131907470703125,-0.0016633868217468262,-0.0000296933576464653,0.0010309219360351562
1772565829216935400,2.141935302734375,-0.0008756238967180252,0.0007894942536950111,0.0013952422887086868
1772565829226964500,2.151964599609375,-0.0004398440942168236,-0.0005275234580039978,-0.0006782016716897488
1772565829236992500,2.161992431640625,0.0011295564472675323,0.0008962024003267288,0.0006070397794246674
1772565829247021300,2.172021240234375,-0.0004298859275877476,-0.0011256327852606773,0.001111095305532217
1772565829257049600,2.182049560546875,0.00012405123561620712,0.001975085586309433,0.00341552821919322
1772565829267078400,2.192078369140625,0.002440032083541155,0.002327033318579197,0.003136828076094389
1772565829277106400,2.2021064453125,0.0020386935211718082,0.00023458711802959442,-0.0020856312476098537
1772565829287135500,2.212135498046875,-0.0006868261843919754,0.0004506036639213562,0.0011162091977894306
1772565829297163500,2.22216357421875,-0.002685795072466135,-0.0004548709839582443,0.000837376806885004
1772565829307192600,2.232192626953125,0.001974168699234724,0.00214584544301033,0.0004411879926919937
1772565829317220400,2.242220458984375,0.0009627002291381359,0.0007591377943754196,-0.0006720134988427162
1772565829327249400,2.25224951171875,-0.00242397328838706,-0.0021316418424248695,-0.00007876381278038025
1772565829337277400,2.26227734375,-0.0004377877339720726,0.003991764970123768,0.0013319128192961216
1772565829347306500,2.272306396484375,-0.002148077357560396,-0.0001135868951678276,0.00013790512457489967
1772565829357334300,2.282334228515625,0.0021025943569839,-0.0018880516290664673,-0.00205653952434659
1772565829367363300,2.29236328125,-0.0014162175357341766,-0.0005200505256652832,-0.001731114462018013
1772565829377391600,2.3023916015625,0.0011848919093608856,-0.00042470917105674744,0.002473217900842428
1772565829387420400,2.31242041015625,0.0003904001787304878,0.001642194576561451,0.0004891869612038136
1772565829397448400,2.322448486328125,-0.0003528883680701256,-0.0014659808948636055,0.002304397989064455
1772565829407477500,2.3324775390625,0.00037676887586712837,-0.0003268793225288391,-0.0028799185529351234
1772565829417505500,2.342505615234375,-0.0012874407693743706,0.001226808875799179,-0.0015952098183333874
1772565829427534600,2.35253466796875,0.003039929084479809,0.0009133284911513329,0.000030485913157463074
1772565829437562400,2.362562255859375,-0.0018472378142178059,-0.0009213229641318321,-0.00008962256833910942
1772565829447590700,2.372590576171875,0.0009525553323328495,0.0014521991834044456,0.00012590410187840462
1772565829457619500,2.382619384765625,-0.000029618851840496063,-0.00176995899528265,0.0005607982166111469
1772565829467647500,2.3926474609375,-0.000048494432121515274,0.00027966778725385666,-0.00035039475187659264
1772565829477676300,2.40267626953125,-0.0018064472824335098,-0.0009887954220175743,-0.0011690505780279636
1772565829487704600,2.41270458984375,0.0001349891535937786,0.0011286605149507523,0.0002595018595457077
1772565829497733600,2.422733642578125,0.00029717525467276573,0.00021333154290914536,-0.001359433401376009
1772565829507761400,2.432761474609375,-0.0008226623758673668,0.0016681551933288574,-0.001175777055323124
1772565829517790500,2.44279052734375,-0.0002934923395514488,0.000708351843059063,-0.0007065283134579659
1772565829527817700,2.452817626953125,-0.0010382425971329212,-0.00023200269788503647,0.0008453154005110264
1772565829537846500,2.462846435546875,-0.0017911181785166264,-0.0017553307116031647,-0.003935591317713261
1772565829547874800,2.472874755859375,-0.00023212376981973648,-0.0012524109333753586,-0.001033711712807417
1772565829557903600,2.482903564453125,0.0007692249491810799,0.0010381732136011124,-0.00027950434014201164
1772565829567931600,2.492931640625,0.0015947092324495316,0.0033436715602874756,-0.0008406294509768486
1772565829577960400,2.50296044921875,0.001102023757994175,0.00325019471347332,0.0012661968357861042
1772565829587988700,2.51298876953125,0.000022207852452993393,0.0024615172296762466,-0.0009817993268370628
1772565829598017800,2.523017822265625,0.00011062482371926308,0.0004827883094549179,0.00019318750128149986
1772565829608045600,2.533045654296875,0.0028679589740931988,-0.0005715508013963699,0.0005667004734277725
1772565829618074600,2.54307470703125,-0.0013432973064482212,-0.0007569072768092155,0.00037468690425157547
1772565829628102700,2.5531025390625,-0.00006350548937916756,0.0013169944286346436,-0.00027662841603159904
1772565829638131700,2.563131591796875,0.0015895189717411995,0.002601170912384987,-0.0016231229528784752
1772565829648159500,2.573159423828125,-0.0012711463496088982,0.0015889862552285194,0.0019989432767033577
1772565829658188500,2.5831884765625,-0.0008791289292275906,0.0007713958621025085,-0.0009704809635877609
1772565829668216800,2.593216796875,0.0020740902982652187,-0.0006126407533884048,-0.0005798833444714546
1772565829678245600,2.60324560546875,-0.0005003875121474266,0.0008654138073325157,-0.0011727032251656055
1772565829688273700,2.613273681640625,0.0006263856776058674,-0.0006516231223940849,-0.0005682888440787792
1772565829698302500,2.623302490234375,0.000007733702659606934,-0.0007525570690631866,-0.0017198394052684307
1772565829708330800,2.633330810546875,-0.00001919688656926155,-0.0012174127623438835,0.0010363664478063583
1772565829718359800,2.64335986328125,0.0012804255820810795,-0.0020136982202529907,-0.00004514353349804878
1772565829728387600,2.6533876953125,-0.0005558226257562637,0.0009407820180058479,0.0006127692759037018
1772565829738416600,2.663416748046875,0.0014189109206199646,0.003359731286764145,0.0012487322092056274
1772565829748444700,2.673444580078125,-0.0006143692880868912,-0.0007932474836707115,0.0005525895394384861
1772565829758473700,2.6834736328125,-0.0017677843570709229,0.0005718888714909554,0.0030314591713249683
1772565829768501500,2.69350146484375,-0.00043886760249733925,0.000009560026228427887,0.0017663943581283092
1772565829778529500,2.703529541015625,0.0007230699993669987,0.0015491340309381485,-0.0004751887172460556
1772565829788558800,2.713558837890625,0.0010323626920580864,0.0007477123290300369,0.003498448058962822
1772565829798586600,2.723586669921875,-0.000422788318246603,-0.0023620612919330597,-0.004774661734700203
1772565829808615700,2.73361572265625,-0.0006179884076118469,0.00004234910011291504,0.00021429499611258507
1772565829818643500,2.7436435546875,-0.00023635756224393845,0.0013257265090942383,0.0007895375601947308
1772565829828672800,2.7536728515625,-0.0016519036144018173,-0.0020971400663256645,-0.0012800907716155052
1772565829838700500,2.763700439453125,0.00150660565122962,0.0002621542662382126,0.0007790657691657543
1772565829848729600,2.7737294921875,-0.0013163313269615173,0.0007835542783141136,0.0004275217652320862
1772565829858757400,2.78375732421875,0.0018368507735431194,0.00014652684330940247,0.0009913137182593346
1772565829868786700,2.79378662109375,0.0008826791308820248,-0.003024342469871044,-0.002221527975052595
1772565829878814700,2.803814697265625,-0.000606028363108635,0.000062527135014534,0.0009891795925796032
1772565829888843500,2.813843505859375,-0.001216641627252102,-0.00032023806124925613,-0.003238643053919077
1772565829898871600,2.82387158203125,0.0008007031865417957,-0.00032529793679714203,-0.0003477819263935089
1772565829908900600,2.833900634765625,-0.0018179635517299175,0.0020347200334072113,-0.00036715390160679817
1772565829918928600,2.8439287109375,-0.0012206165120005608,-0.000633501447737217,-0.0011948640458285809
1772565829928957700,2.853957763671875,0.001961507834494114,0.0002445084974169731,-0.0013176938518881798
1772565829938985500,2.8639853515625,-0.001481959130614996,-0.0013592466711997986,0.0007491856813430786
1772565829949014800,2.874014892578125,-0.0007716789841651917,0.00011474359780550003,-0.0010551083832979202
1772565829959042600,2.88404248046875,0.0010517877526581287,0.0009970488026738167,-0.0007147560827434063
1772565829969071600,2.894071533203125,-0.0005777184851467609,-0.0012978846207261086,0.00045716995373368263
1772565829979099400,2.904099365234375,-0.00023736665025353432,0.000715998001396656,-0.00015189498662948608
1772565829989128700,2.914128662109375,0.002667240798473358,-0.0024680225178599358,0.0029113171622157097
1772565829999156700,2.92415673828125,-0.0001423945650458336,-0.0007159290835261345,0.00020101852715015411
1772565830009185500,2.934185546875,0.0013829758390784264,-0.001034916378557682,-0.0005583502352237701
1772565830019213600,2.944213623046875,-0.0013430356048047543,0.0011230427771806717,0.0012544631026685238
1772565830029242600,2.95424267578125,0.0009377337992191315,0.0018992628902196884,-0.0012858966365456581
1772565830039270700,2.964270751953125,-0.0014982600696384907,0.00031414907425642014,0.00026139989495277405
1772565830049299700,2.9742998046875,0.0008315769955515862,-0.0011636987328529358,0.0025741765275597572
1772565830059327500,2.984327392578125,-0.0006549996323883533,0.0006778771057724953,0.0006079645827412605
1772565830069355800,2.994355712890625,0.0011290875263512135,0.0009804172441363335,-0.00036261510103940964
1772565830079384600,3.004384521484375,0.0033365809358656406,0.00001981481909751892,0.0009386050514876842
1772565830089412600,3.01441259765625,-0.001822570338845253,-0.0012746816501021385,0.0006305007264018059
1772565830099441400,3.02444140625,-0.00008059665560722351,-0.00014576781541109085,0.003036933019757271
1772565830109469700,3.0344697265625,-0.0005629332736134529,0.0014487989246845245,-0.0006448798812925816
1772565830119498500,3.04449853515625,0.0005364194512367249,-0.0004889173433184624,0.0031290859915316105
1772565830129526500,3.054526611328125,0.00004249531775712967,0.000913999043405056,0.0007877354510128498
1772565830139555600,3.0645556640625,-0.0009524617344141006,0.002182994969189167,-0.0006453110836446285
1772565830149583600,3.07458349609375,0.0013531194999814034,0.0030773254111409187,0.00133541040122509
1772565830159612700,3.08461279296875,-0.0007712836377322674,0.0010951347649097443,-0.0006055012345314026
1772565830169640400,3.094640380859375,0.0018933303654193878,0.00018970761448144913,-0.002677544020116329
1772565830179669500,3.10466943359375,0.0017995871603488922,0.001049376092851162,0.00018908223137259483
1772565830189697500,3.114697509765625,0.0022978652268648148,-0.0010966304689645767,0.00024651549756526947
1772565830199726600,3.1247265625,0.0016642985865473747,-0.0016910480335354805,0.002093684859573841
1772565830209754600,3.134754638671875,-0.000027406495064496994,0.0018589487299323082,0.00027241092175245285
1772565830219783400,3.144783447265625,-0.0004953239113092422,-0.0029387352988123894,0.0011842772364616394
1772565830229811700,3.154811767578125,-0.0010288599878549576,-0.001572425477206707,-0.0005480828694999218
1772565830239840500,3.164840576171875,-0.0012813275679945946,-0.0006392532959580421,0.000815988052636385
1772565830249868500,3.17486865234375,0.00043219979852437973,0.0008604377508163452,0.00009343819692730904
1772565830259897600,3.184897705078125,-0.001759049016982317,0.0018564602360129356,-0.0005220184102654457
1772565830269925600,3.194925537109375,-0.0011432929895818233,0.0007503693923354149,-0.002970748580992222
1772565830279954700,3.20495458984375,0.0010181288234889507,-0.0008893385529518127,0.00023143645375967026
1772565830289982500,3.214982421875,0.0006499630399048328,0.00039809755980968475,-0.0004702531732618809
1772565830300011500,3.225011474609375,0.00038018496707081795,0.0008393833413720131,-0.0038250370416790247
1772565830310039600,3.23503955078125,0.0002810359001159668,0.0001836046576499939,-0.0014226757921278477
1772565830320068600,3.245068603515625,0.0014043571427464485,-0.0002685999497771263,-0.0028248298913240433
1772565830330096600,3.2550966796875,-0.0007523861713707447,0.0000820159912109375,0.0007118252106010914
1772565830340125400,3.26512548828125,0.0008345912210643291,0.0006047943606972694,0.0016162353567779064
1772565830350153700,3.27515380859375,-0.0006404602900147438,-0.0015585524961352348,-0.0007754135876893997
1772565830360182500,3.2851826171875,0.001054908148944378,0.0022345874458551407,-0.0009080390445888042
1772565830370210600,3.29521044921875,0.0018765861168503761,-0.0008516553789377213,0.00199560122564435
1772565830380238600,3.305238525390625,-0.00125981867313385,0.0015385318547487259,-0.0003823358565568924
1772565830390267600,3.315267578125,-0.00013362523168325424,-0.0013729557394981384,-0.0007913769222795963
1772565830400295400,3.32529541015625,-0.002858571708202362,0.0006470521911978722,0.0023130704648792744
1772565830410324500,3.335324462890625,0.0009445636533200741,-0.0005901511758565903,-0.0034798337146639824
1772565830420352800,3.345352783203125,0.0006438926793634892,-0.0024048294872045517,-0.0010089529678225517
1772565830430381600,3.355381591796875,-0.0006570257246494293,-0.0017321528866887093,0.0013942448422312737
1772565830440409600,3.36540966796875,-0.0015206891112029552,0.0011547133326530457,-0.001088087446987629
1772565830450438400,3.3754384765625,0.000838342122733593,0.0003408137708902359,-0.004739220254123211
1772565830460466700,3.385466796875,0.00002980697900056839,0.0006561316549777985,0.0002350318245589733
1772565830470495700,3.395495849609375,-0.0006273416802287102,-0.0013497667387127876,0.001284053549170494
1772565830480523500,3.4055234375,-0.0010915305465459824,0.0014843698590993881,-0.001080034300684929
1772565830490552600,3.415552490234375,0.0024817646481096745,-0.001382049173116684,0.0006223791278898716
1772565830500580600,3.42558056640625,-0.0012072455137968063,0.0010699238628149033,0.0006926865316927433
1772565830510609700,3.435609619140625,0.00016342662274837494,0.0027069617062807083,-0.00011411122977733612
1772565830520637400,3.445637451171875,0.001981566660106182,0.000394538976252079,0.0013943030498921871
1772565830530666500,3.45566650390625,-0.00018617697060108185,0.0004164883866906166,-0.000683036632835865
1772565830540694800,3.46569482421875,0.001738223247230053,0.0014101136475801468,-0.0008148630149662495
1772565830550723800,3.475723876953125,0.0006207465194165707,0.001018214039504528,0.0011370549909770489
1772565830560751600,3.485751708984375,0.0009363307617604733,-0.001070236787199974,-0.0011324910447001457
1772565830570780700,3.49578076171875,0.0004478241316974163,-0.0003715064376592636,-0.0002557113766670227
1772565830580808700,3.50580859375,0.00048191333189606667,-0.0011962875723838806,0.00037918658927083015
1772565830590837800,3.515837646484375,-0.000561421737074852,0.002032846212387085,-0.0012237988412380219
1772565830600865500,3.525865478515625,-0.00015342561528086662,0.00013161543756723404,-0.0016805310733616352
1772565830610894600,3.53589453125,-0.0012058927677571774,-0.002333465963602066,0.0016342997550964355
1772565830620923000,3.5459228515625,0.001363525167107582,0.0006884224712848663,0.0017125969752669334
1772565830630950700,3.55595068359375,-0.0025003794580698013,-0.0005178656429052353,-0.0016701063141226768
1772565830640979700,3.565979736328125,-0.0005402932874858379,-0.00006725918501615524,-0.00008392753079533577
1772565830651007700,3.5760078125,-0.0006012036465108395,0.0011594826355576515,0.0006985589861869812
1772565830661036800,3.586036865234375,-0.0010736486874520779,0.0010162051767110825,0.000949428416788578
1772565830671064600,3.596064697265625,0.0004210718907415867,0.0018023625016212463,0.002744977828115225
1772565830681093600,3.60609375,-0.00037015276029706,-0.0015345783904194832,0.0023883809335529804
1772565830691121700,3.61612158203125,-0.0003869440406560898,0.0025975238531827927,0.00021691061556339264
1772565830701150700,3.626150634765625,-0.00009745825082063675,0.000710940919816494,0.00146486796438694
1772565830711178800,3.6361787109375,0.002937429118901491,-0.0007998328655958176,-0.0012937691062688828
1772565830721207600,3.64620751953125,-0.00019071996212005615,-0.0018914621323347092,-0.00020719971507787704
1772565830731235800,3.65623583984375,0.0011868071742355824,-0.0007703211158514023,-0.0018762294203042984
1772565830741264600,3.6662646484375,0.0016541923396289349,-0.0030095065012574196,0.0013435324653983116
1772565830751292700,3.676292724609375,0.0008019972592592239,-0.0005626939237117767,0.002152043394744396
1772565830761321700,3.68632177734375,-0.000612141564488411,-0.00009184703230857849,0.00106121227145195
1772565830771349800,3.696349853515625,-0.0007531181909143925,0.0013629114255309105,-0.00033348705619573593
1772565830781378800,3.70637890625,0.0011268071830272675,-0.0001684064045548439,0.00241143349558115
1772565830791406600,3.716406494140625,0.00009936559945344925,-0.001393013633787632,0.0008841319940984249
1772565830801435600,3.726435546875,-0.0016628485172986984,0.002692275680601597,-0.0016501322388648987
1772565830811463700,3.736463623046875,0.00012826500460505486,-0.001629815436899662,-0.0004571685567498207
1772565830821492700,3.74649267578125,-0.0001982385292649269,-0.00014883186668157578,-0.0005543739534914494
1772565830831520800,3.756520751953125,-0.002377845346927643,0.00029087625443935394,-0.0022414270788431168
1772565830841549600,3.766549560546875,0.00017745792865753174,-0.0010180668905377388,-0.00021209800615906715
1772565830851577900,3.776577880859375,0.0010194052010774612,0.00047904159873723984,0.00011807912960648537
1772565830861606700,3.786606689453125,-0.0016472176648676395,-0.0003177756443619728,-0.00025183428078889847
1772565830871634700,3.796634765625,0.00010464992374181747,-0.0003549465909600258,-0.00034655025228857994
1772565830881662700,3.806662841796875,0.001545686274766922,-0.001878807321190834,-0.005067269317805767
1772565830891691800,3.81669189453125,-0.00017825234681367874,-0.0003322632983326912,-0.0003709942102432251
1772565830901719800,3.8267197265625,0.0007826164364814758,-0.0008609006181359291,-0.0005358438938856125
1772565830911748600,3.83674853515625,0.0011271066032350063,-0.0002481946721673012,-0.0008776681497693062
1772565830921777000,3.84677685546875,-0.00016372743993997574,0.0035942140966653824,-0.0010995096527040005
1772565830931805700,3.8568056640625,-0.00026067765429615974,-0.00006286799907684326,0.001184913795441389
1772565830941833700,3.866833740234375,-0.00034110527485609055,0.0035150889307260513,-0.002557360101491213
1772565830951862500,3.876862548828125,-0.00035685300827026367,-0.001146756112575531,0.0010714954696595669
1772565830961890800,3.886890869140625,0.00017205020412802696,0.0009190579876303673,-0.00021907268092036247
1772565830971920000,3.896919921875,-0.000025770626962184906,0.0006887074559926987,-0.0007608397863805294
1772565830981947600,3.90694775390625,0.0009675882756710052,0.0021371999755501747,0.0015081735327839851
1772565830991976700,3.916976806640625,0.00006449781358242035,-0.00032910238951444626,0.00032161036506295204
1772565831002004700,3.927004638671875,0.0010519977658987045,-0.000048138201236724854,0.0008784779347479343
1772565831012033800,3.93703369140625,-0.0002670516259968281,-0.0029709860682487488,-0.0012103505432605743
1772565831022061600,3.9470615234375,0.00017902767285704613,-0.0005403188988566399,-0.00107932323589921
1772565831032090600,3.957090576171875,0.00029558734968304634,-0.0015158085152506828,-0.0025124400854110718
1772565831042119000,3.967118896484375,0.001744347158819437,0.0010477500036358833,-0.0008032233454287052
1772565831052147700,3.977147705078125,0.00007954379543662071,-0.0010326458141207695,-0.0015077060088515282
1772565831062175700,3.98717578125,0.0023996890522539616,0.0039607807993888855,0.0004987195134162903
1772565831072203500,3.99720361328125,0.00013710558414459229,-0.000433407723903656,-0.0008052904158830643
1772565831082231800,4.007231689453125,0.00025481730699539185,0.0006204042583703995,-0.0031739058904349804
1772565831092260600,4.017260498046875,-0.0012783398851752281,0.0015148408710956573,0.0009285025298595428
1772565831102288600,4.02728857421875,-0.001820825506001711,0.0011750217527151108,-0.0018952470272779465
1772565831112317700,4.037317626953125,-0.0006236513145267963,-0.0009070197120308876,0.0011402834206819534
1772565831122345700,4.047345703125,-0.0012068836949765682,-0.0008990298956632614,-0.0030970717780292034
1772565831132374800,4.057374755859375,0.0006890674121677876,-0.0011747097596526146,0.00013293838128447533
1772565831142402600,4.067402587890625,0.0008504544384777546,-0.0009968103840947151,0.00018513621762394905
1772565831152431600,4.077431640625,-0.0010793069377541542,0.0005944771692156792,-0.0007128436118364334
1772565831162459600,4.087459716796875,0.0011399053037166595,0.0008541354909539223,0.0017604343593120575
1772565831172488700,4.09748876953125,0.0001008184626698494,-0.001440645195543766,-0.00029494939371943474
1772565831182516500,4.1075166015625,0.0009295940399169922,0.0009801676496863365,-0.0017650146037340164
1772565831192545500,4.117545654296875,-0.000021946150809526443,-0.0009347498416900635,0.0010064695961773396
1772565831202573800,4.12757373046875,-0.001752468291670084,-0.0015752408653497696,0.0019524241797626019
1772565831212602600,4.1376025390625,-0.0006263786926865578,0.003513788804411888,-0.00001866742968559265
1772565831222630700,4.147630615234375,0.00022396817803382874,-0.0008428758010268211,0.0012695030309259892
1772565831232659500,4.157659423828125,-0.0010966635309159756,0.001776101067662239,0.0017831241711974144
1772565831242687700,4.167687744140625,-0.00012887036427855492,0.001167035661637783,-0.00010905228555202484
1772565831252716800,4.177716796875,0.0020197657868266106,0.0005741221830248833,0.0011901040561497211
1772565831262744600,4.18774462890625,-0.000764036551117897,-0.0005457373335957527,-0.0008101961575448513
1772565831272773600,4.197773681640625,0.0005763396620750427,0.000057966448366642,-0.001836615614593029
1772565831282801700,4.2078017578125,0.0016216300427913666,-0.0005103517323732376,-0.00023019686341285706
1772565831292829700,4.21782958984375,0.00133430864661932,0.0016903774812817574,0.0007652426138520241
1772565831302858500,4.2278583984375,0.000571846030652523,-0.0011972887441515923,0.002375655807554722
1772565831312886800,4.23788671875,-0.0007808273658156395,0.00022524967789649963,0.0005344091914594173
1772565831322915800,4.247915771484375,0.0013606203719973564,-0.0005601169541478157,0.0006510564126074314
1772565831332943600,4.257943603515625,-0.0026778578758239746,-0.0018587112426757812,-0.0009811404161155224
1772565831342972700,4.26797265625,-0.0012520011514425278,-0.0015505831688642502,-0.0014493241906166077
1772565831353000700,4.278000732421875,0.0016985395923256874,0.0009107934311032295,0.0008571301586925983
1772565831363029800,4.28802978515625,0.003193105570971966,-0.0019547678530216217,0.00041930610314011574
1772565831373057500,4.2980576171875,0.001192617230117321,0.004175123758614063,-0.0006011989898979664
1772565831383086600,4.308086669921875,-0.0003288467414677143,0.0017407285049557686,0.00009521748870611191
1772565831393115000,4.318114990234375,-0.00044701434671878815,-0.002254209481179714,0.0020172777585685253
1772565831403143700,4.328143798828125,0.0012968238443136215,-0.0021255789324641228,0.0011581419967114925
1772565831413171700,4.338171630859375,-0.0014554662629961967,0.0001673474907875061,-0.0009182831272482872
1772565831423200500,4.348200439453125,-0.001601673662662506,-0.000007888302206993103,-0.002788887359201908
1772565831433228800,4.358228759765625,0.0017436649650335312,-0.0011909063905477524,-0.0010402817279100418
1772565831443257900,4.3682578125,0.001550585962831974,-0.0010170014575123787,0.0008878470398485661
1772565831453285600,4.37828564453125,-0.0006061145104467869,-0.0010227691382169724,-0.0005394197069108486
1772565831463314700,4.388314697265625,0.0008216062560677528,-0.0012502027675509453,-0.0004629869945347309
1772565831473342700,4.3983427734375,-0.0011777430772781372,-0.00048254895955324173,0.00041754916310310364
1772565831483371800,4.408371826171875,-0.0007947804406285286,0.00045701395720243454,-0.00018405914306640625
1772565831493399600,4.418399658203125,0.00013832096010446548,0.0023407256230711937,-0.001846151426434517
1772565831503428600,4.4284287109375,0.00003712065517902374,0.0008405670523643494,0.0002921000123023987
1772565831513456600,4.43845654296875,-0.00018793251365423203,0.00001657940447330475,-0.0003643580712378025
1772565831523484700,4.448484619140625,-0.002017257735133171,-0.0005051335319876671,0.00017919298261404037
1772565831533514200,4.45851416015625,-0.00034748855978250504,0.0010374141857028008,0.000025733839720487595
1772565831543542300,4.468542236328125,-0.0006319144740700722,-0.0001157345250248909,-0.00015908945351839066
1772565831553571300,4.4785712890625,-0.0007046815007925034,0.00003322213888168335,0.0008266521617770195
1772565831563599400,4.488599365234375,-0.0028181658126413822,-0.0005004759877920151,-0.003772094612941146
1772565831573628400,4.49862841796875,-0.0006469590589404106,0.0012579197064042091,0.000011968426406383514
1772565831583656200,4.50865625,0.0033011771738529205,0.0004901308566331863,0.002397362142801285
1772565831593685500,4.518685546875,-0.001718883402645588,0.000005067326128482819,-0.0008860123343765736
1772565831603713300,4.52871337890625,0.0009011346846818924,-0.0012623313814401627,-0.00009292270988225937
1772565831613742300,4.538742431640625,-0.000833575613796711,-0.00024740397930145264,-0.0014581475406885147
1772565831623770000,4.54877001953125,0.00044261105358600616,-0.001964077353477478,-0.0006352309137582779
1772565831633799400,4.55879931640625,-0.0026672068051993847,-0.00025471486151218414,0.0018733465112745762
1772565831643827200,4.5688271484375,-0.001760666724294424,0.0006251931190490723,0.0034648519940674305
1772565831653856300,4.578856201171875,0.000682624988257885,-0.001622096635401249,0.0017194529063999653
1772565831663884300,4.58888427734375,-0.0014186091721057892,0.00004930328577756882,0.0013655186630785465
1772565831673913300,4.598913330078125,0.00251874141395092,0.00015549268573522568,-0.0007330342195928097
1772565831683941400,4.60894140625,-0.0009660050272941589,-0.00013399310410022736,-0.0001508672721683979
1772565831693970200,4.61897021484375,0.0008979020640254021,-0.0015238383784890175,-0.0012129545211791992
1772565831703998200,4.628998291015625,0.0008936412632465363,0.0008389176800847054,0.0012312945909798145
1772565831714027500,4.639027587890625,0.0011857813224196434,-0.0024631442502141,0.002691545058041811
1772565831724055300,4.64905517578125,0.0013330532237887383,0.0035787690430879593,-0.0004965248517692089
1772565831734083300,4.659083251953125,-0.0018921536393463612,-0.002214084379374981,0.00023201201111078262
1772565831744112000,4.669112060546875,-0.0017440817318856716,0.0005593318492174149,-0.0013965107500553131
1772565831754140400,4.679140380859375,-0.0013484032824635506,-0.0006069401279091835,0.001766457688063383
1772565831764169200,4.689169189453125,0.0005597518756985664,-0.00023356452584266663,-0.0009526293724775314
1772565831774197200,4.699197265625,-0.0005819047801196575,-0.0023956727236509323,-0.00008076941594481468
1772565831784226300,4.709226318359375,-0.0005741813220083714,0.0021218471229076385,0.000002587679773569107
1772565831794254300,4.71925439453125,-0.00047564925625920296,-0.0008786646649241447,0.0003997962921857834
1772565831804283400,4.729283447265625,-0.0004016133025288582,0.00019938312470912933,0.0005987342447042465
1772565831814311200,4.739311279296875,-0.0004795943386852741,-0.00048099830746650696,-0.00048346351832151413
1772565831824340200,4.74934033203125,-0.00006520655006170273,-0.0015920689329504967,0.002234026324003935
1772565831834368300,4.7593681640625,0.0013426272198557854,-0.0009741606190800667,-0.0005097631365060806
1772565831844397300,4.769397216796875,0.002963426522910595,0.0015249494463205338,0.002463922370225191
1772565831854425300,4.77942529296875,0.0002668369561433792,-0.0021124128252267838,0.000491253100335598
1772565831864454100,4.7894541015625,-0.0001222505234181881,-0.0006420807912945747,0.0008691558614373207
1772565831874482400,4.799482421875,0.001421515829861164,0.001469162292778492,-0.0006537595763802528
1772565831884511200,4.80951123046875,-0.00153645733371377,0.00024597253650426865,-0.0007744007743895054
1772565831894539300,4.819539306640625,-0.0029075010679662228,-0.0017074467614293098,-0.0019968911074101925
1772565831904568300,4.829568359375,0.0007958905771374702,-0.0005566952750086784,0.0009448360651731491
1772565831914596400,4.839596435546875,-0.0014450810849666595,-0.0017686905339360237,-0.002689212094992399
1772565831924624100,4.8496240234375,-0.0007103150710463524,-0.00006346870213747025,-0.0007272614166140556
1772565831934653200,4.859653076171875,0.0003666616976261139,-0.0003733877092599869,-0.00188783323392272
1772565831944681500,4.869681396484375,-0.00067916139960289,-0.0010192040354013443,-0.00020791124552488327
1772565831954710300,4.879710205078125,0.0003123367205262184,0.000009415671229362488,0.0015646377578377724
1772565831964738300,4.88973828125,0.0004921006038784981,0.001818501390516758,-0.0010561784729361534
1772565831974767000,4.89976708984375,-0.00008029118180274963,-0.0003104414790868759,0.0017530536279082298
1772565831984795400,4.90979541015625,-0.0008395584300160408,-0.0009171096608042717,-0.00012048007920384407
1772565831994824400,4.919824462890625,-0.00034388061612844467,-0.001956767402589321,0.0017605675384402275
1772565832004852200,4.929852294921875,0.0009869011119008064,-0.00006512459367513657,-0.0007750284858047962
1772565832014881300,4.93988134765625,-0.00009701820090413094,-0.0004539545625448227,-0.0012194300070405006
1772565832024909300,4.949909423828125,0.00023401249200105667,-0.0011764699593186378,0.0006562341004610062
1772565832034938400,4.9599384765625,0.0006349394097924232,0.001315082423388958,0.00007412303239107132
1772565832044966100,4.969966064453125,0.000048245303332805634,-0.0018213223665952682,0.00307577196508646
1772565832054995200,4.9799951171875,0.00007802993059158325,0.003256026655435562,-0.0007681418210268021
1772565832065023500,4.9900234375,-0.0010551451705396175,-0.0017176931723952293,-0.0002520214766263962
1772565832075052300,5.00005224609375,0.000988711602985859,0.0007941862568259239,0.0009069656953215599
1772565832085080300,5.010080322265625,0.000019587576389312744,-0.003039967268705368,-0.0003859992139041424
1772565832095109000,5.020109130859375,-0.000573374330997467,-0.0008984822779893875,0.0010488685220479965
1772565832105137400,5.030137451171875,-0.0007270388305187225,-0.0003874218091368675,0.0011652493849396706
1772565832115166500,5.04016650390625,0.00015390384942293167,0.0017216140404343605,-0.0009686341509222984
1772565832125194200,5.0501943359375,-0.0009257420897483826,-0.0012672515586018562,-0.0002615652047097683
1772565832135222500,5.060222412109375,0.0011462140828371048,-0.0006980979815125465,0.002319826278835535
1772565832145251300,5.070251220703125,-0.0005379687063395977,0.0007748967036604881,-0.0000501205213367939
1772565832155279400,5.080279296875,0.0011753002181649208,0.003095129504799843,0.0023005567491054535
1772565832165308200,5.09030810546875,-0.0007440396584570408,-0.002361421473324299,-0.002660113386809826
1772565832175336400,5.10033642578125,0.000009123235940933228,0.00026700459420681,-0.0003443458117544651
1772565832185365200,5.110365234375,-0.0001671784557402134,0.0017477218061685562,0.0002897530794143677
1772565832195393300,5.120393310546875,-0.0012142108753323555,0.001960922032594681,0.0003971010446548462
1772565832205422300,5.13042236328125,-0.0007542832754552364,0.00028233136981725693,-0.0018868264742195606
1772565832215450400,5.140450439453125,-0.00038805510848760605,0.0009484635666012764,0.0002855057828128338
1772565832225479400,5.1504794921875,-0.0006325333379209042,0.003161550499498844,0.0021582399494946003
1772565832235507200,5.160507080078125,0.0005931174382567406,0.000683157704770565,-0.0019116587936878204
1772565832245536300,5.170536376953125,0.0024291006848216057,-0.0022066375240683556,0.0004090201109647751
1772565832255564300,5.180564208984375,-0.0005837003700435162,0.0011271638795733452,0.0008038682863116264
1772565832265593300,5.19059326171875,-0.0017504310235381126,0.0002557775005698204,0.0016941633075475693
1772565832275621400,5.200621337890625,-0.0005857422947883606,-0.0025981105864048004,-0.0006628190167248249
1772565832285650200,5.210650146484375,-0.0007521896623075008,-0.0017453664913773537,0.0005640992894768715
1772565832295678500,5.220678466796875,0.0025006625801324844,-0.0015290342271327972,-0.0005562193691730499
1772565832305707300,5.230707275390625,-0.0008866121061146259,0.0006190715357661247,0.0020326399244368076
1772565832315735300,5.2407353515625,-0.0005826633423566818,-0.00022881291806697845,0.002385882195085287
1772565832325763300,5.250763427734375,-0.0008535068482160568,0.00025268644094467163,-0.001028556376695633
1772565832335792400,5.26079248046875,0.0004912810400128365,0.0005864398553967476,-0.0012920144945383072
1772565832345820400,5.2708203125,-0.0007281806319952011,0.00022478215396404266,-0.0017636604607105255
1772565832355849200,5.28084912109375,-0.0008169789798557758,0.00009709317237138748,-0.0017118118703365326
1772565832365877500,5.29087744140625,-0.0013868953101336956,-0.00032501760870218277,-0.0009544091299176216
1772565832375906300,5.30090625,0.0007435726001858711,-0.00036348961293697357,-0.00008402159437537193
1772565832385934300,5.310934326171875,-0.0007459335029125214,0.001871701329946518,-0.0039445399306714535
1772565832395963400,5.32096337890625,0.0010337159037590027,-0.0013109715655446053,-0.002783465664833784
1772565832405991400,5.330991455078125,0.0015306612476706505,-0.0006760740652680397,0.00013216305524110794
1772565832416020500,5.3410205078125,-0.0001575457863509655,0.0010966658592224121,-0.00033375294879078865
1772565832426048300,5.35104833984375,-0.00017618807032704353,0.0007323445752263069,-0.00036810804158449173
1772565832436077300,5.361077392578125,0.00006768014281988144,0.0019799815490841866,0.00003934558480978012
1772565832446105300,5.371105224609375,0.0014509260654449463,0.0013184519484639168,-0.0011239233426749706
1772565832456134400,5.381134521484375,0.0018620006740093231,-0.001819332130253315,0.001903350930660963
1772565832466162200,5.391162109375,-0.002349788323044777,-0.000047264620661735535,-0.0007347767241299152
1772565832476190200,5.401190185546875,-0.0026958128437399864,-0.0019486863166093826,-0.0017594527453184128
1772565832486219500,5.411219482421875,-0.002538419794291258,0.0028737662360072136,-0.0026185885071754456
1772565832496247300,5.421247314453125,0.0011882446706295013,0.0003885757178068161,0.0011492278426885605
1772565832506276400,5.4312763671875,0.0005389656871557236,-0.000591733492910862,-0.001110464334487915
1772565832516304100,5.44130419921875,-0.0017545204609632492,-0.0007224036380648613,0.00042283395305275917
1772565832526333400,5.45133349609375,-0.0013529155403375626,-0.0005937730893492699,0.0015504169277846813
1772565832536360400,5.4613603515625,0.0006388053297996521,0.001975724473595619,-0.0012589944526553154
1772565832546389500,5.471389404296875,0.0022364361211657524,0.0017139352858066559,0.002445995807647705
1772565832556417800,5.481417724609375,-0.00008199363946914673,-0.0019658394157886505,-0.000680228229612112
1772565832566446600,5.491446533203125,0.002167578786611557,-0.002154124900698662,-0.0014139292761683464
1772565832576474600,5.501474609375,-0.0006602643989026546,0.00036667007952928543,0.0010097725316882133
1772565832586503400,5.51150341796875,-0.0000498676672577858,0.000502491369843483,0.0023312335833907127
1772565832596531700,5.52153173828125,0.0014551370404660702,-0.0003388235345482826,0.002014702185988426
1772565832606560800,5.531560791015625,0.0006170407868921757,0.0009924909099936485,0.0027734367176890373
1772565832616588500,5.541588623046875,-0.0001270757056772709,0.0002571204677224159,-0.0018471702933311462
1772565832626617600,5.55161767578125,-0.0030584167689085007,-0.0006574084982275963,-0.0006482149474322796
1772565832636645600,5.561645751953125,-0.00032886257395148277,-0.0015543969348073006,-0.000006954185664653778
1772565832646674700,5.5716748046875,0.0000029671937227249146,0.0007676128298044205,0.0001099584624171257
1772565832656702500,5.581702392578125,-0.0014034956693649292,0.0013855211436748505,0.0006894534453749657
1772565832666730800,5.591730712890625,-0.0006447611376643181,-0.0014749802649021149,0.0006684139370918274
1772565832676759800,5.601759765625,-0.0016255583614110947,0.0011850269511342049,0.0007062936201691628
1772565832686787600,5.61178759765625,-0.0014857426285743713,-0.001011015847325325,-0.0008098436519503593
1772565832696816600,5.621816650390625,-0.0017563165165483952,-0.0003901887685060501,0.0009551290422677994
1772565832706844700,5.6318447265625,-0.0002447064034640789,0.00039064977318048477,0.002643306739628315
1772565832716873700,5.641873779296875,-0.0013169292360544205,0.0005300696939229965,0.0017962264828383923
1772565832726901500,5.651901611328125,-0.0011150618083775043,-0.00000895373523235321,0.0019283187575638294
1772565832736930600,5.6619306640625,0.0007577924989163876,0.00036415737122297287,-0.003535256255418062
1772565832746958600,5.67195849609375,0.00019852863624691963,-0.0026153866201639175,-0.0021647936664521694
1772565832756987600,5.681987548828125,0.0009606536477804184,-0.000051977112889289856,-0.0036190245300531387
1772565832767015700,5.692015625,-0.0005850447341799736,0.00013258028775453568,-0.0016056750901043415
1772565832777044500,5.70204443359375,-0.002560547087341547,0.0009121783077716827,-0.001990312710404396
1772565832787072800,5.71207275390625,0.00009861867874860764,-0.0020244894549250603,-0.0008512791246175766
1772565832797101600,5.7221015625,0.000316486693918705,-0.0015756962820887566,-0.0007565817795693874
1772565832807129600,5.732129638671875,-0.002170905936509371,-0.00007500499486923218,-0.00001968489959836006
1772565832817158700,5.74215869140625,0.000426705926656723,0.001104932278394699,0.0022416668944060802
1772565832827186700,5.752186767578125,-0.0004904870875179768,-0.0012714061886072159,0.000015530269593000412
1772565832837215700,5.7622158203125,-0.0003021960146725178,-0.00002548377960920334,-0.0007707411423325539
1772565832847243500,5.772243408203125,-0.0014931615442037582,0.0006733303889632225,-0.00031640566885471344
1772565832857271600,5.782271484375,0.0006891610100865364,-0.00040996819734573364,-0.0006098500452935696
1772565832867300600,5.792300537109375,-0.00283899437636137,0.0016515841707587242,-0.0010892190039157867
1772565832877328600,5.80232861328125,0.0013269376941025257,-0.0008663022890686989,-0.0017254780977964401
1772565832887357700,5.812357666015625,0.00036340532824397087,0.004249097779393196,-0.0010852543637156487
1772565832897385500,5.822385498046875,0.0007700454443693161,0.002293742261826992,0.002281357068568468
1772565832907414800,5.832414794921875,0.0017282506451010704,0.0006974441930651665,-0.001374097540974617
1772565832917442600,5.842442626953125,0.0026560798287391663,-0.00026826467365026474,-0.002058048266917467
1772565832927471600,5.8524716796875,0.00011542439460754395,0.0014297673478722572,0.0012389454059302807
1772565832937499600,5.862499755859375,-0.0016529764980077744,-0.0007973946630954742,-0.002839965745806694
1772565832947528700,5.87252880859375,0.0018413569778203964,-0.0008200313895940781,0.0014360053464770317
1772565832957556700,5.882556640625,0.0002297544851899147,-0.0014523928984999657,-0.0007011000998318195
1772565832967585500,5.89258544921875,-0.0012855837121605873,0.0007327310740947723,0.00009305449202656746
1772565832977613600,5.902613525390625,0.0010027340613305569,-0.0021776091307401657,0.0011864504776895046
1772565832987642600,5.912642578125,-0.0015613571740686893,0.0006794305518269539,0.0009443690069019794
1772565832997670700,5.922670654296875,0.001180719118565321,-0.003065258264541626,0.003443920984864235
1772565833007698400,5.932698486328125,0.00022810650989413261,0.0015468038618564606,0.0007796948775649071
1772565833017727500,5.9427275390625,0.003012842033058405,0.0005060676485300064,0.0034295390360057354
1772565833027755500,5.952755615234375,0.0005118674598634243,-0.000736563466489315,0.0010585268028080463
1772565833037784600,5.96278466796875,0.00002324441447854042,0.000038712285459041595,0.0008714506402611732
1772565833047812600,5.9728125,-0.0003525279462337494,0.0003668135032057762,-0.0014899740926921368
1772565833057841700,5.982841552734375,0.0002335631288588047,-0.0014286721125245094,-0.00018482515588402748
1772565833067869700,5.99286962890625,0.0024367966689169407,-0.0019115032628178596,-0.0007898951880633831
1772565833077898500,6.0028984375,0.00010891305282711983,-0.0022217044606804848,0.00006365589797496796
1772565833087926500,6.012926513671875,0.001035159919410944,0.0005487818270921707,-0.0032125646248459816
1772565833097955600,6.02295556640625,0.0010497798211872578,-0.00011034030467271805,0.0006528091616928577
1772565833107983600,6.032983642578125,0.0011182227171957493,-0.0012419167906045914,0.0006541409529745579
1772565833118012700,6.0430126953125,0.0011225705966353416,-0.0017471462488174438,0.0005007851868867874
1772565833128040400,6.05304052734375,0.0008384110406041145,-0.0002946583554148674,-0.00003477651625871658
1772565833138069500,6.063069580078125,-0.0033303569070994854,0.001707572489976883,0.0007833503186702728
1772565833148097500,6.07309765625,-0.0016845231875777245,-0.0005483906716108322,0.00007308507338166237
1772565833158126600,6.083126708984375,0.0007126946002244949,0.0003542369231581688,0.001928962767124176
1772565833168154600,6.093154541015625,0.0008852668106555939,-0.0014830771833658218,-0.00040263496339321136
1772565833178182700,6.1031826171875,0.0011378554627299309,-0.0006494736298918724,-0.0018671718426048756
1772565833188211700,6.113211669921875,-0.0009165070950984955,-0.0030010445043444633,0.003245831001549959
1772565833198239500,6.123239501953125,-0.0017333379946649075,0.002880893647670746,0.002737763337790966
1772565833208268500,6.1332685546875,-0.0000771181657910347,-0.001408659853041172,0.0007385285571217537
1772565833218296600,6.143296630859375,-0.0005744285881519318,0.003162544220685959,-0.00017766933888196945
1772565833228325600,6.15332568359375,-0.0007414086721837521,-0.0006838589906692505,0.0016271546483039856
1772565833238353400,6.163353515625,-0.0004731961525976658,0.0027599865570664406,-0.0012442665174603462
1772565833248382500,6.173382568359375,0.0024003544822335243,-0.0012363530695438385,0.0024359561502933502
1772565833258410800,6.18341064453125,-0.0006937426514923573,0.0008481014519929886,-0.0026994412764906883
1772565833268439600,6.193439453125,0.00030813878402113914,-0.00009092874825000763,0.0013874457217752934
1772565833278467600,6.203467529296875,-0.0015340005047619343,0.0001574493944644928,-0.002230075653642416
1772565833288496400,6.213496337890625,-0.0014674211852252483,-0.0005815774202346802,0.0014938227832317352
1772565833298524700,6.223524658203125,0.0005080406554043293,0.001303650438785553,0.0031988131813704967
1772565833308553700,6.2335537109375,0.0013165767304599285,-0.0019789617508649826,0.00044776732102036476
1772565833318581500,6.24358154296875,0.0011741588823497295,-0.0028919000178575516,-0.002592934761196375
1772565833328610600,6.253610595703125,0.0006351354531943798,-0.00046016741544008255,-0.00127067556604743
1772565833338638600,6.263638671875,0.0016293427906930447,0.0020569274201989174,-0.002592476550489664
1772565833348666600,6.27366650390625,0.0005662082694470882,0.0028329724445939064,-0.0036095380783081055
1772565833358695400,6.2836953125,-0.00013326434418559074,-0.0006365254521369934,0.000051116105169057846
1772565833368723700,6.2937236328125,0.0015229559503495693,-0.0018384093418717384,-0.0008370480500161648
1772565833378752800,6.303752685546875,0.00041659362614154816,-0.0010765092447400093,-0.002641666680574417
1772565833388780500,6.313780517578125,0.0017550978809595108,0.001668410375714302,0.0013738474808633327
1772565833398809600,6.3238095703125,0.00028079887852072716,0.0008511869236826897,-0.0013910853303968906
1772565833408837600,6.333837646484375,-0.0009639621712267399,0.00004957523196935654,0.0016134926117956638
1772565833418866700,6.34386669921875,0.00021775998175144196,-0.0010562781244516373,-0.0011410610750317574
1772565833428894500,6.35389453125,0.0003463905304670334,0.0010079378262162209,-0.0009538410231471062
1772565833438923500,6.363923583984375,0.0011084512807428837,-0.00045158620923757553,0.0010278578847646713
1772565833448951800,6.373951904296875,0.0024682614021003246,-0.0020297756418585777,-0.0007615196518599987
1772565833458980600,6.383980712890625,0.0009491066448390484,0.0014523277059197426,-0.0017942814156413078
1772565833469008600,6.394008544921875,0.00038078753277659416,-0.0018657045438885689,0.00003797328099608421
1772565833479037400,6.404037353515625,0.0005607549101114273,-0.000627283938229084,-0.00037159258499741554
1772565833489065700,6.414065673828125,0.00020975060760974884,-0.0018608598038554192,0.0010012667626142502
1772565833499093500,6.424093505859375,-0.0009745825082063675,-0.0010408619418740273,-0.001775663811713457
1772565833509122600,6.43412255859375,0.0008289101533591747,-0.003248622640967369,0.0009849686175584793
1772565833519150600,6.444150634765625,0.0015761847607791424,-0.0005017668008804321,-0.0017261262983083725
1772565833529179600,6.4541796875,0.0025282646529376507,-0.00214280653744936,0.0010829763486981392
1772565833539208000,6.4642080078125,-0.0007165209390223026,0.0016674892976880074,-0.0004907827824354172
1772565833549236700,6.47423681640625,0.00001558242365717888,-0.0012939460575580597,0.0005457191728055477
1772565833559265000,6.48426513671875,-0.001994635444134474,0.0003797020763158798,-0.0005599316209554672
1772565833569294000,6.494294189453125,0.00024907710030674934,-0.001459742896258831,0.0020353193394839764
1772565833579321900,6.50432177734375,-0.0005987887270748615,-0.001213981769979,-0.0010186107829213142
1772565833589351000,6.514350830078125,0.0012646247632801533,0.0025823544710874557,0.0011646486818790436
1772565833599379000,6.52437890625,-0.001474111806601286,-0.0006761727854609489,0.0013223080895841122
1772565833609408000,6.534407958984375,0.0011560260318219662,0.0010466258972883224,-0.0023227608762681484
1772565833619435800,6.544435791015625,0.0001293206587433815,0.0007340554147958755,-0.00020332355052232742
1772565833629464800,6.55446484375,-0.00015670247375965118,-0.0009645083919167519,0.0005511501803994179
1772565833639492900,6.564492919921875,-0.00039084022864699364,0.0011987611651420593,0.00040767109021544456
1772565833649521000,6.57452099609375,0.00348112965002656,-0.000029754824936389923,0.00023030443117022514
1772565833659550000,6.584550048828125,-0.001922164112329483,0.0003395387902855873,0.0012060846202075481
1772565833669577700,6.59457763671875,0.0008246195502579212,-0.0014985743910074234,0.0008598738349974155
1772565833679607000,6.60460693359375,0.0023191068321466446,-0.001753426156938076,-0.002437190618366003
1772565833689634800,6.614634765625,-0.00038480106741189957,0.002169942483305931,0.00042277807369828224
1772565833699664000,6.624663818359375,0.00013749673962593079,-0.0011854898184537888,0.0013279304839670658
1772565833709691600,6.634691650390625,-0.0007341555319726467,0.0003120051696896553,-0.0011642556637525558
1772565833719721000,6.644720947265625,0.0012660273350775242,-0.0013799918815493584,-0.0007536611519753933
1772565833729749000,6.6547490234375,-0.0007252180948853493,-0.0008004885166883469,-0.0028809942305088043
1772565833739777800,6.66477783203125,-0.0017920518293976784,-0.0001710839569568634,0.0009248824790120125
1772565833749805800,6.674805908203125,0.0009667165577411652,0.001156768761575222,-0.00011375080794095993
1772565833759835000,6.6848349609375,0.0013252440840005875,0.000009375624358654022,-0.0005003889091312885
1772565833769863000,6.69486279296875,0.0019220588728785515,-0.00048437435179948807,-0.002215730957686901
1772565833779892000,6.70489208984375,0.000188521109521389,0.00025629065930843353,0.0004899543710052967
1772565833789919700,6.714919677734375,-0.0005031018517911434,0.0009843986481428146,0.0003669154830276966
1772565833799949000,6.724948974609375,-0.0010728887282311916,0.000683971680700779,-0.002904820255935192
1772565833809976800,6.734976806640625,-0.0004166862927377224,0.0003971494734287262,0.004099293611943722
1772565833820004900,6.7450048828125,0.0020663924515247345,-0.0019167456775903702,0.0014832639135420322
1772565833830033700,6.75503369140625,-0.0006295256316661835,-0.0003481432795524597,-0.0005223625339567661
1772565833840062000,6.76506201171875,0.002706616185605526,-0.00044320523738861084,-0.002856197766959667
1772565833850090800,6.7750908203125,-0.0003568176180124283,0.0017062323167920113,0.00023493357002735138
1772565833860118800,6.785118896484375,0.00024535879492759705,-0.0003854287788271904,-0.003788209054619074
1772565833870147800,6.79514794921875,0.000732184387743473,-0.0007566735148429871,0.0014225319027900696
1772565833880175900,6.80517578125,0.00014408119022846222,0.0006886059418320656,0.0012689121067523956
1772565833890205000,6.815204833984375,0.0027204230427742004,-0.001393187791109085,0.0010116510093212128
1772565833900232700,6.825232666015625,-0.00006504356861114502,0.0018661217764019966,-0.0006119166500866413
1772565833910261800,6.83526171875,-0.0006967457011342049,-0.0026191743090748787,-0.00006170757114887238
1772565833920289800,6.845289794921875,-0.0018594441935420036,0.001043558120727539,0.0010778168216347694
1772565833930318800,6.85531884765625,0.0003176899626851082,-0.0019516991451382637,0.001231214962899685
1772565833940347000,6.865346923828125,0.002319440245628357,0.0011814674362540245,-0.00043730391189455986
1772565833950375700,6.875375732421875,-0.0016478709876537323,-0.0035517681390047073,0.0016721859574317932
1772565833960404000,6.885404052734375,0.00034431740641593933,0.0028367573395371437,-0.00029147136956453323
1772565833970431700,6.895431640625,-0.0009086998179554939,0.0006926469504833221,-0.0018134680576622486
1772565833980460800,6.905460693359375,0.0019789189100265503,-0.00012121535837650299,0.0010680332779884338
1772565833990488800,6.91548876953125,0.0012580016627907753,0.003025042824447155,0.0005031768232584
1772565834000518000,6.925517822265625,-0.000023232772946357727,-0.0006020013242959976,0.0034234756603837013
1772565834010546000,6.9355458984375,-0.0006336290389299393,0.0003327680751681328,0.0009512631222605705
1772565834020574700,6.94557470703125,0.0007564602419734001,0.00004824809730052948,-0.00026368163526058197
1772565834030603000,6.95560302734375,0.0011623259633779526,0.0012410776689648628,-0.0013798126019537449
1772565834040631800,6.9656318359375,0.00005511101335287094,-0.0008232835680246353,0.00006757723167538643
1772565834050659800,6.975659912109375,-0.0022373381070792675,0.0007498450577259064,0.0011589406058192253
1772565834060689000,6.98568896484375,0.000703335739672184,-0.0006554722785949707,0.00009287800639867783
1772565834070717000,6.995717041015625,-0.00010147131979465485,-0.0005308361724019051,-0.00015319837257266045
1772565834080746000,7.00574609375,-0.0004121754318475723,-0.0008608270436525345,-0.0001398078165948391
1772565834090773800,7.015773681640625,-0.0005980636924505234,-0.002110382542014122,-0.00277740228921175
1772565834100802800,7.025802734375,0.0010394854471087456,0.00018905289471149445,-0.000340387225151062
1772565834110830800,7.035830810546875,0.000006445683538913727,-0.001245325431227684,0.0021770987659692764
1772565834120859000,7.04585888671875,-0.0008110576309263706,-0.0014909887686371803,0.0006767758168280125
1772565834130887700,7.0558876953125,0.002443324774503708,-0.0008201384916901588,0.0009561418555676937
1772565834140916000,7.065916015625,-0.001803969033062458,-0.0010354770347476006,-0.0019579892978072166
1772565834150945000,7.075945068359375,0.002636851742863655,0.0007107583805918694,-0.0006586327217519283
1772565834160972800,7.085972900390625,-0.000628648791462183,-0.0010305484756827354,-0.0029137758538126945
1772565834171001900,7.096001953125,-0.00009068986400961876,0.0012943912297487259,-0.001734261866658926
1772565834181030000,7.10602978515625,-0.0003369026817381382,-0.0007826434448361397,-0.00019023893401026726
1772565834191059000,7.116058837890625,0.00010624714195728302,-0.0008723922073841095,-0.00033058784902095795
1772565834201086700,7.126086669921875,0.0012025674805045128,-0.0007817773148417473,0.0012050243094563484
1772565834211115800,7.13611572265625,0.0008467687293887138,0.0012621982023119926,0.0002659941092133522
1772565834221144000,7.14614404296875,-0.0004290747456252575,0.0004387069493532181,0.002436460927128792
1772565834231172900,7.1561728515625,-0.000789932906627655,0.002657919190824032,-0.0008203187026083469
1772565834241201000,7.166200927734375,0.0019396273419260979,-0.0012627942487597466,-0.0017162179574370384
1772565834251229700,7.176229736328125,-0.00010514818131923676,-0.00024466775357723236,0.0022534895688295364
1772565834261258000,7.186258056640625,-0.0006955699063837528,-0.00048253219574689865,0.00018885917961597443
1772565834271285800,7.19628564453125,-0.0005277907475829124,-0.0010143658146262169,-0.0011440534144639969
1772565834281314800,7.206314697265625,-0.0012137596495449543,-0.0005660224705934525,-0.0000010472722351551056
1772565834291342800,7.2163427734375,0.00003552902489900589,-0.0012954622507095337,-0.00041170651093125343
1772565834301372000,7.226371826171875,0.0011648321524262428,-0.0010370416566729546,-0.0005091908387839794
1772565834311400000,7.23639990234375,0.000858568586409092,0.0006287656724452972,0.001314542256295681
1772565834321428700,7.2464287109375,0.0021705804392695427,0.0023091277107596397,-0.0007319226861000061
1772565834331457000,7.25645703125,0.0003998447209596634,0.0006877947598695755,0.00192324910312891
1772565834341486000,7.266486083984375,-0.00023472262546420097,-0.0004419945180416107,0.0013180449604988098
1772565834351513900,7.276513916015625,0.0005482463166117668,0.0003409748896956444,0.0002751508727669716
1772565834361543000,7.28654296875,0.0013203220441937447,0.000028784386813640594,-0.0006626565009355545
1772565834371571000,7.296571044921875,0.0016103405505418777,0.0002090800553560257,0.00039781443774700165
1772565834381600000,7.30660009765625,0.0012795338407158852,-0.0006809309124946594,-0.0013699703849852085
1772565834391627800,7.316627685546875,-0.001143676694482565,0.0006996514275670052,0.00035842088982462883
1772565834401656800,7.32665673828125,-0.0009049023501574993,0.0015648631379008293,-0.0016665337607264519
1772565834411684900,7.336684814453125,0.0008674310520291328,-0.0001864321529865265,-0.00033042579889297485
1772565834421713000,7.346712890625,-0.002284902147948742,0.0011067446321249008,0.0013354681432247162
1772565834431742000,7.356741943359375,-0.0010193679481744766,0.0013706637546420097,0.000515480525791645
1772565834441769700,7.366769775390625,0.0012553893029689789,0.0011688405647873878,-0.00018258998170495033
1772565834451799000,7.376799072265625,-0.000895379576832056,-0.00050335843116045,0.000836868304759264
1772565834461826800,7.386826904296875,-0.0003153136931359768,-0.000047793611884117126,-0.0017492235638201237
1772565834471855900,7.39685595703125,-0.0016484917141497135,-0.0008115880191326141,-0.00017263228073716164
1772565834481883600,7.406883544921875,-0.0007978328503668308,-0.0008555091917514801,-0.001084059476852417
1772565834491913000,7.416912841796875,-0.0010923785157501698,-0.0018531298264861107,0.0006736265495419502
1772565834501941000,7.42694091796875,-0.0009975438006222248,0.004671107046306133,-0.0005857744254171848
1772565834511969800,7.4369697265625,0.0009737284854054451,-0.0005846414715051651,-0.0022699576802551746
1772565834521997800,7.446997802734375,0.0007377937436103821,0.0025910455733537674,0.00018334155902266502
1772565834532030200,7.4570302734375,-0.0015282901003956795,0.00004319939762353897,-0.0020084399729967117
1772565834542058200,7.467058349609375,0.0021721599623560905,-0.0005881581455469131,0.001696216408163309
1772565834552086000,7.4770859375,-0.0028508282266557217,-0.00022144056856632233,0.0011089895851910114
1772565834562115000,7.487114990234375,0.000036757439374923706,0.00040274113416671753,0.0007181325927376747
1772565834572143000,7.49714306640625,-0.0006937477737665176,-0.0003661131486296654,0.0003881668671965599
1772565834582172200,7.507172119140625,0.000720784068107605,0.0006541954353451729,-0.00012113573029637337
1772565834592200200,7.5172001953125,0.00207393616437912,-0.0029890090227127075,0.0005337358452379704
1772565834602229000,7.52722900390625,-0.0015852991491556168,0.0033423928543925285,0.0035178563557565212
1772565834612257300,7.53725732421875,-0.001818592194467783,-0.00007071439176797867,-0.0015155179426074028
1772565834622286000,7.5472861328125,-0.0019079064950346947,0.002030991017818451,0.0013905474916100502
1772565834632314000,7.557314208984375,-0.0017236159183084965,0.0007944852113723755,0.00099853053689003
1772565834642343200,7.56734326171875,0.0008687907829880714,-0.00026297569274902344,0.0016156011261045933
1772565834652371200,7.57737109375,-0.00041085807606577873,0.0005194609984755516,0.00018255366012454033
1772565834662400300,7.587400146484375,0.0005961442366242409,0.0008552391082048416,0.0013647968880832195
1772565834672428000,7.597427978515625,0.00008135475218296051,0.003499225713312626,-0.00006239069625735283
1772565834682457000,7.60745703125,-0.00041805533692240715,-0.001279718242585659,0.00048146070912480354
1772565834692485000,7.617485107421875,-0.002051105722784996,-0.001351623795926571,0.00045509496703743935
1772565834702513200,7.62751318359375,0.0005442360416054726,-0.0005096821114420891,0.0012349612079560757
1772565834712542200,7.637542236328125,-0.0005180989392101765,-0.0012092944234609604,-0.0011272625997662544
1772565834722570200,7.6475703125,0.00006812438368797302,-0.000838511623442173,-0.0011559328995645046
1772565834732599300,7.657599365234375,0.0013831937685608864,0.00031650159507989883,-0.0007023965008556843
1772565834742627000,7.667626953125,0.0004630396142601967,0.00025456491857767105,0.0005513387732207775
1772565834752656100,7.67765625,-0.00018464075401425362,0.002896953374147415,-0.001441238448023796
1772565834762684200,7.68768408203125,-0.00023366976529359818,-0.00013533979654312134,-0.0008101966232061386
1772565834772713200,7.697713134765625,-0.0016845599748194218,-0.0002692965790629387,-0.002539120614528656
1772565834782741200,7.7077412109375,0.000325765460729599,0.00024775974452495575,0.003411548212170601
1772565834792770000,7.71777001953125,0.0007180487737059593,-0.0019323034211993217,-0.00062527135014534
1772565834802798300,7.72779833984375,0.0006130896508693695,-0.0026623625308275223,0.0012403079308569431
1772565834812827100,7.7378271484375,0.0007949834689497948,-0.0005523404106497765,-0.001140824519097805
1772565834822855200,7.747855224609375,0.0002597896382212639,0.0007602665573358536,-0.0010490096174180508
1772565834832884000,7.757884033203125,-0.0006858990527689457,0.0020857220515608788,-0.002121997531503439
1772565834842912300,7.767912353515625,0.0010900581255555153,-0.001529773697257042,-0.0010805833153426647
1772565834852940000,7.77793994140625,-0.0032764608040452003,0.003276699222624302,-0.0007253177464008331
1772565834862969000,7.787968994140625,0.001264861784875393,0.0008469903841614723,-0.0005190358497202396
1772565834872997400,7.797997314453125,-0.001105351373553276,0.0038747387006878853,-0.0029627522453665733
1772565834883026200,7.808026123046875,0.00132795050740242,-0.0005394760519266129,0.002110858913511038
1772565834893054200,7.81805419921875,0.0007111625745892525,0.0019654929637908936,0.00024851085618138313
1772565834903083000,7.8280830078125,-0.0003150193952023983,0.0012049051001667976,-0.0007644826546311378
1772565834913111300,7.838111328125,0.0011774161830544472,-0.00042921118438243866,-0.0014363978989422321
1772565834923140400,7.848140380859375,0.0002527916803956032,0.0004562176764011383,0.0011743046343326569
1772565834933168000,7.858168212890625,0.00017449446022510529,0.0006671398878097534,0.0013119904324412346
1772565834943197200,7.868197265625,-0.00152692012488842,-0.0011793822050094604,0.00031652022153139114
1772565834953225200,7.87822509765625,0.0008488856256008148,0.0013524852693080902,-0.00026351679116487503
1772565834963254300,7.888254150390625,0.0008310843259096146,0.0015925755724310875,-0.0024300082586705685
1772565834973282000,7.898281982421875,0.0003317417576909065,-0.0004644496366381645,-0.0005285111255943775
1772565834983311000,7.90831103515625,-0.0006590015254914761,-0.0016244472935795784,-0.0009355489164590836
1772565834993339400,7.91833935546875,-0.0008150627836585045,0.00019342638552188873,-0.00041516730561852455
1772565835003367200,7.9283671875,0.0012646326795220375,-0.0019316822290420532,-0.0007132822647690773
1772565835013396200,7.938396240234375,0.0015937993302941322,0.0008230917155742645,-0.0010304651223123074
1772565835023424300,7.94842431640625,0.0010174345225095749,0.00005122460424900055,0.00029995478689670563
1772565835033453300,7.958453369140625,0.0011204984039068222,-0.0005072401836514473,-0.002193029969930649
1772565835043481000,7.968481201171875,0.0012152111157774925,0.0017407238483428955,0.0009595244191586971
1772565835053510100,7.97851025390625,0.0004807114601135254,-0.00040738098323345184,-0.0001659276895225048
1772565835063538200,7.9885380859375,-0.0004983735270798206,0.003368533216416836,0.0014741765335202217
1772565835073567200,7.998567138671875,-0.000410489272326231,-0.0005777385085821152,-0.00043051596730947495
1772565835083595300,8.00859521484375,-0.0008046478033065796,-0.003246820531785488,-0.00255606509745121
1772565835093624000,8.0186240234375,-0.0008640363812446594,0.0011929357424378395,0.001152919139713049
1772565835103652400,8.02865234375,0.0008481703698635101,0.0033254409208893776,0.0005607218481600285
1772565835113681200,8.03868115234375,0.00015601515769958496,-0.0002394663169980049,-0.001152755692601204
1772565835123709200,8.048709228515625,0.0012776842340826988,0.00419654231518507,0.002006898634135723
1772565835133737000,8.058737060546875,-0.000939131248742342,0.0021831924095749855,-0.00016996962949633598
1772565835143766300,8.068766357421875,0.0012351293116807938,0.0005916766822338104,-0.0006178682669997215
1772565835153794300,8.078794189453125,-5.774199962615967e-7,0.0020367074757814407,-0.0005787196569144726
1772565835163823000,8.088822998046876,0.0008826795965433121,0.0011858753859996796,-0.00009094830602407455
1772565835173851100,8.09885107421875,0.00039372406899929047,-0.0012389328330755234,0.00033648964017629623
1772565835183880200,8.108880126953125,-0.0008254582062363625,0.0031501352787017822,-0.0012095598503947258
1772565835193908200,8.118908203125,-0.0006528855301439762,-0.001273907721042633,0.000678354874253273
1772565835203937300,8.128937255859375,-0.0005378811620175838,0.0020100129768252373,-0.0014996286481618881
1772565835213965000,8.138965087890625,0.0013207383453845978,0.0021801888942718506,0.004232292529195547
1772565835223994400,8.148994384765626,0.00029755476862192154,-0.00009858142584562302,0.0017263628542423248
1772565835234022100,8.159022216796876,0.0011311238631606102,-0.001502334140241146,0.001340470276772976
1772565835244051200,8.16905126953125,0.000534961000084877,-0.0008526239544153214,0.0026323222555220127
1772565835254079000,8.179078857421874,-0.00128131452947855,0.0009298296645283699,0.0016908948309719563
1772565835264107300,8.189107177734375,-0.001130413729697466,0.0007705884054303169,0.002443381119519472
1772565835274136300,8.19913623046875,0.0009883968159556389,-0.0009210510179400444,-0.0010855733416974545
1772565835284164000,8.2091640625,0.0012708576396107674,0.0007767137140035629,0.001634152140468359
1772565835294193200,8.219193115234376,0.001635177992284298,-0.0001093205064535141,-0.002172304317355156
1772565835304221200,8.22922119140625,-0.0007099509239196777,0.0022462671622633934,-0.00034585921093821526
1772565835314250200,8.239250244140624,0.0009465347975492477,0.0010571656748652458,0.001029131468385458
1772565835324278000,8.249278076171874,-0.0007474720478057861,-0.000525391660630703,-0.0004156138747930527
1772565835334307000,8.25930712890625,0.002166026271879673,-0.0011941110715270042,0.0014699045568704605
1772565835344335000,8.269335205078125,-0.003869038075208664,0.0017446046695113182,0.000501999631524086
1772565835354364200,8.2793642578125,0.00032277777791023254,-0.0025353608652949333,-0.0019662179984152317
1772565835364392200,8.28939208984375,0.0003245444968342781,-0.00022444501519203186,0.0007411418482661247
1772565835374421000,8.2994208984375,0.00041535869240760803,-0.003734491765499115,0.000214369036257267
1772565835384449300,8.30944921875,0.00025872141122817993,0.00038005225360393524,0.0013690716587007046
1772565835394478000,8.31947802734375,-0.0006707217544317245,0.0022844793274998665,0.0028053144924342632
1772565835404506000,8.329506103515625,0.0005032336339354515,-0.00036712922155857086,-0.0020596706308424473
1772565835414534100,8.3395341796875,0.0004449104890227318,0.0008685775101184845,0.001077533233910799
1772565835424563200,8.349563232421875,0.0006386162713170052,-0.0005554379895329475,-0.0006568841636180878
1772565835434591200,8.35959130859375,0.0012506106868386269,-0.0013405373319983482,0.000780157744884491
1772565835444620000,8.3696201171875,-0.000727436039596796,0.00029006507247686386,-0.0005477392114698887
1772565835454648300,8.3796484375,0.000581241212785244,-0.0008753342553973198,0.00017264578491449356
1772565835464677000,8.389677001953125,-0.0008397367782890797,0.001084870658814907,-0.0016807783395051956
1772565835474705200,8.399705078125,-0.001856531947851181,0.0020555928349494934,-0.0007662484422326088
1772565835484734200,8.409734130859375,-0.0014073960483074188,-0.0008230088278651237,0.0011533251963555813
1772565835494762200,8.41976220703125,-0.001004725694656372,0.0017703771591186523,-0.0001803860068321228
1772565835504791300,8.429791259765626,-0.0005418215878307819,-0.0005656536668539047,0.0034833215177059174
1772565835514819000,8.439819091796876,0.00030106864869594574,-0.0019057570025324821,-0.002229158766567707
1772565835524848000,8.44984814453125,0.0003321366384625435,-0.0002537546679377556,-0.00027198251336812973
1772565835534873600,8.45987353515625,-0.0009626923128962517,-0.00070196483284235,0.000790352001786232
1772565835544902000,8.46990185546875,-0.00045129237696528435,0.00038888677954673767,-0.0008432012982666492
1772565835554931000,8.479930908203125,0.0017388910055160522,-0.0007296409457921982,-0.0023963567800819874
1772565835564958700,8.489958740234375,0.001062336377799511,-0.001488364301621914,-0.00038605788722634315
1772565835574987800,8.49998779296875,0.0007925583049654961,-0.0019352426752448082,-0.0005791368894279003
1772565835585015800,8.510015869140625,-0.0025595352053642273,-0.0013421140611171722,0.0012654056772589684
1772565835595044900,8.520044921875,-0.0005568382330238819,-0.0002784477546811104,0.001328522339463234
1772565835605072600,8.53007275390625,-0.0003541698679327965,-0.002766692079603672,-0.0006850124336779118
1772565835615101700,8.540101806640624,0.00109964981675148,-0.00003056041896343231,0.00035761483013629913
1772565835625129700,8.550129638671875,-0.001148249488323927,0.001559651456773281,0.00151737779378891
1772565835635158800,8.56015869140625,-0.00013038935139775276,0.0009567122906446457,-0.000014472752809524536
1772565835645186800,8.570186767578125,-0.000278982799500227,-0.0004162881523370743,-0.0003413185477256775
1772565835655215600,8.580215576171875,0.00039639510214328766,-0.001454920507967472,-0.0026795738376677036
1772565835665244000,8.590243896484376,0.0006422344595193863,0.0006504347547888756,-0.0017662267200648785
1772565835675272700,8.600272705078124,0.000713074579834938,-0.0015988703817129135,-0.0010072258301079273
1772565835685300700,8.61030078125,-0.0007825824432075024,0.00011023227125406265,-0.002604059409350157
1772565835695328800,8.620328857421875,-0.0002768482081592083,-0.00037739239633083344,0.0005840105004608631
1772565835705357800,8.63035791015625,-0.0007471488788723946,0.0005039358511567116,-0.00487078633159399
1772565835715385900,8.6403857421875,0.0006837677210569382,0.0002221735194325447,-0.0003966754302382469
1772565835725414700,8.65041455078125,0.0008130120113492012,0.0015898635610938072,0.00004123616963624954
1772565835735443700,8.660443603515626,0.00035920925438404083,-0.00031296443194150925,0.00015601841732859612
1772565835745471700,8.6704716796875,0.000839713029563427,-0.0006581572815775871,0.0003581736236810684
1772565835755500800,8.680500732421875,0.0011073602363467216,-0.00011380761861801147,-0.0038994222413748503
1772565835765528800,8.69052880859375,0.0015415968373417854,0.0008731614798307419,-0.004030216485261917
1772565835775557600,8.7005576171875,0.00081668421626091,-0.0004911758005619049,-0.0014762450009584427
1772565835785586000,8.7105859375,-0.0006492114625871181,0.00019423291087150574,-0.0015910756774246693
1772565835795614700,8.72061474609375,-0.00100634153932333,0.0005795927718281746,0.0008614286780357361
1772565835805642800,8.730642822265626,0.0013286173343658447,0.001842796802520752,0.0011645276099443436
1772565835815671800,8.740671875,0.00006654486060142517,-0.0024691279977560043,-0.002658173907548189
1772565835825699800,8.750699951171875,-0.0007603052072227001,0.001384795643389225,-0.0008340985514223576
1772565835835728000,8.760727783203125,0.0008772723376750946,-0.00047595519572496414,-0.0014069443568587303
1772565835845756700,8.770756591796875,0.0012054871767759323,0.002248607575893402,0.00065976707264781
1772565835855785000,8.780784912109375,-0.0005218391306698322,-0.0021293628960847855,-0.0002260003238916397
1772565835865813800,8.790813720703126,0.0009628133848309517,-0.00022936519235372543,-0.0005393167957663536
1772565835875841800,8.800841796875,-0.00026730122044682503,0.0005184505134820938,0.0023595336824655533
1772565835885870800,8.810870849609374,-0.00038697803393006325,0.003934165462851524,0.0006528729572892189
1772565835895899000,8.82089892578125,0.0011070556938648224,0.0005514193326234818,0.001929592341184616
1772565835905928000,8.830927978515625,0.00033197272568941116,0.0005487017333507538,-0.0005308915860950947
1772565835915955700,8.840955810546875,0.0010108128190040588,-0.0017687808722257614,0.0004986864514648914
1772565835925984800,8.85098486328125,-0.0012333807535469532,0.0003371136263012886,0.00004965532571077347
1772565835936012800,8.8610126953125,-0.0010442961938679218,0.0017826780676841736,-0.00029069650918245316
1772565835946041900,8.871041748046874,0.0004086298868060112,0.0004450315609574318,-0.0009170975536108017
1772565835956069600,8.881069580078124,0.00041502155363559723,-0.00042582210153341293,-0.0033799889497458935
1772565835966098000,8.891097900390625,-0.00003917049616575241,0.0020781168714165688,-0.0009867255575954914
1772565835976127000,8.901126953125,0.0005563125014305115,0.000059174373745918274,0.0013448717072606087
1772565835986154800,8.91115478515625,-0.0006257281638681889,0.00018330756574869156,0.0017560115084052086
1772565835996183800,8.921183837890625,0.00014818646013736725,0.0008949041366577148,-0.0000879606232047081
1772565836006211800,8.9312119140625,-0.00036752084270119667,-0.0003420468419790268,0.0005318997427821159
1772565836016241000,8.941240966796874,-0.0019145510159432888,0.0004907231777906418,-0.002624478191137314
1772565836026268700,8.9512685546875,-0.000573872122913599,0.000037107616662979126,0.002367895096540451
1772565836036297700,8.961297607421875,-0.00012113479897379875,0.0028800321742892265,0.0016709454357624054
1772565836046326000,8.971325927734375,-0.0002961577847599983,0.0016346229240298271,-0.00001048622652888298
1772565836056354800,8.981354736328125,0.0032703476026654243,-0.0012895278632640839,-0.0004038349725306034
1772565836066382800,8.9913828125,-0.0011500203981995583,-0.00015974417328834534,-0.0012066815979778767
1772565836076411600,9.00141162109375,0.00022390391677618027,0.0022799773141741753,0.0002591223455965519
1772565836086440000,9.01143994140625,-0.0015236884355545044,-0.0003910604864358902,-0.0004975371994078159
1772565836096467700,9.0214677734375,-0.001099446788430214,-0.0006216904148459435,0.002217289060354233
1772565836106496800,9.031496826171875,-0.0008591907098889351,-0.0004982016980648041,-0.0006142868660390377
1772565836116525000,9.041525146484375,-0.00024400046095252037,0.0008946312591433525,0.00011435383930802345
1772565836126553900,9.051553955078125,0.0015599802136421204,0.0007221242412924767,0.0009594871662557125
1772565836136582000,9.061581787109375,-0.0016240947879850864,-0.001436101272702217,-0.0017060707323253155
1772565836146610700,9.071610595703126,-0.0018094577826559544,-0.0004921834915876389,-0.000052191782742738724
1772565836156639000,9.081638916015624,0.00001853611320257187,0.00044764671474695206,0.0023486479185521603
1772565836166667800,9.091667724609374,0.00017272867262363434,0.0009583868086338043,0.0008355900645256042
1772565836176695800,9.10169580078125,-0.0007138377986848354,0.0014987420290708542,0.00007499102503061295
1772565836186724900,9.111724853515625,0.0006826529279351234,0.0007426068186759949,0.0011935443617403507
1772565836196753000,9.1217529296875,-0.0007229638285934925,0.0032859258353710175,-0.0008008969016373158
1772565836206782000,9.131781982421876,0.004064049571752548,0.00019364897161722183,-0.0008722837083041668
1772565836216809700,9.141809814453126,-0.0013299169950187206,-0.0008812025189399719,0.00002333708107471466
1772565836226837800,9.151837646484376,-0.0003668898716568947,0.004134620539844036,0.0003756345249712467
1772565836236866800,9.16186669921875,0.0001247301697731018,0.0015060808509588242,0.0013783150352537632
1772565836246894800,9.171894775390625,-0.0004913182929158211,0.0012084459885954857,0.0017836927436292171
1772565836256924000,9.181923828125,-0.0028175893239676952,0.0008933944627642632,0.0030628084205091
1772565836266951700,9.19195166015625,-0.00016050785779953003,0.001159832812845707,0.00013395817950367928
1772565836276981000,9.20198095703125,-0.0005368124693632126,0.0013177581131458282,0.0004356945864856243
1772565836287008800,9.2120087890625,0.0017516175284981728,-0.0006005140021443367,0.0010168175213038921
1772565836297037800,9.222037841796874,-0.0016071610152721405,-0.0024753790348768234,0.00032333051785826683
1772565836307065600,9.232065673828124,0.00048172660171985626,-0.0017406446859240532,0.0007478063926100731
1772565836317095000,9.242094970703125,0.0006460435688495636,0.0008937539532780647,-0.0006500869058072567
1772565836327123000,9.252123046875,0.0016499077901244164,0.0013911398127675056,-0.0009666257537901402
1772565836337151700,9.26215185546875,0.00011432915925979614,-0.0003798622637987137,0.0009031794033944607
1772565836347179800,9.2721796875,-0.0015433980152010918,-0.0019162306562066078,-0.0036418852396309376
1772565836357207800,9.282207763671876,0.000435863621532917,-0.0017287442460656166,0.0035609002225100994
1772565836367236900,9.29223681640625,0.0025033876299858093,0.00047110021114349365,0.0005208076909184456
1772565836377264600,9.3022646484375,-0.0012966771610081196,0.001460198312997818,-0.0009420672431588173
1772565836387293700,9.312293701171875,-0.00001674983650445938,-0.0005174437537789345,0.0006801490671932697
1772565836397321700,9.32232177734375,0.0005768686532974243,-0.001073511317372322,0.0005744216032326221
1772565836407350800,9.332350830078125,0.0004875417798757553,0.0005757184699177742,0.0020123468711972237
1772565836417378800,9.34237890625,-0.001894922461360693,-0.0008000703528523445,0.0006136549636721611
1772565836427407600,9.35240771484375,0.000299219973385334,0.003263985738158226,0.0013608932495117188
1772565836437436000,9.362435791015624,0.0007405057549476624,-0.00003274157643318176,-0.00186472712084651
1772565836447464700,9.372464599609375,0.0006038257852196693,-0.0007446017116308212,0.0007750792428851128
1772565836457492700,9.38249267578125,-0.003893987275660038,-0.0010482016950845718,0.0021402155980467796
1772565836467520800,9.392520751953125,0.00004938989877700806,0.0010648081079125404,-0.0012933420948684216
1772565836477549800,9.4025498046875,0.0015415586531162262,-0.0012723812833428383,0.0009506372734904289
1772565836487577900,9.412577880859375,-0.001769467256963253,0.000689871609210968,0.00010847626253962517
1772565836497606700,9.422606689453126,0.0008036792278289795,-0.00004276446998119354,-0.002483844757080078
1772565836507635000,9.432635009765624,-0.0010088072158396244,-0.0007830783724784851,-0.0006080502644181252
1772565836517663700,9.442663818359375,0.003076481632888317,-0.001324232667684555,-0.0016975495964288712
1772565836527691800,9.45269189453125,-0.00029520178213715553,-0.0008743461221456528,-0.00037602800875902176
1772565836537724000,9.462723876953126,-0.00047150300815701485,-0.0012889998033642769,-0.00003993697464466095
1772565836547752000,9.472751953125,0.0034883888438344,0.00010562781244516373,-0.00019216816872358322
1772565836557780700,9.48278076171875,-0.00007998105138540268,0.0012936638668179512,-0.0015402603894472122
1772565836567808800,9.492808837890625,0.0009415652602910995,-0.0024702828377485275,0.00042084651067852974
1772565836577837800,9.502837890625,-0.0011341022327542305,-0.0027517788112163544,-0.0004002065397799015
1772565836587865900,9.512865966796875,-0.001974586397409439,-0.00032715871930122375,-0.0034146816469728947
1772565836597895000,9.52289501953125,-0.0029354547150433064,-0.0023120129480957985,-0.0002167578786611557
1772565836607922700,9.532922607421876,-0.001328805461525917,-0.0016413312405347824,0.001849721185863018
1772565836617951000,9.542950927734376,0.0004259515553712845,-0.0023414762690663338,0.00034077372401952744
1772565836627979800,9.552979736328124,0.0000017834827303886414,0.0005943598225712776,-0.000599332619458437
1772565836638007800,9.5630078125,0.0013762414455413818,0.0009448323398828506,0.0005471585318446159
1772565836648036600,9.57303662109375,0.0019449274986982346,-0.002130321227014065,-0.002014347817748785
1772565836658065000,9.58306494140625,0.0010375892743468285,-0.0006677135825157166,0.000715126283466816
1772565836668094000,9.593093994140625,-0.0005500223487615585,-0.0012250849977135658,-0.0023597399704158306
1772565836678121700,9.603121826171876,0.00042522698640823364,-0.002207525074481964,0.001465358305722475
1772565836688150800,9.61315087890625,0.00002257898449897766,-0.00031281355768442154,0.0022753127850592136
1772565836698178800,9.6231787109375,0.00018023792654275894,0.0005324743688106537,0.00004757847636938095
1772565836708207900,9.633207763671875,-0.0014946493320167065,0.0006219819188117981,-0.0022948593832552433
1772565836718235600,9.643235595703125,-0.0012831944040954113,0.0002249041572213173,0.0013704495504498482
1772565836728264000,9.653263916015625,0.0008964380249381065,-0.000008258968591690063,0.00297358725219965
1772565836738293000,9.66329296875,-0.00126205338165164,-0.0015941718593239784,0.001140267588198185
1772565836748320800,9.67332080078125,-0.0016668611206114292,-0.0044846804812550545,0.0008878903463482857
1772565836758349800,9.683349853515624,-0.0002769571729004383,0.0007638772949576378,0.0019768569618463516
1772565836768377900,9.6933779296875,0.0010072458535432816,-0.00042722374200820923,0.00016079889610409737
1772565836778407000,9.703406982421875,-0.00013658218085765839,-0.0000421302393078804,-0.0015545431524515152
1772565836788434700,9.7134345703125,-0.0002073715440928936,-0.0003276672214269638,-0.0008089924231171608
1772565836798463700,9.723463623046875,-0.0018987450748682022,0.0024473462253808975,-0.0004832879640161991
1772565836808491800,9.73349169921875,0.0003734547644853592,-0.0006087087094783783,-0.0012623541988432407
1772565836818520800,9.743520751953126,0.0018903911113739014,0.0007460415363311768,-0.00041227322071790695
1772565836828548900,9.753548828125,-0.000560068991035223,-0.0008277138695120811,-0.00038455473259091377
1772565836838577700,9.76357763671875,-0.0007273158989846706,0.00028095953166484833,0.0009358404204249382
1772565836848606000,9.77360595703125,-0.0012607467360794544,-0.0012730006128549576,-0.0006490168161690235
1772565836858633700,9.7836337890625,0.0007587289437651634,0.00208098441362381,-0.001779261976480484
1772565836868662800,9.793662841796875,0.0004383539780974388,-0.0016551995649933815,-0.0024827332235872746
1772565836878690800,9.80369091796875,0.0000146450474858284,-0.0012410776689648628,-0.001308279111981392
1772565836888720000,9.813719970703126,-0.0001973179168999195,-0.0024699540808796883,0.0006100405007600784
1772565836898748000,9.823747802734376,-0.00004365341737866402,-0.000785239040851593,0.0011163074523210526
1772565836908776700,9.833776611328124,-0.00028576934710144997,0.0005411738529801369,-0.0007445607334375381
1772565836918805000,9.843804931640625,-0.0001629972830414772,-0.001641552895307541,-0.0024793436750769615
1772565836928833800,9.853833740234375,0.0010014558210968971,-0.0018644947558641434,0.0007029701955616474
1772565836938861800,9.86386181640625,-0.001871828455477953,-0.000771799124777317,0.00008911127224564552
1772565836948891000,9.873890869140626,-0.000058014411479234695,-0.00023681018501520157,0.0028643980622291565
1772565836958919000,9.8839189453125,0.0006013838574290276,-0.0002352120354771614,-0.00020596012473106384
1772565836968947000,9.893947021484376,-0.0013856403529644012,-0.0014907028526067734,-0.0036278991028666496
1772565836978975700,9.903975830078124,0.0006929570809006691,-0.001578853465616703,0.0017564799636602402
1772565836989003800,9.914003662109375,0.00011859089136123657,0.0010429369285702705,-0.0038794330321252346
1772565836999032800,9.92403271484375,0.00018144119530916214,0.002269589342176914,-0.0007161302492022514
1772565837009060900,9.934060791015625,-0.0019261683337390423,0.0006750905886292458,-0.0013275938108563423
1772565837019089700,9.944089599609375,0.0032448917627334595,0.004012564197182655,0.00261122127994895
1772565837029117700,9.95411767578125,0.0027108360081911087,0.016978060826659203,0.010727987624704838
1772565837039147000,9.96414697265625,-0.0011930917389690876,0.010415764525532722,0.005387285724282265
1772565837049174800,9.9741748046875,-0.0004753870889544487,0.0052255019545555115,0.0006502773612737656
1772565837059203800,9.984203857421875,0.0008191755041480064,-0.001406833529472351,0.0007445532828569412
1772565837069231900,9.99423193359375,0.0005040224641561508,-0.00008699949830770493,-0.0012302529066801071
1772565837079261000,10.004260986328125,-0.001828906126320362,-0.003944587893784046,-0.00046885525807738304
1772565837089288700,10.014288818359375,-0.0017366977408528328,-0.003530059941112995,0.00024401722475886345
1772565837099316700,10.024316650390626,0.003369380719959736,-0.0026341723278164864,-0.0019496283493936062
1772565837109345800,10.034345703125,-0.0000438089482486248,-0.00638158991932869,-0.0030101649463176727
1772565837119373800,10.044373779296874,0.0016457000747323036,-0.004613250959664583,-0.006521009840071201
1772565837129403000,10.05440283203125,-0.0009817448444664478,-0.004763023927807808,-0.0016066948883235455
1772565837139430700,10.0644306640625,-0.00012021185830235481,-0.0016007861122488976,-0.0010146740823984146
1772565837149459700,10.074459716796875,-0.0038688904605805874,0.0007487991824746132,-0.0004264353774487972
