time,seconds_elapsed,z,y,x
1772567348584685600,0.087685546875,-11.841810258460043,-2.4759470464289186,-1.183893338784948
1772567348594714600,0.097714599609375,-10.624954926598072,-2.056678262785077,-0.4733210571531206
1772567348604742700,0.10774267578125,-8.809406556355952,-1.4873445898801088,-0.3818422123733908
1772567348614771700,0.117771728515625,-6.705424690604209,-0.9410971935302018,-0.2574999395202845
1772567348624800800,0.12780078125,-4.875737904894351,-0.5903212236151099,0.12702508219629524
1772567348634829800,0.137829833984375,-3.122128396692872,-0.6491895921692252,-0.02566884039416909
1772567348644857600,0.147857666015625,-1.3077525773614644,-0.7826511371538043,-0.029045988677069545
1772567348654886700,0.15788671875,0.352875864803791,-0.896329246520996,0.014053440598025917
1772567348664915500,0.16791552734375,1.6956851424992083,-0.7723471852824092,0.048735316270217294
1772567348674944500,0.177944580078125,2.690525032132864,-0.2861801636248827,0.3572906125061214
1772567348684973800,0.187973876953125,3.4501293479591606,0.046262569481134413,0.7064899807542562
1772567348695001600,0.198001708984375,4.011279129886627,0.2272910445436835,0.9573307546462864
1772567348705030700,0.20803076171875,4.30945017555654,0.44012394014596934,1.1978908114120363
1772567348715059700,0.218059814453125,4.480682356008887,0.5056280934527516,1.1891627305552364
1772567348725088500,0.228088623046875,4.516104967045783,0.4426972977653146,0.8996927316047251
1772567348735116800,0.23811669921875,4.445277280628681,0.4415492967739701,0.6972422599375248
1772567348745145600,0.2481455078125,4.340754245358705,0.5038187059432268,0.5697582915252074
1772567348755174700,0.258174560546875,4.172286853444576,0.5772308558955789,0.5611486859489232
1772567348765203700,0.26820361328125,4.139771069765091,0.5942366434931755,0.6129704969923943
1772567348775231500,0.2782314453125,4.376987588256597,0.6325479617089033,0.4977170645998791
1772567348785260800,0.2882607421875,4.605889282867312,0.7096145425155759,0.4055970723723992
1772567348795289900,0.298289794921875,5.04165327423811,0.7014645538076758,0.39814818113856015
1772567348805318700,0.308318603515625,5.602859754788875,0.712962099377811,0.36630076170731335
1772567348815347700,0.31834765625,5.942739359897375,0.9162006526827812,0.5120759178852662
1772567348825375500,0.32837548828125,6.217746387600898,1.068754728411138,0.5941332561839372
1772567348835404500,0.338404541015625,6.586672054451704,1.1763313060328364,0.4330814012233168
1772567348845433600,0.34843359375,6.8235267538934945,1.477043560618162,0.29940610389020295
1772567348855462700,0.358462646484375,6.51396337659359,1.8441037258580326,0.44808775863200423
1772567348865490700,0.36849072265625,5.888556518810987,1.8509832562386987,0.5327618918329478
1772567348875519700,0.378519775390625,5.376134235173463,1.6650073879018426,0.05754018869027495
1772567348885548500,0.388548583984375,4.900576578074693,1.6585262091889976,-0.5318875201512128
1772567348895577600,0.39857763671875,4.128168310254812,1.636125284549594,-0.7197950141377747
1772567348905605600,0.408605712890625,3.1367297534972427,1.4843132593601942,-0.5967587093167006
1772567348915634700,0.418634765625,1.8407862718731163,1.1485364133954048,-0.3814651226893067
1772567348925663700,0.428663818359375,0.2547305478721857,0.5713233854174614,-0.14744374697729945
1772567348935692500,0.438692626953125,-1.3093173424601554,0.08815817592442035,0.3437603920646012
1772567348945721600,0.4487216796875,-2.195817268884182,-0.22244740390479564,0.9383823816135525
1772567348955749600,0.45874951171875,-3.5562265006780622,-0.5183396909877658,1.3354827341996132
1772567348965778700,0.46877880859375,-5.437055444604158,-0.8102414471298456,1.5801340788669884
1772567348975807700,0.478807861328125,-7.163036356645822,-1.1466527916058897,1.2086904378458856
1772567348985836800,0.4888369140625,-8.15195971571207,-1.3212293140500784,0.14263357021659612
1772567348995864600,0.498864501953125,-8.489867728486656,-1.354326404748857,-1.1043366216629742
1772567349005893600,0.5088935546875,-8.662179520869255,-1.527813086129725,-1.675030038613826
1772567349015922400,0.51892236328125,-8.373357318302988,-1.693429472526908,-1.3718318124316633
1772567349025951700,0.52895166015625,-8.134326443865895,-1.7922762157261372,-0.8635989433079957
1772567349035979800,0.538979736328125,-7.9861817090123886,-1.9021622393339872,-0.06226473299413919
1772567349046008600,0.549008544921875,-7.313626731085777,-2.1579177463397383,0.7395527307920158
1772567349056037600,0.55903759765625,-6.26300825560689,-2.4142276723578573,1.2507859507754444
1772567349066066700,0.569066650390625,-5.09866520127058,-2.606161280055344,1.5645258831076323
1772567349076094700,0.5790947265625,-4.085677660527825,-2.6050676395997403,1.736480971007049
1772567349086123800,0.589123779296875,-3.3511189386308193,-2.3247648435756565,1.9181063890494405
1772567349096152600,0.599152587890625,-2.5696079114228487,-1.7269266684591769,2.030268833156675
1772567349106181600,0.609181640625,-1.5662538759440183,-1.0061167781904339,1.7798977956682442
1772567349116210400,0.61921044921875,-0.47545419672429556,-0.36596944739371534,1.0302657155409454
1772567349126238500,0.629238525390625,0.6528086594492196,0.09009791181534528,0.03482552192658186
1772567349136267500,0.639267578125,1.7078852833807467,0.4108867397457361,-0.7936715667314826
1772567349146296600,0.649296630859375,2.32249193020761,0.7160480826944112,-1.3403113233998416
1772567349156325600,0.65932568359375,2.8341514127790925,0.908957257425785,-1.5092401953458785
1772567349166353400,0.669353515625,3.237714093247056,0.9258180835947394,-1.367963300435245
1772567349176382500,0.679382568359375,3.4114310762524602,0.9139765468925237,-0.9087084702964872
1772567349186411500,0.68941162109375,3.3735487971037625,0.8685831614613533,-0.39774055018573995
1772567349196440600,0.699440673828125,3.167083975228667,0.8229699957996607,0.06994673886410892
1772567349206468600,0.709468505859375,3.222864314639568,0.7950792415723205,0.41854872574098406
1772567349216497400,0.719497314453125,3.5572926686048505,0.7704103720009327,0.18477277615740895
1772567349226526500,0.7295263671875,3.800389477306604,0.7243418637871741,-0.41316535220220685
1772567349236555500,0.739555419921875,4.0888884392678735,0.7533844183981419,-0.7411038326915353
1772567349246583600,0.74958349609375,4.578889047738909,0.7927861621990799,-0.8646355928793549
1772567349256612600,0.759612548828125,5.042749837303162,0.9454586036100983,-0.9008419016398489
1772567349266641700,0.7696416015625,5.2408337843239305,1.1186220443859696,-0.7277073216322809
1772567349276670500,0.77967041015625,5.352413752368093,1.151691662555933,-0.2915631718374789
1772567349286698500,0.789698486328125,5.341247630709409,1.076511333887279,0.06886756532527506
1772567349296727300,0.799727294921875,5.225457936015725,0.9644158175364136,0.30378691279031333
1772567349306756600,0.809756591796875,5.0758144870370625,0.8109311829596757,0.388999682912603
1772567349316785700,0.81978564453125,5.0347898182094095,0.7154816809833049,0.4798937866069376
1772567349326814500,0.829814453125,5.026418880227208,0.6248913094758987,0.5127855639919638
1772567349336842500,0.839842529296875,5.021113759556412,0.5187056016907096,0.22058964720889926
1772567349346871600,0.84987158203125,4.71240378421545,0.4552718249171972,-0.26525150349512694
1772567349356900400,0.859900390625,4.1817847496300935,0.4852463996812701,-0.6717237877994775
1772567349366929400,0.869929443359375,3.7639234946966167,0.6791232504010201,-0.8319001750998198
1772567349376957400,0.87995751953125,2.686583601030707,0.7059571890518069,-0.8796844011902809
1772567349386986500,0.889986572265625,1.2180600314766168,0.649680298295617,-1.0131947537526487
1772567349397015600,0.900015625,0.284937470087409,0.4556315981402993,-0.7864053751207888
1772567349407044600,0.910044677734375,0.6663304043233395,0.3456049970179796,0.04791676642894745
1772567349417072600,0.92007275390625,0.07778992664515971,0.7130360413968563,0.5644634365200996
1772567349427101700,0.930101806640625,-1.348684891730547,0.9669482586234808,0.2551186704069376
1772567349437130500,0.940130615234375,-3.15676482578814,0.6333157312110066,-0.43014016013965006
1772567349447159600,0.95015966796875,-5.348616698172688,0.37654607872664925,-0.6040960664674639
1772567349457187300,0.960187255859375,-7.539691740965843,0.48600364778935906,-0.5057448517002165
1772567349467216400,0.97021630859375,-7.717347816985845,0.48655076027810573,-0.027698300395160913
1772567349477245700,0.98024560546875,-6.211459270155429,0.2778521880015731,0.42022637662962076
1772567349487274800,0.990274658203125,-5.694883958491682,-0.16909370711892843,0.37943610107973214
1772567349497302500,1.000302490234375,-5.970847848528623,-0.558578470134735,0.513853047093004
1772567349507331600,1.01033154296875,-6.317827056509256,-1.0520464624553918,0.885115194067359
1772567349517360400,1.0203603515625,-6.6548349055737255,-1.6195754240259528,1.4819060520879923
1772567349527389400,1.030389404296875,-7.4376067464977496,-2.1644889414235946,2.040639566653967
1772567349537418500,1.04041845703125,-7.749918545722961,-2.555598383031785,2.283797604023665
1772567349547446500,1.050446533203125,-6.967089421653747,-2.438370472228527,2.159833516833186
1772567349557475600,1.0604755859375,-5.896753853791952,-1.7996105041369794,1.8508210514143109
1772567349567504600,1.070504638671875,-4.935698744860291,-1.0493804581165314,1.4094009339779614
1772567349577533400,1.080533447265625,-4.149217528024316,-0.583668487727642,0.877664293539524
1772567349587561700,1.090561767578125,-3.5512907978415487,-0.32247663488686085,0.27414982635229823
1772567349597590500,1.100590576171875,-2.775736633211374,-0.23416911361962556,-0.21149083334356544
1772567349607619600,1.11061962890625,-1.8172990133017302,-0.43007659338414667,-0.8182274043824523
1772567349617648600,1.120648681640625,-0.6963292367458344,-0.586634059534967,-1.268076985055208
1772567349627676400,1.130676513671875,0.4389642487168312,-0.4887237204030156,-1.0451917742550372
1772567349637705500,1.14070556640625,1.2251660640895365,-0.4028869731634855,-0.5636284470006824
1772567349647734500,1.150734619140625,1.8143734812438488,-0.5795183823108673,-0.11289024692513049
1772567349657763600,1.160763671875,2.516405898067355,-0.6071271047264337,0.4998295632418245
1772567349667791600,1.17079150390625,3.277545752897858,-0.5306124587140977,0.7003772700276225
1772567349677820400,1.1808203125,4.047433562329411,-0.4687332179062068,0.5501465957455337
1772567349687849500,1.190849365234375,4.759527354440093,-0.3897948518782854,0.5434092137819155
1772567349697878500,1.20087841796875,5.35775160626471,-0.3860068577721715,0.6210536310091614
1772567349707906600,1.210906494140625,5.800751978629827,-0.36368206710889933,0.5500090869709849
1772567349717935600,1.220935546875,6.058147361797094,-0.3114839700989425,0.2843460435329005
1772567349727964700,1.230964599609375,6.26675504091978,-0.2973573911994695,0.026816256863623857
1772567349737993500,1.240993408203125,6.41946372268796,-0.14992548079043627,-0.17657482012193648
1772567349748021500,1.251021484375,6.553113483721018,-0.07758972789794207,-0.09595452888906002
1772567349758050600,1.261050537109375,6.530861319902539,0.05765577789396047,0.225807199194096
1772567349768079600,1.27107958984375,6.312298648476601,0.23099428297579286,0.46013146684281525
1772567349778108700,1.281108642578125,5.980631575918197,0.3164294636771083,0.4967258981380611
1772567349788137500,1.291137451171875,5.710653190031647,0.27136984024494887,0.43188126818593586
1772567349798165500,1.30116552734375,5.431825142735242,0.29295506458729503,0.3608626623066142
1772567349808194600,1.311194580078125,5.113880890581012,0.3809636029079556,0.23646348990080876
1772567349818223400,1.321223388671875,4.898652332013845,0.6243529648154974,0.0789978959291242
1772567349828252700,1.331252685546875,4.825302433642745,0.8975327770918607,0.0021814722249284386
1772567349838280400,1.341280517578125,4.661934995216131,1.0139239448100328,-0.11475593119915574
1772567349848309500,1.3513095703125,4.020573612454533,1.0749337093070148,-0.10177669570390134
1772567349858338600,1.361338623046875,3.0277316186398266,0.920406579940021,-0.133610890327394
1772567349868367400,1.371367431640625,1.61966456361413,0.5948477611288427,0.02104468772485852
1772567349878395600,1.381395751953125,-0.09033785805106162,0.13456833718270061,0.038484628956019874
1772567349888424700,1.3914248046875,-2.1799211960941554,-0.33154110809117554,0.011358137099444866
1772567349898453500,1.40145361328125,-4.121815726357698,-0.5795782958045601,0.3335523017831147
1772567349908482600,1.411482666015625,-5.941060613030195,-0.782769210575521,0.7368198717620223
1772567349918510300,1.42151025390625,-7.566640538167953,-0.5329992077201604,0.9150524324957281
1772567349928539400,1.431539306640625,-8.574058169823884,-0.014651917947828769,0.4765196339987218
1772567349938568700,1.441568603515625,-9.195979523578286,0.32010026114434004,-0.27326288744993504
1772567349948597500,1.451597412109375,-10.338843152034283,0.17033230900317428,-1.2720955730468033
1772567349958625500,1.46162548828125,-11.434492024850845,-0.5321899371638894,-1.9007178857445717
1772567349968654600,1.471654541015625,-11.732536229270696,-1.473509541273117,-1.7856614737614989
1772567349978683400,1.481683349609375,-11.220051986312866,-2.160871627709269,-1.076433007954061
1772567349988712400,1.49171240234375,-10.207655397200584,-2.1822607449576257,-0.30253683966398237
1772567349998740500,1.501740478515625,-8.574584824046491,-3.036255701357126,0.21840433905906975
1772567350008769500,1.51176953125,-7.227581017270684,-3.4798370884805916,0.913464067325741
1772567350018798600,1.521798583984375,-5.996096271553635,-3.0707711344212294,1.2258730433151126
1772567350028827400,1.531827392578125,-4.623389868244528,-2.496734982913732,1.347851071254909
1772567350038856400,1.5418564453125,-3.2507804955691095,-2.0827800877690312,1.259285483573377
1772567350048884700,1.551884765625,-2.343564528852701,-1.8365864820957183,0.8539612733256071
1772567350058913500,1.56191357421875,-1.643948525521159,-1.6101900483042,0.6013319355163723
1772567350068942600,1.571942626953125,-0.9202332691997289,-1.1967623919039965,0.5249792020674795
1772567350078971600,1.5819716796875,0.12744038499891758,-0.7379296596348285,0.2111150588337332
1772567350088999400,1.59199951171875,0.938487887814641,-0.4106754350826144,-0.6272636646304279
1772567350099028500,1.602028564453125,1.666481844368577,-0.15494126312583684,-1.4106786988288162
1772567350109057500,1.6120576171875,2.3175006977915764,0.06892272957861423,-1.7555811005353927
1772567350119086800,1.6220869140625,2.902828058642149,0.29516923350542784,-1.8560458003252744
1772567350129114600,1.632114501953125,3.3138702812105416,0.44079555579721924,-1.65440489147529
1772567350139143700,1.642143798828125,3.631702305161953,0.43533933621793985,-1.3079134670116006
1772567350149172500,1.65217236328125,4.030870550063252,0.4140913810059428,-1.0961614985138177
1772567350159201500,1.662201416015625,4.475402369779348,0.5151049468502402,-1.0176379238318651
1772567350169229800,1.672229736328125,4.736711126998067,0.7479071560308337,-0.9719711282867938
1772567350179258600,1.682258544921875,5.255085597038269,1.0462389452204108,-0.7001528136219829
1772567350189287700,1.69228759765625,5.899458436575531,1.2416487045958637,-0.48497733694892375
1772567350199316700,1.702316650390625,6.218002408188581,1.4253934528797865,-0.35587475435882804
1772567350209344500,1.712344482421875,6.571941518309712,1.5133984840691088,-0.3184092027848586
1772567350219373800,1.722373779296875,6.837471692615747,1.5807956115156412,-0.38033001771215347
1772567350229402600,1.732402587890625,6.937495078378915,1.6194494595587252,-0.4047232121473178
1772567350239431700,1.742431640625,6.951202116692066,1.6915803375288843,-0.29763876542411744
1772567350249459700,1.752459716796875,6.919203634884953,1.749205720284581,-0.07347619163189083
1772567350259488500,1.762488525390625,6.90703096653223,1.6391642138540743,0.07581935722455382
1772567350269517600,1.772517578125,6.820813403281569,1.4327359245970845,0.19220581223499028
1772567350279546600,1.782546630859375,6.573502776277065,1.2791922533094882,0.23956651568375525
1772567350289575700,1.79257568359375,6.433075483933091,1.2167737910583614,0.2353839693021029
1772567350299603700,1.802603759765625,6.202616038486362,1.281973408460617,0.1418313504556194
1772567350309632500,1.812632568359375,5.815336968821287,1.46274264806509,0.10240312050655484
1772567350319661600,1.82266162109375,5.295577766424417,1.5443299211665986,0.14281272617578505
1772567350329689900,1.83268994140625,4.536071065753698,1.4710244464591145,0.18430493944995105
1772567350339718700,1.84271875,3.596559095588326,1.3696370788663625,0.3352477075241506
1772567350349747700,1.852747802734375,2.4716321058392525,1.0925459383651615,0.5352537086486816
1772567350359776800,1.86277685546875,1.1047393572449684,0.5323702621668577,0.7729154136244207
1772567350369805600,1.8728056640625,-0.2825122887670994,-0.014455518592894076,0.9176624688636511
1772567350379833600,1.88283349609375,-1.7650410027980803,-0.43927083044797177,0.9593588994730263
1772567350389862700,1.892862548828125,-2.968397970661521,-0.5978457739010453,0.9605611879348754
1772567350399891700,1.9028916015625,-4.039281235533952,-0.5156465063810348,1.1679020619921385
1772567350409920800,1.912920654296875,-5.736439373195171,-0.5258917138025164,1.577322236316651
1772567350419948500,1.922948486328125,-7.07850046287179,-0.5874424533084035,1.928031716866791
1772567350429977600,1.9329775390625,-8.276603163468836,-0.6129957044988871,1.70764592166692
1772567350440006700,1.943006591796875,-9.537677576285601,-0.7549979910746216,1.2852036225534975
1772567350450035500,1.953035400390625,-10.43795234556198,-1.1075123290896416,1.2686916098222136
1772567350460063700,1.963063720703125,-10.98658225313425,-1.4554685654088855,1.546794119323045
1772567350470092800,1.9730927734375,-10.89406062130332,-1.6182383302032946,1.754220625837147
1772567350480121600,1.98312158203125,-10.30173302630186,-1.6074313972458243,1.7195614003881812
1772567350490150700,1.993150634765625,-9.331703752797841,-1.5178645235672592,1.6442178439818322
1772567350500178700,2.0031787109375,-8.095642200684546,-1.4067074571102858,1.4979787966191769
1772567350510207700,2.013207763671875,-6.682229108455776,-1.2767246941521764,1.1947674917597324
1772567350520236800,2.02323681640625,-5.2662043724238865,-1.249818859308958,0.8830860993925481
1772567350530265600,2.033265625,-4.200133476269245,-1.4366162731617689,0.7542006301518529
1772567350540293600,2.043293701171875,-3.3234055867969987,-1.7232406734228134,0.8206970093663781
1772567350550322700,2.05332275390625,-2.3272592907398937,-1.6856714057460427,0.9202557732924819
1772567350560351500,2.0633515625,-1.1383861907809971,-1.184366436189413,0.9784484345421195
1772567350570380800,2.073380859375,0.030153730723261832,-0.570980855590105,0.8813210624814033
1772567350580408600,2.08340869140625,0.9807482359170913,-0.05597615424394607,0.5499206780351698
1772567350590437600,2.093437744140625,1.8377642937034366,0.4077326596289873,0.21234197028018534
1772567350600466700,2.103466796875,2.48008487688601,0.7148091885492205,-0.015080052832560613
1772567350610495500,2.11349560546875,3.080833678752184,0.9026908905074,-0.25925197081938384
1772567350620523800,2.123523681640625,3.701796416607499,1.0394096837222575,-0.4821614392779767
1772567350630552800,2.133552734375,4.194171937516331,1.0079682512760162,-0.6099973264005035
1772567350640581600,2.14358154296875,4.676836796271801,0.7432461784824729,-0.580788804105483
1772567350650610700,2.153610595703125,5.32502013400793,0.46156829471290106,-0.3906079218268394
1772567350660639700,2.1636396484375,5.903186517187953,0.2758198053911328,-0.13605930639281869
1772567350670667800,2.173667724609375,6.339354997706413,0.10988719265162944,0.02999492799893487
1772567350680696800,2.18369677734375,6.608673458379506,-0.09759177470207214,0.17326202404582872
1772567350690725600,2.1937255859375,6.781869047859311,-0.30955081007927654,0.31182613460011777
1772567350700754700,2.203754638671875,6.883081351146101,-0.3414855790004134,0.3618037060163915
1772567350710782700,2.21378271484375,6.844979876288771,-0.19319179106503723,0.43881015413366253
1772567350720811500,2.2238115234375,7.180406593641639,-0.14134645301550625,0.28557777728494255
1772567350730840600,2.233840576171875,7.49122610848248,-0.03499503327459097,0.16482271526884287
1772567350740870000,2.243869873046875,7.375029586553573,0.06705167500972747,0.04846873775590211
1772567350750897700,2.253897705078125,7.111370466816425,0.04048047894835472,-0.03734506699945778
1772567350760926700,2.2639267578125,6.930919791641831,0.05610445679873228,0.07217866263464093
1772567350770955500,2.27395556640625,6.406742188280821,0.08822247333228588,0.30927045876793563
1772567350780984600,2.283984619140625,5.758813117566705,0.036726971633732314,0.3150185739658773
1772567350791012900,2.294012939453125,5.062743408539891,0.021288287222385405,0.15386026295609773
1772567350801041700,2.304041748046875,3.781991066306829,-0.24999504378288984,0.5432791941940784
1772567350811070700,2.31407080078125,2.3442688777297733,-0.9185548145934939,0.23818865145929155
1772567350821099800,2.324099853515625,1.1673346373677254,-1.1609884832113981,-0.5025091577146202
1772567350831127600,2.33412744140625,-0.017673603856563566,-1.0707497016206382,-0.9463163164179772
1772567350841156600,2.344156494140625,-1.195289981263876,-1.2032613985344767,-1.104474495763704
1772567350851185700,2.354185546875,-2.5168285073935985,-1.2797025409191847,-0.4261997519508004
1772567350861214700,2.364214599609375,-4.086667256087065,-1.2605235009357332,1.0321997523434459
1772567350871242800,2.37424267578125,-5.403356588619947,-1.3976537975609302,2.3272990382283925
1772567350881271600,2.384271484375,-6.616666210699081,-1.5302794762432574,2.313627363489568
1772567350891300600,2.394300537109375,-7.983629686442017,-1.3545578754171728,1.0601816919855773
1772567350901329700,2.40432958984375,-9.01545578316748,-1.3420160814911126,-0.07468480023667216
1772567350911357700,2.414357666015625,-9.492240351712702,-1.5770944189101457,-0.3135793349429965
1772567350921386800,2.42438671875,-9.749415370127558,-1.823517157164216,0.1696316133879125
1772567350931415600,2.43441552734375,-9.784577868923543,-2.0412030457556245,0.6825069014899432
1772567350941444600,2.444444580078125,-9.479383792749047,-2.175340298044681,1.1228276793822645
1772567350951473700,2.4544736328125,-9.041149027350544,-2.1315549323320386,1.3652185317717491
1772567350961501700,2.464501708984375,-8.490152975168824,-1.9876862673625348,1.2651079061165451
1772567350971530800,2.47453076171875,-7.7528621979594226,-1.9644749031230806,0.835485851566866
1772567350981559800,2.484559814453125,-6.994433940175175,-2.093866422189772,0.6316808965507894
1772567350991588600,2.494588623046875,-5.875313590878248,-2.045318079859018,0.6024636064274236
1772567351001616600,2.50461669921875,-4.450022429329157,-1.7181453961104154,0.39604116238933057
1772567351011645400,2.5146455078125,-2.8130566023021935,-1.2020686816185713,0.15629750004038215
1772567351021674800,2.5246748046875,-1.3127929096162319,-0.6919938378900289,-0.02776559347771108
1772567351031703800,2.534703857421875,0.01917407154738903,-0.27405864093750715,-0.15290619536796585
1772567351041731600,2.544731689453125,1.1811691014528274,0.10141893177479505,-0.24150837046653031
1772567351051760600,2.5547607421875,2.0809183855503797,0.41458179487138985,-0.16084654164686799
1772567351061789700,2.564789794921875,2.839624875754118,0.7392690915450454,0.11489006070652975
1772567351071818500,2.574818603515625,3.5361043346256014,1.0434171657979487,0.46206228877492245
1772567351081846800,2.5848466796875,4.233199879568815,1.215327391642332,0.5872703116118908
1772567351091875600,2.59487548828125,4.856463880103826,1.3037912725150584,0.4078018524076789
1772567351101904600,2.604904541015625,5.405409429496526,1.2674372258469462,0.06466582105280831
1772567351111933700,2.61493359375,5.961407235488295,1.1453072222158311,-0.04951108641568571
1772567351121960700,2.624960693359375,6.427882591465115,1.0290285749614239,0.05102167364172637
1772567351131989800,2.63498974609375,6.856985371381044,1.0304793582916258,0.2717665844775736
1772567351142018600,2.6450185546875,7.2278481437742705,1.1676105316996575,0.5447013359516859
1772567351152047600,2.655047607421875,7.36580407756865,1.2331988561585545,0.6467731056120246
1772567351162075600,2.66507568359375,7.488674085912108,1.2331707991078495,0.717611021162197
1772567351172104700,2.675104736328125,7.5410548460125915,1.2549322567999361,0.7487593158807605
1772567351182133800,2.6851337890625,7.356765615588426,1.2406295906811953,0.6766249307792633
1772567351192162800,2.695162841796875,7.217172435981035,1.1991317513838409,0.5474667455444112
1772567351202190600,2.705190673828125,7.1103364475935695,1.1740890800639987,0.3707083855491131
1772567351212219600,2.7152197265625,6.8422653566330665,1.1278408313691615,0.2655775205790996
1772567351222248400,2.72524853515625,6.554378973612189,1.09574707249403,0.2231491954986006
1772567351232277500,2.735277587890625,6.038522039350867,1.0613920906886458,0.02446103550698608
1772567351242305800,2.745305908203125,5.453107000216842,0.9836918881535529,-0.30584811963643876
1772567351252334600,2.75533447265625,4.770441547164321,0.9544801144555211,-0.39397878649942575
1772567351262363600,2.76536376953125,3.537780743405223,0.8351172374501824,-0.13441983209010214
1772567351272392700,2.775392822265625,2.0865596063077447,0.4981479668304324,0.015598368485085666
1772567351282421500,2.78542138671875,0.27430384787023065,-0.0024172902747988697,-0.14308438272401688
1772567351292449800,2.79544970703125,-1.7462690823107956,-0.5636331231757998,-0.17705306862555442
1772567351302478600,2.805478515625,-3.7487732718378304,-0.9013400604203343,0.02301788749396801
1772567351312507600,2.815507568359375,-5.793880339294672,-1.0590645245239139,0.11282280771210788
1772567351322536700,2.82553662109375,-7.697678655397891,-1.208825754663348,0.06938808206804097
1772567351332564500,2.835564453125,-8.9543410969913,-1.2763660899728535,-0.020589783564209936
1772567351342593800,2.84559375,-9.756582777538895,-1.07859807703346,-0.27688787301406265
1772567351352622800,2.855622802734375,-9.90014076912403,-0.8328981000959873,-0.6581461480196565
1772567351362651600,2.865651611328125,-9.762495800974964,-0.9280597250416874,-0.8334772151581943
1772567351372679700,2.8756796875,-9.497378299123048,-1.3697203732356429,-0.7367732561413198
1772567351382708500,2.88570849609375,-8.948321106049418,-1.8199582956388591,-0.6176578510910272
1772567351392737500,2.895737548828125,-8.22031195192635,-2.072246126534045,-0.5487347561862319
1772567351402766600,2.9057666015625,-7.375496035021543,-2.261060725428164,-0.47733222902324046
1772567351412794600,2.915794677734375,-6.573266044911742,-2.4791221693336962,-0.4896967666862532
1772567351422823700,2.92582373046875,-5.980908054772019,-2.811289884890616,-0.2879979171039536
1772567351432852700,2.935852783203125,-5.656081057366729,-3.232870452608168,0.34182460169643164
1772567351442881500,2.945881591796875,-5.254179003587365,-3.2648803325921296,1.047255867177993
1772567351452909800,2.955909912109375,-4.576095617628098,-2.578531222590804,1.3975561824053526
1772567351462938600,2.965938720703125,-3.582094516906142,-1.6026488391444087,1.347277801411599
1772567351472967700,2.9759677734375,-2.2764760289639234,-0.7711673278480767,0.9782317230515182
1772567351482996700,2.985996826171875,-0.9390998822331428,-0.2296443296715617,0.3712126818094402
1772567351493024500,2.9960244140625,0.18146774326264858,0.11589169376343487,-0.41581593977622683
1772567351503053600,3.006053466796875,1.1144430051356553,0.23708090941309928,-1.2578276859804987
1772567351513082600,3.01608251953125,2.0367980887949466,0.17736586090177298,-1.7131781290918588
1772567351523111700,3.026111572265625,2.8957167653322218,0.15686930857896803,-1.4914534865036606
1772567351533139700,3.0361396484375,3.6456560117125507,0.10601736548095941,-0.9598168723735958
1772567351543168500,3.04616845703125,4.177422462767362,0.07131254732459782,-0.34945750772766765
1772567351553197600,3.056197509765625,4.460257992139458,0.17065350378155708,0.31397143953312184
1772567351563226600,3.0662265625,4.596639808484912,0.3107049485504627,1.0754537876583634
1772567351573254700,3.076254638671875,4.86449579539001,0.4329176620289683,1.3021465740479528
1772567351583283700,3.08628369140625,4.913122171393036,0.5303428479924798,0.881173324573785
1772567351593312800,3.096312744140625,5.0285132221579545,0.5173705536946654,0.4963904556386172
1772567351603341600,3.106341552734375,5.286244705411791,0.4087351146697998,0.23656400939952582
1772567351613369600,3.11636962890625,5.599134596785903,0.4119675207197666,0.09737169307745061
1772567351623398700,3.126398681640625,6.0388639846563335,0.49157560270279643,0.008223446669755503
1772567351633427700,3.136427734375,6.454480675533413,0.458099449558556,-0.0517043586762622
1772567351643456800,3.146456787109375,6.899155118590593,0.5149184843674302,-0.08609179971283301
1772567351653484500,3.156484619140625,7.135577271834015,0.7140466797441244,0.08670991334486752
1772567351663513600,3.166513671875,7.186012158563733,0.8915952037364244,0.3094271106343716
1772567351673542700,3.176542724609375,7.113548979899287,1.090750287120044,0.4720024488352239
1772567351683571500,3.186571533203125,6.991309086152911,1.3256643738880753,0.5057664790101349
1772567351693600800,3.196600830078125,6.914311186668276,1.552136211003363,0.43436954133771355
1772567351703628500,3.206628662109375,6.882556450489163,1.6184513884320855,0.20123108594007788
1772567351713657600,3.21665771484375,6.638602732697128,1.4982745646953581,-0.1385844044236466
1772567351723686700,3.226686767578125,6.131847973302007,1.2962193759560585,-0.25070867194496094
1772567351733715700,3.2367158203125,5.20101556867659,1.0815776773661374,0.08086856690552086
1772567351743743700,3.24674365234375,4.256150547045469,0.7224722705230117,0.5308583232339471
1772567351753772800,3.256772705078125,3.0395448060303925,0.19930793585777282,0.5933642811054364
1772567351763801600,3.266801513671875,1.20843061786592,-0.4678071891024708,0.3983100206367671
1772567351773830700,3.27683056640625,-0.9142074330389499,-1.0879060036048291,0.459552607508935
1772567351783858400,3.2868583984375,-2.548766198924184,-1.3705284747481346,0.767204707827419
1772567351793887500,3.296887451171875,-4.161841447275877,-1.0448410611212253,1.1332459783483295
1772567351803916800,3.306916748046875,-5.892464047643542,-0.5379413402974605,1.6454714973047375
1772567351813945900,3.31694580078125,-7.306523621082306,-0.4483402720883488,1.5814514450758694
1772567351823973600,3.3269736328125,-8.535411336043477,-0.4729147413745522,1.0046573000971226
1772567351834002700,3.337002685546875,-9.452515659567712,-0.4637433006644249,0.35983551121596247
1772567351844031500,3.347031494140625,-10.062333903074263,-0.7667401590555906,0.19936240599136798
1772567351854060500,3.357060546875,-10.440499691957235,-1.1255728864371777,0.5025083539970219
1772567351864088800,3.3670888671875,-10.511436099445818,-1.1437842504322528,0.7751138735167682
1772567351874117600,3.37711767578125,-10.349065270841121,-0.9720867905557155,0.7981099875703453
1772567351884146700,3.387146728515625,-10.10467549971938,-0.8468234573349356,0.5747947513224557
1772567351894175700,3.39717578125,-9.550046643993259,-0.7556523633301258,0.27285105524603276
1772567351904203800,3.407203857421875,-8.827052103161812,-0.6727756349399685,0.09240828938325867
1772567351914232800,3.41723291015625,-8.079044117105006,-0.6689616296097636,0.08000398596543819
1772567351924261600,3.42726171875,-7.11542529516518,-0.6895254019498824,0.1462970976928249
1772567351934290700,3.437290771484375,-5.918123389557004,-0.6173474699676037,0.24443313533943145
1772567351944318700,3.447318603515625,-4.5587505150735375,-0.5192822325348854,0.15939846173040567
1772567351954347500,3.457347412109375,-3.25838921700716,-0.5489940647095441,0.010102547547779978
1772567351964376600,3.46737646484375,-1.9623563035339116,-0.5743956324696541,-0.17100911228619514
1772567351974406000,3.477406005859375,-0.8261486258357763,-0.6314943610027433,-0.42990057923011477
1772567351984433700,3.48743359375,0.20632453662157058,-0.7498881007149815,-0.6480209867812693
1772567351994462700,3.497462646484375,1.3730886806249618,-0.7547980845883488,-0.8738461965560913
1772567352004491500,3.507491455078125,2.420464228659868,-0.6429165032491088,-1.1829290968626738
1772567352014520600,3.5175205078125,3.17548998452425,-0.5836068206682801,-1.2600253421552479
1772567352024549600,3.527549560546875,3.9493823534220454,-0.458230090200901,-0.8728197030525654
1772567352034577700,3.53757763671875,4.858169514977932,-0.1953951463282108,-0.7725621432073414
1772567352044606700,3.547606689453125,5.427660424271226,-0.08053162656873464,-1.0527119406268
1772567352054635800,3.5576357421875,5.935968842849135,-0.06034253275990486,-1.2183425016798077
1772567352064664600,3.56766455078125,6.463582265877723,0.08814590096473693,-1.215583485295251
1772567352074692600,3.577692626953125,6.8675389140993355,0.27226094386577604,-1.1199047046076507
1772567352084721700,3.5877216796875,6.992647641280293,0.39800913799405097,-1.0708565960612146
1772567352094750700,3.597750732421875,7.168136894655227,0.5719540845364331,-0.9892761180266737
1772567352104779800,3.60777978515625,7.308872230035067,0.8449003803178667,-0.8006313227415084
1772567352114807600,3.6178076171875,7.205757892519236,1.0056792635560035,-0.6563118452645837
1772567352124836900,3.6278369140625,7.054243973493576,1.067876484271884,-0.512346514987573
1772567352134865700,3.63786572265625,7.0265949190676205,1.1186463020443915,-0.41249965483509
1772567352144894700,3.647894775390625,7.104618069946765,1.2455623709082602,-0.5037652952555567
1772567352154922800,3.6579228515625,7.278529698741435,1.4092495428085325,-0.8589396462600678
1772567352164951800,3.667951904296875,7.475731602230668,1.5375544356822968,-1.2287537133179605
1772567352174980900,3.67798095703125,7.301319622698426,1.5424541904225944,-1.356819682869315
1772567352185009700,3.688009765625,6.888543708205223,1.419638834875822,-1.2684892191179096
1772567352195038000,3.698037841796875,6.4718883219301695,1.3888666799932718,-1.0257282182417808
1772567352205067000,3.70806689453125,5.83588291324377,1.5034002371460198,-0.7672619909726083
1772567352215095800,3.718095703125,5.039127555152773,1.6131214255809783,-0.574560613773018
1772567352225124900,3.728124755859375,3.9364989064514635,1.5292621158942579,-0.6855214270055293
1772567352235152600,3.738152587890625,2.1404250520080326,0.9879673735156654,-0.8798080275699496
1772567352245181700,3.748181640625,-0.07945873664021491,0.029754502272605895,-0.9712604227341711
1772567352255210800,3.758210693359375,-2.1462965743899343,-1.0194012071773408,-0.7876029143422841
1772567352265239800,3.76823974609375,-4.036801693677902,-1.636915850405395,0.0600748217344284
1772567352275267800,3.778267822265625,-5.946732228925824,-1.4683455826386809,1.3620252886883915
1772567352285297000,3.788296875,-7.560505980935693,-1.0037269604444503,2.263342991146445
1772567352295325700,3.79832568359375,-9.103008978936076,-0.7107075984492898,2.3493567023880777
1772567352305354800,3.808354736328125,-10.013516972935198,-0.7008756480038165,1.4442133041620253
1772567352315382800,3.8183828125,-10.540338368803262,-0.9007131606936454,0.554336083324626
1772567352325411800,3.828411865234375,-10.785616613197327,-1.3139368189543486,0.5380385170616209
1772567352335441000,3.83844091796875,-10.502430955213308,-1.8945932653844355,1.0286259855099023
1772567352345469700,3.8484697265625,-9.763852476280928,-2.2984657424539328,1.4284971179835497
1772567352355498800,3.858498779296875,-8.686907719412446,-2.4263474414795634,1.6043129729643464
1772567352365527000,3.868527099609375,-7.586999435585737,-2.613759187838435,1.4606290169119833
1772567352375555800,3.878555908203125,-6.684091395196318,-2.7349299910485745,1.1558641990002243
1772567352385585000,3.8885849609375,-5.98978285062313,-2.7830039938658473,0.9586887451265007
1772567352395614000,3.898614013671875,-5.335806316438317,-2.6687761416614055,0.9757047618571668
1772567352405641700,3.908641845703125,-4.292920481038093,-2.199362394145131,0.8470681528110057
1772567352415670800,3.9186708984375,-3.2270278640598056,-1.4963786679461597,0.42823060019128023
1772567352425699600,3.928699462890625,-2.109192878398299,-0.9642293550536036,-0.17912797520346938
1772567352435729000,3.93872900390625,-0.9439256949543953,-0.6534817364051938,-0.7356392106100916
1772567352445757000,3.9487568359375,0.16411504192352294,-0.36196284210085866,-0.8911462178599089
1772567352455785700,3.95878564453125,1.2789023304522036,-0.07090776591598986,-0.6872600143011659
1772567352465814800,3.968814697265625,2.332493684262037,0.0729433633968234,-0.46361843217574056
1772567352475843800,3.97884375,2.9221868391066788,0.05735737946927547,-0.41765550322830675
1772567352485871900,3.988871826171875,3.3261195219308135,-0.01817278555035591,-0.3174668439008295
1772567352495901000,3.99890087890625,3.9711622235536574,0.05051642753332853,-0.07629092025905847
1772567352505928700,4.0089287109375,4.472793064063787,0.14510580554902552,0.022431685103848575
1772567352515957000,4.01895703125,4.796447510558367,0.042753684577345845,-0.10104381485208869
1772567352525985800,4.02898583984375,5.103015797695517,-0.049969899566471576,-0.10174874825105071
1772567352536014800,4.039014892578125,5.588223911193013,-0.01950607998073101,-0.030508243249356744
1772567352546044000,4.0490439453125,6.227974936148524,0.09227700942009687,-0.14925846824906766
1772567352556071700,4.05907177734375,6.594966420066356,0.18065291974842548,-0.4120202007550746
1772567352566100700,4.069100830078125,6.957980817046761,0.20756927598565816,-0.6318793417323381
1772567352576129800,4.0791298828125,7.451466345024109,0.39962943267226214,-0.6109888216558843
1772567352586158800,4.089158935546875,7.598982134324312,0.6091665015995502,-0.5428228287287056
1772567352596187000,4.099186767578125,7.519413507568836,0.7033592815130949,-0.5166276263728737
1772567352606215700,4.109215576171875,7.4960302938938135,0.8340890634462237,-0.5510479284994304
1772567352616244700,4.11924462890625,7.340428813293576,1.053176343268156,-0.5295641187049448
1772567352626273800,4.129273681640625,7.018761156702041,1.2547425794467328,-0.5842341587863862
1772567352636302600,4.139302490234375,6.767236711394786,1.3558616514921187,-0.8613580325134098
1772567352646331000,4.149330810546875,6.362664561623334,1.3679714837417005,-1.0813562897004187
1772567352656360000,4.15935986328125,5.663261908781529,1.2591370150133967,-1.1326191516868769
1772567352666388700,4.169388671875,4.9036143383353945,1.0883797585964203,-0.9169317434363067
1772567352676416800,4.179416748046875,4.105257390266656,0.96395638333112,-0.693459526528418
1772567352686445800,4.18944580078125,2.9670383727461096,0.7487640651211143,-0.8631342484056949
1772567352696475000,4.199474853515625,1.7541005065888164,0.4100616870984435,-1.07001904925853
1772567352706504000,4.20950390625,0.5409662410765886,0.10025544095337391,-0.7681590859428048
1772567352716532700,4.21953271484375,-0.8956769200921059,-0.19074673600047826,-0.1617579574033618
1772567352726560800,4.229560791015625,-2.3867753095477817,-0.704567488259077,0.4952021226368844
1772567352736589800,4.23958984375,-4.116556198394298,-1.5345739585667848,0.9625490007512271
1772567352746618600,4.24961865234375,-6.0411254998475306,-2.2103946602910756,1.0289701958376913
1772567352756648000,4.25964794921875,-7.791037907096743,-2.401171206907928,0.9405514692809432
1772567352766675700,4.26967578125,-9.374140626510977,-2.396594108250737,0.7182115443386137
1772567352776704800,4.279704833984375,-10.77451303538084,-2.4281550754234194,0.32114604387022555
1772567352786733800,4.28973388671875,-11.85168400222063,-2.4344077060773968,0.13945468445215373
1772567352796762600,4.2997626953125,-12.31004853245616,-2.43013134393245,0.07030567183699458
1772567352806791000,4.309791015625,-12.329661579942703,-2.3704621803894637,-0.08210267527773976
1772567352816820000,4.319820068359375,-12.086100660860538,-2.373459024117887,-0.24686529438979923
1772567352826848800,4.329848876953125,-11.26248944454789,-2.478861180309951,-0.11612775840847753
1772567352836877800,4.3398779296875,-9.9872929828763,-2.4766969880133867,0.23727013010857625
1772567352846905600,4.349905517578125,-8.613651344543696,-2.4106387079551816,0.4893693613627925
1772567352856935000,4.359934814453125,-7.174997428074478,-2.3317639086827633,0.6856914498101919
1772567352866964000,4.3699638671875,-5.650124779310822,-2.1861270649969575,0.9206574859611689
1772567352876993000,4.379992919921875,-3.943393342140317,-1.9142621347114444,0.9926990051474421
1772567352887020800,4.390020751953125,-2.2762159167230127,-1.54139006832242,0.7694594279516488
1772567352897049900,4.4000498046875,-0.6455582499295472,-1.1711591640919445,0.5044138953574001
1772567352907078700,4.41007861328125,0.7831564563274384,-0.8666972015842794,0.39229634983781725
1772567352917107700,4.420107666015625,1.973756233948469,-0.664018620249629,0.29642442119829354
1772567352927135700,4.4301357421875,2.8275521606445313,-0.5125032399192452,0.3028745471857488
1772567352937164800,4.440164794921875,3.5013930867284535,-0.443561805640161,0.37365642169974744
1772567352947193900,4.45019384765625,4.2687195212394,-0.44406449446529145,0.30062053944757205
1772567352957223000,4.460222900390625,4.824813188821077,-0.4054916027039289,0.24466566545367238
1772567352967251000,4.4702509765625,5.203569929334521,-0.363327408452332,0.3855575065694749
1772567352977280000,4.480280029296875,5.709644305250048,-0.32329730361998077,0.4339591339059174
1772567352987308800,4.490308837890625,6.290621069675684,-0.1812289660707116,0.3892685629818588
1772567352997337900,4.500337890625,6.748426796984672,0.05103957462459802,0.29219781647920606
1772567353007365600,4.51036572265625,7.092170091784,0.17923954581916332,0.22454286008039487
1772567353017394700,4.520394775390625,7.564754286029935,0.292343362429738,0.10397257091351784
1772567353027423700,4.530423828125,7.945917503163218,0.5585211869895458,0.03756845482601784
1772567353037453000,4.540453125,8.241836970514058,0.8710764395818114,0.05237978285294957
1772567353047480800,4.550480712890625,8.375303191673755,1.1129019131734967,0.08906398392403497
1772567353057510000,4.560510009765625,8.23825443585217,1.27317430819422,0.17345478840526193
1772567353067538700,4.57053857421875,7.958462511959672,1.368114107082784,0.27520963760353623
1772567353077567700,4.580567626953125,7.5694263694942,1.3742533404901622,0.3000768610249273
1772567353087596800,4.5905966796875,7.212505028691887,1.336444711099565,0.28703577580722045
1772567353097624800,4.600624755859375,6.842939310371875,1.35178431905061,0.2944997732786461
1772567353107654000,4.61065380859375,6.4086652652978895,1.337966513839364,0.182868732634373
1772567353117683000,4.620682861328125,5.843706154215336,1.236590252162516,0.017288294333405792
1772567353127711000,4.6307109375,4.993189979842305,0.983904361860454,-0.09950999288093298
1772567353137739800,4.64073974609375,4.287497286945581,0.838318371579051,0.004147182807326316
1772567353147771000,4.65077099609375,3.517371577104926,0.8894254584819078,0.22388686212338507
1772567353157800000,4.660800048828125,2.4664427205026147,0.895096489855647,0.5557437581654637
1772567353167828000,4.670827880859375,1.076811485877633,0.8149541548654436,0.9488376515891402
1772567353177857000,4.68085693359375,-0.8624369137912988,0.6666831632837653,1.3630331505566835
1772567353187886000,4.690885986328125,-2.6688275795876977,0.6033177755713462,1.3273292383603752
1772567353197915000,4.700914794921875,-4.444001853865385,0.7304054016098379,1.1594010678894817
1772567353207943000,4.71094287109375,-6.983663539835811,0.7731114476531743,0.9954593367062509
1772567353217972000,4.720971923828125,-8.984351619851589,0.5422396220132708,0.7449679607737809
1772567353228000800,4.731000732421875,-10.512560719561575,0.27940964657664297,0.6339036141015589
1772567353238030000,4.741030029296875,-11.887732636201381,-0.08781243122667073,0.3829446571899578
1772567353248057900,4.751057861328125,-12.593635172456501,-0.5113932328507304,0.034656302839517594
1772567353258087000,4.7610869140625,-12.54763096165061,-0.8268997364640236,-0.2685495951924473
1772567353268116000,4.771115966796875,-11.926383561635017,-1.2549714197665451,-0.4439339999534189
1772567353278144800,4.781144775390625,-10.814127252888678,-1.8217121535688638,-0.33108145469017325
1772567353288173000,4.791173095703125,-9.35263022097051,-2.3500968532308937,-0.26661278191097076
1772567353298202000,4.8012021484375,-7.9283783393412826,-2.6508719439193604,-0.3598769757375121
1772567353308231000,4.81123095703125,-6.49128275822997,-2.863086123101413,-0.3742619133122265
1772567353318260000,4.821260009765625,-5.299105356028676,-3.020270781239867,-0.3645112114094198
1772567353328287700,4.831287841796875,-4.39410297370851,-3.0536724078431723,-0.314023133187741
1772567353338316800,4.84131689453125,-3.6311826652020214,-2.8768764557838438,-0.12812760007809848
1772567353348346000,4.85134619140625,-2.7766648539721963,-2.4966399981066583,-0.19692688594013452
1772567353358375000,4.861375,-1.7220879962563513,-2.0668696941927074,-0.6457300993651152
1772567353368403000,4.87140283203125,-0.36883974213302134,-1.4652356339246033,-0.8912021127656101
1772567353378432000,4.881431884765625,0.666788084962964,-0.8121139630034565,-0.7718315639104694
1772567353388460800,4.891460693359375,1.7376485534816979,-0.5529238053739071,-0.6867348213832825
1772567353398489900,4.90148974609375,2.6115087785631417,-0.4375426914811134,-0.6293034998949617
1772567353408518000,4.911517822265625,3.3344600647747513,-0.25260171914994717,-0.526038867188245
1772567353418547000,4.921546875,4.086185025528073,-0.11696662951856851,-0.4151322683610022
1772567353428576000,4.931575927734375,4.679924825415015,-0.1326549047768116,-0.1672964484386146
1772567353438604800,4.941604736328125,5.193440164986252,-0.26979221566468475,0.3001207184329629
1772567353448632800,4.9516328125,5.924106555619836,-0.40707478024214505,0.6183367732658982
1772567353458662100,4.961662109375,6.602714257714152,-0.383605641849339,0.7391663618229329
1772567353468691000,4.97169091796875,7.131487956693768,-0.3024202275469899,0.7111860296159982
1772567353478720000,4.981719970703125,7.431251824513077,-0.09952508085221051,0.6422462027721106
1772567353488747800,4.991747802734375,7.6406544534057375,0.14060089534521103,0.6040415598012506
1772567353498776800,5.00177685546875,7.843603376114368,0.3213499689444899,0.6261488352563231
1772567353508806000,5.011805908203125,7.907944038599729,0.5645856015950441,0.7849896631039679
1772567353518835000,5.0218349609375,7.9854826208323235,0.7733394111901521,0.8624255156144499
1772567353528863000,5.031863037109375,7.932201112499833,0.9152581111356616,0.8069481046728789
1772567353538892000,5.04189208984375,7.526359965705871,1.0095885459542273,0.7634826185643673
1772567353548920800,5.0519208984375,7.374566060695051,1.0639584340453148,0.5855321627076715
1772567353558950000,5.061949951171875,7.245700026807189,1.085642442587018,0.32729020918104795
1772567353568978000,5.07197802734375,6.920492505651712,1.1116814314678312,0.015955529625993222
1772567353579007000,5.082007080078125,6.440770130088925,1.0798697044044732,-0.22260182728152722
1772567353589036000,5.0920361328125,6.033813131007552,1.0242831340000034,-0.45833490228224544
1772567353599065000,5.102065185546875,5.235630370461941,0.9066767452731728,-0.7004629755496978
1772567353609092900,5.1120927734375,4.066605295789241,0.7219210663810371,-0.46665933424159883
1772567353619122000,5.122121826171875,2.9734856491893527,0.64789370713979,-0.13357536235628648
1772567353629151000,5.13215087890625,1.644808357220888,0.695223905852437,0.05583396929427981
1772567353639180000,5.142179931640625,0.290112826898694,0.7177350128680468,0.12010748482756316
1772567353649207800,5.152207763671875,-1.2568956658273935,0.6491305554583668,0.05530062960255891
1772567353659236900,5.16223681640625,-3.042177492621541,0.44145986492484807,-0.12463040561210363
1772567353669266000,5.172265869140625,-5.138149654918909,0.09133592917770147,-0.29615174173675474
1772567353679295000,5.182294921875,-6.676608930486441,-0.10129881252646446,-0.5739209276299924
1772567353689323000,5.192322998046875,-7.875919253307581,0.07282412093132734,-0.7802634382996708
1772567353699352000,5.20235205078125,-9.24997999383509,-0.06222118611335754,-0.7037405359156429
1772567353709380900,5.212380859375,-10.073119500982761,-0.8459332304969429,-0.3372656962830573
1772567353719410000,5.222409912109375,-10.735174712204932,-1.7888181842267512,0.2435382688589394
1772567353729439000,5.23243896484375,-10.91643962637186,-2.564659349104762,0.8911502364479005
1772567353739467000,5.242467041015625,-10.612211180359125,-3.019580753149092,1.1592454389363527
1772567353749496000,5.25249609375,-9.997752417570352,-3.15799641340971,0.932335941056162
1772567353759525000,5.262525146484375,-9.149075733584166,-3.088664518508315,0.5841956534069032
1772567353769554000,5.272553955078125,-8.366710135373472,-3.0169515736892816,0.3555922476230189
1772567353779582000,5.28258203125,-7.468886266380548,-2.924398669937253,0.33352614442855116
1772567353789610800,5.29261083984375,-6.506882478421926,-2.705333017425239,0.4161657761272043
1772567353799640000,5.30264013671875,-5.564130503422022,-2.3792656645700334,0.5811827718591317
1772567353809669000,5.312669189453125,-4.328381670519709,-1.991367586223781,0.6508512417711317
1772567353819697000,5.32269677734375,-2.81337984290719,-1.4489578683406115,0.45639293790161606
1772567353829726000,5.332725830078125,-1.3557049996256827,-0.9145976014003158,0.16972451583575457
1772567353839755000,5.342755126953125,-0.043380292043089866,-0.5528416800484061,-0.06102057358536403
1772567353849783800,5.35278369140625,1.0599135425686836,-0.3505500522047281,-0.15933874916611238
1772567353859812000,5.36281201171875,2.030534352225065,-0.24461539657115935,-0.014225125636812299
1772567353869841000,5.3728408203125,2.9259435612916946,-0.12165069568157195,0.22030878444090485
1772567353879870000,5.382869873046875,3.629659401157498,-0.004104512709379196,0.3681087975099683
1772567353889899000,5.39289892578125,4.148073618686199,0.08755524159520864,0.47570101109221574
1772567353899926800,5.4029267578125,4.5470717677176,0.16965484813302753,0.5746520914487541
1772567353909956000,5.4129560546875,4.804855857941508,0.2764873293891549,0.8537848938453942
1772567353919985200,5.422985107421875,5.076339387694001,0.40551761392802,1.1424762365736068
1772567353930014000,5.433013916015625,5.417890725407004,0.6733668788313866,1.244514907681942
1772567353940042000,5.4430419921875,5.7668093770176165,0.8624147019594908,1.102871590611711
1772567353950070800,5.45307080078125,6.145475516638159,0.9107704443275928,0.8586425630096346
1772567353960099800,5.463099853515625,6.59292702319324,0.9706918290659785,0.6774084823723882
1772567353970129000,5.47312890625,7.063044535064697,1.078971294260025,0.6365142349913716
1772567353980157000,5.483156982421875,7.502294030463695,1.159304183386266,0.7179726210162043
1772567353990186000,5.49318603515625,7.853797437870502,1.114484798450768,0.6801138688735664
1772567354000215000,5.503215087890625,7.948000154656171,1.0642311135068536,0.572443402423337
1772567354010243800,5.513243896484375,7.973461928170919,0.9776093533694743,0.46984731662794943
1772567354020272000,5.523272216796875,7.8357725363582365,0.8531737031444907,0.45806755658295
1772567354030301000,5.533301025390625,7.588073202297091,0.7544289590150117,0.4798518471613526
1772567354040330000,5.543330078125,7.244864745026827,0.7359381935566663,0.4944768771022558
1772567354050359000,5.553359130859375,6.785970637959242,0.8200725207924843,0.5726248234048485
1772567354060386800,5.56338671875,6.343812561637163,0.8603162683755159,0.49956941446829584
1772567354070416000,5.573415771484375,5.6635015627562995,0.8225108538553119,0.23575981687717137
1772567354080445000,5.58344482421875,4.80888087567389,0.6420154627561568,-0.24808155657807363
1772567354090474000,5.593473876953125,3.935955301094055,0.29172464600950476,-0.6881511909872293
1772567354100502000,5.603501953125,2.9079572382241485,-0.033436697916686534,-0.6146341924209148
1772567354110530800,5.61353076171875,1.1155635335981846,-0.35839813535660503,-0.363622336278297
1772567354120560000,5.62356005859375,-0.8331044363230466,-0.6295248144954443,0.1262138023460284
1772567354130589200,5.633589111328125,-2.4171365455418825,-0.6873615019142627,1.1170593981791288
1772567354140617200,5.6436171875,-4.531679552796483,-0.6853817262738943,1.834294571766257
1772567354150646300,5.653646240234375,-6.793595141488313,-0.9492679327651857,1.68584866200909
1772567354160675000,5.663675048828125,-8.535184541550278,-1.1125322030782698,0.8265273229550569
1772567354170704100,5.6737041015625,-9.536879703906179,-0.651582624785602,-0.16234790438683702
1772567354180732200,5.683732177734375,-10.113016627085209,-0.00889057794213295,-0.7139621432658284
1772567354190761200,5.69376123046875,-10.379640441846847,-0.06654255644381046,-0.771146942647174
1772567354200790300,5.703790283203125,-10.128714546954631,-0.7107412084579467,-0.4690159438377246
1772567354210819300,5.7138193359375,-9.869415960514544,-1.257857204335928,0.009698021867498755
1772567354220847000,5.72384716796875,-9.219164584332704,-1.7293199933364987,0.3252861028170213
1772567354230876200,5.733876220703125,-8.3863693600893,-2.3080668067529797,0.37563784130793065
1772567354240905000,5.743905029296875,-7.642474070048332,-2.835836881648004,0.24222682093419134
1772567354250934000,5.75393408203125,-7.165041851249336,-3.1920220171302556,0.11413128736163489
1772567354260962300,5.76396240234375,-6.902042072203755,-3.4389576733425256,0.15198855080008505
1772567354270991000,5.7739912109375,-6.6186746279120445,-3.4475407927706834,0.2187617741946131
1772567354281020200,5.784020263671875,-6.133341426730156,-3.0791034939587116,0.20293726880345492
1772567354291049200,5.79404931640625,-5.105937238100171,-2.467492229555547,0.014546740540303289
1772567354301077200,5.8040771484375,-3.8125937098413702,-1.6919769356310366,-0.38329712388943876
1772567354311106300,5.814106201171875,-2.56378665792346,-1.042679791434109,-0.7784853957764803
1772567354321135000,5.824135009765625,-1.3451678235203026,-0.7496957930132746,-0.9171632141046225
1772567354331164200,5.8341640625,0.03596621639430523,-0.6198372409567237,-0.8484654523883014
1772567354341192200,5.844192138671875,1.4624205765038727,-0.4626809321299195,-0.7065940256506205
1772567354351221000,5.854220947265625,2.646400059202313,-0.29739304703474045,-0.5945493627041578
1772567354361250000,5.86425,3.5793946102976797,-0.2696402399733662,-0.44263161211796104
1772567354371279400,5.874279296875,4.225302988839149,-0.31995646875947714,-0.10898787832488305
1772567354381307100,5.88430712890625,4.690442712298036,-0.3749129245668649,0.4354689539469778
1772567354391336200,5.894336181640625,5.142968453377485,-0.3611687691137194,0.7769494914460927
1772567354401365000,5.904364990234375,5.3847869127064945,-0.15560907938480376,0.6610567017041147
1772567354411394000,5.91439404296875,5.537088767239451,0.12313947293460369,0.3889797361031174
1772567354421422300,5.92442236328125,5.941247075513005,0.3111591220587492,-0.007577317086211405
1772567354431451100,5.934451171875,6.142330788871646,0.45250586733520026,-0.4074457689790055
1772567354441480200,5.944480224609375,6.108609136533737,0.5024722597703337,-0.6567156037598848
1772567354451509200,5.95450927734375,6.23883652190268,0.5022545253664255,-0.6472651999779045
1772567354461537000,5.964537109375,6.4636629298985,0.48980216328948734,-0.36228794586937874
1772567354471566000,5.974566162109375,6.421864354088902,0.3374342577829957,0.051671725915139535
1772567354481595100,5.98459521484375,6.17770137746036,0.03771101423501968,0.4292140582706779
1772567354491624200,5.994624267578125,5.874215274247526,-0.25348873111754655,0.592934767114371
1772567354501652200,6.00465234375,5.4378848811656235,-0.5649363147288561,0.4956953495139256
1772567354511681000,6.014680908203125,5.01546727810204,-0.8085086319878697,0.40031931463256476
1772567354521710000,6.0247099609375,4.497409618926048,-1.027754317241907,0.31006781969070435
1772567354531739100,6.0347392578125,3.6709862678021192,-1.5042191523134707,-0.05071582256294787
1772567354541767200,6.04476708984375,2.656878198596835,-1.9505472077965735,-0.4926775725953281
1772567354551796200,6.054796142578125,1.7525035927861927,-1.8865538974441587,-0.6742922500479966
1772567354561825000,6.064824951171875,0.9908663098275661,-1.4190557742908596,-0.6609323446720838
1772567354571854000,6.07485400390625,0.4484451937675476,-0.812613875349611,-0.382231138625741
1772567354581882000,6.084882080078125,-0.24214871419668196,-0.41769145132452246,0.056187531972303986
1772567354591911200,6.0949111328125,-0.8600327752590179,-0.32871348344981666,0.4403673204477876
1772567354601940200,6.104940185546875,-1.3946113611251114,-0.14477701198607681,0.8622438754372298
1772567354611969300,6.11496923828125,-2.2439912249445912,0.08573767077922821,0.8218734327346086
1772567354621997000,6.1249970703125,-2.442285015323758,0.33396190549731253,0.7730687775552272
1772567354632026000,6.135026123046875,-2.57564777610898,0.6638628451660276,0.3670756550699472
1772567354642055200,6.14505517578125,-2.927769607675075,0.9346803122252225,-0.08391264730915426
1772567354652084200,6.155084228515625,-3.6506922523140903,0.9159931474119424,-0.30155513515025373
1772567354662112300,6.1651123046875,-4.302748047569394,0.5676397284686565,-0.6635137394674122
1772567354672141000,6.17514111328125,-4.596136535137892,0.42771541721075773,-1.0466673997655511
1772567354682170000,6.185170166015625,-5.1822296196639535,0.9002198242187499,-0.9998401821389794
1772567354692199200,6.19519921875,-5.7859986461341375,1.1652806274473666,-0.6386497857153415
1772567354702227200,6.205227294921875,-6.209107738593221,1.0251721917942165,-0.07024228774458169
1772567354712256300,6.21525634765625,-6.496734593895077,0.8927157321989536,0.2766716729801148
1772567354722285300,6.225285400390625,-6.736482092168927,0.7405383808284998,0.17310710747875271
1772567354732314000,6.235314208984375,-6.601534692540764,0.34083237578868864,-0.2879224041823298
1772567354742342100,6.245342041015625,-6.261379193100333,-0.11363076309412717,-0.7173085310842842
1772567354752371200,6.25537109375,-6.033097091692686,-0.39117023188471794,-0.92712697423622
1772567354762400300,6.265400146484375,-5.899052193862199,-0.6668094200119375,-0.7849842562764883
1772567354772429300,6.27542919921875,-5.452426032215357,-0.9456541261821985,-0.2230405474923551
1772567354782457000,6.28545703125,-4.793318564882874,-1.0338260383710265,0.18284673999827353
1772567354792486100,6.295486083984375,-4.077198001474142,-0.8128092517912388,0.10056282640211284
1772567354802515200,6.30551513671875,-3.157422997435927,-0.3174605602905154,-0.06027001551296562
1772567354812544000,6.3155439453125,-1.9233856446266173,0.07365531105846167,-0.09679167383294553
1772567354822572300,6.325572265625,-0.5508382312715053,0.29786241811215874,-0.1359326478058472
1772567354832601000,6.33560107421875,0.7462345466434955,0.43898821411430833,-0.1886428225237876
1772567354842630100,6.345630126953125,1.7743343163222074,0.41226007392555475,-0.08243150537330657
1772567354852659200,6.3556591796875,2.7051006699740885,0.4843634793668985,0.2016881820578128
1772567354862687200,6.365687255859375,3.6071219906568524,0.7261272858992218,0.3719717930810526
1772567354872716300,6.37571630859375,4.107364007157087,0.8809493065595626,0.5451719491381198
1772567354882745300,6.385745361328125,4.343569887301325,0.8374903963223099,0.7935587540067732
1772567354892774100,6.395774169921875,4.431362152522802,0.7572866865336895,1.1160223102163522
1772567354902802200,6.40580224609375,4.329025229120254,0.8382999591395258,1.535690687637031
1772567354912831000,6.4158310546875,4.390517516437173,0.99052319547832,1.8365356286913155
1772567354922860000,6.425860107421875,4.686483745539188,0.9768138190776109,1.5122168730691075
1772567354932889300,6.435889404296875,4.8998336507529014,0.9198068604812025,0.9879159355893731
1772567354942917000,6.445917236328125,5.16311984552443,0.8892638381794095,0.5695624766921624
1772567354952946200,6.4559462890625,5.365908609235286,0.7206207974374294,0.4626338050525635
1772567354962975200,6.465975341796875,5.64190523249805,0.5368228576615452,0.6855973417859524
1772567354973004000,6.476004150390625,6.09983721653521,0.3732835697993636,0.8467680738858878
1772567354983032300,6.4860322265625,6.546048367640376,0.17628011149168013,0.9173476307608187
1772567354993061000,6.49606103515625,6.82750734796226,0.05216010308712721,0.9149614662766457
1772567355003090200,6.506090087890625,7.023281264474988,0.2922378562286496,1.0067507652450352
1772567355013119200,6.516119140625,7.012816569083928,0.5440770665735006,1.069938969759643
1772567355023147000,6.52614697265625,6.810679547280073,0.7098685172766447,1.1693835327215492
1772567355033176000,6.536176025390625,6.792430189362168,0.6900695918291807,1.0112524605784565
1772567355043205400,6.546205322265625,6.484117104384302,0.7595812272116541,0.6498024633705616
1772567355053234200,6.556234130859375,5.861047749638557,0.8044985195636749,0.16356347245536743
1772567355063262200,6.56626220703125,5.155713368660211,0.7761798953130841,-0.2514032666129991
1772567355073291000,6.576291015625,4.22630778196752,0.6161664434894919,-0.42102907131463285
1772567355083320000,6.586320068359375,2.9283897854000327,0.3728171213313937,-0.26658826852422207
1772567355093349000,6.59634912109375,1.2538906387925148,0.07784720979034901,-0.2570994324279949
1772567355103377200,6.606377197265625,-0.3258972569853067,-0.2529606155902147,-0.32677791227735575
1772567355113406200,6.61640625,-1.8233721957355737,-0.6533017036631703,-0.49937250365670766
1772567355123435300,6.626435302734375,-3.220543178215623,-0.8825108567878603,-0.569136725560762
1772567355133464300,6.63646435546875,-4.251139440885186,-1.0634013846844435,-0.49673254707455633
1772567355143492000,6.6464921875,-5.21461213235259,-1.2931380688145755,-0.4203479571826756
1772567355153521400,6.656521484375,-6.059661858013272,-1.463356396049261,-0.7113340597845613
1772567355163550500,6.666550537109375,-6.950413596662878,-1.4064566972196102,-1.3443265503905713
1772567355173578200,6.676578125,-7.84367410326302,-1.264545011536777,-1.8125727154321967
1772567355183607300,6.686607177734375,-8.644913913291692,-1.1839967260941862,-1.790321136135608
1772567355193636000,6.696635986328125,-9.05905936257243,-1.1576397573053836,-1.363061792129278
1772567355203665200,6.7066650390625,-9.360416052541137,-1.188094516801834,-1.1547522922355682
1772567355213694200,6.716694091796875,-9.378912078696489,-1.2534136689305304,-1.0842949004355817
1772567355223722200,6.72672216796875,-9.156295163443684,-1.3575927130684255,-1.0449039702896028
1772567355233751300,6.736751220703125,-8.843509316965937,-1.5360507531210779,-1.094806795969233
1772567355243780400,6.7467802734375,-8.396990707346797,-1.5183037917673587,-0.8958605330307036
1772567355253808400,6.756808349609375,-7.6357491457074875,-1.3564260073766112,-0.4669759259101003
1772567355263837400,6.76683740234375,-6.6103656492501495,-1.0523577203616499,-0.21078756217872724
1772567355273866200,6.7768662109375,-5.618409206098318,-0.7445973008304834,-0.1831842465906404
1772567355283895300,6.786895263671875,-4.466549201238155,-0.5871390864476561,-0.19806555284755303
1772567355293923300,6.79692333984375,-3.18666078235805,-0.3973109265968203,-0.03545083248438313
1772567355303952100,6.8069521484375,-1.8214876971632241,-0.2429340193554759,0.1341698393844068
1772567355313981200,6.816981201171875,-0.41419104198813433,-0.21351532490849492,0.30934071099255234
1772567355324010500,6.827010498046875,0.79904317676723,-0.20687457171976564,0.4622677482191473
1772567355334038300,6.837038330078125,1.8679075030326842,-0.1274897770985961,0.490274420443736
1772567355344067300,6.8470673828125,2.6369477557241914,0.007563128730654716,0.6097688514068722
1772567355354096000,6.85709619140625,3.110461339774728,0.15393471643179654,0.7597459162540733
1772567355364125200,6.867125244140625,3.2232682192653415,0.32737989675849677,0.9167207310341298
1772567355374153500,6.877153564453125,3.29369375462234,0.46808600604385137,0.9552169773627072
1772567355384182300,6.887182373046875,3.329938787958026,0.5853741226017475,0.8069001738779247
1772567355394211300,6.89721142578125,3.389886768442392,0.6525038312837481,0.6890284122131765
1772567355404240400,6.907240478515625,3.690224052235484,0.653781596134603,0.6429454370826483
1772567355414268200,6.91726806640625,4.144069059219956,0.6634305912286043,0.5793251978263259
1772567355424297200,6.927297119140625,4.791646832278371,0.7502540114179254,0.49717904873304064
1772567355434326300,6.937326171875,5.5248535550445315,0.8543655432775616,0.4813485885251313
1772567355444355300,6.947355224609375,6.14273235540986,0.981888345862925,0.5726186493923887
1772567355454383400,6.95738330078125,6.648831281244754,1.0858426413342357,0.7082284949846566
1772567355464412200,6.967412109375,6.930038917154073,1.1502850106284022,0.8886991900339722
1772567355474441200,6.977441162109375,7.144983398082852,1.1609171715408564,0.9020150370724499
1772567355484470300,6.98747021484375,7.172283492940664,1.2086796241909266,0.6730130969576538
1772567355494498300,6.997498291015625,6.964543244302273,1.2900444867134093,0.41770255724042654
1772567355504527400,7.00752734375,6.691482674491405,1.3116051611363888,0.16386174301588907
1772567355514556200,7.01755615234375,6.53596945669651,1.3074033255323767,-0.06145373627166263
1772567355524585200,7.027585205078125,6.310745573815703,1.3947694742962717,-0.18962186015639454
1772567355534613200,7.03761328125,5.931798279166221,1.4875500493243337,-0.22897556356452403
1772567355544642300,7.047642333984375,5.369843610596656,1.414787595452368,-0.26052175329318267
1772567355554671400,7.05767138671875,4.6962651348412034,1.220678105020523,-0.17931418195795268
1772567355564700400,7.067700439453125,3.744401048102975,0.9997110028013586,0.09158716399241239
1772567355574728200,7.077728271484375,2.2992121769070626,0.6263543677657842,0.30748792273271824
1772567355584757200,7.08775732421875,0.5214174909979105,0.14677666137069462,0.34219135264959183
1772567355594786000,7.0977861328125,-1.4439929394096136,-0.24835253727287052,0.4219609453372657
1772567355604815400,7.1078154296875,-2.8877643450230357,-0.7918173171669244,0.25389511996135117
1772567355614843400,7.117843505859375,-4.138596180766821,-1.2924866191685198,-0.25631734213959423
1772567355624872200,7.1278720703125,-5.343842907899618,-1.566955594472587,-0.4967793818909675
1772567355634901200,7.1379013671875,-6.176588447782397,-1.7126929759234188,-0.31485903602261095
1772567355644930300,7.147930419921875,-6.785630446219444,-1.770565903699398,-0.19852800099384038
1772567355654958300,7.157958251953125,-7.098316339454055,-1.744021303384006,-0.30041210259497164
1772567355664987400,7.1679873046875,-7.476729965618253,-1.7118606167525052,-0.517339902828075
1772567355675016200,7.17801611328125,-7.842982029345631,-1.722913048903644,-0.6318090529751033
1772567355685045200,7.188045166015625,-7.818176673913001,-1.677063736398518,-0.4357952998245135
1772567355695073300,7.1980732421875,-7.843810296863317,-1.7508020495653152,-0.13782394144516438
1772567355705102000,7.20810205078125,-7.683598692119121,-1.8453902585372328,0.20646697729956356
1772567355715131400,7.21813134765625,-7.483727277159691,-1.8357585068389772,0.43058973053805527
1772567355725160400,7.228160400390625,-7.391163559752703,-1.7555936677560209,0.5235995112121105
1772567355735188200,7.238188232421875,-7.226669163122772,-1.5731041802302002,0.7041380838658661
1772567355745217300,7.24821728515625,-6.928895007815957,-1.402553552301228,0.8876996576026082
1772567355755246000,7.25824609375,-6.240370307341218,-1.337518770071864,0.8716264746800064
1772567355765274400,7.2682744140625,-5.267105120655894,-1.3454884337767958,0.6566945609718561
1772567355775303400,7.278303466796875,-4.162825197616219,-1.2448568529874087,0.5364792318556457
1772567355785332200,7.288332275390625,-2.879288193100691,-1.1200719509333372,0.6172411600489169
1772567355795361300,7.298361328125,-1.4549328510969877,-1.0421405699908732,0.6426020304724573
1772567355805389000,7.30838916015625,-0.20198036993741988,-0.8849316541939973,0.5706149083545431
1772567355815418400,7.31841845703125,0.9358557857453823,-0.6614107758387923,0.504571533604525
1772567355825447400,7.328447509765625,1.8806191005676984,-0.49813569187074896,0.5073876870037988
1772567355835476500,7.3384765625,2.5385557705551385,-0.2915390603095293,0.6110988579016179
1772567355845504300,7.348504150390625,3.189410373327136,-0.01209521920233965,0.7324942636478692
1772567355855533300,7.358533203125,3.8251545007288454,0.24459230795651674,0.6435548011526465
1772567355865562000,7.36856201171875,4.322513070747256,0.43175680155605073,0.5902794668326155
1772567355875591200,7.378591064453125,4.585339246791601,0.513001544830203,0.611713409603387
1772567355885619200,7.388619140625,4.856732760173082,0.5153671049177646,0.5391518485983834
1772567355895648300,7.398648193359375,5.157410820227861,0.4503948665305972,0.30010570352692156
1772567355905677300,7.40867724609375,5.3458583393752575,0.4441951351076364,0.13134272619970142
1772567355915706400,7.418706298828125,5.580716312041878,0.5750634487286209,0.1987859578102827
1772567355925734400,7.428734375,5.908156706815958,0.678977704450488,0.3286520721187815
1772567355935763500,7.438763427734375,6.19155980694294,0.7035238244250417,0.2505881873704493
1772567355945792300,7.448792236328125,6.458997860696911,0.7935314276084303,0.02506422556452453
1772567355955821300,7.4588212890625,6.736809424427151,1.0293372025191783,-0.09906418534219265
1772567355965849300,7.468849365234375,6.968423300606012,1.196041676414013,-0.11774660091511904
1772567355975878100,7.478878173828125,6.988247945016622,1.379023039110005,-0.2687481134392321
1772567355985907200,7.4889072265625,6.894798092424869,1.5365420437693595,-0.4825060879971832
1772567355995936500,7.4989365234375,6.875208425813913,1.7014681098148225,-0.7327868899188935
1772567356005964300,7.50896435546875,6.7784870042055845,1.8690096190556882,-0.9793946293510496
1772567356015993300,7.518993408203125,6.5382134362310165,1.8291127852141855,-1.0305496470488607
1772567356026022100,7.529022216796875,6.279445011144876,1.3953431825309992,-0.9385688440963625
1772567356036051200,7.53905126953125,5.540894004741311,1.296203593865037,-1.0223596185915171
1772567356046079500,7.54907958984375,4.885938396391272,1.6198250148728488,-1.2524017154090106
1772567356056108300,7.5591083984375,4.48216879517436,1.2806085498481987,-1.2194114460855723
1772567356066137300,7.569137451171875,3.5463381438702344,0.7422124515205621,-0.8335068796440959
1772567356076166400,7.57916650390625,2.3081916021764277,0.2700792159125209,-0.15208660434708
1772567356086194200,7.589194091796875,1.5085598118662833,-0.1621165615826845,0.4514749168522656
1772567356096223200,7.59922314453125,0.5616799432814121,-0.2792681922793388,0.67454016039446
1772567356106252300,7.609252197265625,-0.8263625608474016,-0.34618045881837606,0.82409476204589
1772567356116281300,7.61928125,-2.3412872315704822,-0.8027394009366631,1.181377921897918
1772567356126313200,7.629313232421875,-3.9060324565172193,-1.351869951507449,1.3655251135028899
1772567356136342000,7.639342041015625,-5.368367692825198,-1.5298612508311866,1.089715391114354
1772567356146371000,7.64937109375,-6.466853250372409,-1.5363617187663912,0.612568711258471
1772567356156400000,7.659400146484375,-7.438457225847244,-1.6787033202990889,0.2799294326670468
1772567356166428200,7.66942822265625,-8.363062718781828,-1.9314771811455487,0.05583353090286255
1772567356176457200,7.679457275390625,-9.314073403561114,-2.307607080286741,-0.03652443479895592
1772567356186486300,7.689486328125,-9.94268227225542,-2.6183596673712133,0.09898542101755738
1772567356196514000,7.69951416015625,-10.17929673320055,-2.634404500982165,0.1756844836860895
1772567356206543000,7.709543212890625,-10.267937139683962,-2.2509660323932765,0.1785509790331125
1772567356216572200,7.719572265625,-9.680185766556859,-1.652221556086838,-0.020229425819218157
1772567356226601200,7.729601318359375,-8.679632759973407,-1.0583175055488943,-0.5599390178982168
1772567356236629200,7.739629150390625,-7.471113879302144,-0.6874965264707803,-0.8840919154342264
1772567356246658000,7.749657958984375,-6.039803895854949,-0.5926289160355925,-0.7161851530775427
1772567356256687000,7.75968701171875,-4.03949049437046,-0.4797311433911323,-0.41227234888523817
1772567356266716200,7.769716064453125,-1.9314888715833425,-0.583935321970284,-0.2381698736935854
1772567356276744200,7.779744140625,-0.20589958920776844,-0.7032812478408217,-0.19119418750703335
1772567356286773200,7.789773193359375,1.2709832278907298,-0.6555076892748475,0.01721519256457686
1772567356296802000,7.799802001953125,2.090263721522689,-0.5811167574182152,0.5502564858607948
1772567356306831000,7.8098310546875,2.416661329245567,-0.6072934012040495,1.0603438968099652
1772567356316859100,7.819859130859375,2.656941911482811,-0.5176476170703769,1.358582308627665
1772567356326888200,7.82988818359375,2.559957455024123,-0.022351532539725303,1.2730173640668392
1772567356336917200,7.839917236328125,2.337887652260065,0.7057993681415915,0.8143791314564645
1772567356346946300,7.8499462890625,2.169832348278165,0.9746890820086002,0.015141747291386126
1772567356356974000,7.85997412109375,1.8796850345879792,0.9052882135242223,-0.617478256740421
1772567356367003100,7.870003173828125,1.753560408362746,0.847488643245399,-0.7227213499132543
1772567356377032000,7.880031982421875,2.0295657994538545,0.8106953283771872,-0.4521410526107996
1772567356387061000,7.89006103515625,2.642704127293825,0.9182070240691304,0.008212148957606405
1772567356397089300,7.90008935546875,3.4049048893541096,0.9907052740469574,0.16420436417479067
1772567356407118000,7.9101181640625,4.06308296688199,1.074291904272139,0.2209548820584081
1772567356417147100,7.920147216796875,4.775100186625123,1.0938882928848266,0.3156622056316584
1772567356427176200,7.93017626953125,5.476621731317043,1.042945164372027,0.330780206721276
1772567356437204200,7.940204345703125,6.015649113285541,1.0279229518070816,0.44791561693549153
1772567356447233300,7.9502333984375,6.387517847850918,1.0962813255012034,0.6163237529430539
1772567356457262000,7.960261962890625,6.447317944297194,1.2129255911976098,0.6801753898024558
1772567356467291100,7.970291015625,6.646537032827735,1.311261462265253,0.5543155154606327
1772567356477319200,7.980319091796875,6.8115095683634275,1.3688447594448923,0.30906554731298236
1772567356487348000,7.990347900390625,6.595531068211794,1.424105458895862,0.2699356061907485
1772567356497377300,8.000377197265625,6.330826823335886,1.360564714616537,0.3799258573580533
1772567356507404000,8.010404052734375,6.2987418322891,1.174610473589599,0.31287348822858185
1772567356517432300,8.020432373046875,6.160910986179113,0.9830822318226099,0.15220942700915038
1772567356527461000,8.030461181640625,5.702769158783554,0.8308817918375134,0.09455321072377264
1772567356537490200,8.040490234375,5.122303266489506,0.6286284501776099,0.20659253990799187
1772567356547519200,8.050519287109376,4.307542296108603,0.3764987324535847,0.39856311861500143
1772567356557547000,8.060547119140624,3.2566502643853426,0.11197188997119664,0.43580512709878383
1772567356567576000,8.070576171875,2.1306845792382956,-0.13518617682009934,0.023358892084518447
1772567356577605000,8.080605224609375,0.5669523307263851,-0.1747217761337757,-0.8085925108790397
1772567356587634200,8.09063427734375,-0.9510194526076317,0.08453267890363932,-1.2593250849314033
1772567356597662200,8.100662109375,-2.707041282647848,0.1691805086195469,-1.1602223942097276
1772567356607691000,8.11069091796875,-4.469589299586415,-0.1582294910162687,-0.9996374991737306
1772567356617720000,8.120719970703124,-5.645945447799563,-0.651504298852384,-0.8113345761287957
1772567356627749000,8.1307490234375,-6.919102512598037,-0.9403057508915662,-0.5181158191040158
1772567356637777200,8.140777099609375,-8.04636232920885,-1.0015972549393772,-0.22271447560945523
1772567356647806200,8.15080615234375,-8.197085974639654,-1.0851070205360651,-0.17160598220080137
1772567356657835300,8.160835205078126,-7.80510559541583,-1.2109741648688912,-0.08252776882201433
1772567356667864000,8.170864013671874,-7.790062340062856,-1.2039835753291845,0.04909213035125285
1772567356677892000,8.18089208984375,-7.959035343411564,-1.1378037147179245,0.15988454648060724
1772567356687921200,8.190921142578125,-8.129484264531731,-1.2696484721556305,-0.07732971612173133
1772567356697950200,8.2009501953125,-8.298939498439431,-1.5095149206340313,-0.522024845773913
1772567356707979300,8.210979248046876,-8.384851941263674,-1.7519640790820121,-1.1240070984251798
1772567356718007000,8.221007080078126,-8.577948162999748,-1.7192346526518463,-1.5588906536996363
1772567356728036000,8.2310361328125,-8.222934701645373,-1.328934189338982,-1.3746310877613723
1772567356738065200,8.241065185546875,-7.083932424792647,-1.0416238526403903,-1.0425964970648287
1772567356748094200,8.25109423828125,-5.811922191941738,-0.8065843859270214,-0.8441901862218976
1772567356758122200,8.261122314453125,-4.441676625788212,-0.5256824549660086,-0.7813150662444531
1772567356768151000,8.271151123046875,-2.709416779607534,-0.2889578116446733,-0.6006542189178988
1772567356778180000,8.28118017578125,-0.9991326183915138,-0.1447235282331705,-0.39699375040642915
1772567356788208000,8.2912080078125,0.4709463639110327,-0.12446604536324739,-0.3642044104825705
1772567356798237200,8.3012373046875,1.7454840694129465,-0.06582973199933767,-0.4040183883462101
1772567356808266200,8.311266357421875,2.6976369099646806,0.26230069086551666,-0.339675643501617
1772567356818295300,8.32129541015625,3.325822000288963,0.5527154233202338,-0.3208089208703488
1772567356828323000,8.331322998046875,3.8575212313264604,0.7401505505546927,-0.18633246322218328
1772567356838352100,8.34135205078125,4.455753081935644,0.8705196824818849,-0.009316530002932996
1772567356848381000,8.351380859375,4.877103348028659,0.82136723677814,0.011940010374318808
1772567356858410200,8.36141015625,5.045760709556937,0.7295384095169604,0.03597138575976714
1772567356868438300,8.371438232421875,5.094774039050937,0.6725757284536957,0.20054304887698962
1772567356878467000,8.381467041015625,4.918686235260963,0.6286321034394204,0.40679811872523275
1772567356888496000,8.39149609375,4.759274840983748,0.5727222924299538,0.7320769880838692
1772567356898525200,8.401525146484374,4.800820318815112,0.4545898340024054,1.0098089107066393
1772567356908553200,8.41155322265625,4.957007490348816,0.3529848781362176,1.0697518496897072
1772567356918582300,8.421582275390625,5.279039888599515,0.2921675674714148,0.8346201746482401
1772567356928611000,8.431611083984375,5.631698311260342,0.31854046448171136,0.564673937465623
1772567356938640100,8.44164013671875,5.96803629823923,0.4068273813523352,0.41651334745585916
1772567356948668200,8.451668212890626,6.293169585114717,0.507385312383622,0.29984292440488935
1772567356958697000,8.461697021484374,6.553158491906523,0.6586375117331743,0.07204199411030858
1772567356968726300,8.471726318359375,6.637468760231137,0.8615852653980255,-0.08798935869615525
1772567356978755300,8.48175537109375,6.567546498221159,1.0309572049364446,-0.1229188889864832
1772567356988783000,8.491783203125,6.441807656443118,1.1541109986573457,-0.22700177927352486
1772567356998812200,8.501812255859376,6.155389007887244,1.2031240358904003,-0.3991605730514973
1772567357008841000,8.511841064453124,5.551179251912236,1.1460694387599826,-0.578081079516746
1772567357018870000,8.5218701171875,4.753817744621634,1.094722990143299,-0.7312982587963343
1772567357028898300,8.531898193359375,3.747603059014678,1.0895388655036686,-0.7230541620641946
1772567357038927000,8.541927001953125,2.517034843620658,0.8494184422641992,-0.6618005058087408
1772567357048956200,8.5519560546875,0.937236426448822,0.39415246256589886,-0.6140296506565064
1772567357058984000,8.56198388671875,-0.9586036241263151,-0.29886896480619907,-0.39626207513101397
1772567357069013000,8.572012939453124,-2.8218887280553577,-0.948077553936839,-0.09014098377209157
1772567357079042300,8.582042236328125,-4.245682344523072,-1.2971671782001852,0.1999141215899959
1772567357089071400,8.5920712890625,-5.006676653403043,-1.5319658218950032,0.38288090777136385
1772567357099099100,8.60209912109375,-5.865076859024167,-1.7236898784950374,0.9499633676834404
1772567357109128200,8.612128173828125,-6.5216410716146225,-1.7438006463706492,1.3163631693184374
1772567357119158300,8.622158203125,-6.934701648268103,-1.6258981973066926,1.330929747070372
1772567357129183700,8.632183837890626,-7.374809221801161,-1.646497917743027,1.147455851617083
1772567357139212500,8.642212646484374,-7.446421921116113,-1.7220257446750997,0.8615043091163038
1772567357149240800,8.65224072265625,-7.424484814596176,-1.5556193769440054,0.798563503491506
1772567357159269600,8.66226953125,-7.515623467636108,-1.4024287568777798,0.7074940432302653
1772567357169298700,8.672298583984375,-7.470890591940283,-1.423924549371004,0.45132264890000223
1772567357179327700,8.68232763671875,-7.217562312081456,-1.4780492305293678,0.1265076707260683
1772567357189355500,8.69235546875,-6.960236487019062,-1.56695033377558,-0.2376908214723691
1772567357199384600,8.702384521484374,-6.648008274424075,-1.6169383535206316,-0.29529833977781234
1772567357209414000,8.712413818359375,-6.228530816465616,-1.647749671369791,-0.06807762052398175
1772567357219441700,8.722441650390625,-6.02553513200581,-1.6634630810692905,0.29796854536775497
1772567357229470700,8.732470703125,-5.335416440337896,-1.5316621627733111,0.6162525874029845
1772567357239499500,8.74249951171875,-4.47882942161858,-1.1716960474476217,0.5870195882538333
1772567357249528600,8.752528564453126,-3.7370962780475616,-0.7495531696721911,0.394138287910074
1772567357259556900,8.762556884765624,-2.954365353655815,-0.4221566140398383,0.45808885509930547
1772567357269585700,8.772585693359375,-2.0564584825545547,-0.2020534351736307,0.3918501404402777
1772567357279614700,8.78261474609375,-1.1396452509313821,0.014903262360394,0.1897707671077922
1772567357289643800,8.792643798828125,-0.4417138396859169,0.1670925964295864,-0.2175433748481795
1772567357299671600,8.802671630859376,0.30234628552794457,0.23169161759018897,-0.4736053539872169
1772567357309700600,8.81270068359375,1.031283075889945,0.225661982037127,-0.5683905468359589
1772567357319729700,8.822729736328125,1.6022779600054025,0.14077303704172373,-0.6205056417375803
1772567357329758700,8.8327587890625,2.138922830751538,0.07840513593405485,-0.42235966233126815
1772567357339786800,8.842786865234375,2.697297302746773,0.10424363380670547,-0.1594871629271656
1772567357349815600,8.852815673828125,3.1892098823189734,0.24290946943610905,0.03656464807833545
1772567357359844600,8.8628447265625,3.5791800907641647,0.3065172876022756,-0.14149132311260326
1772567357369873700,8.872873779296874,4.119584021782875,0.3206977886460721,-0.4823930926093831
1772567357379901700,8.882901611328125,4.7341953447848555,0.4819722003161907,-0.7194514613971114
1772567357389930800,8.8929306640625,5.22707121643126,0.541034337876737,-0.891894844270125
1772567357399959600,8.90295947265625,6.042249535441398,0.7320137135893106,-0.6388930929519235
1772567357409988600,8.912988525390626,6.428703260198235,0.9786667534679174,-0.3744700761701911
1772567357420016600,8.9230166015625,6.556048368129134,1.2074521282225847,-0.015332959014549851
1772567357430045700,8.933045654296874,6.522440113037824,1.3698817012771962,0.21752825034428386
1772567357440074800,8.94307470703125,6.437307422414421,1.3966051652908325,0.1841049233658239
1772567357450102500,8.9531025390625,6.633329760730266,1.41338532743901,0.05016282832268625
1772567357460131600,8.963131591796875,6.980803474229574,1.418937408608198,-0.09399265423156321
1772567357470160600,8.97316064453125,7.0157426856636995,1.4505895611956714,-0.2450209451647475
1772567357480189400,8.983189453125,6.508626107218861,1.5605907356157898,-0.359985075754486
1772567357490217700,8.9932177734375,6.143839439868927,1.6647089894771574,-0.4533133843258023
1772567357500246800,9.003246826171875,5.624462514787912,1.7986033729210495,-0.581239726210758
1772567357510275600,9.013275634765625,5.045208336371183,1.949889912931621,-0.6475489853553473
1772567357520304600,9.0233046875,4.29218106084764,1.9351511934831738,-0.5848152466099709
1772567357530332700,9.033332763671876,3.2710236576527354,1.622542164877057,-0.2574862032558769
1772567357540361700,9.04336181640625,1.7561843271255493,1.072839075115323,0.09836078631319105
1772567357550390800,9.053390869140625,-0.09765665663182735,0.37090982640534637,0.14213760339319706
1772567357560419600,9.063419677734375,-1.6333581579238174,-0.06754442696273326,0.05422850685901939
1772567357570447600,9.073447509765625,-2.5843267571270463,-0.23055618381947277,-0.1567517466139048
1772567357580476700,9.0834765625,-3.1641958525717255,-0.45691842308044434,-0.44430034904778
1772567357590505500,9.09350537109375,-3.5422909143060446,-0.7202826515242456,-0.44539939633086323
1772567357600534800,9.10353466796875,-3.952615343993902,-0.8766276439681648,-0.08102861630544066
1772567357610562600,9.1135625,-4.174579348295927,-1.222918285162747,0.1915941466100514
1772567357620591600,9.123591552734375,-4.500789909014106,-1.6670529222548007,0.22008074783869086
1772567357630620700,9.13362060546875,-4.7183916264534,-2.137513256214559,0.5308922985687852
1772567357640649500,9.1436494140625,-4.7847056348383425,-2.391110708403587,1.0698783986788243
1772567357650677800,9.153677734375,-5.135950099048018,-2.5267972359612583,1.3524609031379222
1772567357660706800,9.163706787109374,-5.834029394331574,-2.663874341094494,1.0810868251092731
1772567357670735600,9.173735595703125,-6.862053760686516,-2.6075191244050857,0.39168424582146105
1772567357680763600,9.183763671875,-7.985109695866703,-2.585455761156976,-0.06916738852206618
1772567357690792400,9.19379248046875,-8.366240764296055,-2.155622913400829,-0.35406017921753224
1772567357700821800,9.20382177734375,-8.061174698415398,-1.6469763489097355,-0.49525962497778236
1772567357710850800,9.213850830078124,-7.051164712178707,-1.1296186546966434,-0.6864085851036011
1772567357720878600,9.223878662109374,-5.654892724364996,-0.8606199274972081,-0.5256037637066096
1772567357730907600,9.23390771484375,-3.9108904179424044,-0.6205883515849709,-0.13627082111849448
1772567357740936700,9.243936767578125,-1.6985539759337902,-0.36970191192030905,0.23254556753840297
1772567357750965500,9.253965576171876,0.4386696496844291,-0.4220160365253687,0.34699835107252
1772567357760993800,9.263993896484376,1.9181062429189681,-0.4216533406928181,0.4601216030359268
1772567357771022600,9.274022705078124,2.9705618706971406,-0.20733605175167322,0.847725739936903
1772567357781051600,9.2840517578125,3.6588591921567915,0.10231120443940162,1.1379513064950704
1772567357791080700,9.294080810546875,3.689721947932243,0.34041181228905915,0.9436773462165147
1772567357801108500,9.3041083984375,3.322631095293164,0.5102157135039568,0.6774418001201004
1772567357811137800,9.3141376953125,3.25456585932672,0.4599447851642966,0.4603665542403236
1772567357821166800,9.324166748046874,3.145280139699578,0.43420214888155456,-0.06494410827122628
1772567357831195600,9.334195556640625,2.889707295784354,0.6391238329678773,-0.5108526231680065
1772567357841223700,9.3442236328125,2.7782828105628488,0.5400131781354546,-0.5030945929197594
1772567357851252500,9.35425244140625,3.2372078972905873,0.07594166842997074,-0.1957790676118806
1772567357861281500,9.364281494140625,3.862076994934678,0.011437924337387084,0.0344639586051926
1772567357871309800,9.374309814453126,4.530746655860543,0.3504012913838029,0.5297102491773664
1772567357881338600,9.384338623046874,5.363248450115322,0.35132629727423187,0.747331621165201
1772567357891367700,9.39436767578125,5.817669211161136,0.24715192931145427,0.8199461179338395
1772567357901396700,9.404396728515625,6.032298634791374,0.21276275297552347,1.0129247046396135
1772567357911424500,9.414424560546875,6.069627956232428,0.2697007379889488,1.0637662724740802
1772567357921453800,9.424453857421875,5.855212467613816,0.41372050186693665,0.8935228107981383
1772567357931482600,9.434482666015626,5.718318025571108,0.5069976282402873,0.6594157295640558
1772567357941511700,9.44451171875,5.553963329672813,0.5964934825092554,0.20575367793105542
1772567357951539700,9.454539794921875,5.466937372648716,0.7501549349576234,-0.17918328558728097
1772567357961568500,9.464568603515625,5.454971040523052,0.8112769276574253,-0.3432836048657074
1772567357971597600,9.47459765625,5.294335072886944,0.8029653186470269,-0.3274706437818706
1772567357981626600,9.484626708984376,5.098531345757841,0.7046501981064677,-0.33345662285629657
1772567357991654700,9.494654541015626,4.8481706835329526,0.5568512079507112,-0.4530475729964673
1772567358001683700,9.50468359375,4.280689945018291,0.5822022145673632,-0.33609256085045636
1772567358011712500,9.51471240234375,3.4069401945739983,0.5391296732991934,-0.1158601295813918
1772567358021740800,9.52474072265625,2.1430051316291094,0.36231443201750513,0.16547997360117733
1772567358031769900,9.534769775390625,0.23787995083630084,0.08607347860485315,0.46626638940125703
1772567358041798700,9.544798583984376,-2.0239555583566426,-0.14092764308154582,0.33125271960385144
1772567358051827700,9.55482763671875,-4.131729802128672,-0.5873205804944038,-0.5172121482625603
1772567358061855500,9.56485546875,-5.725894013783336,-0.9990835185527801,-1.6188079467847942
1772567358071884500,9.574884521484375,-6.9733554963111875,-1.1409347062200308,-2.307750434280187
1772567358081913600,9.58491357421875,-7.618874583274126,-1.0955217393055559,-2.0143353509657085
1772567358091942700,9.594942626953125,-7.1657789333522315,-1.1682742563053965,-1.40745959065184
1772567358101970700,9.604970703125,-7.063426227858662,-1.150335864032805,-0.6653846479058265
1772567358111999700,9.614999755859374,-6.477455892929434,-1.401503750987351,0.12906535585224627
1772567358122028500,9.625028564453125,-5.509373661839962,-1.6243664576947687,0.7084193413816392
1772567358132056800,9.635056884765625,-5.180877620533108,-1.5974240902334451,1.197275163731724
1772567358142084900,9.6450849609375,-4.95699989156425,-1.5050941815823315,1.5224999282829463
1772567358152114000,9.655114013671875,-4.906563835790753,-1.427471720458567,1.3512905441842973
1772567358162143000,9.66514306640625,-5.565663119816779,-1.4523887195721268,0.9406718077249825
1772567358172171800,9.675171875,-6.503655917590856,-1.8774656049728393,0.5469152856741101
1772567358182200000,9.685199951171874,-7.385055306005477,-1.812013474114239,0.1298951577398926
1772567358192228900,9.695228759765625,-7.8476050129711625,-1.3742249911785125,-0.12030991206448524
1772567358202258000,9.7052578125,-7.825966597136855,-1.2347782343044877,-0.2929738058203831
1772567358212286000,9.715285888671875,-7.307039753910899,-1.1838915121540428,-0.42437867400348184
1772567358222314800,9.725314697265626,-6.167336050790548,-0.90283088349998,-0.35600364143550395
1772567358232343800,9.73534375,-4.873846392059326,-0.5953203470766544,0.02384191722795367
1772567358242372900,9.745372802734375,-3.1534839044213294,-0.39059798495471476,0.10499540202207863
1772567358252401000,9.75540087890625,-1.70105339153409,-0.3350891559615731,0.2963220933349803
1772567358262430000,9.765429931640625,-0.4507306743562221,-0.37027503563314673,0.4256175316160544
1772567358272458800,9.775458740234376,0.42090953658819197,-0.28804654201865193,0.5160464654840529
1772567358282487800,9.78548779296875,1.0851473525464534,-0.17539397630691528,0.6818789788499474
1772567358292516000,9.79551611328125,1.62919460850358,-0.19944997467696665,0.4700428026674315
1772567358302545000,9.805544921875,1.8630156393378972,-0.17384703912585972,0.005717299934569746
1772567358312574000,9.815573974609375,2.196689960065484,-0.20143033483922482,-0.2069039439447224
1772567358322603000,9.82560302734375,2.657573779645562,-0.13901742554605007,-0.1972363354817964
1772567358332630800,9.835630859375,3.082226009893417,-0.06356207932829856,-0.1986057058725506
1772567358342659800,9.845659912109374,3.6544542351961136,-0.09078414051383733,-0.1721613145286217
1772567358352689000,9.85568896484375,4.238102264657616,-0.000339022696018219,-0.0770785452391021
1772567358362717000,9.865717041015625,4.728035068589449,0.28121991086900233,0.20691651116535068
1772567358372746000,9.87574609375,5.170917367532849,0.42756402604132887,0.4149441619103774
1772567358382774800,9.88577490234375,5.4572091748386615,0.4051014343425631,0.2979220028122887
1772567358392803800,9.895803955078126,5.750078022447228,0.46558629818260666,0.16950564892068504
1772567358402832000,9.905831787109374,6.00048836903274,0.7549673036754131,0.09622413961067795
1772567358412861000,9.91586083984375,6.015106676971912,1.036426576258242,-0.2527733493898064
1772567358422890000,9.925889892578125,5.977964987057447,1.2009531215921043,-0.6038834466300904
1772567358432918800,9.935918701171875,5.5941381036728615,1.2119587919920682,-0.9139974435500801
1772567358442946800,9.94594677734375,5.15450223930478,1.1461837127894163,-1.1198309087190776
1772567358452975900,9.955975830078126,5.246113770553469,1.229251579837501,-1.2180977331385017
1772567358463005000,9.9660048828125,7.556805957373976,1.7309633766293524,-1.2792124193146823
1772567358473034000,9.976033935546875,7.1083958349198095,2.2944743347302077,-0.49120092417150735
1772567358483061800,9.986061767578125,3.802184544029832,1.5875161519423127,-0.12786094849854707
1772567358493090800,9.9960908203125,3.5116350792795417,1.1700608474612235,-0.35757673597112294
1772567358503120000,10.006119873046876,3.940912046718597,1.828916385859251,-0.9054030720755457
1772567358513149000,10.01614892578125,2.546654321336746,2.2018647323548795,-1.0643579547569155
1772567358523177000,10.026177001953124,2.2788193772196768,2.1283424000263214,-0.9768310624733567
