time,seconds_elapsed,z,y,x
1772566897762376700,0.081376708984375,0.11341302869021892,0.061226622118055817,-0.03213394475504756
1772566897772405800,0.09140576171875,-0.004199789777398109,0.02485182492285967,0.02047024883776903
1772566897782434800,0.101434814453125,0.0068920976012945175,0.04173500905409455,0.018497195199131965
1772566897792464100,0.111464111328125,0.09229892899096012,0.07273556586503982,0.004631897584348917
1772566897802493700,0.12149365234375,0.11953414191901683,0.09331278220862149,0.04066606464833021
1772566897812523000,0.13152294921875,0.10218845484256744,0.07952098822146654,0.05761690718829632
1772566897822552000,0.141552001953125,0.04658639460802078,0.08507219260782004,0.015363865609467028
1772566897832580900,0.151580810546875,0.05762275240719318,0.08926789073199033,-0.006377864468842745
1772566897842610000,0.16160986328125,0.11742518694102763,0.06819149269461632,0.014215572357177733
1772566897852639000,0.171638916015625,0.15164660549461842,0.041288726591318846,0.06356207932829856
1772566897862667800,0.181667724609375,0.17371464491784572,0.04580167397111654,0.08575330673977732
1772566897872696800,0.19169677734375,0.18228373582065105,0.057217532607167956,0.09221987240538
1772566897882726000,0.201725830078125,0.14231588256955147,0.040549598661810154,0.09440773783847689
1772566897892754700,0.211754638671875,0.09301964448094367,0.03575257364362478,0.07674874702915549
1772566897902783700,0.22178369140625,0.06784954738914967,0.07167451250478625,0.0570915681399405
1772566897912813000,0.23181298828125,0.11014321323931217,0.11486293523758649,0.0362016325853765
1772566897922841900,0.241841796875,0.14823241313695906,0.12498276271373032,0.04308247814029455
1772566897932871000,0.251870849609375,0.1692272703707218,0.11598171013444661,0.04734291206374764
1772566897942900000,0.26189990234375,0.15380933648645878,0.1187792318984866,0.046477673536539074
1772566897952929000,0.271928955078125,0.14450199443697928,0.14021072698384524,0.04479308145046234
1772566897962957800,0.281957763671875,0.09648878189623356,0.13615940576642752,0.017620996886491776
1772566897972987000,0.29198681640625,0.05817921724617481,0.11260229682922362,0.01968187493905425
1772566897983017000,0.302016845703125,0.052338674524426455,0.07629092025905847,0.009403349769860505
1772566897993045800,0.312045654296875,0.07907996645569801,0.07280512396991252,0.011509236007928848
1772566898003074800,0.32207470703125,0.12419862659871578,0.0845386702530086,0.0034305589705705642
1772566898013103900,0.332103759765625,0.14071195450425147,0.10285641723200678,-0.002297024895995855
1772566898023133000,0.3421328125,0.13157120119333265,0.10193798721283674,-0.0007969955965876579
1772566898033162000,0.352161865234375,0.09820201555490493,0.10609057684764266,0.007166384498029947
1772566898043191000,0.36219091796875,0.09507716153264045,0.07740823385119437,0.01771305908411741
1772566898053219800,0.3722197265625,0.09683014267981052,0.05864683475792408,0.03672945585176349
1772566898063249000,0.382248779296875,0.09006254824101924,0.03908507906720042,0.039794104119390245
1772566898073278000,0.39227783203125,0.08781038540005684,0.02211962347999215,0.016978022807836533
1772566898083306800,0.402306640625,0.10549918682575225,0.022157179011404512,-0.019324001412093637
1772566898093335800,0.412335693359375,0.07498071444332599,0.03491670734137296,-0.04775178512558341
1772566898103364900,0.42236474609375,0.06813479407131671,0.012791530903428792,-0.03952084013596177
1772566898113393700,0.4323935546875,0.05947627131938934,-0.05294599276781082,0.0005664017111063003
1772566898123423000,0.442423095703125,0.14033844501674175,-0.09593494740575552,0.024105974991619584
1772566898133452000,0.4524521484375,0.1683510720580816,-0.08953867049738765,0.023248627509921786
1772566898143481000,0.462481201171875,0.1818149492651224,-0.09502163195312023,0.014092530499398707
1772566898153510000,0.472510009765625,0.15717793613672257,-0.10670227900519967,0.010232640200853347
1772566898163540000,0.4825400390625,0.12631108870804308,-0.1154328440800309,0.0021470950312912464
1772566898173569000,0.492569091796875,0.08834288484156132,-0.1258110302314162,-0.00247413502857089
1772566898183597800,0.502597900390625,0.06255377906858921,-0.15767010356783867,-0.006970861925929784
1772566898193627000,0.512626953125,0.03871288475394249,-0.1633804440386593,-0.0037127369128167626
1772566898203656000,0.522656005859375,0.04720248067975044,-0.14531608729884027,-0.003239858704060316
1772566898213684700,0.532684814453125,0.10629939729273319,-0.127313689879328,-0.000985650036484003
1772566898223713800,0.5427138671875,0.10999065302610396,-0.11610007581710814,0.013720920708030462
1772566898233742800,0.552742919921875,0.06271627615392207,-0.07613777552396059,0.03132394354641437
1772566898243772000,0.56277197265625,0.0287608150601387,-0.06670329996347427,0.015150368989259004
1772566898253801000,0.572801025390625,0.0145481653124094,-0.0737223849453032,0.013077508237957954
1772566898263830000,0.582830078125,0.05591185683608055,-0.09299290260449052,0.02072144711986184
1772566898273858800,0.59285888671875,0.1142027177631855,-0.06801102156117558,0.024495997222512958
1772566898283887900,0.602887939453125,0.1914046153873205,-0.017956512451171875,0.005150953022390604
1772566898293917000,0.6129169921875,0.21893442734777926,0.01951324037387967,0.0026994682170450686
1772566898303946000,0.622946044921875,0.2237123092740774,0.04220131139159202,0.006955956617742776
1772566898313974800,0.632974853515625,0.17046236512362956,0.1082100532196462,0.009656593878567219
1772566898324003800,0.64300390625,0.09311199893951415,0.17291954901739953,0.01231719138994813
1772566898334034000,0.653033935546875,0.018112579795718193,0.1891951226443052,0.022303601744771
1772566898344062700,0.663062744140625,0.0007253916651010513,0.16960355633720756,0.010101999558508396
1772566898354091800,0.673091796875,0.028426468539237974,0.15783070095703006,0.00020721300989389417
1772566898364121000,0.68312109375,0.06193769299685955,0.1298025840856135,-0.004591273313015699
1772566898374150000,0.69314990234375,0.09496201072037219,0.10201967414692044,-0.025175357788801193
1772566898384179000,0.703178955078125,0.14035831876099109,0.11064268719404935,-0.023696663538366556
1772566898394208000,0.7132080078125,0.13633037841916085,0.12118746208399533,-0.02629720142558217
1772566898404236800,0.72323681640625,0.19535013814270497,0.13956366125196218,-0.04107902936339378
1772566898414265900,0.733265869140625,0.2082885301709175,0.16307488522082567,-0.05338029253184795
1772566898424295000,0.743294921875,0.1941933693230152,0.18433555378392338,-0.04304331517368555
1772566898434323700,0.75332373046875,0.15131868871450424,0.15672975397780536,-0.044772184792906046
1772566898444352800,0.763352783203125,0.13567279129326343,0.08585209093913436,-0.0470908369988203
1772566898454381800,0.7733818359375,0.1161672958344221,0.010805910044163465,-0.027775165023654697
1772566898464411000,0.783410888671875,0.10914777246117591,-0.02138897111788392,0.005074526785314083
1772566898474440000,0.79343994140625,0.08468670042157173,-0.03215601045638323,0.03570975741520524
1772566898484469000,0.803468994140625,0.042264439755678174,-0.030850773076713082,0.12083543377593159
1772566898494498000,0.813498046875,-0.026990882778167722,-0.007384557293355465,0.1499587985381484
1772566898504527000,0.823527099609375,-0.08744447469711303,0.07192863339632749,0.058892480082064866
1772566898514557200,0.83355712890625,-0.09001052579283714,0.11406316316202282,-0.07771130845099687
1772566898524586200,0.843586181640625,-0.06917758112251758,0.08794409478232264,-0.148601830971241
1772566898534615000,0.853614990234375,-0.03199555919766426,0.03021744360923767,-0.16015958229601382
1772566898544644000,0.86364404296875,0.059574470996856685,-0.040781215460598465,-0.13006401150077582
1772566898554673200,0.873673095703125,0.10262158556282519,-0.09598317046165465,-0.042246611838042736
1772566898564702000,0.883701904296875,0.14810674093067644,-0.13062968255952,0.019013035766780376
1772566898574731000,0.89373095703125,0.2014823572874069,-0.13138327740579842,0.07677797312363982
1772566898584760000,0.903760009765625,0.2065630215525627,-0.14562500711753965,0.0930265126131475
1772566898594789400,0.913789306640625,0.17331249385774133,-0.1499006386101246,0.10692308214902878
1772566898604818200,0.923818115234375,0.17513386406600473,-0.1605813148394227,0.0779248050712049
1772566898614847200,0.93384716796875,0.2071171483039856,-0.18550649725943802,0.06777151371687651
1772566898624876300,0.943876220703125,0.20937048018872736,-0.22549217842817304,0.07532821270674467
1772566898634905000,0.953905029296875,0.20220248825550077,-0.23471871032640337,0.09018325201123953
1772566898644934100,0.96393408203125,0.15531798748373984,-0.23891017066687345,0.11688611162826418
1772566898654963200,0.973963134765625,0.13885843559205532,-0.1796080868706107,0.13960560069754718
1772566898664992000,0.983991943359375,0.08461188161969184,-0.09762129305750131,0.13243380937203764
1772566898675021000,0.99402099609375,0.023251696249842642,-0.03398950949385762,0.11954890109673141
1772566898685050400,1.00405029296875,0.007672434324026108,-0.04595452644526958,0.07701894227266311
1772566898695080000,1.014079833984375,0.0367693494707346,-0.020485738667845727,0.02250862279757857
1772566898705109000,1.02410888671875,0.10781213994324207,0.008295534658432007,0.002379296351969242
1772566898715138300,1.03413818359375,0.181323366355896,0.0461092786155641,0.03480038748532534
1772566898725167000,1.0441669921875,0.20213293015062808,0.09228110107332467,0.07901099287271499
1772566898735196200,1.054196044921875,0.21180267577171324,0.10279708826020359,0.0860603268623352
1772566898745225200,1.06422509765625,0.18567863895595071,0.128125006262213,0.05929857666492462
1772566898755254300,1.074254150390625,0.12506196542978287,0.11360066021680831,0.027627719376981257
1772566898765283000,1.084282958984375,0.06806055979132652,0.07309212421774863,-0.002434095279127359
1772566898775312100,1.09431201171875,0.051935938942432404,0.09197758808210492,-0.05325768906548619
1772566898785341200,1.104341064453125,0.06887772139310837,0.09937661229223012,-0.09822174316868186
1772566898795370000,1.114369873046875,0.14855097756683824,0.07703107110187411,-0.09320084626674652
1772566898805399300,1.1243994140625,0.18752923525869844,0.08138444400578737,-0.030585254008322953
1772566898815428400,1.134428466796875,0.1957487820714712,0.09904591903313993,0.01041398811712861
1772566898825457200,1.14445703125,0.1828612434476614,0.0977994261033833,0.01366933665126562
1772566898835486200,1.154486328125,0.1377484285235405,0.10530600234121083,-0.0010039163455367087
1772566898845515300,1.164515380859375,0.11338555616140365,0.07245104983523487,-0.02084317380338907
1772566898855544000,1.1745439453125,0.10965221485197543,0.03682064126655459,-0.029571108529716728
1772566898865573000,1.184572998046875,0.11360007569491863,0.025061814411729572,-0.011500760440528392
1772566898875603200,1.194603271484375,0.14758943905830382,0.03927241833284497,-0.01027560255974531
1772566898885632000,1.204632080078125,0.10304068775773048,0.05060922038331628,0.03447349361851811
1772566898895661000,1.2146611328125,0.09460194523632526,0.018579174394160507,0.052579789803922174
1772566898905690000,1.224690185546875,0.10609072297811507,-0.030638445500284432,0.003236205442249775
1772566898915719000,1.234718994140625,0.11845452998876571,-0.04982201552838087,-0.015462942069768905
1772566898925748200,1.244748291015625,0.1058849712729454,-0.08758680577725171,-0.0036168753229081627
1772566898935777300,1.25477734375,0.06138765789866447,-0.11850903665497899,0.02604527249112725
1772566898945806300,1.264806396484375,0.05020224701762199,-0.07664543278515339,0.047736003034561866
1772566898955835100,1.274835205078125,-0.0014648118555545806,-0.07019084981828927,0.06229293617531657
1772566898965864200,1.2848642578125,-0.0593996989518404,-0.080982292945683,0.042135552679002285
1772566898975893200,1.294893310546875,-0.045719548645615574,-0.05113353651836514,0.0018410978220403194
1772566898985922000,1.304922119140625,-0.013499533042311667,-0.036365590975433584,0.008104396000504494
1772566898995951000,1.314951171875,0.051374213406443596,-0.04244564154148102,0.01601370782032609
1772566899005980200,1.324980224609375,0.12063187402784824,-0.036385026328265666,0.011137626216560602
1772566899016009200,1.33500927734375,0.14208148929178713,-0.022204233023524284,-0.01745177779942751
1772566899026038300,1.345038330078125,0.12967267409563063,-0.023323884703218934,-0.0024355565838515758
1772566899036067300,1.3550673828125,0.057142275413870805,-0.04625117130428552,0.03604220423996448
1772566899046096100,1.36509619140625,0.025626024165749547,-0.06351297948956489,0.03633841070756316
1772566899056125200,1.375125244140625,0.014437690675258635,-0.06539163284301758,0.04397650437057018
1772566899066155300,1.3851552734375,-0.007354454416036605,-0.11579860865250229,0.016529986779391763
1772566899076184000,1.39518408203125,-0.011852350357174872,-0.12628157035261392,-0.001236263796687126
1772566899086213000,1.405213134765625,0.04980711022019386,-0.09687222825586796,0.018112141404300928
1772566899096242200,1.4152421875,0.07465747383832931,-0.11031447815299034,0.02971343960985541
1772566899106271200,1.425271240234375,0.11960253098011016,-0.0916588775217533,0.04805924363955855
1772566899116300000,1.435300048828125,0.11128127735853195,-0.08722410994470119,0.06852920021638274
1772566899126329000,1.4453291015625,0.07126490879058837,-0.08099763664528727,0.06657002897262573
1772566899136358100,1.455358154296875,0.1040507415831089,-0.0858935919933021,0.009232961639016867
1772566899146387200,1.46538720703125,0.16824118194282053,-0.06453486988320946,-0.008502163146436214
1772566899156416300,1.475416259765625,0.1485135681658983,-0.05269800935611128,0.017318214547634124
1772566899166445300,1.4854453125,0.1636240435361862,-0.05947495614513754,0.046213761903345585
1772566899176474000,1.49547412109375,0.20536825881004334,-0.029149960508197546,0.07215469723716378
1772566899186503200,1.505503173828125,0.20510580848157406,-0.016959902629256247,0.08897124587297439
1772566899196532200,1.5155322265625,0.19338614459335804,-0.02262465039268136,0.11433949588537215
1772566899206561000,1.52556103515625,0.11465221509635448,-0.01867532824501395,0.13088365732058882
1772566899216590000,1.535590087890625,0.07428454887270927,0.003105126408487558,0.11032529180794953
1772566899226619100,1.545619140625,0.05927227317988872,-0.00002966448590159416,0.04885916184559464
1772566899236648200,1.555648193359375,0.030720716956257818,0.006768763482570648,0.05704729060679674
1772566899246677200,1.56567724609375,-0.03599544248878955,-0.010412234551459551,0.052324207607656714
1772566899256707000,1.57570703125,-0.005344283637404442,0.008367430850863456,0.022165216187387704
1772566899266736400,1.585736328125,0.08459259239733219,0.028647929270192978,-0.009961714304983615
1772566899276765200,1.59576513671875,0.15763912390768528,-0.008846227343752979,0.02082081584110856
1772566899286794200,1.605794189453125,0.17950725684463978,-0.016597499057650567,0.07473463072776794
1772566899296823300,1.6158232421875,0.24725159029364585,0.01712941397726536,0.08060366889163852
1772566899306852000,1.62585205078125,0.2582908707022667,0.045592707395553586,0.07284618663266301
1772566899316881200,1.635881103515625,0.22259879507422445,0.014339344867318868,0.05225450337231159
1772566899326910200,1.64591015625,0.1259229661732912,-0.015633257135376333,0.048477907443046565
1772566899336939000,1.65593896484375,0.019503157371282578,-0.047481955208256835,-0.002902589573711157
1772566899346968000,1.665968017578125,-0.04203121552169323,-0.027767785434797406,-0.016889467741549015
1772566899356997400,1.675997314453125,-0.09560323123335837,-0.05978738309517503,-0.006627163054794073
1772566899367026200,1.686026123046875,-0.1193833352714777,-0.10151026332005858,0.0417326709665358
1772566899377055200,1.69605517578125,-0.06269464884400368,-0.10337021197304129,0.10513780616745352
1772566899387084300,1.706084228515625,0.050858665099740026,-0.09850465176329017,0.1251838382437825
1772566899397113000,1.716113037109375,0.18954057508111,-0.058908481368795035,0.10889131348207592
1772566899407142100,1.72614208984375,0.29614041662514207,-0.033946327939257025,0.05701704159900546
1772566899417171200,1.736171142578125,0.3453752799153328,-0.03522847670428455,-0.012497954784333706
1772566899427200000,1.746199951171875,0.3537204989343881,-0.03002498977705836,-0.045404491347074506
1772566899437230000,1.75622998046875,0.32848902704417704,-0.0198833888605237,-0.007049187859147787
1772566899447259100,1.766259033203125,0.32485914610922334,-0.02426518414132297,0.06975713457614183
1772566899457288200,1.7762880859375,0.2649596809417009,-0.023516411600634453,0.12337985756173729
1772566899467317000,1.78631689453125,0.224736976146698,-0.058646396366506814,0.0825505651757121
1772566899477346300,1.79634619140625,0.16793255438506602,-0.09380275768265127,0.014460048637539148
1772566899487375400,1.806375244140625,0.10176526099443435,-0.14162439317405223,-0.024916560722142458
1772566899497404200,1.816404052734375,0.04168167143166065,-0.15697130764871836,-0.04836757893636823
1772566899507433200,1.82643310546875,-0.045457682839035986,-0.19120806990191339,-0.05313873886093497
1772566899517462300,1.836462158203125,-0.07846680299341678,-0.2101557853475213,-0.05840484269559383
1772566899527491300,1.8464912109375,-0.10759762040972709,-0.22770532443299887,-0.053015843133628365
1772566899537520000,1.85652001953125,-0.07308160282373428,-0.2164307739637792,-0.0403257267780602
1772566899547549200,1.866549072265625,-0.029377485653758046,-0.1569404741190374,-0.020110329484194518
1772566899557578200,1.876578125,-0.02884673977792263,-0.09761690914332866,-0.028926527015864848
1772566899567607000,1.88660693359375,-0.021266075390577316,-0.05316182747557759,-0.02240808503255248
1772566899577636400,1.89663623046875,-0.009158288967609405,-0.0326223127938807,-0.03618833471238613
1772566899587665400,1.90666552734375,-0.008346972584724426,-0.03484758762791752,-0.03580225800424814
1772566899597694200,1.916694091796875,0.016989128723740577,-0.076249857596308,-0.01184065991938114
1772566899607723300,1.92672314453125,0.08316577446460724,-0.05491524701416492,-0.01708864357545972
1772566899617753300,1.93675341796875,0.1340484049618244,-0.020764482543990014,-0.031001141332834957
1772566899627782400,1.946782470703125,0.1557955418676138,0.012709259447455405,-0.04852086980193853
1772566899637811200,1.956811279296875,0.17870120115876198,0.041069603947922584,-0.09001724779456853
1772566899647840300,1.96684033203125,0.21885142523944376,0.05705854265317321,-0.11135872650891541
1772566899657869300,1.976869384765625,0.2082546279013157,0.049241073835268614,-0.10970423730015753
1772566899667898000,1.986898193359375,0.2356716271370649,0.03314838249459862,-0.10580576855689286
1772566899677927200,1.99692724609375,0.23952596447765825,0.028778058455884454,-0.07938464849069714
1772566899687956200,2.006956298828125,0.1789180587798357,0.02614624864757061,-0.024252105464041232
1772566899697985300,2.0169853515625,0.11694412542581557,0.026019626593217254,-0.007571165906637907
1772566899708014300,2.027014404296875,0.02883621838390827,0.002069645880907774,-0.006679477763921022
1772566899718043400,2.03704345703125,-0.012051672321557998,-0.04575330478474497,-0.026964725423604247
1772566899728072200,2.047072265625,-0.04808160160183906,-0.06990772202797234,-0.03709551268517971
1772566899738101200,2.057101318359375,-0.020653496450185774,-0.08599507960639893,-0.023023440451920032
1772566899748130300,2.06713037109375,0.04187397913336754,-0.05417560762800276,-0.008621259481459856
1772566899758159000,2.0771591796875,0.1280892042964697,-0.024898440543562172,0.013842793522030114
1772566899768188200,2.087188232421875,0.1682043570637703,-0.01684898960068822,0.03517185114622116
1772566899778217200,2.09721728515625,0.1709615468174219,-0.013083280391618608,0.04439809078350663
1772566899788246300,2.107246337890625,0.17732523663043975,0.017927067160978912,0.06382058413401245
1772566899798276000,2.117276123046875,0.12723054164052008,0.02279964163340628,0.02935118216872215
1772566899808305200,2.12730517578125,0.12253683086633682,0.01365596571303904,0.013857991091161965
1772566899818334500,2.13733447265625,0.12391396443843841,0.006622340749204159,0.01773702448159456
1772566899828363300,2.14736328125,0.12977087377309798,-0.007860796502977609,0.029396044223755597
1772566899838392300,2.157392333984375,0.1402151108980179,-0.013029577443003653,0.04509060309231281
1772566899848421400,2.16742138671875,0.11825520802438258,-0.02127213980518281,0.056527358385920524
1772566899858450200,2.1774501953125,0.09912029944360255,0.0035121728394180533,0.0720759329125285
1772566899868479200,2.187479248046875,0.051774026378989216,0.021207477071136235,0.07483443784043192
1772566899878508300,2.19750830078125,0.05075754281282425,0.004103635926544666,0.05135857744589448
1772566899888537000,2.207537109375,0.07122399225831032,0.007972878575325013,0.0012500000610947608
1772566899898566100,2.217566162109375,0.10624971293210983,0.024042846627533435,-0.002340864037722349
1772566899908595200,2.22759521484375,0.1474292800605297,0.038195363685861225,0.008670213189721106
1772566899918624300,2.237624267578125,0.1734843432933092,0.05818944637924432,0.03404971524849534
1772566899928653300,2.2476533203125,0.19262626613676548,0.07463029357045889,0.06004018881246447
1772566899938682400,2.257682373046875,0.17230653168559074,0.05396715250909328,0.056095396709442136
1772566899948711200,2.267711181640625,0.1317407125413418,0.02803615404739976,0.07532178296595811
1772566899958740200,2.277740234375,0.11984510756433009,0.010172872837632893,0.06516673804596067
1772566899968769300,2.287769287109375,0.09189677793085575,0.01651186660081148,0.045254123090952635
1772566899978798300,2.29779833984375,0.045588031220436094,0.012327858914434909,0.0291888312138617
1772566899988828200,2.307828125,0.06981354093849658,0.013828472735732794,0.003560176699608564
1772566899998857200,2.317857177734375,0.11068974120616912,0.021062807903438806,-0.004613192883878946
1772566900008886300,2.32788623046875,0.14386369653344153,0.024428631074726582,0.005814385367184877
1772566900018915000,2.3379150390625,0.17446692458987234,0.021974515920877454,0.038171909745037556
1772566900028944100,2.347944091796875,0.1665922456920147,0.010233516983687877,0.06704539139941335
1772566900038973400,2.357973388671875,0.0888397284477949,0.016287994717061518,0.09718816233724355
1772566900049002200,2.368002197265625,0.07396247731149196,-0.0019157704934477805,0.07832286447808146
1772566900059031300,2.37803125,0.0625152006238699,-0.024861177273094653,0.04989230428561568
1772566900069060400,2.388060302734375,0.060007601717114445,-0.03172814043313265,0.02200228071063757
1772566900079089200,2.398089111328125,0.08583528593480587,-0.03216273245811462,0.012479103953391312
1772566900089118200,2.4081181640625,0.07259177348017692,-0.029907500877231357,-0.0046137774057686326
1772566900099147300,2.418147216796875,0.018072247785329818,-0.048245998383313414,0.0087761577822268
1772566900109176000,2.428176025390625,0.005903671085834503,-0.06489961154237389,0.048708939719945187
1772566900119205000,2.438205078125,0.013653846821188927,-0.04171060526520014,0.05583820707798004
1772566900129234400,2.448234375,0.0660310997903347,-0.023585604379326105,0.0575729219160974
1772566900139263500,2.458263427734375,0.12486556607484817,-0.026169921784102917,0.05632993611767888
1772566900149292300,2.468292236328125,0.15609773968458174,-0.024141484696418046,0.0457163337752223
1772566900159321300,2.4783212890625,0.10678571950495243,-0.00476268435716629,0.07066942711547017
1772566900169351400,2.488351318359375,0.08352993160188198,-0.012256401113420724,0.0657226183630526
1772566900179380200,2.498380126953125,0.049883682587742804,-0.01533639308065176,0.06629603433683515
1772566900189409300,2.5084091796875,0.04874035777151584,-0.04247165276557207,0.07093874557614326
1772566900199438300,2.518438232421875,0.05930149927437305,-0.051049657627195114,0.08231997129023075
1772566900209467100,2.528467041015625,0.12053075174093246,-0.03458469890803099,0.05417509617134928
1772566900219496200,2.53849609375,0.14998539428412913,-0.0045149932064116,0.019431407309323547
1772566900229525200,2.548525146484375,0.1742915680229664,-0.007941314393281936,0.011758388463407755
1772566900239554000,2.558553955078125,0.16148703150749205,-0.008037614374607802,0.020233371341973543
1772566900249583400,2.568583251953125,0.13475216931700706,-0.012371551925688982,0.026412936759740113
1772566900259612400,2.5786123046875,0.10645312654972076,-0.03502922780513763,0.01344122698381543
1772566900269641200,2.58864111328125,0.13488251769840717,-0.054242608449608085,-0.004176993423700332
1772566900279670300,2.598670166015625,0.1479261236667633,-0.020729630426317452,0.011133388432860374
1772566900289699300,2.60869921875,0.158100311678648,-0.021930969040095803,-0.004213672172278166
1772566900299728400,2.618728271484375,0.1529804844468832,-0.00490121604502201,-0.007897767512500285
1772566900309757200,2.628757080078125,0.12056406948864459,-0.0025976152777671814,0.0265093828715384
1772566900319786200,2.6387861328125,0.07767009965777397,-0.008491641752421855,0.036640900785475966
1772566900329815300,2.648815185546875,0.06175181503593921,0.001315174251794815,0.01373056531921029
1772566900339844400,2.65884423828125,0.06888005948066711,0.015763678582012653,-0.012741115890443324
1772566900349873400,2.668873291015625,0.0571820229023695,0.01745908432304859,-0.018448972143232822
1772566900359903200,2.6789033203125,0.08189443935453891,0.01051876366585493,-0.013083791848272084
1772566900369932300,2.688932373046875,0.0955851110547781,0.022488164531439543,0.0023014088101685048
1772566900379961300,2.69896142578125,0.06512567538321018,-0.001620733069628477,0.026778116810321807
1772566900389990400,2.708990478515625,0.09882277780175208,-0.01824979630932212,0.016505875251442193
1772566900400019200,2.719019287109375,0.12201719090640545,0.02036123550534248,-0.014052198489010332
1772566900410048300,2.72904833984375,0.16027940928339957,0.031225597738474605,-0.030437223839759824
1772566900420077300,2.739077392578125,0.14019348358809947,0.034146892012655736,-0.006837737065553665
1772566900430106000,2.749106201171875,0.11398819822967052,0.0383092723891139,-0.02909106992781162
1772566900440135200,2.75913525390625,0.08350070550739765,0.048327539186924694,-0.04773775660023093
1772566900450164200,2.769164306640625,0.04544949953258037,0.0151341485068202,-0.026109423768520355
1772566900460193300,2.779193359375,0.024063597154617308,0.02089373494684696,0.006514934851974248
1772566900470222300,2.789222412109375,0.05260287841856479,0.05880874732136726,0.009019903410226106
1772566900480251400,2.79925146484375,0.09338263257443905,0.06809899210557341,0.007442571090906858
1772566900490280400,2.809280517578125,0.13025544241964818,0.011542115364223718,0.01757628096193075
1772566900500309200,2.819309326171875,0.15216799902021885,-0.00015950141064822673,0.008668021232634783
1772566900510338300,2.82933837890625,0.1528974823385477,0.018386793627217412,-0.023639818784594535
1772566900520367400,2.839367431640625,0.12264262932837008,0.012997794065251946,-0.010091185903549195
1772566900530396400,2.849396484375,0.1044903020441532,-0.020119024247303604,0.026236995670944452
1772566900540425200,2.85942529296875,0.08908172051012515,-0.0276415287066251,0.03516308331787586
1772566900550455300,2.869455322265625,0.06050152271389961,-0.006616203269362449,0.023256372424960134
1772566900560484400,2.879484375,0.05806991165280342,0.002946063389256596,-0.002202040088921785
1772566900570513400,2.889513427734375,0.06116203244924545,0.00801079943291843,-0.015205460177361964
1772566900580542200,2.899542236328125,0.0771592275261879,0.03970978683680296,-0.029203152000159025
1772566900590571500,2.909571533203125,0.10007949986457824,0.07039747830629349,-0.023841332706063985
1772566900600600600,2.9196005859375,0.14474223293364047,0.07213212007917463,-0.005949702184647321
1772566900610629400,2.92962939453125,0.14685060338974,0.07356259127371012,0.026154139693081377
1772566900620658400,2.939658447265625,0.13350947577953337,0.07869213618189096,0.02600070269703865
1772566900630687500,2.9496875,0.15642390289902686,0.052357890681549904,0.03357859060540795
1772566900640716300,2.95971630859375,0.1537695889979601,0.03670943597704172,0.033063772951066495
1772566900650745300,2.969745361328125,0.15952654508948325,0.03207067026048899,0.021032412765175104
1772566900660774400,2.9797744140625,0.13292670745551585,0.04833418812341988,0.0169433898858726
1772566900670803200,2.98980322265625,0.10668985791504383,0.06544489740021527,0.013075024019926785
1772566900680832500,2.99983251953125,0.06989420495927333,0.06858224557787179,0.00799216779768467
1772566900690861600,3.009861572265625,0.029981881287693975,0.0697252050679177,-0.010313888743519782
1772566900700890400,3.019890380859375,0.053473231512308116,0.045556905429810286,-0.028452187502384183
1772566900710919400,3.02991943359375,0.08744622826278209,0.017849325749650598,-0.026301146948337552
1772566900720948500,3.039948486328125,0.0871627351462841,0.006466784861311316,0.004053513174504041
1772566900730977300,3.049977294921875,0.09334346960783005,-0.02703158011473715,0.0157039112187922
1772566900741007400,3.06000732421875,0.08295008588731288,-0.0258100024305284,0.015819938813894985
1772566900751036400,3.070036376953125,0.040482817035913464,0.009747998489066958,0.03237608294785022
1772566900761065500,3.0800654296875,0.007607552394270896,0.00917290201485157,0.027303748119622467
1772566900771094300,3.09009423828125,0.03151742029190063,0.013809402709081767,-0.005321487283706665
1772566900781123300,3.100123291015625,0.027228198665380475,0.02297353689558804,-0.014266864152997731
1772566900791152400,3.11015234375,0.0880605607688427,0.012608867812901735,-0.004885141693055629
1772566900801181400,3.120181396484375,0.13797697658240796,-0.025370734230428932,-0.004240560179203748
1772566900811210500,3.13021044921875,0.14948855067789554,-0.025322291978821156,0.007864742025732993
1772566900821239600,3.140239501953125,0.1650403400748968,-0.0107575408577919,0.03093216774985194
1772566900831268400,3.150268310546875,0.19751228461265563,-0.0386420845400542,0.03979702672883868
1772566900841297400,3.16029736328125,0.21333295407891273,-0.047060587991029024,0.03677431790679693
1772566900851326500,3.170326416015625,0.20537585759460925,-0.02709017843417823,0.043573038136214014
1772566900861355300,3.180355224609375,0.16129881545901298,-0.00821421305052936,0.030716040781140326
1772566900871384300,3.19038427734375,0.12245792041122913,0.006225742647051811,0.027139935860037802
1772566900881413400,3.200413330078125,0.07076514257490635,0.03529233572073281,0.02496580669134855
1772566900891442200,3.210442138671875,0.03317103271782398,0.02850150653682649,0.01749722437635064
1772566900901471500,3.220471435546875,-0.008798808005452156,-0.006536196835711598,0.013879472270607948
1772566900911500500,3.23050048828125,-0.012418167546391487,-0.03536700839214027,0.0020155776061117647
1772566900921529300,3.240529296875,0.02767711147665977,-0.036551688132062554,-0.012795184165239334
1772566900931558400,3.250558349609375,0.09518471356034278,-0.029174291231855748,0.015259674582630394
1772566900941588500,3.26058837890625,0.18744038793146608,-0.009877177826687693,0.03795373694971203
1772566900951617500,3.270617431640625,0.2172773077905178,0.049156829617917536,0.07109671261683106
1772566900961646300,3.280646240234375,0.17989011868238447,0.08201894251704216,0.09605360534936189
1772566900971675400,3.29067529296875,0.10364216078221797,0.06626293578483164,0.06238675193861126
1772566900981704400,3.300704345703125,0.07136427751183509,0.036782428148016334,0.02641702841296792
1772566900991733200,3.310733154296875,0.05719312881827354,-0.011432590575143694,0.009700433020293713
1772566901001762300,3.32076220703125,0.048829789620637894,-0.06550817189477384,0.025496406436711548
1772566901011791400,3.330791259765625,0.09622223991453648,-0.048789238414540886,0.02246858304813504
1772566901021820400,3.3408203125,0.10912731419503688,-0.0015122311938554048,0.047428982912003995
1772566901031849500,3.350849365234375,0.11154665029644965,0.007731617165356874,0.05607581522613764
1772566901041878500,3.36087841796875,0.0931143370270729,0.025911416978389022,0.06620484892204404
1772566901051907300,3.3709072265625,0.06321721141338348,0.018308102367818355,0.05939560729861259
1772566901061936400,3.380936279296875,0.08207914827167988,0.009531433128938078,0.04126943736895919
1772566901071965400,3.39096533203125,0.08405600130259991,-0.007057736491784453,0.023841478836536405
1772566901081994200,3.400994140625,0.12004618309438228,-0.018022125033289194,0.01696910884901881
1772566901092023300,3.411023193359375,0.14514964469075203,-0.022567221117019653,0.022205986589193344
1772566901102052400,3.42105224609375,0.17133797891438007,-0.018702946904301642,0.01586012469381094
1772566901112081400,3.431081298828125,0.1466021815866232,-0.033797420987859365,0.02736263870000839
1772566901122110500,3.4411103515625,0.1398386788010597,-0.04143726821653545,0.01698328350484371
1772566901132139500,3.451139404296875,0.09914952553808688,-0.04829392917826771,0.009277531433105468
1772566901142169600,3.461169677734375,0.06724924340844154,-0.07141410800293088,0.019732874473929404
1772566901152198400,3.471198486328125,0.04336392543017864,-0.06771729931160807,0.021524726326763628
1772566901162227500,3.4812275390625,0.03678513156175613,-0.05262063327096402,0.031019699902832508
1772566901172256500,3.491256591796875,0.06965747359395026,-0.04102101556584239,0.01872939651980996
1772566901182285300,3.501285400390625,0.09150690183043479,-0.027007176325842736,0.001901888098567724
1772566901192314400,3.511314453125,0.11817746661305427,-0.03058401189930737,-0.006731354081630707
1772566901202343400,3.521343505859375,0.12107611066401004,-0.008275149457529187,-0.004163111028820276
1772566901212372200,3.531372314453125,0.12482464954257011,0.004156169831380248,-0.011351999619603157
1772566901222401300,3.5414013671875,0.11512918495833874,-0.0009250058904290199,-0.0006223696820437908
1772566901232430300,3.551430419921875,0.0956979237794876,-0.015029080697149037,0.017463760498166083
1772566901242459400,3.56145947265625,0.11553075149655341,-0.0019993571236729623,0.012888853798061609
1772566901252488400,3.571488525390625,0.10428396581709384,-0.0041159839514642955,-0.02233355849161744
1772566901262517500,3.581517578125,0.12362170349359512,-0.0035460020437836645,-0.02769990783035755
1772566901272546300,3.59154638671875,0.12215513807237148,0.015412673187255858,-0.017076807007193565
1772566901282575400,3.601575439453125,0.11220365290045738,0.035260552342981095,-0.010922229900211095
1772566901292604400,3.6116044921875,0.12202011351585387,0.035110987804457545,0.012606821986287832
1772566901302633200,3.62163330078125,0.11828735672831535,0.011848843225836753,0.01876227587610483
1772566901312662300,3.631662353515625,0.15129004714190958,-0.00369739321321249,0.001402706404775381
1772566901322691300,3.64169140625,0.16934359022676942,-0.024000541855767367,0.02258753325268626
1772566901332720600,3.651720703125,0.16794775195419787,-0.0380973101388663,0.03209419726654887
1772566901342749400,3.66174951171875,0.13964695562124252,-0.03360109469816089,0.04364844145998358
1772566901352778500,3.671778564453125,0.06797229698598384,-0.048831835447251795,0.05702975495010614
1772566901362808600,3.68180859375,0.025197569620609282,-0.05522847768180072,0.04012991194501519
1772566901372837400,3.69183740234375,-0.03986965357363224,-0.06605550357922911,0.02762289707139134
1772566901382866400,3.701866455078125,-0.019265256962180136,-0.059637672426179046,0.014727905793488025
1772566901392895500,3.7118955078125,0.024874913537502288,-0.07046221410557628,0.04044146211221814
1772566901402924300,3.72192431640625,0.07300386141240596,-0.09613836102336644,0.08773746629431843
1772566901412953300,3.731953369140625,0.11557809776961803,-0.09980725879445672,0.10888941378593445
1772566901422982400,3.741982421875,0.1502472600907087,-0.06826514245271682,0.08091098127514124
1772566901433011200,3.75201123046875,0.12662556148469448,-0.04104286207146943,0.034237785166502
1772566901443040300,3.762040283203125,0.09303250396251678,0.003622647476568818,0.03311258052885532
1772566901453069600,3.772069580078125,0.062000821360945695,0.02720825185589492,0.01591258553341031
1772566901463098400,3.782098388671875,0.02558803024291992,0.034699119067937136,0.006581278086453676
1772566901473127400,3.79212744140625,0.030911855614185333,0.0007470920402556658,0.015987696596235036
1772566901483156500,3.802156494140625,0.09370587317943573,-0.0020697920113801954,0.027319237949699163
1772566901493185300,3.812185302734375,0.13996025935411452,0.015475655420869589,0.025277941380441187
1772566901503214300,3.82221435546875,0.18628420363366602,0.017246756746619938,0.012251140416413545
1772566901513242400,3.832242431640625,0.1984369982421398,0.022916034554690122,0.006311959625780582
1772566901523271700,3.842271728515625,0.16651918045580386,0.023326295856013892,0.007054740817099809
1772566901533300700,3.85230078125,0.10587035822570323,0.05068981133885681,0.028913959795236584
1772566901543329500,3.86232958984375,0.03466799327731132,0.0678956515531987,0.039599604460597036
1772566901553358600,3.872358642578125,0.011210545322299002,0.04336034523360431,0.026157062302529812
1772566901563387600,3.8823876953125,0.016256722795963286,0.012807532190158963,0.031531887208670374
1772566901573417500,3.89241748046875,0.0664145461499691,-0.028248627754300832,0.010172288315743207
1772566901583446500,3.902446533203125,0.12522855416834353,-0.04096000609360635,0.012052256843447684
1772566901593475600,3.9124755859375,0.1676151589989662,-0.045691053203493356,0.02110240926146507
1772566901603504400,3.92250439453125,0.20291794304847716,-0.03194536338038742,0.04618205159083009
1772566901613533400,3.932533447265625,0.15791326467394828,0.014155220472067593,0.06978986780196428
1772566901623562500,3.9425625,0.13119827622771263,0.0408678708307445,0.05242810637354851
1772566901633591300,3.95259130859375,0.1301145726442337,0.03130224317125976,-0.002107932064682245
1772566901643620600,3.96262060546875,0.11386194150149821,-0.003025046909600496,-0.01511544380635023
1772566901653649700,3.972649658203125,0.11133213076293468,-0.04938486622013152,-0.032119477838277816
1772566901663678500,3.982678466796875,0.12944646412432192,-0.05800130339600146,-0.019314064539968968
1772566901673707500,3.99270751953125,0.15308745195269582,-0.042300095590949056,0.018272300402075052
1772566901683735600,4.002735595703125,0.15347089831233024,-0.042795258696749806,0.015531331130862235
1772566901693764400,4.012764404296875,0.1720908431082964,-0.034186493370682,0.051874271883070464
1772566901703793400,4.02279345703125,0.16676643321514129,-0.027298122096434233,0.08095774302631616
1772566901713822700,4.03282275390625,0.16939327458739278,-0.02655848271027207,0.03664879183098674
1772566901723851500,4.0428515625,0.09899287367165088,-0.025020094161853194,0.001561257967352867
1772566901733880600,4.052880615234375,0.05394494067728519,-0.05447232555225491,-0.007315291449427604
1772566901743909600,4.06290966796875,0.011235095241665839,-0.02896035622023046,-0.0029876375086605547
1772566901753938400,4.0729384765625,-0.000713116705417633,-0.002097264540195465,-0.009973989264667034
1772566901763967500,4.082967529296875,0.016314005941152572,-0.00841645762436092,-0.0022287819653749466
1772566901773996500,4.09299658203125,0.0787754305511713,-0.021779285609722136,-0.00008490180447697639
1772566901784025300,4.103025390625,0.15936404800415038,-0.03772570034749806,0.013532704659551382
1772566901794054400,4.113054443359375,0.18229542625844478,-0.05410371143557131,0.02577098559439182
1772566901804083700,4.123083740234375,0.19247370592355728,-0.04517484730966389,0.03732975983247161
1772566901814112500,4.133112548828125,0.1724859799057245,-0.003289250803738832,0.03202244720458984
1772566901824141600,4.1431416015625,0.1383528241574764,0.014724544792622326,0.016982552852481604
1772566901834170600,4.153170654296875,0.07727963903546332,0.038405426239967344,0.012686024702340364
1772566901844200700,4.16320068359375,0.06472177075743675,0.04563683879822492,0.002951543281972408
1772566901854229500,4.1732294921875,0.06592530132830142,0.015706833828240632,-0.005785597664117813
1772566901864258600,4.183258544921875,0.07245616440176963,0.001610065545141697,-0.0028324469469487665
1772566901874287600,4.19328759765625,0.07612403925955295,0.00448569404669106,0.01753697186484933
1772566901884316400,4.20331640625,0.08586042037606238,0.018594225832819937,0.03906374401822686
1772566901894345500,4.213345458984375,0.09911270065903663,0.03573839898779988,0.04166720451489091
1772566901904374500,4.22337451171875,0.10836802026033401,0.04766228021122515,0.03226999222487211
1772566901914403300,4.2334033203125,0.10671382331252098,0.022488675988093017,0.0008862813152372837
1772566901924432600,4.2434326171875,0.09889116686284541,0.01136741638444364,-0.010217150370776652
1772566901934461700,4.253461669921875,0.08686462898254393,-0.00728745359443128,-0.004658931721746922
1772566901944490500,4.263490478515625,0.06228606804311275,-0.021919570863246918,-0.012907120107114315
1772566901954519600,4.27351953125,0.05148351899981499,-0.01521481252759695,0.034710078853368756
1772566901964548600,4.283548583984375,0.05954232229292392,-0.024522227642312645,0.07787512071058153
1772566901974577400,4.293577392578125,0.10975742879211901,-0.017201237104460598,0.058442544357478615
1772566901984606500,4.3036064453125,0.15767536426484585,0.010531915408372878,0.027226298969238994
1772566901994635500,4.313635498046875,0.18575111967027186,0.027868907721713184,0.008868658371269702
1772566902004664300,4.323664306640625,0.16398469354212283,0.031965821646526456,0.01979001148864627
1772566902014693400,4.333693359375,0.13163842121064662,0.04937850954458117,0.01451177882477641
1772566902024722700,4.34372265625,0.053289107117056846,0.050269320904463524,0.012607698769122362
1772566902034751500,4.35375146484375,0.019041969600319862,0.03795790166817605,-0.022756460078805683
1772566902044780500,4.363780517578125,0.007502922976016998,0.0051609629597514865,-0.052168140263110396
1772566902054809600,4.3738095703125,0.0021720833420753476,-0.05572955907173455,-0.05874678800106048
1772566902064839700,4.383839599609375,0.06057108081877231,-0.030379648433625697,-0.009617138651013374
1772566902074868500,4.393868408203125,0.13991466664671898,-0.07076967261955142,0.07997457720786333
1772566902084897500,4.4038974609375,0.1984510267674923,-0.0863310335624963,0.14265724335312843
1772566902094926600,4.413926513671875,0.2401215922832489,-0.023730638873204587,0.1588617975704372
1772566902104955400,4.423955322265625,0.2396376081585884,0.023632000804319975,0.10418255126923322
1772566902114984400,4.433984375,0.21505729365348814,0.07432407716549932,0.03322524712309241
1772566902125013500,4.444013427734375,0.13639935200214384,0.1391121180921793,-0.06411562155783176
1772566902135042300,4.454042236328125,0.09375614206194877,0.16643062538951633,-0.10857041096463799
1772566902145071600,4.464071533203125,0.0548071104645729,0.16178966771587727,-0.06638385875076055
1772566902155100700,4.4741005859375,0.03386193759143352,0.13444441854208708,-0.04074512123391032
1772566902165129500,4.48412939453125,0.06900573168694972,0.1059471497889608,-0.00929725904688239
1772566902175158500,4.494158447265625,0.09386895478665828,0.07939502375423908,-0.0006929507002234459
1772566902185187600,4.5041875,0.0860731863439083,0.06296374810896814,0.009409487249702215
1772566902195216400,4.51421630859375,0.03822831610739231,0.058734805302321905,0.02849880312308669
1772566902205245400,4.524245361328125,-0.0012824410259723662,0.05002199507988989,0.019904285518079996
1772566902215274500,4.5342744140625,0.0008884732723236083,0.03770984519124031,0.02170768167823553
1772566902225303300,4.54430322265625,0.06584814443886279,-0.00018244389481842516,0.03630114743709564
1772566902235332600,4.55433251953125,0.14692191506028174,-0.018912790262699125,0.07249868836924434
1772566902245361700,4.564361572265625,0.17733692706823348,-0.02015263425596058,0.0798974203184247
1772566902255390700,4.574390625,0.16600129406154154,-0.013389496796578169,0.08354016073495149
1772566902265419500,4.58441943359375,0.11576514477431774,-0.01748100389391184,0.07515753231495619
1772566902275448600,4.594448486328125,0.09311258346140384,-0.0318318200033158,0.04967559279501438
1772566902285477600,4.6044775390625,0.08939619328677653,-0.02576017193943262,0.024537936668097973
1772566902295507500,4.614507568359375,0.10617489413022994,-0.005191358098015189,0.013854630090296268
1772566902305536500,4.62453662109375,0.13816227002143858,0.016994462485983967,0.0231697170548141
1772566902315565600,4.634565673828125,0.14030337370336055,0.012456161469221114,0.004804185411334038
1772566902325595600,4.644595703125,0.03045183688700199,0.007525500134006142,0.006316489670425653
1772566902335624400,4.65462451171875,0.026049218013882637,-0.01937193220704794,-0.007669803975522518
1772566902345653500,4.664653564453125,0.027875848919153214,-0.04901544838584959,-0.01309592067748308
1772566902355682600,4.6746826171875,0.07453998493850231,-0.08131349766142666,-0.005320902761816978
1772566902365711400,4.68471142578125,0.14984627807438372,-0.08434709320366382,0.03472688385769725
1772566902375740400,4.694740478515625,0.21919512411057948,-0.07703523582033812,0.09734452194273471
1772566902385769700,4.704769775390625,0.19889175627231598,-0.09501147588528693,0.12137260939255357
1772566902395798500,4.714798583984375,0.15042729283273218,-0.06876308203749358,0.08617343184798955
1772566902405827600,4.72482763671875,0.11372399433553218,-0.04086604419983923,0.03722542267516255
1772566902415856600,4.734856689453125,0.044481531283259386,-0.04898322661668062,-0.010162351443618536
1772566902425885400,4.744885498046875,0.029003391644358632,-0.07928133424669503,-0.02348579726666212
1772566902435914500,4.75491455078125,0.04082943851649761,-0.07634002009779214,-0.018966712407022714
1772566902445943600,4.764943603515625,0.07435001532435417,-0.07155702360495925,0.030088994923979043
1772566902455972400,4.774972412109375,0.05672141965329647,-0.05690130626484751,0.08633885154277086
1772566902466001400,4.78500146484375,0.07400105575621127,-0.06841046920754015,0.05070289001613855
1772566902476031500,4.795031494140625,0.10122107111513615,-0.05633161661811173,0.03832578513249755
1772566902486060500,4.805060546875,0.06631576195061206,-0.04990114517919719,0.06272358267754316
1772566902496089300,4.81508935546875,0.06121814655065536,-0.05375372895412147,0.045918286088109016
1772566902506118400,4.825118408203125,0.10072247394323348,-0.007083309324458241,0.01739785565510392
1772566902516147500,4.8351474609375,0.1476174961090088,0.006140694712102413,0.00022270283997058866
1772566902526176300,4.84517626953125,0.15906594184041023,-0.002174786755815148,0.035737083813548086
1772566902536205300,4.855205322265625,0.1660860497355461,-0.0020793635573238133,0.04575915000364184
1772566902546234400,4.865234375,0.15732932730615137,0.005325286675989627,0.022726503331959247
1772566902556263200,4.87526318359375,0.1779454143553972,-0.006855418852716684,-0.0026660043388605117
1772566902566292200,4.885292236328125,0.18907237304747104,-0.02390672609247267,0.02657426480129361
1772566902576321300,4.8953212890625,0.08372399286925793,0.007963160898908972,0.08471651103794574
1772566902586350000,4.90535009765625,0.006568272474408149,0.002019230867922306,0.0660952510677278
1772566902596379400,4.91537939453125,0.00014963760375976562,-0.0007114362049847841,0.0032978725016117095
1772566902606408400,4.925408447265625,0.018366262295842168,-0.007932619630172848,-0.04030030007585883
1772566902616437500,4.9354375,0.08297054415345191,-0.01690057365745306,-0.02648541747406125
1772566902626466300,4.94546630859375,0.13763210866749287,-0.017722922891005872,-0.009001344840228557
1772566902636495400,4.955495361328125,0.17277181110978126,-0.016741291442513465,0.01993833391815424
1772566902646524400,4.9655244140625,0.166640176486969,0.002063362270593643,0.07422492763996123
1772566902656553200,4.97555322265625,0.08925707707703114,-0.004968070736154914,0.0926093101143837
1772566902666582300,4.985582275390625,0.07686287492811679,-0.02464263915158808,0.054794250982999795
1772566902676611300,4.995611328125,0.0597960047930479,-0.017252455835044384,0.013395926537364721
1772566902686640400,5.005640380859375,0.03809270702898502,-0.018392638846114275,0.02033463975936174
1772566902696669400,5.01566943359375,0.011309914043545722,-0.011583324157446622,0.004504617942869663
1772566902706699300,5.02569921875,0.0335316827237606,0.0055689592387527225,-0.014838088169693946
1772566902716728300,5.035728271484375,0.10987842482328414,0.001277618720382452,-0.006901303821057081
1772566902726757400,5.04575732421875,0.1660854652136564,-0.0061177522279322145,0.021764380301535127
1772566902736786400,5.055786376953125,0.17699030558764933,0.015361965913325547,0.053636897641420364
1772566902746815200,5.065815185546875,0.14268822301328182,0.055719329938665026,0.05101166370436549
1772566902756844300,5.07584423828125,0.11831716734468936,0.049552477871999144,0.009721183547377586
1772566902766873300,5.085873291015625,0.09215396756231785,0.001360620828717947,-0.03164659962952137
1772566902776902100,5.095902099609375,0.12140636553168296,-0.0334168972376734,-0.033641426708549256
1772566902786931200,5.10593115234375,0.15571546236872671,-0.047536608004942534,0.026336656653136014
1772566902796960300,5.115960205078125,0.16725100186169148,-0.06299699279144406,0.06670709935575724
1772566902806989300,5.1259892578125,0.18287644101679323,-0.0661249155536294,0.06721241852939129
1772566902817018400,5.136018310546875,0.17854630285799503,-0.05063391643315553,0.04722644607722759
1772566902827047400,5.14604736328125,0.14497896429896354,-0.029071196183562277,0.028326515296101567
1772566902837076500,5.156076416015625,0.0792027160525322,-0.00519764170832932,0.028336890559643505
1772566902847105300,5.166105224609375,0.04337912299931049,0.03625950025245547,0.025725100626051423
1772566902857134300,5.17613427734375,0.011391747108101844,0.045290728774294256,0.026429011111706494
1772566902867163400,5.186163330078125,0.002236380749940872,0.00929645532928407,0.03567673192843795
1772566902877192200,5.196192138671875,0.05662789615094661,-0.03462247363515198,-0.007028291201591492
1772566902887221200,5.20622119140625,0.09922025268673897,-0.04291903120689094,-0.034685821194946766
1772566902897250300,5.216250244140625,0.09855565129816532,-0.06622384588345885,-0.011425503247231244
1772566902907279400,5.226279296875,0.08998422230780125,-0.08570800629332662,0.027708821789175272
1772566902917308400,5.236308349609375,0.09933891063034533,-0.06436871953606606,0.04828253100141883
1772566902927337500,5.24633740234375,0.154539988848567,-0.06099463999308646,0.07675269255191088
1772566902937366300,5.2563662109375,0.21120178726911543,-0.08191599359922111,0.1003539328917861
1772566902947395300,5.266395263671875,0.17767711880803108,-0.04811382337100804,0.11830328494980931
1772566902957425400,5.27642529296875,0.09259761967658996,0.0006871785465627908,0.07634601144716144
1772566902967454500,5.286454345703125,0.02975216418504715,0.021506971474364398,-0.013324614866822957
1772566902977483300,5.296483154296875,0.013528759136795996,-0.0021905688468366862,-0.050692368622124194
1772566902987512300,5.30651220703125,0.029407296270132062,-0.06100735334418714,-0.03697553956732154
1772566902997541400,5.316541259765625,0.04943710786402225,-0.07183262567594648,0.02476078563854098
1772566903007570200,5.326570068359375,0.13405249661505222,-0.04048522818870842,0.026186434527486563
1772566903017599200,5.33659912109375,0.18516367517113685,-0.020368249768018723,0.016007716470956803
1772566903027628500,5.346628662109375,0.1850648909717798,-0.046532034072279925,0.040438393372297286
1772566903037657300,5.3566572265625,0.16469722572565076,-0.02754004109352827,0.04981251704767346
1772566903047686400,5.366686279296875,0.137186118465662,0.0015342238299548626,0.01805821925997734
1772566903057715500,5.376715576171875,0.10300152479112147,0.024931539095565676,-0.013152619300782679
1772566903067744300,5.386744140625,0.041129298245906824,0.011665157222002743,0.02290770511776209
1772566903077773300,5.396773193359375,0.024117957690358162,-0.014359583937749266,0.06362213895246387
1772566903087802400,5.40680224609375,0.037570144459605215,-0.012458499556779861,0.044043285996466876
1772566903097831200,5.4168310546875,0.0685714319229126,0.000639613077789545,0.019826105715334413
1772566903107860200,5.426860107421875,0.10975509070456027,-0.015457681372761725,0.024833997005224227
1772566903117889300,5.43688916015625,0.1366670630276203,0.014653013926371932,0.015536445697396992
1772566903127918300,5.44691845703125,0.14108371042609213,0.09172712045237422,0.018757745831459758
1772566903137947400,5.456947509765625,0.12193711140751838,0.11470482206642627,-0.007508183673024177
1772566903147976400,5.4669765625,0.095092943623662,0.08476721831187606,-0.010943564949184656
1772566903158005200,5.477005126953125,0.0975935282677412,0.02275638701356947,-0.0005262158311903477
1772566903168034300,5.487034423828125,0.13100479948222638,0.0044933658964931966,-0.01568359908312559
1772566903178063400,5.4970634765625,0.16626608247756958,-0.0037944969121366736,-0.00926890973523259
1772566903188092200,5.507092041015625,0.14968495003283022,0.006495426433905958,0.002851297777891159
1772566903198121200,5.517121337890625,0.1091179618448019,0.027202260506525633,0.03593289864659309
1772566903208151300,5.5271513671875,0.08955342967510223,0.049426951796188945,0.039090924286097284
1772566903218180400,5.537180419921875,0.052360886356234544,0.04211290245577693,0.05423690936118364
1772566903228209200,5.547209228515625,0.05872574521303177,0.020260332414135336,0.045181496246159074
1772566903238238200,5.55723828125,0.05745090297162533,0.005214300582185387,0.011761749464273451
1772566903248267500,5.567267578125,0.07762041529715061,0.0009194529324769973,-0.013488134865462778
1772566903258296300,5.57729638671875,0.11006839443743228,0.0008819704663008451,-0.021195932763814925
1772566903268325400,5.587325439453125,0.11506371850669384,-0.00024235738851130007,-0.006113660574704408
1772566903278354400,5.5973544921875,0.10941489896476268,-0.011540800189971924,0.010262743078172206
1772566903288383200,5.60738330078125,0.0923427681326866,-0.0013747224193066357,0.04365940124541521
1772566903298412300,5.617412353515625,0.08992401655316352,-0.005949629119411111,0.066000704652071
1772566903308441300,5.62744140625,0.08467617902755736,-0.0036731355547904966,0.05118833544552326
1772566903318470100,5.63747021484375,0.08890519489943981,0.0011060615457594394,0.02759440162926912
1772566903328499200,5.647499267578125,0.103623456081748,0.0014666384864598513,-0.0023687749579548835
1772566903338528500,5.657528564453125,0.1176098958581686,0.00013604746982455253,0.0017591186270117759
1772566903348557300,5.667557373046875,0.11172960564792156,-0.00970649743489921,0.017495032419264315
1772566903358586400,5.67758642578125,0.1336748954743147,-0.017313684502989053,0.01645136858522892
1772566903368615400,5.687615478515625,0.12483283284902572,-0.015227818139642477,0.031087650572508573
1772566903378644200,5.697644287109375,0.10190087007284164,-0.0038051644366234537,0.052920419935137034
1772566903388673300,5.70767333984375,0.09212707955539226,-0.0025095716681331395,0.05121230084300041
1772566903398702300,5.717702392578125,0.08465864337086677,-0.02373443826548755,0.02887508908957243
1772566903408731100,5.727731201171875,0.08026245423853397,-0.04406790898106992,0.012774872029572724
1772566903418760200,5.73776025390625,0.05557049605250358,-0.04758519638702273,0.015765578278154134
1772566903428789500,5.74778955078125,0.0815028096884489,-0.04799523849263787,0.03200739576593041
1772566903438818300,5.757818359375,0.1098363392472267,-0.0548597174346447,0.05986000993996858
1772566903448847400,5.767847412109375,0.13323182788193225,-0.06507153404317796,0.06988412195667625
1772566903458877400,5.77787744140625,0.18166531166136263,-0.048464244243875146,0.07324263860434294
1772566903468906500,5.787906494140625,0.17590017226338386,-0.0338104996651411,0.06165697635933756
1772566903478935300,5.797935302734375,0.15418810667097568,-0.03182487880587578,0.05386661474406719
1772566903488964400,5.80796435546875,0.11713351051807402,-0.03922353768981993,0.024963468603789805
1772566903498993400,5.817993408203125,0.09049509443938732,-0.05368738571964204,0.012878624664992093
1772566903509022700,5.828022705078125,0.09097790952026844,-0.053209685205295676,-0.007024784070253372
1772566903519051800,5.8380517578125,0.09471008178591728,-0.036773879515379665,0.005622662187367677
1772566903529080800,5.848080810546875,0.10812310558855533,-0.024010040336474775,0.02568213826715946
1772566903539109600,5.858109619140625,0.11016717863678932,-0.01141454346179962,0.04607391504123807
1772566903549138700,5.868138671875,0.09029460343122482,-0.022107640781253574,0.03923194019198417
1772566903559167700,5.878167724609375,0.08843348573446273,-0.02168641969449818,0.028582974275201557
1772566903569196800,5.88819677734375,0.053522915872931474,-0.019145576105266807,0.03734627257585525
1772566903579225900,5.898225830078125,0.07377718387246131,-0.02950637273043394,0.028235183750838038
1772566903589255000,5.9082548828125,0.086308748665452,-0.024230843480303882,0.027513153086602685
1772566903599283700,5.91828369140625,0.1289852763533592,-0.015249007058143615,0.01592676018923521
1772566903609312800,5.928312744140625,0.15838497383892536,-0.012737462628632783,0.02293459312468767
1772566903619341800,5.938341796875,0.14468787239789963,-0.008455547525733709,0.03752528240457177
1772566903629370600,5.94837060546875,0.14519699096381664,0.018619068013131616,0.03436053476333618
1772566903639399700,5.958399658203125,0.07524725642502307,0.03241962982863188,0.03161094379425049
1772566903649428700,5.9684287109375,0.03977379198372364,0.04759498712867498,0.0053021980613470075
1772566903659457800,5.978457763671875,0.022086159601807594,0.025100977378338572,0.004105535622686148
1772566903669486800,5.98848681640625,0.02539981419444084,0.0014686112478375433,0.012201309925317764
1772566903679516000,5.998515869140625,0.05380173281431198,-0.009618015433847904,-0.0071482643194496626
1772566903689544700,6.008544677734375,0.07125672548413277,-0.00202668352201581,0.005027472773194313
1772566903699573800,6.01857373046875,0.05510287854075432,0.0010408873550593852,0.013350187699496745
1772566903709602800,6.028602783203125,0.04429682236611843,0.005653787977993488,0.03359700304493308
1772566903719633000,6.0386328125,0.06293664090633391,0.020878902703896165,0.026999796736985444
1772566903729661700,6.04866162109375,0.0806751266926527,0.0004332037854939699,0.009710662153363227
1772566903739690800,6.058690673828125,0.13265607382059097,0.012311200040578842,-0.006263736569881439
1772566903749719800,6.0687197265625,0.17731296167075633,0.018508812571689487,-0.002199263609945774
1772566903759748600,6.07874853515625,0.19011749818623064,0.02514920043423772,0.019319179106503725
1772566903769777700,6.088777587890625,0.16920739662647247,0.041978681616857645,0.02715820216909051
1772566903779807000,6.098806884765625,0.17905834403336046,0.05453603843823075,0.01860226300880313
1772566903789835800,6.108835693359375,0.1547539238601923,0.023256445490196346,0.0051772565074265
1772566903799864800,6.11886474609375,0.11097966406345366,-0.00830108761638403,-0.0031472119845449924
1772566903809894000,6.128893798828125,0.1068780739635229,-0.018712299254536626,-0.021588146951794625
1772566903819922700,6.138922607421875,0.09311725963652133,-0.03389189433827996,-0.03842822259366512
1772566903829951700,6.14895166015625,0.07190203765034675,-0.060337929650023575,-0.02679521407559514
1772566903839980800,6.158980712890625,0.0663227762132883,-0.06882957140244543,-0.012273498378694056
1772566903850009600,6.169009521484375,0.06399345648288726,-0.053257542935013766,0.024086247377842665
1772566903860038700,6.17903857421875,0.06874620396792888,-0.03249086843393743,0.048611178433895105
1772566903870067700,6.189067626953125,0.09978723891973496,-0.049155952835083006,0.04069339104667306
1772566903880096800,6.1990966796875,0.13792203152477742,-0.052625820902734995,0.03352569137439131
1772566903890125800,6.209125732421875,0.15092004478573798,-0.05920848722867667,0.03313347718641162
1772566903900155000,6.21915478515625,0.1714841093868017,-0.07122150804027914,0.029989772333204743
1772566903910183700,6.22918359375,0.1572059931874275,-0.06499678830653428,0.024167349790036676
1772566903920212700,6.239212646484375,0.1336526836425066,-0.04678264783248305,0.02312353982552886
1772566903930241800,6.24924169921875,0.05669453164637089,-0.020498013627529142,0.03367708254382014
1772566903940270600,6.2592705078125,-0.007405307820439338,-0.003936389600858092,0.027288550550490617
1772566903950299600,6.269299560546875,0.015586276188492775,-0.015745558403432367,-0.009021364714950323
1772566903960328700,6.27932861328125,0.010788520517945288,-0.018567922347784042,-0.003324029856175184
1772566903970358000,6.28935791015625,0.07492050868868827,-0.012772387811541556,0.004576952526718378
1772566903980386800,6.29938671875,0.1278705931097269,0.016650836680084467,0.01095554764792323
1772566903990416600,6.309416748046875,0.13968553406596182,0.030402737048268316,0.020064006124436855
1772566904000446000,6.319446044921875,0.14250292957425117,0.036333369206264614,0.022382804460823535
1772566904010474800,6.329474853515625,0.12125906601548195,0.045229280910640955,0.026739830626547334
1772566904020503800,6.33950390625,0.11073241130411625,0.056384661979600785,0.03896247560083866
1772566904030532900,6.349532958984375,0.14149638288021088,0.03976685078628361,0.024318010307103392
1772566904040561700,6.359561767578125,0.15327332991361617,0.04198277327008545,0.00617591215595603
1772566904050590700,6.3695908203125,0.14107844972908495,0.03597176935225725,-0.018355887032300233
1772566904060619800,6.379619873046875,0.11083937880992889,0.05076309577077627,-0.01298486151844263
1772566904070648600,6.389648681640625,0.05624678787887096,0.053333823041617864,0.014333645778894424
1772566904080677600,6.399677734375,0.030298692151904106,0.03932319867201149,0.013993746300041675
1772566904090707000,6.40970703125,0.06775836197435856,0.02286466969363391,0.015732260530441997
1772566904100735700,6.41973583984375,0.11718787105381488,0.0032489187933504578,0.007778086655586957
1772566904110764800,6.429764892578125,0.1804857464879751,-0.008179214802384377,0.004772036707401275
1772566904120793900,6.4397939453125,0.19996961463689802,-0.013826353843882679,0.03254837077483535
1772566904130822700,6.44982275390625,0.18536299713551996,-0.024334011593833565,0.06551452857032418
1772566904140851700,6.459851806640625,0.17064999665021896,-0.016267171124741433,0.09432400507777929
1772566904150880800,6.469880859375,0.11811375372707843,-0.013113456334173679,0.07701558127179742
1772566904160909800,6.479909912109375,0.07506897724866866,0.009594853753969073,0.051435003682971
1772566904170938600,6.489938720703125,0.048454526567459105,-0.0024448358688503504,0.019298866970837113
1772566904180967700,6.4999677734375,0.05554886874258518,-0.00345949280411005,-0.012122253339737652
1772566904190997000,6.5099970703125,0.06598199995160102,0.0027296441596001385,-0.016669979771971703
1772566904201025800,6.52002587890625,0.10361176564395427,-0.019471885450184342,-0.0032198388293385506
1772566904211054800,6.530054931640625,0.11131517962813377,-0.006423603306710719,0.03852203835695982
1772566904221084000,6.540083984375,0.10089373885691165,0.01740757333151996,0.06295739143341779
1772566904231112700,6.55011279296875,0.05692775588035583,0.018192001707479356,0.04659253208786249
1772566904241141800,6.560141845703125,0.041136312508583066,-0.009159823337569832,0.02089461172968149
1772566904251171800,6.570171875,0.025679800179600715,-0.020354367373138664,0.0020842589281499383
1772566904261200600,6.58020068359375,0.08408113574385642,-0.024534502601996064,0.012490063738822936
1772566904271229700,6.590229736328125,0.1183025542974472,-0.02902859915085137,0.039622985336184496
1772566904281258800,6.6002587890625,0.15944763463437556,-0.03845569512248039,0.0667163055755198
1772566904291287600,6.61028759765625,0.18520225361585615,-0.01737469397522509,0.05581672589853406
1772566904301316900,6.62031689453125,0.16493804874420165,-0.011059519479051231,0.03891016089171171
1772566904311346000,6.630345947265625,0.1029915879189968,-0.031506095180287956,0.04844254386872053
1772566904321375000,6.640375,0.0639180531591177,-0.04046878851056099,0.04259980918988585
1772566904331403800,6.65040380859375,0.029879005435109136,-0.028883126265555618,0.026713234880566594
1772566904341432800,6.660432861328125,-0.019066519519686697,-0.022578473163396118,0.012041589318960905
1772566904351462000,6.6704619140625,0.03563771509230137,-0.016822247724235056,-0.020848726761341092
1772566904361490700,6.68049072265625,0.045883799296617504,-0.02422799393609166,-0.01438493757471442
1772566904371519700,6.690519775390625,0.058141807845234865,-0.04243848114833235,-0.012605506812036036
1772566904381548800,6.700548828125,0.12700199358165262,-0.035761925993859765,-0.003229191179573536
1772566904391577600,6.71057763671875,0.14411679451167583,-0.025851284288987517,0.015337562124431133
1772566904401607000,6.72060693359375,0.15838789644837378,-0.034401085969433184,0.043133916066586966
1772566904411636000,6.730635986328125,0.14852525860369203,-0.02653342133425176,0.05152370487973094
1772566904421664800,6.740664794921875,0.15476561429798602,0.008470964290574192,0.0198887956880033
1772566904431693800,6.75069384765625,0.14156360289752482,0.018650997521355746,-0.007466974879801273
1772566904441723000,6.760722900390625,0.0973795932561159,-0.009941402169317007,-0.0039225802712142465
1772566904451751700,6.770751708984375,0.09203414057493209,-0.010229060004279016,-0.015706979958713053
1772566904461780700,6.78078076171875,0.09506021039783955,0.016601956037059426,-0.008842208755761385
1772566904471809800,6.790809814453125,0.11584288618564605,0.018687822400406003,0.004136953674256801
1772566904481838600,6.800838623046875,0.13540566478967667,0.007140519404411316,0.02346168573871255
1772566904491868000,6.810867919921875,0.13071370758116244,0.008135887117311358,0.035961394088715314
1772566904501897000,6.82089697265625,0.14694354237020016,0.029247575663775203,0.03730857091397047
1772566904511925500,6.830925537109375,0.1021808560580015,0.03971387849003076,0.032079291958361865
1772566904521954600,6.84095458984375,0.07450199101567268,0.02660436767861247,0.017353724252432583
1772566904531984400,6.850984375,0.058248190829157824,0.03408770917132497,-0.01873714143484831
1772566904542013400,6.861013427734375,0.07453063258826732,0.047580593277141446,-0.04105199522599578
1772566904552042500,6.87104248046875,0.10290157154798507,0.04288374069780111,-0.03609510347098112
1772566904562071300,6.8810712890625,0.17248305729627608,0.06993957847096026,0.0003948445364832878
1772566904572100400,6.891100341796875,0.22202888623178005,0.055310091550648206,0.045464843232184644
1772566904582129400,6.90112939453125,0.17378244945704935,0.012302286081761121,0.07699906852841377
1772566904592158500,6.911158447265625,0.13305354870557784,-0.023308906329795716,0.05701207316294312
1772566904602187500,6.9211875,0.08939619328677653,-0.027929551867768167,0.02161167395785451
1772566904612216600,6.931216552734375,0.02675824306607246,-0.0212612530849874,0.006058569386601448
1772566904622245600,6.94124560546875,-0.00889583863914013,-0.04035093428455293,0.01405365979373455
1772566904632274400,6.9512744140625,-0.004605447968840598,-0.0623660744767636,0.014595657715946436
1772566904642303500,6.961303466796875,0.030983167284727095,-0.04515986893624067,0.019909692345559594
1772566904652332500,6.97133251953125,0.06986907051801682,-0.05873897002078592,0.04355681765377521
1772566904662361300,6.981361328125,0.1062333463191986,-0.08068776697851716,0.06825768979862332
1772566904672390400,6.991390380859375,0.143555068975687,-0.0803160110566765,0.09382029333934187
1772566904682419500,7.00141943359375,0.19441431859731673,-0.062081485381722444,0.09003332214653491
1772566904692448300,7.0114482421875,0.17394319297671318,-0.046815088797360654,0.07146174653694033
1772566904702477600,7.0214775390625,0.1589542981594801,-0.04651004143618047,0.013834902476519346
1772566904712506600,7.031506591796875,0.14368892448842524,-0.02538848908282816,-0.016178250732272862
1772566904722535400,7.041535400390625,0.048939095214009284,-0.019538301749899983,0.015401713401824235
1772566904732564500,7.051564453125,-0.03806348093450069,-0.04818199323639273,0.03528495613187551
1772566904742593500,7.061593505859375,-0.0009714753806591034,-0.04994344995096325,0.018434212965518237
1772566904752622300,7.071622314453125,0.04325988053381443,-0.06803600987195968,0.03818243113905191
1772566904762651400,7.0816513671875,0.09793021287620067,-0.07803374533839523,0.07171747486367822
1772566904772680400,7.091680419921875,0.1241536184132099,-0.022240619511157272,0.06010843174308538
1772566904782709200,7.101709228515625,0.14004033885300157,0.016211495414748787,0.019218202950060367
1772566904792738600,7.111738525390625,0.13647066367268562,0.01251439446248114,0.02233706562295556
1772566904802768400,7.121768310546875,0.13289981944859028,0.0037280075471848246,0.030510142945498225
1772566904812797400,7.13179736328125,0.15892974824011324,0.01360796185284853,0.03672112641483545
1772566904822826500,7.141826416015625,0.1585433792710304,0.010465864434838294,0.037977556216716765
1772566904832855600,7.15185546875,0.13647884697914123,0.03901515563614666,0.0764773827418685
1772566904842884600,7.161884521484375,0.06263619665503502,0.05248604710586369,0.09370485026612878
1772566904852913400,7.171913330078125,0.008770166432857513,0.03768675657659769,0.04761617604717612
1772566904862942500,7.1819423828125,0.00897241100668907,0.044540056537464255,-0.017423866879194973
1772566904872971500,7.191971435546875,0.005258358919620514,0.037636926085501905,-0.04081087994650006
1772566904883000300,7.202000244140625,0.01758241844177246,0.03330583807863295,0.006108399877697229
1772566904893029400,7.212029296875,0.08591945708692074,0.05854965799376368,0.02319485149607062
1772566904903058400,7.222058349609375,0.1700853485047817,0.08919109916873276,0.02862213724181056
1772566904913087500,7.23208740234375,0.22561025184988975,0.0670160191744566,0.06088204646408558
1772566904923116500,7.242116455078125,0.23204408428966997,0.0979682067990303,0.07186170563995838
1772566904933145600,7.2521455078125,0.2051648451924324,0.1305762718718499,0.029489275465160607
1772566904943174400,7.26217431640625,0.15726619894206523,0.12233400177061557,-0.011687953575700521
1772566904953203500,7.272203369140625,0.09864391410350799,0.08654116918183863,-0.041460722157359124
1772566904963232500,7.282232421875,0.06857493905425072,0.022978651462122798,-0.03232829828336835
1772566904973261300,7.29226123046875,0.041834816166758534,-0.02004318253211677,-0.00498465654477477
1772566904983290400,7.302290283203125,0.07436521289348602,-0.06131956109851598,0.036788346432149406
1772566904993319400,7.3123193359375,0.06884031199216842,-0.06829005769826471,0.07130465627908707
1772566905003348200,7.32234814453125,0.09298574221134186,-0.03588752513490617,0.0895829480305314
1772566905013377500,7.33237744140625,0.08499649702310562,-0.029569208833575247,0.06793591049835085
1772566905023406600,7.342406494140625,0.016948212191462517,0.0022151918314397335,0.03739478789269924
1772566905033435400,7.352435302734375,-0.013062310668826103,-0.0020486761581152675,0.00617591215595603
1772566905043464400,7.36246435546875,-0.017611644536256788,-0.027263123848289248,-0.015091624539345502
1772566905053493500,7.372493408203125,0.010349544578790663,-0.058291226253286,-0.004109773406386375
1772566905063522300,7.382522216796875,0.07823182519376277,-0.06857493905425072,0.01597206063568592
1772566905073551400,7.39255126953125,0.1482616392314434,-0.03745009827651083,0.03625336277261376
1772566905083580400,7.402580322265625,0.19321312611401079,0.00857720114402473,0.04282514237836003
1772566905093610500,7.412610595703125,0.1718243011265993,0.058546296992897984,0.04667524193525314
1772566905103639300,7.422639404296875,0.10225275225043297,0.01747844661064446,0.040748043843358756
1772566905113668400,7.43266845703125,0.053280339288711544,-0.017186989383399486,0.025254706635326144
1772566905123697400,7.442697509765625,0.05565992790162563,-0.05374729921333492,0.003093289840221405
1772566905133726500,7.4527265625,0.07325228321552277,-0.08502601537853478,-0.0047216216944158075
1772566905143755500,7.462755615234375,0.11688742680251597,-0.10105645513795315,0.010040478629618883
1772566905153784600,7.47278466796875,0.1994219176262617,-0.0764281367726624,0.009468085569143294
1772566905163813400,7.4828134765625,0.20680092196166514,-0.05845788805708289,0.023107757734507323
1772566905173842400,7.492842529296875,0.15165186619162557,-0.05177439170517027,0.04777896539345383
1772566905183871500,7.50287158203125,0.08863573030829429,-0.036297932566702364,0.04872676763758063
1772566905193900300,7.512900390625,0.03420622098445892,-0.04561557681448757,0.03478913543894887
1772566905203929300,7.522929443359375,-0.013752046498656273,-0.0902417772654444,0.013092559676617384
1772566905213958400,7.53295849609375,0.007387772163748741,-0.10051496867239475,0.017760989879071713
1772566905223987500,7.542987548828125,0.053313072514533995,-0.1217960955016315,0.02567395496070385
1772566905234016500,7.5530166015625,0.13797580753862856,-0.12606931584142148,0.03789630767405033
1772566905244045600,7.563045654296875,0.19810382076501845,-0.06868519449569284,0.03319163711443543
1772566905254074400,7.573074462890625,0.22237083153724668,-0.02857237981595099,0.022960896609723568
1772566905264103400,7.583103515625,0.23047230492830276,-0.018487550587952137,0.01468932734876871
1772566905274132500,7.593132568359375,0.1924894880145788,0.023280483952909707,-0.006903203517198562
1772566905284161300,7.603161376953125,0.127443307608366,0.05179126977473497,-0.04302314916849136
1772566905294190300,7.6131904296875,0.07548281874656677,0.042373745349049564,-0.04173237870559096
1772566905304219400,7.623219482421875,0.0546808537364006,0.028714418635144828,-0.028289982677996157
1772566905314248400,7.63324853515625,0.04121989913880825,0.036108766670152545,0.012352554964274167
1772566905324277500,7.643277587890625,0.08725275151729583,0.03596570493765175,0.037678281009197234
1772566905334306600,7.653306640625,0.08080956672728061,0.053392202165350316,0.05525076257884502
1772566905344335600,7.663335693359375,0.05940145251750946,0.05812631801515817,0.03288403246998787
1772566905354364400,7.673364501953125,0.026775194200873372,0.05641608003117144,0.00865370044633746
1772566905364393500,7.6833935546875,0.00658873074054718,0.033870924615487456,0.0008104396000504494
1772566905374422500,7.693422607421875,0.02781447412073612,0.0251166864041239,0.0032902737170457837
1772566905384452400,7.703452392578125,0.09591653496623039,0.039138782015815374,0.005066489609330893
1772566905394481400,7.7134814453125,0.16207506052851675,0.01513217574544251,0.04089738918617367
1772566905404510500,7.723510498046875,0.18861995310485363,-0.00983436159826815,0.07775850859358906
1772566905414539300,7.733539306640625,0.20730127269923684,0.042731545810773965,0.07224032969400286
1772566905424568300,7.743568359375,0.2128758579611778,0.0577315465439111,0.032658114759624005
1772566905434597400,7.753597412109375,0.1793319002777338,0.04597914942987263,0.006697597942501306
1772566905444626400,7.76362646484375,0.07289397129714488,0.038775574726611375,0.029205928479135036
1772566905454655500,7.773655517578125,0.022131752309203147,0.022055326072126624,0.02293839251697063
1772566905464684500,7.7836845703125,-0.023807576566934583,0.017196560929343102,0.014084201062470674
1772566905474713300,7.79371337890625,-0.024072949504852295,-0.006349880483373999,0.013647855471819638
1772566905484742400,7.803742431640625,0.04925707512199878,-0.0051986646216362715,0.035245208643376824
1772566905494771500,7.813771484375,0.12959376364052294,0.009898585940897464,0.04412555745244026
1772566905504800500,7.823800537109375,0.1669786146610975,0.02162979413643479,0.03684051501080394
1772566905514829300,7.833829345703125,0.1822416502445936,0.04195968465544283,0.009755085816979408
1772566905524858400,7.8438583984375,0.16666063475310802,0.05341280656196177,0.0006382979035377502
1772566905534887400,7.853887451171875,0.11920213348567485,0.0702875151257962,0.018460808711498973
1772566905544916500,7.86391650390625,0.13064765660762787,0.07290865740962327,0.0184258835285902
1772566905554945500,7.873945556640625,0.1371989779472351,0.02320698032528162,0.019943594615161417
1772566905564974300,7.883974365234375,0.1513905849069357,-0.013195727790147065,0.02171907985508442
1772566905575003400,7.89400341796875,0.16422493203878402,-0.013611761245131491,0.03419277698099613
1772566905585032400,7.904032470703125,0.17846739240288734,0.009200009217485785,0.02573182262778282
1772566905595061200,7.914061279296875,0.1283054773956537,0.01673113537468016,0.033805385098606346
1772566905605090300,7.92409033203125,0.08096972572505473,-0.006338920697942375,0.03006561404839158
1772566905615119400,7.934119384765625,0.025051439148187638,-0.00983611516393721,0.008206687331199645
1772566905625148400,7.9441484375,0.013909282886981964,-0.04034910765364766,0.0005433130964636803
1772566905635177500,7.954177490234375,0.024164719441533086,-0.06815306038036942,0.03154474669024348
1772566905645206500,7.96420654296875,0.07382803727686404,-0.07133366317786276,0.06254661867544055
1772566905655235300,7.9742353515625,0.14426760115921497,-0.0727158382512629,0.07326879595890641
1772566905665264400,7.984264404296875,0.1951870565354824,-0.06389182273931801,0.08151143138632178
1772566905675293400,7.99429345703125,0.22472645475268363,-0.041364495241269464,0.06035436932817101
1772566905685321200,8.0043212890625,0.22526538393497467,-0.04231448944248259,0.056316492114216084
1772566905695350500,8.0143505859375,0.2120622034907341,-0.034427681715413924,0.015287731633335352
1772566905705379600,8.024379638671874,0.17086743879318236,-0.048112142870575185,-0.008251549386233091
1772566905715408400,8.034408447265625,0.10157236877083778,-0.04664886538498103,-0.0016581424705684185
1772566905725437400,8.0444375,0.051905543804168695,-0.03802789816446602,0.014667700038850307
1772566905735466500,8.054466552734375,0.02388064180314541,-0.0017610913883894682,0.042820466203242535
1772566905745496600,8.06449658203125,0.024396190109848975,0.0023204788368195294,0.0480636275537312
1772566905755524400,8.0745244140625,0.011889759758114814,-0.002214972635731101,0.034912469557672736
1772566905765554400,8.084554443359375,0.020494506496191025,-0.008330752102285623,0.0006815525233745574
1772566905775583500,8.09458349609375,0.03680500530600547,-0.003954509779438376,-0.021623656656593084
1772566905785612300,8.1046123046875,0.0761392368286848,0.006295958339050412,-0.02390840659290552
1772566905795641300,8.114641357421876,0.10184417144954204,0.011482640261948108,-0.00012976385951042174
1772566905805670400,8.12467041015625,0.11431845309734344,0.04600486839301884,0.04188450052738189
1772566905815699500,8.134699462890625,0.14864859272241593,0.04820040567591786,0.044916707830131054
1772566905825728500,8.144728515625,0.15277765535116195,0.053747080017626285,0.04434519155248999
1772566905835757600,8.154757568359376,0.09214110808074474,0.05556815796494484,0.04485167976990342
1772566905845786400,8.164786376953124,0.1031008935123682,0.02799282636232674,-0.0034426877997815607
1772566905855815400,8.1748154296875,0.10256605598330497,0.008402867490425705,-0.045026890206336975
1772566905865844500,8.184844482421875,0.11246201157569885,-0.023401845310255884,-0.03899199395626783
1772566905875873300,8.194873291015625,0.1395125155866146,-0.050994858700037,-0.01360620828717947
1772566905885902300,8.20490234375,0.14212415938973427,-0.042272330801188945,0.0026813480384647844
1772566905895931400,8.214931396484374,0.16462532953321932,-0.03500950019136071,0.03180558958351612
1772566905905960400,8.22496044921875,0.1548883638948202,-0.03787424197271466,0.061141866444051264
1772566905915989500,8.234989501953125,0.1242757834881544,-0.03618818858191371,0.06651274582743644
1772566905926018600,8.2450185546875,0.10202128158211707,-0.03246880273260176,0.020180472110956905
1772566905936047400,8.25504736328125,0.042564299485087394,-0.023580343682318924,-0.015037994655966757
1772566905946076400,8.265076416015624,0.014039046746492385,-0.035788814000785346,-0.027522943828254938
1772566905956105500,8.27510546875,0.014692542219161987,0.004560732044279575,-0.05828793831765652
1772566905966134300,8.28513427734375,0.039781390768289564,0.018720774821937083,-0.07147694410607218
1772566905976163300,8.295163330078125,0.08624503577947616,-0.007601853305846452,-0.06321794206574559
1772566905986192400,8.3051923828125,0.08200257590413093,-0.013980375361815095,0.0006774608701467514
1772566905996221200,8.31522119140625,0.10535422539710998,-0.0015919453665614127,0.003100304102897644
1772566906006250500,8.32525048828125,0.11506371850669384,0.004563362392783165,0.0021799743875861167
1772566906016279600,8.335279541015625,0.12057868253588676,-0.019605010310560465,0.02011675922498107
1772566906026308400,8.345308349609375,0.12429857984185218,-0.03887150938175618,0.014658639949560164
1772566906036337400,8.35533740234375,0.16008768610358237,-0.029592955035343763,0.006671440587937831
1772566906046366500,8.365366455078124,0.162238726657629,-0.016625848369300363,0.0016246785923838614
1772566906056395300,8.375395263671875,0.09759937348663807,0.003202595433592796,0.009910422509163618
1772566906066425300,8.38542529296875,0.04681377362310886,-0.004342924575135111,-0.001561257967352867
1772566906076454400,8.395454345703126,0.029518939951062202,-0.030391338871419427,-0.01774126226529479
1772566906086483500,8.4054833984375,0.03065583502650261,-0.04283215664103627,-0.00839709533676505
1772566906096512300,8.41551220703125,0.031281273448467255,-0.07374759245179593,0.029257366405427455
1772566906106541300,8.425541259765625,0.04289630791842937,-0.07125504498369992,0.05392302110642194
1772566906116570400,8.4355703125,0.1072001455247402,-0.03352890624478459,0.0392611662864685
1772566906126599400,8.445599365234376,0.13230711425244807,-0.020536445941776036,0.02254837028607726
1772566906136628500,8.45562841796875,0.1622948407590389,-0.02276866197325289,0.061180298758298154
1772566906146657500,8.465657470703125,0.17155542105734348,-0.010001900184899567,0.04019216352626681
1772566906156686300,8.475686279296875,0.16658230881989,0.012512056374922394,0.0416968690007925
1772566906166715400,8.48571533203125,0.13061843051314354,0.013055515601858496,0.03895926073044538
1772566906176744400,8.495744384765626,0.10263736765384673,0.01840381782725453,0.0439300348803401
1772566906186773200,8.505773193359374,0.11200900711119174,-0.01196750116944313,0.007818564796447753
1772566906196802300,8.51580224609375,0.1031003089904785,-0.03947955827750265,-0.010595774424821137
1772566906206831400,8.525831298828125,0.07658464250862598,-0.04645348894335329,0.015496698208898305
1772566906216860400,8.5358603515625,0.05352116230726242,-0.03859766087643802,0.03898088804036379
1772566906226889500,8.545889404296876,0.04425590583384037,0.00015767477974295617,0.04578399218395352
1772566906236918500,8.55591845703125,0.03794073133766651,0.000026157354563474654,0.053069619147479534
1772566906246947300,8.565947265625,0.05741758522391319,-0.028509982104226946,0.03314019918814301
1772566906256976400,8.575976318359375,0.10495207433700561,-0.01336670044288039,0.03446677161678672
1772566906267005400,8.58600537109375,0.15651976448893545,-0.012923340589553117,0.029978228025883433
1772566906277034200,8.5960341796875,0.2033954974323511,-0.02575301154628396,0.051827802392840384
1772566906287063300,8.606063232421874,0.22889058869481085,-0.011207330451905726,0.05532470459789037
1772566906297093400,8.61609326171875,0.13443769654035567,0.002521773562580347,0.06673369510173797
1772566906307122400,8.626122314453125,0.046076106998324394,0.019017346615716815,0.07401859141290187
1772566906317151200,8.636151123046876,0.0024327801048755642,0.03693126203417778,0.0490559995919466
1772566906327180300,8.64618017578125,-0.02122106720507145,0.004708762212842703,0.020570055950433014
1772566906337209300,8.656209228515625,0.021967501658201216,-0.025313304954767225,0.0010297814391553401
1772566906347238400,8.66623828125,0.08728139308989047,-0.02533054835051298,0.006411620607972145
1772566906357267500,8.676267333984375,0.1391121180921793,-0.03179031894914806,0.03397299675047397
1772566906367296500,8.686296630859376,0.1724386336326599,-0.0200859256953001,0.030314620373398063
1772566906377325300,8.6963251953125,0.18304536784291267,0.01399513453952968,0.05067366392165422
1772566906387354400,8.706354248046875,0.10296879156529903,0.03575586157925427,0.08647577579542993
1772566906397383400,8.716383544921875,0.08153028221726417,0.039543198098242284,0.055342532515525816
1772566906407412200,8.726412109375,0.0662701692432165,0.03596365911103785,0.03899053265154361
1772566906417441300,8.736441162109376,0.08171323756873607,0.0027320553123950956,0.02360124033987522
1772566906427470300,8.74647021484375,0.07314648475348949,-0.035085634167492386,0.02324249003008008
1772566906437499400,8.75649951171875,0.08694646204710006,-0.02237162547968328,0.020484861885011196
1772566906447528400,8.766528564453125,0.11229425379335879,-0.01434482476003468,0.019512948112934827
1772566906457557500,8.7765576171875,0.13652677777409553,-0.024096111184731126,0.03102379155606031
1772566906467586600,8.786586669921874,0.12431377741098404,-0.0566595333982259,0.0642535687237978
1772566906477615400,8.796615478515625,0.13206804479956627,-0.011711407516524195,0.06495514112189411
1772566906487644400,8.80664453125,0.09351414999961853,0.041631840940564865,0.057296735323220487
1772566906497674500,8.816674560546875,-0.005504442635178566,-0.04799801497161388,0.03939706762582063
1772566906507703300,8.826703369140626,0.11258476117253303,-0.0029315964724868533,0.046391310427337885
1772566906517733000,8.836733154296875,0.10783785890638828,0.01840279491394758,0.02466214756965637
1772566906527762000,8.846761962890625,0.14314122747778893,-0.0005737812999635934,0.017433511490374802
1772566906537791000,8.856791015625,0.13421265561282633,0.042646424810588356,-0.00681070292815566
1772566906547820000,8.866820068359376,0.10539455740749835,0.03648059565722942,0.005976882452517747
1772566906557848800,8.876848876953124,0.032948914399743075,0.008431143736839295,0.0328302564561367
1772566906567878000,8.8868779296875,-0.0017635025411844253,0.039790158596634866,0.037566929589211935
1772566906577907200,8.8969072265625,0.01516775851547718,0.049820700354129076,0.02965381837710738
1772566906587936000,8.90693603515625,0.03541676581799984,0.015461334634572266,0.03233911193832755
1772566906597965000,8.916965087890626,0.0970230349034071,0.0018463585190474985,0.015556027180701494
1772566906607994000,8.926994140625,0.15738251879811285,0.027039325029775498,-0.005639613322168589
1772566906618023000,8.93702294921875,0.19006606025993822,0.03715601070076227,0.0035984628833830353
1772566906628052000,8.947052001953125,0.2148199777662754,0.033413024780154225,0.008472937051951885
1772566906638081000,8.9570810546875,0.2017792944073677,0.03485891273953021,0.024387130020558832
1772566906648109800,8.96710986328125,0.18057985451221464,0.054511488518863914,0.008035860808938741
1772566906658139000,8.977138916015624,0.09543138179779052,0.07189809212759136,0.018222177650034428
1772566906668168200,8.987168212890625,0.08914718696177006,0.05296038661934435,0.0023484628222882747
1772566906678197000,8.997197021484375,0.05343757567703723,0.01540302857607603,-0.00035392800420522687
1772566906688226000,9.00722607421875,0.01416647251844406,-0.017277663341537117,0.018828034588694573
1772566906698255000,9.017255126953126,0.03945639659762382,-0.029756255838274955,0.04300429833754897
1772566906708284200,9.0272841796875,0.04654723164141178,-0.003638356502354145,0.03827975403368473
1772566906718313000,9.03731298828125,0.09933072732388973,-0.005081102656573057,0.03498290444537997
1772566906728342000,9.047342041015625,0.09781272397637367,-0.03521992807164788,0.03182414815351367
1772566906738371000,9.05737109375,0.08306757478713989,-0.008123392961919306,0.015603081192821264
1772566906748399900,9.06739990234375,0.07755027267038822,0.0312822963617742,0.0022444179259240625
1772566906758429000,9.077428955078124,0.08308511044383049,0.03677943247333169,-0.005960954231023788
1772566906768458200,9.087458251953125,0.10059797078073024,0.01979015761911869,0.021215952638536692
1772566906778487000,9.097487060546875,0.14594634802639483,0.010787059213221073,0.020968846009671686
1772566906788516000,9.10751611328125,0.14594576350450514,0.013742548017948865,0.024635844084620474
1772566906798545200,9.117545166015624,0.13450959273278712,0.004157850331813096,0.016206015522032977
1772566906808575000,9.127574951171875,0.16262451110482215,0.004698971471190453,0.01601283103749156
1772566906818604000,9.13760400390625,0.15088789608180522,-0.008934855475276709,0.017874240995198486
1772566906828633000,9.147633056640625,0.1220803192704916,-0.02675181332528591,0.03998027434125542
1772566906838662000,9.157661865234376,0.08398936580717563,-0.018652239630371333,0.04399126354828477
1772566906848691000,9.16769091796875,0.03156710465252399,-0.013335209326073526,0.0555273875631392
1772566906858720000,9.177719970703125,0.0021697452545166016,-0.047132995640113945,0.05897475153803825
1772566906868749000,9.1877490234375,-0.00457096117734909,-0.049647024287655946,0.04719897354841232
1772566906878777900,9.19777783203125,0.041136897030472755,-0.02752060574069619,0.011983283260464668
1772566906888807200,9.20780712890625,0.08546995975375175,-0.036824440658837554,0.009459317740797996
1772566906898836200,9.217836181640624,0.1103121400654316,-0.039018224376067515,0.019851824678480623
1772566906908865000,9.227864990234375,0.1253477966338396,-0.039615532682091,0.04283975542560219
1772566906918894000,9.23789404296875,0.12754442989528178,-0.015821546249091625,0.022441402780264616
1772566906928923100,9.247923095703126,0.13456570683419702,-0.021648352706432342,0.020603958220034836
1772566906938952000,9.257951904296876,0.1502484291344881,-0.04505319369137287,0.04243921180069447
1772566906948981000,9.26798095703125,0.15786358031332492,-0.03806070445552468,0.06126870769411325
1772566906959010000,9.278010009765625,0.17686930955648422,0.016892901807650924,0.04367328364029526
1772566906969038800,9.288038818359375,0.17889233981668948,0.0531922956790775,0.005194061511754989
1772566906979068200,9.298068115234376,0.13701134642064572,0.04146795561574399,0.027498832300305365
1772566906989097200,9.30809716796875,0.090495678961277,0.021957710916548967,0.05401157617270946
1772566906999126000,9.3181259765625,0.034246552994847294,0.000884893075749278,0.046484687799215316
1772566907009155000,9.328155029296875,0.014247721061110497,-0.023557766524329782,0.04854395841658115
1772566907019184000,9.33818408203125,0.03323533012568951,-0.04444302590377629,0.0578429710291326
1772566907029213000,9.348212890625,0.0366208809107542,-0.024413798831775784,0.036621173171699044
1772566907039242000,9.358241943359374,0.06033376493155956,0.016178469927981495,0.012820026345551013
1772566907049271000,9.36827099609375,0.08066518982052802,0.008924553276970983,0.004151420591026544
1772566907059299800,9.3782998046875,0.07519523397684097,-0.00542765107192099,0.0062507309578359125
1772566907069329000,9.388328857421875,0.09845335996747016,0.017803659977018833,0.014184884957969188
1772566907079358200,9.398358154296876,0.14601239899992943,0.03554850243888795,0.02318067684024572
1772566907089387000,9.408386962890624,0.22306991971731185,0.02911233191154897,0.02791208927631378
1772566907099416000,9.418416015625,0.26766309468150135,0.02707658830024302,0.04627893609404564
1772566907109445000,9.428445068359375,0.24018121351599692,0.053886926879733794,0.02879515572115779
1772566907119474000,9.438473876953125,0.18484218813180922,0.06449629143849014,0.004135638500005007
1772566907129503000,9.4485029296875,0.05722177039086818,0.043131870239973065,0.006198270118236542
1772566907139533000,9.458532958984375,-0.02376724455654621,-0.016023863888159393,-0.004683773902058601
1772566907149562000,9.46856201171875,-0.0754594378709793,-0.0732207920987159,0.012517536267638206
1772566907159591000,9.4785908203125,-0.052963528424501416,-0.10784574995189905,0.031542846994102
1772566907169620000,9.488619873046876,0.02174596786201,-0.08910203264579176,0.03337678442299366
1772566907179649000,9.49864892578125,0.13234277008771897,-0.041871129589155315,0.03544979130476713
1772566907189678000,9.508677978515625,0.18038520872294903,-0.01632913044504821,0.02853971965536475
1772566907199707100,9.51870703125,0.21172902601361274,0.014997662645578384,0.04871317750364542
1772566907209736200,9.528736083984375,0.21105156514346599,0.009337810252979398,0.0435607631765306
1772566907219765000,9.538764892578126,0.17518413294851778,-0.020057795579358936,0.015336977602541445
1772566907229794000,9.5487939453125,0.14365034604370594,-0.051178033247217536,-0.01791179652661085
1772566907239823000,9.558822998046875,0.10375672707259655,-0.05831168451942503,-0.0036231589332222937
1772566907249852000,9.568851806640625,0.08352174829542637,-0.05732347719967365,0.017897329609841108
1772566907259881000,9.578880859375,0.05367722965180874,-0.04605586792789399,0.013830226301401852
1772566907269910000,9.588909912109376,-0.015995441511273384,-0.031434929640218615,0.0031422435484826563
1772566907279938800,9.598938720703124,-0.001371288353204727,-0.014689765740185975,0.012652268563210963
1772566907289968000,9.608968017578125,-0.018431728747487067,-0.018831176393851637,0.024643881260603667
1772566907299997200,9.6189970703125,0.034278117176890374,-0.04815590894706547,0.00787161015793681
1772566907310026000,9.62902587890625,0.12814298031032084,-0.04811528467573225,-0.0024257658421993253
1772566907320055000,9.639054931640626,0.1793400835841894,-0.0406551779281348,0.01898512484654784
1772566907330084000,9.649083984375,0.23815467612445354,-0.021512743628025053,0.01923719991147518
1772566907340113000,9.65911279296875,0.21979367452561854,0.002308276942372322,0.024587767159193752
1772566907350142000,9.669141845703125,0.15167115541398524,0.024717457953467963,0.03161138218566775
1772566907360171000,9.6791708984375,0.10826222179830074,0.035391412181034684,0.017895868305116892
1772566907370199800,9.68919970703125,0.0713467418551445,0.032874972380697726,0.020255583173781632
1772566907380229000,9.69922900390625,0.06868366012573242,-0.014196063939109443,0.045871962728351354
1772566907390258200,9.709258056640625,0.0964998878121376,-0.028919147427007554,0.0454516914896667
1772566907400287000,9.719286865234375,0.10750234334170818,-0.032037060251832006,0.055660512423515315
1772566907410316000,9.72931591796875,0.09705635265111923,-0.007593743064627051,0.05328253124579787
1772566907420345000,9.739344970703126,0.060737669557332986,0.017781740406155586,0.04552139572501182
1772566907430374000,9.749373779296874,0.03617898236215114,0.0452856142077595,0.034767654259502886
1772566907440403000,9.75940283203125,0.0825011730760336,0.05908025773912668,0.01752308946996927
1772566907450432000,9.769431884765625,0.09537000699937342,0.049817193222790955,0.00993117303624749
1772566907460461000,9.7794609375,0.13867898737192152,0.017093027489632366,0.014857815783470868
1772566907470489900,9.78948974609375,0.1875175448209047,0.015469152614846824,0.014995616818964481
1772566907480520000,9.79952001953125,0.20995091042518615,0.027703195765987038,0.016358867996186018
1772566907490549000,9.809549072265625,0.20167758759856222,0.03949249082431197,0.014494389298558234
1772566907500578000,9.819578125,0.1648492014169693,0.045735403801873326,0.00865983792617917
1772566907510607000,9.829607177734376,0.11871347318589687,0.0572914015609771,0.0033063480690121647
1772566907520635400,9.839635498046874,0.042726796570420264,0.03576229132004082,0.0004350304163992405
1772566907530664200,9.849664306640625,0.023655016353726386,-0.025078254089877006,-0.00015694412738084793
1772566907540693200,9.859693359375,0.0338239436686039,-0.0556914190184325,0.011081950506567954
1772566907550722300,9.869722412109375,0.05981003331840038,-0.07318067928403615,0.03293897752761841
1772566907560751000,9.879751220703126,0.08470014442503451,-0.07840287091173231,0.04784940028116107
1772566907570780200,9.8897802734375,0.045351884377002716,-0.06762282596118747,0.043467239674180744
1772566907580809500,9.8998095703125,0.08096212694048881,-0.02450761459507048,0.031969986364990474
1772566907590838300,9.90983837890625,0.07749357404708862,0.0001356090784072876,0.0397829982034862
1772566907600867300,9.919867431640625,0.19944062232673168,0.04910385732166469,0.0508510663151741
1772566907610896400,9.929896484375,0.0823398450344801,-0.03911700857542455,0.01592763697206974
1772566907620925200,9.93992529296875,0.1348293262064457,-0.09044314505644142,0.005282762708514929
1772566907630954200,9.949954345703125,0.11730769804120063,-0.021997020013630388,-0.011929799507558346
1772566907640983300,9.9599833984375,0.10085808302164077,-0.03844283564090729,-0.005537468121945857
1772566907651012000,9.97001220703125,0.04570902725160122,-0.06539440932199359,0.03468392149880528
1772566907661041200,9.980041259765626,0.018700608816742896,-0.020106603157147764,0.05441708823367953
1772566907671070500,9.990070556640624,-0.006271919876337051,0.031077348374202847,0.041784839545190335
1772566907681099300,10.000099365234375,0.033034254595637316,0.03434796754270792,0.019568623822927473
1772566907691128300,10.01012841796875,0.07682838813662529,0.047682519281655546,-0.03553746958822012
1772566907701157400,10.020157470703126,0.16193185266554355,0.08541903328411281,-0.04948839965984225
1772566907711186200,10.030186279296874,0.21750059515237807,-0.01750613833516836,-0.03909136267751455
