time,seconds_elapsed,z,y,x
1772566897762376700,0.081376708984375,-0.0013246242888271809,0.01465518120676279,-0.0042943814769387245
1772566897772405800,0.09140576171875,-0.016690779477357864,0.016653582453727722,0.01523260772228241
1772566897782434800,0.101434814453125,-0.028354093432426453,0.024320024996995926,0.03353944420814514
1772566897792464100,0.111464111328125,-0.04651400446891785,0.02177312970161438,0.03494354337453842
1772566897802493700,0.12149365234375,-0.05494983121752739,0.01176310796290636,0.01737333834171295
1772566897812523000,0.13152294921875,-0.05172073096036911,0.004530726000666618,0.015031246468424797
1772566897822552000,0.141552001953125,-0.05203205347061157,0.00411953404545784,0.029470905661582947
1772566897832580900,0.151580810546875,-0.053908295929431915,0.007355093955993652,0.037493810057640076
1772566897842610000,0.16160986328125,-0.0561530739068985,0.009642483666539192,0.03968293219804764
1772566897852639000,0.171638916015625,-0.04935034364461899,0.011350725777447224,0.02005689963698387
1772566897862667800,0.181667724609375,-0.03502653166651726,0.015430421568453312,0.008337927050888538
1772566897872696800,0.19169677734375,-0.02755737490952015,0.022500474005937576,0.0018762443214654922
1772566897882726000,0.201725830078125,-0.014221329241991043,0.022850945591926575,-0.002290537115186453
1772566897892754700,0.211754638671875,-0.0005075936205685139,0.020740021020174026,-0.001574734691530466
1772566897902783700,0.22178369140625,0.0036754338070750237,0.018326930701732635,0.0020200004801154137
1772566897912813000,0.23181298828125,0.007528964430093765,0.018364645540714264,0.004939603619277477
1772566897922841900,0.241841796875,0.009815555065870285,0.018206719309091568,-0.0003955070860683918
1772566897932871000,0.251870849609375,0.01274850219488144,0.022071436047554016,-0.006599797867238522
1772566897942900000,0.26189990234375,0.011968996375799179,0.023517001420259476,-0.012561816722154617
1772566897952929000,0.271928955078125,0.011846398934721947,0.02133498713374138,-0.010671233758330345
1772566897962957800,0.281957763671875,0.01475057564675808,0.018705647438764572,-0.005506033077836037
1772566897972987000,0.29198681640625,0.015306166373193264,0.0077607473358511925,0.004637624137103558
1772566897983017000,0.302016845703125,0.020018629729747772,-0.0016255639493465424,0.012438289821147919
1772566897993045800,0.312045654296875,0.020703604444861412,-0.0037915296852588654,0.013713755644857883
1772566898003074800,0.32207470703125,0.015536006540060043,-0.005482104606926441,0.005894981324672699
1772566898013103900,0.332103759765625,0.009642893448472023,-0.0013015782460570335,-0.00325334956869483
1772566898023133000,0.3421328125,0.004386346787214279,-0.001527414657175541,-0.0074028209783136845
1772566898033162000,0.352161865234375,-0.0008541527204215527,-0.0007406128570437431,0.000020314939320087433
1772566898043191000,0.36219091796875,-0.0103046465665102,-0.000009308569133281708,0.01014405582100153
1772566898053219800,0.3722197265625,-0.01501149870455265,-0.0024184398353099823,0.009141534566879272
1772566898063249000,0.382248779296875,-0.01705813780426979,-0.00878579169511795,0.0010279472917318344
1772566898073278000,0.39227783203125,-0.019792817533016205,-0.010143712162971497,-0.0026314370334148407
1772566898083306800,0.402306640625,-0.03372727334499359,-0.017121460288763046,-0.0031962934881448746
1772566898093335800,0.412335693359375,-0.04658735916018486,-0.0150791946798563,0.003791249357163906
1772566898103364900,0.42236474609375,-0.05266948416829109,-0.01699427329003811,0.015166942030191422
1772566898113393700,0.4323935546875,-0.04896703362464905,-0.017960984259843826,0.026136014610528946
1772566898123423000,0.442423095703125,-0.04880458116531372,-0.008630333468317986,0.027917936444282532
1772566898133452000,0.4524521484375,-0.05202031880617142,-0.0037008728832006454,0.02568245306611061
1772566898143481000,0.462481201171875,-0.05196652561426163,0.00448781531304121,0.017390169203281403
1772566898153510000,0.472510009765625,-0.04460621997714043,0.004924344830214977,0.008280081674456596
1772566898163540000,0.4825400390625,-0.037191979587078094,0.006175498478114605,0.0013846242800354958
1772566898173569000,0.492569091796875,-0.03212088346481323,0.0009108595550060272,0.002884797751903534
1772566898183597800,0.502597900390625,-0.02867582067847252,0.0023945067077875137,0.0105027686804533
1772566898193627000,0.512626953125,-0.021651659160852432,0.0032822545617818832,0.019028980284929276
1772566898203656000,0.522656005859375,-0.014345541596412659,0.011031786911189556,0.022951282560825348
1772566898213684700,0.532684814453125,-0.013107256963849068,0.011882848106324673,0.013625416904687881
1772566898223713800,0.5427138671875,-0.005675439722836018,0.004137043841183186,0.0028292275965213776
1772566898233742800,0.552742919921875,0.004260062240064144,-0.004260009154677391,0.001737823709845543
1772566898243772000,0.56277197265625,0.015386216342449188,-0.012534450739622116,0.012112967669963837
1772566898253801000,0.572801025390625,0.02731926366686821,-0.01719116047024727,0.03238002955913544
1772566898263830000,0.582830078125,0.03870188072323799,-0.02525734156370163,0.049812816083431244
1772566898273858800,0.59285888671875,0.05034229904413223,-0.03081163763999939,0.05044609308242798
1772566898283887900,0.602887939453125,0.06209695711731911,-0.027650730684399605,0.03690898418426514
1772566898293917000,0.6129169921875,0.07477445900440216,-0.0190909244120121,0.024449685588479042
1772566898303946000,0.622946044921875,0.0852808952331543,-0.00853069219738245,0.019656263291835785
1772566898313974800,0.632974853515625,0.08841843903064728,-0.006930543575435877,0.01601928472518921
1772566898324003800,0.64300390625,0.09190239012241364,-0.013573799282312393,0.021341077983379364
1772566898334034000,0.653033935546875,0.09557686746120453,-0.025656521320343018,0.029351569712162018
1772566898344062700,0.663062744140625,0.10179854929447174,-0.03061665967106819,0.041605040431022644
1772566898354091800,0.673091796875,0.09666256606578827,-0.04248383641242981,0.0496109277009964
1772566898364121000,0.68312109375,0.08964993059635162,-0.05098597705364227,0.053610995411872864
1772566898374150000,0.69314990234375,0.07802226394414902,-0.04951850324869156,0.05586451292037964
1772566898384179000,0.703178955078125,0.06356822699308395,-0.05026525259017944,0.04876532405614853
1772566898394208000,0.7132080078125,0.046976834535598755,-0.04901722073554993,0.028243348002433777
1772566898404236800,0.72323681640625,0.020072516053915024,-0.03632299602031708,0.016617584973573685
1772566898414265900,0.733265869140625,-0.014213440008461475,-0.02260448783636093,0.0047928644344210625
1772566898424295000,0.743294921875,-0.04466775059700012,-0.006948830094188452,-0.0005236039869487286
1772566898434323700,0.75332373046875,-0.06695377081632614,0.0021589668467640877,0.00006004702299833298
1772566898444352800,0.763352783203125,-0.08195295929908752,0.009423538111150265,-0.0012534242123365402
1772566898454381800,0.7733818359375,-0.10093960165977478,0.011201257817447186,-0.00289828609675169
1772566898464411000,0.783410888671875,-0.11304126679897308,0.006694654934108257,-0.008236858993768692
1772566898474440000,0.79343994140625,-0.11883386969566345,-0.0008075619116425514,-0.008889204822480679
1772566898484469000,0.803468994140625,-0.12294658273458481,-0.01712767966091633,-0.009696941822767258
1772566898494498000,0.813498046875,-0.12146545946598053,-0.03507580608129501,-0.000872085802257061
1772566898504527000,0.823527099609375,-0.12621307373046875,-0.047783609479665756,0.014804612845182419
1772566898514557200,0.83355712890625,-0.1496071219444275,-0.05874587595462799,0.03769826143980026
1772566898524586200,0.843586181640625,-0.17883214354515076,-0.06899212300777435,0.04862494766712189
1772566898534615000,0.853614990234375,-0.19647502899169922,-0.07996834069490433,0.04486669600009918
1772566898544644000,0.86364404296875,-0.209005206823349,-0.08726034313440323,0.03445320576429367
1772566898554673200,0.873673095703125,-0.21252237260341644,-0.09198948740959167,0.02749278023838997
1772566898564702000,0.883701904296875,-0.20704957842826843,-0.08651667833328247,0.02610687166452408
1772566898574731000,0.89373095703125,-0.1941290944814682,-0.08601097762584686,0.03131487965583801
1772566898584760000,0.903760009765625,-0.17110340297222137,-0.07614849507808685,0.02858460694551468
1772566898594789400,0.913789306640625,-0.15081198513507843,-0.07028315216302872,0.03294313699007034
1772566898604818200,0.923818115234375,-0.1300172209739685,-0.05477503314614296,0.03896241635084152
1772566898614847200,0.93384716796875,-0.10875716805458069,-0.04218342900276184,0.03361199051141739
1772566898624876300,0.943876220703125,-0.09089294821023941,-0.03603951632976532,0.029425499960780144
1772566898634905000,0.953905029296875,-0.0646011084318161,-0.027135590091347694,0.01734074018895626
1772566898644934100,0.96393408203125,-0.03347967565059662,-0.02512729912996292,0.00902741588652134
1772566898654963200,0.973963134765625,0.0006837863475084305,-0.03048592060804367,0.006818515248596668
1772566898664992000,0.983991943359375,0.02824990078806877,-0.03992655873298645,0.011628717184066772
1772566898675021000,0.99402099609375,0.054712288081645966,-0.049625568091869354,0.017333589494228363
1772566898685050400,1.00405029296875,0.08747342973947525,-0.05315026640892029,0.026372093707323074
1772566898695080000,1.014079833984375,0.10472826659679413,-0.05753213167190552,0.037053272128105164
1772566898705109000,1.02410888671875,0.11772716045379639,-0.05551238730549812,0.03638109192252159
1772566898715138300,1.03413818359375,0.12628690898418427,-0.05584783852100372,0.02531692013144493
1772566898725167000,1.0441669921875,0.13708868622779846,-0.05179930105805397,0.008241530507802963
1772566898735196200,1.054196044921875,0.14527849853038788,-0.043973445892333984,-0.0020918603986501694
1772566898745225200,1.06422509765625,0.15063731372356415,-0.03990226984024048,-0.01009812206029892
1772566898755254300,1.074254150390625,0.15393295884132385,-0.04527464881539345,-0.008208688348531723
1772566898765283000,1.084282958984375,0.15272735059261322,-0.04618411883711815,0.0031811194494366646
1772566898775312100,1.09431201171875,0.1394774168729782,-0.046868231147527695,0.017798297107219696
1772566898785341200,1.104341064453125,0.1251392364501953,-0.03418945521116257,0.031456053256988525
1772566898795370000,1.114369873046875,0.10674241185188293,-0.019627872854471207,0.03575703129172325
1772566898805399300,1.1243994140625,0.09026996046304703,-0.005823910236358643,0.025203455239534378
1772566898815428400,1.134428466796875,0.07307636737823486,0.006427344866096973,0.014815397560596466
1772566898825457200,1.14445703125,0.06515879184007645,0.014816035516560078,0.005857321433722973
1772566898835486200,1.154486328125,0.05015281215310097,0.01331427413970232,-0.0016353446990251541
1772566898845515300,1.164515380859375,0.039114274084568024,0.013659686781466007,-0.003559212200343609
1772566898855544000,1.1745439453125,0.024888982996344566,0.01203838735818863,-0.0032472480088472366
1772566898865573000,1.184572998046875,0.01028873398900032,0.018557272851467133,-0.002344968728721142
1772566898875603200,1.194603271484375,-0.004503647796809673,0.02714807540178299,-0.002408313564956188
1772566898885632000,1.204632080078125,-0.01787538081407547,0.023639895021915436,-0.0041180625557899475
1772566898895661000,1.2146611328125,-0.013749949634075165,0.032125137746334076,-0.0009962408803403378
1772566898905690000,1.224690185546875,-0.009455069899559021,0.04061556234955788,0.004404117353260517
1772566898915719000,1.234718994140625,-0.01261341292411089,0.040922556072473526,0.00381654966622591
1772566898925748200,1.244748291015625,-0.01162218488752842,0.03383801504969597,-0.001236798707395792
1772566898935777300,1.25477734375,-0.008549153804779053,0.02718888223171234,-0.006111369468271732
1772566898945806300,1.264806396484375,-0.013428330421447754,0.009232518263161182,-0.008579054847359657
1772566898955835100,1.274835205078125,-0.008956856094300747,-0.004142995923757553,-0.002560605760663748
1772566898965864200,1.2848642578125,-0.0010917428880929947,-0.01622522622346878,0.02346833236515522
1772566898975893200,1.294893310546875,-0.0021724081598222256,-0.021341245621442795,0.04639747738838196
1772566898985922000,1.304922119140625,-0.002267749048769474,-0.023572176694869995,0.054032497107982635
1772566898995951000,1.314951171875,-0.010121971368789673,-0.018454328179359436,0.04822177439928055
1772566899005980200,1.324980224609375,-0.016011551022529602,-0.005832542199641466,0.0357227586209774
1772566899016009200,1.33500927734375,-0.024447370320558548,0.00041202083230018616,0.017299357801675797
1772566899026038300,1.345038330078125,-0.035741303116083145,0.0020389454439282417,0.00461951456964016
1772566899036067300,1.3550673828125,-0.03563836216926575,-0.006611009128391743,0.000017249956727027893
1772566899046096100,1.36509619140625,-0.034728627651929855,-0.013660929165780544,0.00839688628911972
1772566899056125200,1.375125244140625,-0.029613308608531952,-0.02640720084309578,0.01798141747713089
1772566899066155300,1.3851552734375,-0.02340707741677761,-0.045517247170209885,0.026984497904777527
1772566899076184000,1.39518408203125,-0.02554255537688732,-0.05160093307495117,0.03610953688621521
1772566899086213000,1.405213134765625,-0.029582837596535683,-0.05331387743353844,0.03929494321346283
1772566899096242200,1.4152421875,-0.025938723236322403,-0.05526113137602806,0.04305308312177658
1772566899106271200,1.425271240234375,-0.02880827896296978,-0.05357561632990837,0.045297592878341675
1772566899116300000,1.435300048828125,-0.027188250795006752,-0.05888441205024719,0.046491995453834534
1772566899126329000,1.4453291015625,-0.027283592149615288,-0.06207780912518501,0.04515748471021652
1772566899136358100,1.455358154296875,-0.019667528569698334,-0.05230312421917915,0.04865222051739693
1772566899146387200,1.46538720703125,-0.026192806661128998,-0.04757894203066826,0.04673980548977852
1772566899156416300,1.475416259765625,-0.027690045535564423,-0.04345129057765007,0.042419545352458954
1772566899166445300,1.4854453125,-0.024496115744113922,-0.036430664360523224,0.032257452607154846
1772566899176474000,1.49547412109375,-0.019216638058423996,-0.029711561277508736,0.023222384974360466
1772566899186503200,1.505503173828125,-0.012014119885861874,-0.017551302909851074,0.01566566526889801
1772566899196532200,1.5155322265625,-0.0006070979870855808,-0.006954904180020094,0.00962686724960804
1772566899206561000,1.52556103515625,0.011683124117553234,-0.00914695207029581,0.01077708788216114
1772566899216590000,1.535590087890625,0.02560911700129509,-0.00898277573287487,0.0186624713242054
1772566899226619100,1.545619140625,0.03019002079963684,-0.020184030756354332,0.025325696915388107
1772566899236648200,1.555648193359375,0.03834079951047897,-0.03911173343658447,0.02574089542031288
1772566899246677200,1.56567724609375,0.04464530199766159,-0.05635277181863785,0.028337210416793823
1772566899256707000,1.57570703125,0.04617328569293022,-0.060640983283519745,0.040126800537109375
1772566899266736400,1.585736328125,0.047760531306266785,-0.059667594730854034,0.041866645216941833
1772566899276765200,1.59576513671875,0.04513297230005264,-0.054461490362882614,0.032079875469207764
1772566899286794200,1.605794189453125,0.047020621597766876,-0.035314157605171204,0.020777689293026924
1772566899296823300,1.6158232421875,0.04841146990656853,-0.0030760783702135086,0.020945940166711807
1772566899306852000,1.62585205078125,0.049671679735183716,0.012986245565116405,0.009372641332447529
1772566899316881200,1.635881103515625,0.048515282571315765,0.013883568346500397,-0.012336060404777527
1772566899326910200,1.64591015625,0.05265170335769653,0.00397367961704731,-0.031290046870708466
1772566899336939000,1.65593896484375,0.05154749006032944,-0.011040565557777882,-0.03239528089761734
1772566899346968000,1.665968017578125,0.04999913275241852,-0.027457356452941895,-0.019535673782229424
1772566899356997400,1.675997314453125,0.05498809367418289,-0.04296240210533142,0.010178569704294205
1772566899367026200,1.686026123046875,0.06361433863639832,-0.060205839574337006,0.04934195429086685
1772566899377055200,1.69605517578125,0.08182872086763382,-0.07422997057437897,0.07241632789373398
1772566899387084300,1.706084228515625,0.09490644186735153,-0.07730885595083237,0.07328824698925018
1772566899397113000,1.716113037109375,0.10772120952606201,-0.07535096257925034,0.04809786379337311
1772566899407142100,1.72614208984375,0.1079222783446312,-0.06065244600176811,0.017277635633945465
1772566899417171200,1.736171142578125,0.10253077745437622,-0.0397329106926918,-0.0070314123295247555
1772566899427200000,1.746199951171875,0.08557789027690887,-0.01625874452292919,-0.022771760821342468
1772566899437230000,1.75622998046875,0.07544077932834625,0.004968365654349327,-0.025809580460190773
1772566899447259100,1.766259033203125,0.0732087790966034,0.0112406425178051,-0.029197920113801956
1772566899457288200,1.7762880859375,0.07344788312911987,0.015170488506555557,-0.03564661741256714
1772566899467317000,1.78631689453125,0.0742977038025856,0.0255363117903471,-0.03831377252936363
1772566899477346300,1.79634619140625,0.06330077350139618,0.02407889999449253,-0.039115097373723984
1772566899487375400,1.806375244140625,0.04451616853475571,0.02479981817305088,-0.03181057795882225
1772566899497404200,1.816404052734375,0.02807612344622612,0.02355017140507698,-0.023687679320573807
1772566899507433200,1.82643310546875,0.01766050048172474,0.017686158418655396,-0.011633413843810558
1772566899517462300,1.836462158203125,0.00974708516150713,0.016456235200166702,0.0003054598346352577
1772566899527491300,1.8464912109375,-0.0014475132338702679,0.021751664578914642,0.012773580849170685
1772566899537520000,1.85652001953125,-0.008223113603889942,0.02512400411069393,0.020042944699525833
1772566899547549200,1.866549072265625,-0.017556428909301758,0.02173193357884884,0.013126450590789318
1772566899557578200,1.876578125,-0.021057095378637314,0.009066889062523842,0.00849158875644207
1772566899567607000,1.88660693359375,-0.016672199591994286,-0.007814889773726463,0.00849638320505619
1772566899577636400,1.89663623046875,-0.010118297301232815,-0.029496748000383377,0.016946732997894287
1772566899587665400,1.90666552734375,-0.002414038870483637,-0.04924249276518822,0.021675175055861473
1772566899597694200,1.916694091796875,0.005779920145869255,-0.058589011430740356,0.025556791573762894
1772566899607723300,1.92672314453125,0.011901727877557278,-0.05847955495119095,0.03170602768659592
1772566899617753300,1.93675341796875,0.011762873269617558,-0.053172994405031204,0.03281836584210396
1772566899627782400,1.946782470703125,0.0026785647496581078,-0.049384113401174545,0.03005560114979744
1772566899637811200,1.956811279296875,-0.003343427088111639,-0.03251262009143829,0.02547677978873253
1772566899647840300,1.96684033203125,-0.015670666471123695,-0.015969065949320793,0.015543988905847073
1772566899657869300,1.976869384765625,-0.026796380057930946,0.0013496540486812592,0.006633857265114784
1772566899667898000,1.986898193359375,-0.037388838827610016,0.02084372565150261,-0.0038299686275422573
1772566899677927200,1.99692724609375,-0.05410827323794365,0.025897834450006485,-0.018893055617809296
1772566899687956200,2.006956298828125,-0.05741165950894356,0.026303168386220932,-0.023466236889362335
1772566899697985300,2.0169853515625,-0.05731109157204628,0.011031732894480228,-0.025208018720149994
1772566899708014300,2.027014404296875,-0.05284976214170456,-0.007590687368065119,-0.021684125065803528
1772566899718043400,2.03704345703125,-0.05421976372599602,-0.021315136924386024,-0.017476174980401993
1772566899728072200,2.047072265625,-0.05536891520023346,-0.03182210773229599,-0.004214699380099773
1772566899738101200,2.057101318359375,-0.05038050562143326,-0.03800526261329651,0.007100947201251984
1772566899748130300,2.06713037109375,-0.0490151047706604,-0.03580229729413986,0.013615305535495281
1772566899758159000,2.0771591796875,-0.04681427776813507,-0.0363365076482296,0.00995471142232418
1772566899768188200,2.087188232421875,-0.038348354399204254,-0.037994325160980225,-0.005941697396337986
1772566899778217200,2.09721728515625,-0.030158760026097298,-0.03393721580505371,-0.01247880607843399
1772566899788246300,2.107246337890625,-0.020208923146128654,-0.031732119619846344,-0.010700080543756485
1772566899798276000,2.117276123046875,-0.013810457661747932,-0.027299463748931885,-0.007041028700768948
1772566899808305200,2.12730517578125,-0.012099111452698708,-0.022481540217995644,-0.0036249919794499874
1772566899818334500,2.13733447265625,-0.012552253901958466,-0.01986789144575596,-0.007171474862843752
1772566899828363300,2.14736328125,-0.007710360921919346,-0.019561627879738808,-0.010296694003045559
1772566899838392300,2.157392333984375,-0.007005365565419197,-0.023164743557572365,-0.013888195157051086
1772566899848421400,2.16742138671875,-0.0013930201530456543,-0.02127256616950035,-0.014263700693845749
1772566899858450200,2.1774501953125,0.0027736425399780273,-0.027681486681103706,-0.01773759350180626
1772566899868479200,2.187479248046875,0.006586490198969841,-0.029063399881124496,-0.008710275404155254
1772566899878508300,2.19750830078125,0.014656823128461838,-0.029380902647972107,-0.0026943464763462543
1772566899888537000,2.207537109375,0.01629120483994484,-0.03030688315629959,0.0016154469922184944
1772566899898566100,2.217566162109375,0.01146288588643074,-0.027825331315398216,0.006487354636192322
1772566899908595200,2.22759521484375,0.007009813562035561,-0.013720697723329067,0.00109125766903162
1772566899918624300,2.237624267578125,-0.0036903643049299717,-0.001057368703186512,-0.012874233536422253
1772566899928653300,2.2476533203125,-0.007042751647531986,0.01601802185177803,-0.019409896805882454
1772566899938682400,2.257682373046875,-0.003427456133067608,0.016949493438005447,-0.029533425346016884
1772566899948711200,2.267711181640625,0.003232310526072979,0.022275015711784363,-0.030932916328310966
1772566899958740200,2.277740234375,0.010116436518728733,0.023573320358991623,-0.018567536026239395
1772566899968769300,2.287769287109375,0.00787245761603117,0.020232651382684708,-0.011259022168815136
1772566899978798300,2.29779833984375,0.007724082097411156,0.020135782659053802,-0.00435482757166028
1772566899988828200,2.307828125,0.0025021564215421677,0.02211824059486389,-0.0013028448447585106
1772566899998857200,2.317857177734375,0.0015275310724973679,0.024280816316604614,-0.006486161146312952
1772566900008886300,2.32788623046875,-0.0024693412706255913,0.026573531329631805,-0.01620589941740036
1772566900018915000,2.3379150390625,0.0002423897385597229,0.03369515389204025,-0.02408042922616005
1772566900028944100,2.347944091796875,0.0027502886950969696,0.033402472734451294,-0.02944989502429962
1772566900038973400,2.357973388671875,0.008952833712100983,0.03130010515451431,-0.022318709641695023
1772566900049002200,2.368002197265625,0.018610520288348198,0.03746931999921799,-0.00803564302623272
1772566900059031300,2.37803125,0.014437664300203323,0.033242497593164444,-0.0025162892416119576
1772566900069060400,2.388060302734375,0.006810370832681656,0.027958519756793976,-0.0018190736882388592
1772566900079089200,2.398089111328125,-0.004562199115753174,0.02978426218032837,-0.007416605018079281
1772566900089118200,2.4081181640625,-0.0143138961866498,0.01944427192211151,-0.014408467337489128
1772566900099147300,2.418147216796875,-0.02082882635295391,0.01694924384355545,-0.015570019371807575
1772566900109176000,2.428176025390625,-0.028689946979284286,0.01730344444513321,-0.006870537530630827
1772566900119205000,2.438205078125,-0.030162524431943893,0.017010455951094627,0.007843458093702793
1772566900129234400,2.448234375,-0.027333714067935944,0.017293816432356834,0.01723882555961609
1772566900139263500,2.458263427734375,-0.028831632807850838,0.01413296815007925,0.011544077657163143
1772566900149292300,2.468292236328125,-0.026936793699860573,0.0068928999826312065,-0.003503049723803997
1772566900159321300,2.4783212890625,-0.020548522472381592,0.00028475839644670486,-0.01658713072538376
1772566900169351400,2.488351318359375,-0.011059679090976715,-0.005233044736087322,-0.01388322189450264
1772566900179380200,2.498380126953125,-0.0023721088655292988,-0.005560488905757666,0.00228839460760355
1772566900189409300,2.5084091796875,0.0031725922599434853,-0.011635159142315388,0.012043819762766361
1772566900199438300,2.518438232421875,0.0109266247600317,-0.004187844693660736,0.016936341300606728
1772566900209467100,2.528467041015625,0.01140785776078701,-0.001707109622657299,0.013420168310403824
1772566900219496200,2.53849609375,0.006567829288542271,0.000596257857978344,0.006908739916980267
1772566900229525200,2.548525146484375,0.0028484584763646126,0.005453331395983696,-0.005381215363740921
1772566900239554000,2.558553955078125,0.0025251051411032677,0.008491023443639278,-0.005440468899905682
1772566900249583400,2.568583251953125,0.0034369714558124542,0.016625650227069855,0.003497632220387459
1772566900259612400,2.5786123046875,0.006604138761758804,0.02617361769080162,0.010670719668269157
1772566900269641200,2.58864111328125,0.008268081583082676,0.030536673963069916,0.00827866792678833
1772566900279670300,2.598670166015625,0.011166466400027275,0.03464898467063904,0.0010661445558071136
1772566900289699300,2.60869921875,0.01137738861143589,0.040050141513347626,-0.006048223469406366
1772566900299728400,2.618728271484375,0.00946229137480259,0.04617012292146683,-0.010640203952789307
1772566900309757200,2.628757080078125,0.004482978954911232,0.04161052405834198,-0.011442881077528
1772566900319786200,2.6387861328125,0.00789174996316433,0.037444427609443665,-0.005377097055315971
1772566900329815300,2.648815185546875,0.007306121289730072,0.035350117832422256,0.0004560239613056183
1772566900339844400,2.65884423828125,0.0036094235256314278,0.026940595358610153,0.002886379137635231
1772566900349873400,2.668873291015625,-0.0017344756051898003,0.026406098157167435,0.0001369323581457138
1772566900359903200,2.6789033203125,-0.007301078177988529,0.03032878413796425,0.005608636885881424
1772566900369932300,2.688932373046875,-0.010034546256065369,0.029714126139879227,0.0057505834847688675
1772566900379961300,2.69896142578125,-0.0050344159826636314,0.028746772557497025,0.010299226269125938
1772566900389990400,2.708990478515625,0.000394970178604126,0.03300356864929199,0.017263391986489296
1772566900400019200,2.719019287109375,-0.002785853110253811,0.03350306302309036,0.019096385687589645
1772566900410048300,2.72904833984375,-0.005823721177875996,0.02867767959833145,0.010836858302354813
1772566900420077300,2.739077392578125,-0.008351961150765419,0.019108351320028305,0.0005097482353448868
1772566900430106000,2.749106201171875,-0.009752517566084862,0.02107536420226097,0.001533733680844307
1772566900440135200,2.75913525390625,-0.013798454776406288,0.02329682931303978,0.010509895160794258
1772566900450164200,2.769164306640625,-0.01910959742963314,0.014650077559053898,0.020584633573889732
1772566900460193300,2.779193359375,-0.01831335760653019,0.012658658437430859,0.026191789656877518
1772566900470222300,2.789222412109375,-0.01993175968527794,0.0109228091314435,0.036825258284807205
1772566900480251400,2.79925146484375,-0.017718637362122536,0.010029511526226997,0.03384949266910553
1772566900490280400,2.809280517578125,-0.01618678867816925,0.010310208424925804,0.017827916890382767
1772566900500309200,2.819309326171875,-0.01770271360874176,0.008281788788735867,0.0026918966323137283
1772566900510338300,2.82933837890625,-0.023856479674577713,0.012006218545138836,-0.000030386727303266525
1772566900520367400,2.839367431640625,-0.026188086718320847,0.011728736571967602,0.0018526557832956314
1772566900530396400,2.849396484375,-0.0244117584079504,0.01081101130694151,0.012561225332319736
1772566900540425200,2.85942529296875,-0.018532609567046165,0.004934039898216724,0.01866000145673752
1772566900550455300,2.869455322265625,-0.017916887998580933,0.005246163345873356,0.02156950533390045
1772566900560484400,2.879484375,-0.01116101909428835,-0.000904587097465992,0.02221411094069481
1772566900570513400,2.889513427734375,-0.008805452845990658,-0.0034385845065116882,0.024663152173161507
1772566900580542200,2.899542236328125,-0.0034523503854870796,-0.009030199609696865,0.016466505825519562
1772566900590571500,2.909571533203125,-0.0038235951215028763,-0.009727681055665016,0.015817228704690933
1772566900600600600,2.9196005859375,-0.0020292489789426327,-0.005605723708868027,0.013097615912556648
1772566900610629400,2.92962939453125,0.00048823654651641846,-0.006389225367456675,0.004242605529725552
1772566900620658400,2.939658447265625,0.0069643473252654076,0.0012927278876304626,0.000585358589887619
1772566900630687500,2.9496875,0.013580438680946827,0.0031076716259121895,-0.004274910315871239
1772566900640716300,2.95971630859375,0.01713704504072666,0.010364078916609287,-0.0017879144288599491
1772566900650745300,2.969745361328125,0.011754529550671577,0.01134412083774805,-0.00936167873442173
1772566900660774400,2.9797744140625,0.010675792582333088,0.0150752617046237,-0.015317684039473534
1772566900670803200,2.98980322265625,0.010401752777397633,0.01098731067031622,-0.013692623004317284
1772566900680832500,2.99983251953125,0.01059060636907816,0.009874565526843071,-0.0060934084467589855
1772566900690861600,3.009861572265625,0.010642270557582378,0.005708316341042519,0.002281966619193554
1772566900700890400,3.019890380859375,0.009998422116041183,0.005268421955406666,0.011862492188811302
1772566900710919400,3.02991943359375,0.00615627970546484,0.0015951227396726608,0.009976174682378769
1772566900720948500,3.039948486328125,0.002037939615547657,-0.00571439927443862,-0.0017134742811322212
1772566900730977300,3.049977294921875,-0.0010659745894372463,-0.0028629526495933533,0.0016551576554775238
1772566900741007400,3.06000732421875,-0.006503276992589235,-0.009232314303517342,0.004503774456679821
1772566900751036400,3.070036376953125,-0.013140140101313591,-0.018231401219964027,0.010011724196374416
1772566900761065500,3.0800654296875,-0.016124019399285316,-0.01951196976006031,0.02466833032667637
1772566900771094300,3.09009423828125,-0.020128881558775902,-0.027781616896390915,0.03269270062446594
1772566900781123300,3.100123291015625,-0.02521807700395584,-0.03566104918718338,0.03465144708752632
1772566900791152400,3.11015234375,-0.024451352655887604,-0.03922569006681442,0.029380254447460175
1772566900801181400,3.120181396484375,-0.023858418688178062,-0.03203964978456497,0.02309747040271759
1772566900811210500,3.13021044921875,-0.02577056922018528,-0.021547596901655197,0.02123485505580902
1772566900821239600,3.140239501953125,-0.020111002027988434,-0.011286871507763863,0.020678166300058365
1772566900831268400,3.150268310546875,-0.02188839390873909,0.0021607596427202225,0.01727278158068657
1772566900841297400,3.16029736328125,-0.02141619846224785,0.011726798489689827,0.008241361938416958
1772566900851326500,3.170326416015625,-0.02135574445128441,0.02132190205156803,-0.000028551090508699417
1772566900861355300,3.180355224609375,-0.022754263132810593,0.028551770374178886,-0.00473567983135581
1772566900871384300,3.19038427734375,-0.026722373440861702,0.030014643445611,-0.007182858418673277
1772566900881413400,3.200413330078125,-0.030482396483421326,0.02456376887857914,-0.003339393064379692
1772566900891442200,3.210442138671875,-0.027666104957461357,0.011652762070298195,0.001889989711344242
1772566900901471500,3.220471435546875,-0.02594120241701603,0.007624519057571888,0.015012744814157486
1772566900911500500,3.23050048828125,-0.022436482831835747,0.0004909764975309372,0.025600941851735115
1772566900921529300,3.240529296875,-0.028756126761436462,-0.003999185748398304,0.033295661211013794
1772566900931558400,3.250558349609375,-0.029740165919065475,-0.0005610445514321327,0.025293396785855293
1772566900941588500,3.26058837890625,-0.03342285007238388,0.00031526386737823486,0.014741132035851479
1772566900951617500,3.270617431640625,-0.028857124969363213,0.0012207385152578354,0.0002021370455622673
1772566900961646300,3.280646240234375,-0.026419010013341904,0.007118859328329563,-0.008835379965603352
1772566900971675400,3.29067529296875,-0.021788572892546654,0.011481118388473988,0.002690514549612999
1772566900981704400,3.300704345703125,-0.021361667662858963,0.015770137310028076,0.017699291929602623
1772566900991733200,3.310733154296875,-0.01977469027042389,0.010994558222591877,0.027416901662945747
1772566901001762300,3.32076220703125,-0.01312975399196148,0.00832244474440813,0.02630334347486496
1772566901011791400,3.330791259765625,-0.012571821920573711,0.004274439997971058,0.020090989768505096
1772566901021820400,3.3408203125,-0.007933514192700386,0.0005057742819190025,0.008463134057819843
1772566901031849500,3.350849365234375,-0.006117238663136959,-0.00944086629897356,0.003212711773812771
1772566901041878500,3.36087841796875,0.0014309585094451904,-0.01711796037852764,-0.002928271424025297
1772566901051907300,3.3709072265625,0.005334087647497654,-0.018453802913427353,0.0059296684339642525
1772566901061936400,3.380936279296875,0.003061107359826565,-0.012147760018706322,0.012165963649749756
1772566901071965400,3.39096533203125,0.00709313340485096,-0.009234794415533543,0.01725446619093418
1772566901081994200,3.400994140625,0.0008481312543153763,-0.0045630307868123055,0.014501705765724182
1772566901092023300,3.411023193359375,-0.008276923559606075,0.0021236343309283257,0.006101030856370926
1772566901102052400,3.42105224609375,-0.014857200905680656,0.008746659383177757,0.003382354974746704
1772566901112081400,3.431081298828125,-0.019039694219827652,0.01863417774438858,0.0035956744104623795
1772566901122110500,3.4411103515625,-0.0214405357837677,0.024502454325556755,0.0072593847289681435
1772566901132139500,3.451139404296875,-0.02048392780125141,0.020610777661204338,0.006984014064073563
1772566901142169600,3.461169677734375,-0.020391706377267838,0.01534182857722044,0.013001792132854462
1772566901152198400,3.471198486328125,-0.012140169739723206,0.008259682916104794,0.018380578607320786
1772566901162227500,3.4812275390625,-0.01001263502985239,-0.0006119729951024055,0.022859197109937668
1772566901172256500,3.491256591796875,-0.004845037125051022,-0.0038322675973176956,0.026091208681464195
1772566901182285300,3.501285400390625,-0.004608933813869953,-0.006411299109458923,0.017192723229527473
1772566901192314400,3.511314453125,-0.0037239654920995235,-0.008084563538432121,0.008910292759537697
1772566901202343400,3.521343505859375,-0.004060992505401373,-0.006307162810117006,0.0003318618983030319
1772566901212372200,3.531372314453125,-0.004226374439895153,-0.0001864200457930565,0.0068400949239730835
1772566901222401300,3.5414013671875,-0.0031129070557653904,-0.0035329479724168777,0.0007241461426019669
1772566901232430300,3.551430419921875,0.002072000876069069,-0.002679937519133091,0.00889552291482687
1772566901242459400,3.56145947265625,0.006431766785681248,-0.0025114333257079124,0.006247285753488541
1772566901252488400,3.571488525390625,0.011279518716037273,-0.0034693721681833267,-0.001018350012600422
1772566901262517500,3.581517578125,0.005753876641392708,-0.006153876427561045,-0.0015145661309361458
1772566901272546300,3.59154638671875,0.0033069634810090065,-0.005281691439449787,-0.003877589013427496
1772566901282575400,3.601575439453125,0.002593531273305416,-0.0001463731750845909,-0.0020187315531075
1772566901292604400,3.6116044921875,0.007182423956692219,0.001761781983077526,-0.002271998208016157
1772566901302633200,3.62163330078125,0.007302191108465195,0.009162588976323605,-0.003298746421933174
1772566901312662300,3.631662353515625,0.005871808156371117,0.01963254064321518,-0.004953368101269007
1772566901322691300,3.64169140625,0.004658481106162071,0.026708271354436874,-0.007963194511830807
1772566901332720600,3.651720703125,0.008104611188173294,0.03715558722615242,-0.016039762645959854
1772566901342749400,3.66174951171875,0.00756995752453804,0.03813275322318077,-0.015138131566345692
1772566901352778500,3.671778564453125,0.014085115864872932,0.03234224021434784,-0.007592863868921995
1772566901362808600,3.68180859375,0.016772421076893806,0.019172558560967445,-0.0004422697238624096
1772566901372837400,3.69183740234375,0.02046222984790802,0.0006547989323735237,0.009977880865335464
1772566901382866400,3.701866455078125,0.022561553865671158,-0.008354848250746727,0.01806231029331684
1772566901392895500,3.7118955078125,0.02672620303928852,-0.01625085435807705,0.014249196276068687
1772566901402924300,3.72192431640625,0.03420944884419441,-0.013830363750457764,0.014893384650349617
1772566901412953300,3.731953369140625,0.041921429336071014,-0.013970179483294487,0.011033132672309875
1772566901422982400,3.741982421875,0.048359937965869904,-0.010298306122422218,0.006183912977576256
1772566901433011200,3.75201123046875,0.04419954866170883,-0.012457863427698612,-0.0028450023382902145
1772566901443040300,3.762040283203125,0.039868611842393875,-0.012005718424916267,-0.002469299826771021
1772566901453069600,3.772069580078125,0.03622247651219368,-0.015097116120159626,0.004232012666761875
1772566901463098400,3.782098388671875,0.03259263187646866,-0.025295520201325417,0.013621380552649498
1772566901473127400,3.79212744140625,0.03322300314903259,-0.03122052177786827,0.018193496391177177
1772566901483156500,3.802156494140625,0.027098534628748894,-0.02554825320839882,0.019309626892209053
1772566901493185300,3.812185302734375,0.026124080643057823,-0.019676515832543373,0.0154416523873806
1772566901503214300,3.82221435546875,0.02219906821846962,-0.010486384853720665,0.006000617519021034
1772566901513242400,3.832242431640625,0.013032468035817146,-0.005679113324731588,-0.00846247747540474
1772566901523271700,3.842271728515625,0.004190364852547646,-0.004437515512108803,-0.013569202274084091
1772566901533300700,3.85230078125,-0.002308813389390707,-0.003967467695474625,-0.008356597274541855
1772566901543329500,3.86232958984375,-0.004520570859313011,-0.005388006567955017,0.007220306433737278
1772566901553358600,3.872358642578125,-0.009484970010817051,-0.006435427814722061,0.018662579357624054
1772566901563387600,3.8823876953125,-0.009480791166424751,-0.014652976766228676,0.026473451405763626
1772566901573417500,3.89241748046875,-0.010313828475773335,-0.01368198823183775,0.01970423012971878
1772566901583446500,3.902446533203125,-0.01862093061208725,-0.008004308678209782,0.015008991584181786
1772566901593475600,3.9124755859375,-0.017758866772055626,0.001307433471083641,0.007896486669778824
1772566901603504400,3.92250439453125,-0.01684725657105446,0.007500062696635723,0.00539266224950552
1772566901613533400,3.932533447265625,-0.013372363522648811,0.008538163267076015,0.007834513671696186
1772566901623562500,3.9425625,-0.010398481041193008,0.009584378451108932,0.008288105949759483
1772566901633591300,3.95259130859375,-0.009918845258653164,0.00878170132637024,0.005509362556040287
1772566901643620600,3.96262060546875,-0.009590866044163704,0.010275183245539665,0.003336796537041664
1772566901653649700,3.972649658203125,-0.009315760806202888,0.013762326911091805,-0.0039117950946092606
1772566901663678500,3.982678466796875,-0.006714071612805128,0.01686667650938034,-0.005692523904144764
1772566901673707500,3.99270751953125,-0.001734493300318718,0.026508383452892303,-0.002939880359917879
1772566901683735600,4.002735595703125,0.008606418035924435,0.02680349349975586,-0.006031923461705446
1772566901693764400,4.012764404296875,0.01954847201704979,0.0303347185254097,-0.006125159095972776
1772566901703793400,4.02279345703125,0.022417495027184486,0.031028736382722855,-0.014081353321671486
1772566901713822700,4.03282275390625,0.027299052104353905,0.026488887146115303,-0.017914066091179848
1772566901723851500,4.0428515625,0.02232879213988781,0.02449418045580387,-0.006713076960295439
1772566901733880600,4.052880615234375,0.020901761949062347,0.020744670182466507,0.0032676663249731064
1772566901743909600,4.06290966796875,0.015237750485539436,0.012059569358825684,0.015973074361681938
1772566901753938400,4.0729384765625,0.014108815230429173,0.006938362494111061,0.02103516086935997
1772566901763967500,4.082967529296875,0.017205804586410522,0.003846431151032448,0.014336778782308102
1772566901773996500,4.09299658203125,0.015754228457808495,0.006366610527038574,0.012807203456759453
1772566901784025300,4.103025390625,0.018828582018613815,0.015032004565000534,0.003027276135981083
1772566901794054400,4.113054443359375,0.021361306309700012,0.026919465512037277,0.0007698554545640945
1772566901804083700,4.123083740234375,0.02020682394504547,0.034013595432043076,0.0017158100381493568
1772566901814112500,4.133112548828125,0.023230187594890594,0.029443837702274323,0.0017683813348412514
1772566901824141600,4.1431416015625,0.022268522530794144,0.027184143662452698,-0.00012139743193984032
1772566901834170600,4.153170654296875,0.023387400433421135,0.02579912729561329,0.006707390770316124
1772566901844200700,4.16320068359375,0.02396530471742153,0.023027842864394188,0.008767612278461456
1772566901854229500,4.1732294921875,0.023423418402671814,0.024247970432043076,0.008150311186909676
1772566901864258600,4.183258544921875,0.022359484806656837,0.022551536560058594,0.0019776364788413048
1772566901874287600,4.19328759765625,0.02200448513031006,0.02205485850572586,0.006237895227968693
1772566901884316400,4.20331640625,0.019408436492085457,0.02621178701519966,0.011026259511709213
1772566901894345500,4.213345458984375,0.026648851111531258,0.026643069460988045,0.009780188091099262
1772566901904374500,4.22337451171875,0.028901616111397743,0.022453652694821358,0.0014128023758530617
1772566901914403300,4.2334033203125,0.027890585362911224,0.016016976907849312,-0.003977349493652582
1772566901924432600,4.2434326171875,0.035709891468286514,0.008048798888921738,-0.003473479300737381
1772566901934461700,4.253461669921875,0.03502736985683441,0.005840679630637169,0.00401732325553894
1772566901944490500,4.263490478515625,0.042575299739837646,-0.004919023718684912,0.015259058214724064
1772566901954519600,4.27351953125,0.046894755214452744,-0.0017143087461590767,0.019664401188492775
1772566901964548600,4.283548583984375,0.04667424410581589,0.002923053689301014,0.025504445657134056
1772566901974577400,4.293577392578125,0.04167956858873367,0.012743815779685974,0.01952049881219864
1772566901984606500,4.3036064453125,0.04024998098611832,0.014413885772228241,0.004665386863052845
1772566901994635500,4.313635498046875,0.03671392425894737,0.019805818796157837,-0.0030253776349127293
1772566902004664300,4.323664306640625,0.03671126067638397,0.018467579036951065,-0.006574039813131094
1772566902014693400,4.333693359375,0.03999817371368408,0.009936342015862465,-0.002756690140813589
1772566902024722700,4.34372265625,0.045311179012060165,-0.0018313676118850708,0.0026710983365774155
1772566902034751500,4.35375146484375,0.05324168503284454,-0.009194771759212017,0.011950995773077011
1772566902044780500,4.363780517578125,0.06602858752012253,-0.017338719218969345,0.022157028317451477
1772566902054809600,4.3738095703125,0.07060880959033966,-0.013747153803706169,0.03670104593038559
1772566902064839700,4.383839599609375,0.09165257960557938,-0.005003729835152626,0.04613875597715378
1772566902074868500,4.393868408203125,0.10870432108640671,0.003518535755574703,0.04207490384578705
1772566902084897500,4.4038974609375,0.11904031783342361,0.007809954695403576,0.023080438375473022
1772566902094926600,4.413926513671875,0.11839794367551804,0.011925909668207169,-0.006446718703955412
1772566902104955400,4.423955322265625,0.10604940354824066,0.013754436746239662,-0.027557596564292908
1772566902114984400,4.433984375,0.08341776579618454,0.024504736065864563,-0.026036038994789124
1772566902125013500,4.444013427734375,0.050476863980293274,0.032101936638355255,-0.012239530682563782
1772566902135042300,4.454042236328125,0.020582936704158783,0.03489040583372116,0.003123990260064602
1772566902145071600,4.464071533203125,-0.0018965410999953747,0.030339594930410385,0.007680659182369709
1772566902155100700,4.4741005859375,-0.01600637286901474,0.02246970310807228,0.002678324468433857
1772566902165129500,4.48412939453125,-0.025615857914090157,0.01801343262195587,-0.008361277170479298
1772566902175158500,4.494158447265625,-0.03498843312263489,0.003428068943321705,-0.01574530079960823
1772566902185187600,4.5041875,-0.039373330771923065,-0.004671136382967234,-0.006554733030498028
1772566902195216400,4.51421630859375,-0.04286377131938934,-0.012398895807564259,0.008215431123971939
1772566902205245400,4.524245361328125,-0.0427551195025444,-0.016395235434174538,0.026782989501953125
1772566902215274500,4.5342744140625,-0.043471869081258774,-0.017119156196713448,0.031202513724565506
1772566902225303300,4.54430322265625,-0.0400257371366024,-0.0176232922822237,0.014118869788944721
1772566902235332600,4.55433251953125,-0.03646881878376007,-0.014352131634950638,-0.001713356003165245
1772566902245361700,4.564361572265625,-0.035110607743263245,-0.011096950620412827,-0.011754006147384644
1772566902255390700,4.574390625,-0.028511304408311844,-0.006734673865139484,-0.00576277170330286
1772566902265419500,4.58441943359375,-0.02710222452878952,-0.00860181637108326,0.0009774230420589447
1772566902275448600,4.594448486328125,-0.030174389481544495,-0.011229939758777618,0.01332031562924385
1772566902285477600,4.6044775390625,-0.04080706089735031,-0.004406921565532684,0.010553291067481041
1772566902295507500,4.614507568359375,-0.0502590574324131,-0.001549270935356617,0.0005123652517795563
1772566902305536500,4.62453662109375,-0.05998678877949715,0.0034694550558924675,-0.00623422022908926
1772566902315565600,4.634565673828125,-0.07206237316131592,-0.005568475462496281,-0.012318369932472706
1772566902325595600,4.644595703125,-0.07794369757175446,-0.005103753879666328,-0.005343018565326929
1772566902335624400,4.65462451171875,-0.08311262726783752,-0.010279607027769089,0.0111512690782547
1772566902345653500,4.664653564453125,-0.08319415152072906,-0.012287309393286705,0.022459080442786217
1772566902355682600,4.6746826171875,-0.0841696634888649,-0.011952550150454044,0.03407978639006615
1772566902365711400,4.68471142578125,-0.08593407273292542,-0.004504106938838959,0.023846115916967392
1772566902375740400,4.694740478515625,-0.07709503918886185,0.005038797855377197,0.012323682196438313
1772566902385769700,4.704769775390625,-0.061107322573661804,0.012485872954130173,0.0023042885586619377
1772566902395798500,4.714798583984375,-0.052452314645051956,0.009835496544837952,-0.0023445249535143375
1772566902405827600,4.72482763671875,-0.053015269339084625,0.007364004850387573,-0.0053298803977668285
1772566902415856600,4.734856689453125,-0.04863277077674866,0.003917073830962181,-0.0005846600979566574
1772566902425885400,4.744885498046875,-0.0402245819568634,-0.0004713963717222214,0.008058836683630943
1772566902435914500,4.75491455078125,-0.03549373894929886,-0.008002815768122673,0.006787709891796112
1772566902445943600,4.764943603515625,-0.030116580426692963,-0.01832623779773712,0.0013711359351873398
1772566902455972400,4.774972412109375,-0.021285805851221085,-0.019623994827270508,0.0019069639965891838
1772566902466001400,4.78500146484375,-0.00846149493008852,-0.017849501222372055,0.007508809678256512
1772566902476031500,4.795031494140625,0.0000941762700676918,-0.018351241946220398,0.006730367429554462
1772566902486060500,4.805060546875,0.0019414396956562996,-0.028382238000631332,0.0015284009277820587
1772566902496089300,4.81508935546875,0.009144758805632591,-0.02384128049015999,0.012945372611284256
1772566902506118400,4.825118408203125,0.012622731737792492,-0.02090623788535595,0.021230855956673622
1772566902516147500,4.8351474609375,0.009740126319229603,-0.01988491415977478,0.012056266888976097
1772566902526176300,4.84517626953125,0.006958169862627983,-0.016841946169734,-0.005210493691265583
1772566902536205300,4.855205322265625,0.008784298785030842,-0.008737415075302124,-0.015916667878627777
1772566902546234400,4.865234375,0.008754413574934006,0.000630619004368782,-0.015414531342685223
1772566902556263200,4.87526318359375,0.007930964231491089,0.011675014160573483,-0.009038923308253288
1772566902566292200,4.885292236328125,0.0024660155177116394,0.012495826929807663,-0.01919633522629738
1772566902576321300,4.8953212890625,-0.00014734454452991486,0.0009432993829250336,-0.0243157297372818
1772566902586350000,4.90535009765625,0.009326156228780746,-0.002555777318775654,-0.014497388154268265
1772566902596379400,4.91537939453125,0.007695237174630165,-0.007895415648818016,0.004411054775118828
1772566902606408400,4.925408447265625,-0.0009129648096859455,-0.011003720574080944,0.014520129188895226
1772566902616437500,4.9354375,-0.003771069459617138,-0.01341601274907589,0.012367762625217438
1772566902626466300,4.94546630859375,-0.0066323126666247845,-0.010432323440909386,0.001877511851489544
1772566902636495400,4.955495361328125,-0.008268558420240879,-0.006505758501589298,-0.008644371293485165
1772566902646524400,4.9655244140625,-0.00986797921359539,-0.007697939407080412,-0.021599220111966133
1772566902656553200,4.97555322265625,-0.0012971274554729462,-0.0053844512440264225,-0.016793545335531235
1772566902666582300,4.985582275390625,0.003979024477303028,-0.001204146072268486,-0.0024088160134851933
1772566902676611300,4.995611328125,0.0033896667882800102,-0.0066127595491707325,0.003702339716255665
1772566902686640400,5.005640380859375,0.0018296614289283752,-0.019589697942137718,0.004561839625239372
1772566902696669400,5.01566943359375,0.004028634168207645,-0.02675786241889,0.011364351958036423
1772566902706699300,5.02569921875,0.0017553884536027908,-0.028877507895231247,0.02885695919394493
1772566902716728300,5.035728271484375,0.0036872457712888718,-0.027191992849111557,0.02951715886592865
1772566902726757400,5.04575732421875,0.001068389043211937,-0.02790991961956024,0.014488923363387585
1772566902736786400,5.055786376953125,0.00040765851736068726,-0.024972720071673393,-0.002114021684974432
1772566902746815200,5.065815185546875,0.00014295056462287903,-0.014103314839303493,-0.0012902268208563328
1772566902756844300,5.07584423828125,-0.0017803842201828957,-0.006107173394411802,0.004690700210630894
1772566902766873300,5.085873291015625,-0.005237681325525045,-0.003096509724855423,0.008560163900256157
1772566902776902100,5.095902099609375,-0.009774908423423767,-0.00036144349724054337,0.008282395079731941
1772566902786931200,5.10593115234375,-0.017604611814022064,0.0008282111957669258,-0.0010448717512190342
1772566902796960300,5.115960205078125,-0.007918162271380424,0.008264821954071522,-0.007534995209425688
1772566902806989300,5.1259892578125,-0.005520812701433897,0.01716543361544609,-0.014861587435007095
1772566902817018400,5.136018310546875,-0.008544299751520157,0.022350609302520752,-0.01765391230583191
1772566902827047400,5.14604736328125,-0.014149940572679043,0.02389354258775711,-0.02739589475095272
1772566902837076500,5.156076416015625,-0.02186671644449234,0.02335425093770027,-0.02437986433506012
1772566902847105300,5.166105224609375,-0.02600722759962082,0.02842244878411293,-0.002555245067924261
1772566902857134300,5.17613427734375,-0.03150852024555206,0.012461591511964798,0.009082235395908356
1772566902867163400,5.186163330078125,-0.032664455473423004,0.00752166286110878,0.014092287980020046
1772566902877192200,5.196192138671875,-0.03256858140230179,0.0015543177723884583,0.014302144758403301
1772566902887221200,5.20622119140625,-0.03042631596326828,-0.0013488326221704483,0.0029311366379261017
1772566902897250300,5.216250244140625,-0.031191175803542137,-0.005578198935836554,-0.003594407346099615
1772566902907279400,5.226279296875,-0.023089278489351273,-0.0011472590267658234,0.007509281858801842
1772566902917308400,5.236308349609375,-0.012630246579647064,0.004854707047343254,0.024791331961750984
1772566902927337500,5.24633740234375,-0.0046148537658154964,0.013467468321323395,0.024199936538934708
1772566902937366300,5.2563662109375,0.0012017562985420227,0.015527689829468727,-0.00036852341145277023
1772566902947395300,5.266395263671875,0.005162322893738747,0.0067945439368486404,-0.027148576453328133
1772566902957425400,5.27642529296875,0.006282448768615723,0.007060060277581215,-0.025673985481262207
1772566902967454500,5.286454345703125,0.00017032306641340256,0.011279395781457424,-0.003413769882172346
1772566902977483300,5.296483154296875,-0.005829512141644955,0.008404512889683247,0.01176997646689415
1772566902987512300,5.30651220703125,-0.013571331277489662,-0.004165055230259895,0.006300564855337143
1772566902997541400,5.316541259765625,-0.012183024547994137,-0.00184650719165802,0.0007286984473466873
1772566903007570200,5.326570068359375,-0.0137184988707304,0.006692433729767799,0.003656642511487007
1772566903017599200,5.33659912109375,-0.013430345803499222,0.011901842430233955,0.00394266564399004
1772566903027628500,5.346628662109375,-0.015112444758415222,0.013049231842160225,-0.005932462401688099
1772566903037657300,5.3566572265625,-0.009480924345552921,0.017361421138048172,-0.011467842385172844
1772566903047686400,5.366686279296875,-0.004261832684278488,0.021834537386894226,-0.009043578989803791
1772566903057715500,5.376715576171875,-0.0020332997664809227,0.016222991049289703,-0.00566695723682642
1772566903067744300,5.386744140625,0.002387290820479393,0.003105037845671177,-0.009773473255336285
1772566903077773300,5.396773193359375,0.01470254547894001,-0.002449250780045986,-0.00591268902644515
1772566903087802400,5.40680224609375,0.026745036244392395,-0.0028283679857850075,0.012869847007095814
1772566903097831200,5.4168310546875,0.02364804595708847,-0.003456873819231987,0.023915041238069534
1772566903107860200,5.426860107421875,0.022738967090845108,-0.005359133239835501,0.01609775424003601
1772566903117889300,5.43688916015625,0.017743941396474838,-0.002908758819103241,-0.0032178848050534725
1772566903127918300,5.44691845703125,0.013394336216151714,0.0031613660976290703,-0.008077590726315975
1772566903137947400,5.456947509765625,0.005655988119542599,0.005333706736564636,-0.0005501662380993366
1772566903147976400,5.4669765625,0.00009795278310775757,0.006726314313709736,0.0016702208667993546
1772566903158005200,5.477005126953125,-0.0023175347596406937,0.00705068651586771,0.0009554289281368256
1772566903168034300,5.487034423828125,-0.010668950155377388,0.003152105025947094,-0.007837874814867973
1772566903178063400,5.4970634765625,-0.014734532684087753,0.008178021758794785,-0.01491469331085682
1772566903188092200,5.507092041015625,-0.020410794764757156,0.006251757964491844,-0.024997686967253685
1772566903198121200,5.517121337890625,-0.019430218264460564,0.006751900538802147,-0.021128647029399872
1772566903208151300,5.5271513671875,-0.019857238978147507,0.0038032056763768196,-0.010239318013191223
1772566903218180400,5.537180419921875,-0.017264652997255325,0.001296105794608593,-0.006653105840086937
1772566903228209200,5.547209228515625,-0.017573710530996323,0.00004042778164148331,-0.0029145986773073673
1772566903238238200,5.55723828125,-0.01773776113986969,-0.0069940462708473206,-0.002289288677275181
1772566903248267500,5.567267578125,-0.02454916574060917,-0.0066718473099172115,-0.004404433071613312
1772566903258296300,5.57729638671875,-0.02865789085626602,-0.007146156392991543,-0.008433529175817966
1772566903268325400,5.587325439453125,-0.02875702828168869,-0.006448024418205023,-0.007616154849529266
1772566903278354400,5.5973544921875,-0.02291432023048401,-0.003022667020559311,-0.00027168914675712585
1772566903288383200,5.60738330078125,-0.01616935059428215,-0.00746531505137682,0.010940592736005783
1772566903298412300,5.617412353515625,-0.009203584864735603,-0.01129227690398693,0.0015082089230418205
1772566903308441300,5.62744140625,-0.008441445417702198,-0.01322295144200325,-0.0005178628489375114
1772566903318470100,5.63747021484375,-0.009013226255774498,-0.016866154968738556,-0.0039040721021592617
1772566903328499200,5.647499267578125,-0.014120370149612427,-0.012709228321909904,0.002301093190908432
1772566903338528500,5.657528564453125,-0.022605201229453087,-0.009780815802514553,-0.002489667385816574
1772566903348557300,5.667557373046875,-0.029656291007995605,-0.005557355470955372,-0.000722724013030529
1772566903358586400,5.67758642578125,-0.030740994960069656,-0.0011026859283447266,-0.002882814034819603
1772566903368615400,5.687615478515625,-0.034514933824539185,0.00030473433434963226,-0.009552464820444584
1772566903378644200,5.697644287109375,-0.032661907374858856,-0.0011458899825811386,-0.010854484513401985
1772566903388673300,5.70767333984375,-0.029809869825839996,-0.0021071452647447586,-0.007542639970779419
1772566903398702300,5.717702392578125,-0.027915295213460922,-0.005528775043785572,-0.007539710495620966
1772566903408731100,5.727731201171875,-0.022106030955910683,-0.008924510329961777,-0.001969096250832081
1772566903418760200,5.73776025390625,-0.02083170786499977,-0.009100811555981636,0.008442532271146774
1772566903428789500,5.74778955078125,-0.01717236265540123,-0.006381005980074406,0.01732417196035385
1772566903438818300,5.757818359375,-0.011951766908168793,-0.006844129879027605,0.011423405259847641
1772566903448847400,5.767847412109375,-0.0019036317244172096,-0.000829705037176609,0.006452585570514202
1772566903458877400,5.77787744140625,0.0038748951628804207,0.007040201686322689,-0.003055165521800518
1772566903468906500,5.787906494140625,0.009216122329235077,0.011831514537334442,-0.010930212214589119
1772566903478935300,5.797935302734375,0.014822607859969139,0.02035575918853283,-0.011934489943087101
1772566903488964400,5.80796435546875,0.01939057558774948,0.023646153509616852,-0.010084313340485096
1772566903498993400,5.817993408203125,0.019302956759929657,0.023051202297210693,-0.005074907094240189
1772566903509022700,5.828022705078125,0.02054041437804699,0.022639421746134758,-0.001508480403572321
1772566903519051800,5.8380517578125,0.017908679321408272,0.018596742302179337,-0.006426273845136166
1772566903529080800,5.848080810546875,0.016457758843898773,0.01718878746032715,-0.0077120172791182995
1772566903539109600,5.858109619140625,0.019382178783416748,0.013716558925807476,-0.013562715612351894
1772566903549138700,5.868138671875,0.02042379602789879,0.013158509507775307,-0.014633366838097572
1772566903559167700,5.878167724609375,0.018857058137655258,0.01462271623313427,-0.012649312615394592
1772566903569196800,5.88819677734375,0.02329595759510994,0.013911767862737179,-0.009007644839584827
1772566903579225900,5.898225830078125,0.023576654493808746,0.015448412857949734,-0.0017539933323860168
1772566903589255000,5.9082548828125,0.02138744294643402,0.017489127814769745,0.002526255324482918
1772566903599283700,5.91828369140625,0.019655589014291763,0.021171484142541885,0.0020713871344923973
1772566903609312800,5.928312744140625,0.01744021847844124,0.025691691786050797,0.0013519423082470894
1772566903619341800,5.938341796875,0.017418116331100464,0.02732260897755623,-0.007145139388740063
1772566903629370600,5.94837060546875,0.014021405018866062,0.029307972639799118,-0.012271598912775517
1772566903639399700,5.958399658203125,0.009642369113862514,0.02553320676088333,-0.011891566216945648
1772566903649428700,5.9684287109375,0.007902144454419613,0.02191338688135147,-0.0035173329524695873
1772566903659457800,5.978457763671875,0.007018508389592171,0.013610981404781342,0.0011908691376447678
1772566903669486800,5.98848681640625,0.0016433177515864372,0.006626320071518421,0.0065517788752913475
1772566903679516000,5.998515869140625,-0.004864382557570934,0.0002363314852118492,0.004480372183024883
1772566903689544700,6.008544677734375,-0.011525481007993221,-0.008133184164762497,0.0013666041195392609
1772566903699573800,6.01857373046875,-0.011959309689700603,-0.023846367374062538,-0.0059890467673540115
1772566903709602800,6.028602783203125,-0.013389742001891136,-0.034513022750616074,-0.004529758356511593
1772566903719633000,6.0386328125,-0.01576528139412403,-0.03557136282324791,0.0003286469727754593
1772566903729661700,6.04866162109375,-0.01736944541335106,-0.03316892310976982,0.0013230228796601295
1772566903739690800,6.058690673828125,-0.026785049587488174,-0.024845214560627937,0.0005645547062158585
1772566903749719800,6.0687197265625,-0.037791915237903595,-0.010051847435534,0.006924825720489025
1772566903759748600,6.07874853515625,-0.04658620432019234,0.0010444791987538338,-0.004912392236292362
1772566903769777700,6.088777587890625,-0.054401591420173645,0.010388876311480999,-0.009467557072639465
1772566903779807000,6.098806884765625,-0.06294421851634979,0.02208681032061577,-0.011493955738842487
1772566903789835800,6.108835693359375,-0.06952662020921707,0.02675669454038143,-0.01410760823637247
1772566903799864800,6.11886474609375,-0.07519222795963287,0.02693805657327175,-0.017308462411165237
1772566903809894000,6.128893798828125,-0.08170855045318604,0.02958780899643898,-0.013134762644767761
1772566903819922700,6.138922607421875,-0.08023369312286377,0.029237601906061172,-0.012390941381454468
1772566903829951700,6.14895166015625,-0.0793858990073204,0.020522702485322952,-0.015858232975006104
1772566903839980800,6.158980712890625,-0.0758470892906189,0.015725284814834595,-0.013362851925194263
1772566903850009600,6.169009521484375,-0.071137934923172,0.008880927227437496,-0.007089311257004738
1772566903860038700,6.17903857421875,-0.061322856694459915,0.0013484414666891098,-0.0074690780602395535
1772566903870067700,6.189067626953125,-0.045146550983190536,-0.0023115361109375954,-0.008859856054186821
1772566903880096800,6.1990966796875,-0.037791695445775986,-0.0019687870517373085,-0.01570897363126278
1772566903890125800,6.209125732421875,-0.026344627141952515,0.004783370532095432,-0.018832705914974213
1772566903900155000,6.21915478515625,-0.019138645380735397,0.013512945733964443,-0.02153102308511734
1772566903910183700,6.22918359375,-0.012638168409466743,0.017485134303569794,-0.031484443694353104
1772566903920212700,6.239212646484375,-0.010669825598597527,0.02065163478255272,-0.028902772814035416
1772566903930241800,6.24924169921875,-0.004755173344165087,0.013935591094195843,-0.022388102486729622
1772566903940270600,6.2592705078125,0.006407998502254486,0.0006693210452795029,-0.004873557481914759
1772566903950299600,6.269299560546875,0.01002472173422575,-0.00796919222921133,0.007764867506921291
1772566903960328700,6.27932861328125,0.013771257363259792,-0.024798505008220673,0.008310016244649887
1772566903970358000,6.28935791015625,0.01618347316980362,-0.031211007386446,0.001957278698682785
1772566903980386800,6.29938671875,0.018030643463134766,-0.029619768261909485,-0.004380777943879366
1772566903990416600,6.309416748046875,0.015195830725133419,-0.022470742464065552,-0.00809013843536377
1772566904000446000,6.319446044921875,0.01564936712384224,-0.017958281561732292,0.004839242435991764
1772566904010474800,6.329474853515625,0.008479869924485683,-0.012213044799864292,0.007154595106840134
1772566904020503800,6.33950390625,0.007240435108542442,-0.008638815954327583,0.0071657802909612656
1772566904030532900,6.349532958984375,0.001694241538643837,-0.007235554978251457,0.0050201332196593285
1772566904040561700,6.359561767578125,-0.005884581711143255,0.0005853502079844475,-0.0077816820703446865
1772566904050590700,6.3695908203125,-0.014540882781147957,0.001165042631328106,-0.010323622263967991
1772566904060619800,6.379619873046875,-0.0247221477329731,0.004236198961734772,-0.0030800900422036648
1772566904070648600,6.389648681640625,-0.026152141392230988,0.0008713323622941971,0.004019521176815033
1772566904080677600,6.399677734375,-0.029813989996910095,-0.002319933846592903,0.009312554262578487
1772566904090707000,6.40970703125,-0.03038695827126503,-0.004062210209667683,0.011926556937396526
1772566904100735700,6.41973583984375,-0.026668652892112732,-0.0027932142838835716,0.0048979418352246284
1772566904110764800,6.429764892578125,-0.02855123020708561,0.006411449983716011,-0.004449409432709217
1772566904120793900,6.4397939453125,-0.025891797617077827,0.013038724660873413,-0.012848487123847008
1772566904130822700,6.44982275390625,-0.020429417490959167,0.02116888016462326,-0.019127923995256424
1772566904140851700,6.459851806640625,-0.012703852728009224,0.025303706526756287,-0.022215858101844788
1772566904150880800,6.469880859375,-0.0033850637264549732,0.022819815203547478,-0.016558879986405373
1772566904160909800,6.479909912109375,-0.0004995283670723438,0.02126985602080822,-0.006099315360188484
1772566904170938600,6.489938720703125,0.0021562427282333374,0.02362580969929695,-0.000021168962121009827
1772566904180967700,6.4999677734375,-0.009547018446028233,0.02301328256726265,0.005586116574704647
1772566904190997000,6.5099970703125,-0.01725081168115139,0.024023300036787987,0.00508889090269804
1772566904201025800,6.52002587890625,-0.020726501941680908,0.022696776315569878,-0.002395124640315771
1772566904211054800,6.530054931640625,-0.022441018372774124,0.015851590782403946,-0.010454148054122925
1772566904221084000,6.540083984375,-0.02054910734295845,0.00820938590914011,-0.014192161150276661
1772566904231112700,6.55011279296875,-0.014338568784296513,0.0014203516766428947,-0.01763204112648964
1772566904241141800,6.560141845703125,-0.014402484521269798,-0.008090328425168991,-0.012179752811789513
1772566904251171800,6.570171875,-0.017648829147219658,-0.005959634203463793,-0.0008689146488904953
1772566904261200600,6.58020068359375,-0.01706160232424736,-0.0023814113810658455,0.012164328247308731
1772566904271229700,6.590229736328125,-0.018261680379509926,-0.0007005678489804268,0.01020563580095768
1772566904281258800,6.6002587890625,-0.010926536284387112,0.0077493758872151375,0.0067491186782717705
1772566904291287600,6.61028759765625,-0.006878122687339783,0.010660179890692234,-0.004807821474969387
1772566904301316900,6.62031689453125,-0.0029789884574711323,0.013258892111480236,-0.014436746947467327
1772566904311346000,6.630345947265625,0.004844113253057003,0.011084310710430145,-0.014374475926160812
1772566904321375000,6.640375,0.013147850520908833,0.0045742131769657135,-0.010254832915961742
1772566904331403800,6.65040380859375,0.014300309121608734,-0.005520205479115248,-0.006227381993085146
1772566904341432800,6.660432861328125,0.02186661586165428,-0.010927220806479454,0.004778663627803326
1772566904351462000,6.6704619140625,0.01631123013794422,-0.012906675226986408,0.012328865937888622
1772566904361490700,6.68049072265625,0.007973404601216316,-0.019233547151088715,0.011242561973631382
1772566904371519700,6.690519775390625,0.001832183450460434,-0.016427967697381973,0.01049125287681818
1772566904381548800,6.700548828125,-0.0022688182070851326,-0.014557896181941032,0.007372424006462097
1772566904391577600,6.71057763671875,-0.0063654761761426926,-0.009011201560497284,0.007072401233017445
1772566904401607000,6.72060693359375,-0.005339626222848892,-0.007321958430111408,-0.002122695092111826
1772566904411636000,6.730635986328125,-0.00003158207982778549,-0.0032150428742170334,-0.004270288161933422
1772566904421664800,6.740664794921875,-0.00039963098242878914,0.0009709140285849571,-0.002658543176949024
1772566904431693800,6.75069384765625,-0.0026297145523130894,0.00229520071297884,-0.007554374635219574
1772566904441723000,6.760722900390625,0.001804448664188385,0.003331170417368412,-0.004935421980917454
1772566904451751700,6.770751708984375,0.00013475213199853897,0.004530171863734722,0.005836063995957375
1772566904461780700,6.78078076171875,-0.00340938288718462,0.0075981346890330315,0.012650560587644577
1772566904471809800,6.790809814453125,0.00295987818390131,0.010553647764027119,0.01220161747187376
1772566904481838600,6.800838623046875,0.006436635740101337,0.00851100217550993,0.00470561720430851
1772566904491868000,6.810867919921875,0.010804612189531326,0.002180931158363819,-0.0036253337748348713
1772566904501897000,6.82089697265625,0.019039904698729515,-0.0024998411536216736,-0.010407872498035431
1772566904511925500,6.830925537109375,0.024201320484280586,-0.0053247991017997265,-0.0038311327807605267
1772566904521954600,6.84095458984375,0.023536326363682747,-0.007658260874450207,0.0005790619179606438
1772566904531984400,6.850984375,0.016960814595222473,-0.00567068113014102,0.006505378521978855
1772566904542013400,6.861013427734375,-0.0002655778080224991,-0.002396058291196823,0.006280341185629368
1772566904552042500,6.87104248046875,-0.015069006942212582,0.012082443572580814,0.004497244954109192
1772566904562071300,6.8810712890625,-0.026615940034389496,0.026148725301027298,0.0037923064082860947
1772566904572100400,6.891100341796875,-0.03134927153587341,0.033257175236940384,-0.001458898652344942
1772566904582129400,6.90112939453125,-0.024389367550611496,0.03478715941309929,-0.016808293759822845
1772566904592158500,6.911158447265625,-0.018543273210525513,0.03164955973625183,-0.017777446657419205
1772566904602187500,6.9211875,-0.015560531988739967,0.023444892838597298,-0.01799822226166725
1772566904612216600,6.931216552734375,-0.018776051700115204,0.010441247373819351,-0.015808995813131332
1772566904622245600,6.94124560546875,-0.015216736122965813,0.0021023573353886604,-0.004470853600651026
1772566904632274400,6.9512744140625,-0.012118397280573845,-0.008306348696351051,0.003912338986992836
1772566904642303500,6.961303466796875,-0.010095726698637009,-0.010843009687960148,0.013954587280750275
1772566904652332500,6.97133251953125,-0.004773207474499941,-0.011339563876390457,0.015935678035020828
1772566904662361300,6.981361328125,0.0031302552670240402,-0.010349134914577007,0.01429703552275896
1772566904672390400,6.991390380859375,0.011658981442451477,-0.00241654459387064,0.014997587539255619
1772566904682419500,7.00141943359375,0.014244111254811287,0.0033257631585001945,0.003635742701590061
1772566904692448300,7.0114482421875,0.020267032086849213,0.007922030054032803,-0.00949541013687849
1772566904702477600,7.0214775390625,0.023103831335902214,0.01211837399750948,-0.01987641304731369
1772566904712506600,7.031506591796875,0.0164501890540123,0.013239030726253986,-0.020122487097978592
1772566904722535400,7.041535400390625,0.014901561662554741,0.005954752676188946,-0.010771863162517548
1772566904732564500,7.051564453125,0.02533608302474022,0.005051429383456707,0.01855798438191414
1772566904742593500,7.061593505859375,0.02811349183320999,0.0012763990089297295,0.04032879322767258
1772566904752622300,7.071622314453125,0.03566758707165718,-0.010518291965126991,0.03337106481194496
1772566904762651400,7.0816513671875,0.042671166360378265,-0.022040724754333496,0.013409607112407684
1772566904772680400,7.091680419921875,0.04807639867067337,-0.023934360593557358,0.00008193682879209518
1772566904782709200,7.101709228515625,0.04957602918148041,-0.01781601272523403,0.0063528819009661674
1772566904792738600,7.111738525390625,0.04448834806680679,-0.010957133956253529,0.011792332865297794
1772566904802768400,7.121768310546875,0.04188058152794838,-0.0020163701847195625,0.009626383893191814
1772566904812797400,7.13179736328125,0.04102573171257973,0.009199516847729683,0.004433929920196533
1772566904822826500,7.141826416015625,0.03762354329228401,0.014870451763272285,-0.004545183852314949
1772566904832855600,7.15185546875,0.0362761989235878,0.007830760441720486,-0.014969450421631336
1772566904842884600,7.161884521484375,0.04182063788175583,0.0018660789355635643,-0.01496359147131443
1772566904852913400,7.171913330078125,0.0470062717795372,-0.007150211837142706,-0.003675025887787342
1772566904862942500,7.1819423828125,0.0427236445248127,-0.01302780769765377,0.014002237468957901
1772566904872971500,7.191971435546875,0.036618202924728394,-0.029439222067594528,0.01800699532032013
1772566904883000300,7.202000244140625,0.030471093952655792,-0.03450162708759308,0.026035360991954803
1772566904893029400,7.212029296875,0.027555163949728012,-0.029991526156663895,0.025706203654408455
1772566904903058400,7.222058349609375,0.02422194927930832,-0.019755933433771133,0.024405518546700478
1772566904913087500,7.23208740234375,0.018847327679395676,-0.006298779509961605,0.006830533966422081
1772566904923116500,7.242116455078125,0.013871745206415653,0.005726991221308708,-0.007726571056991816
1772566904933145600,7.2521455078125,0.004355601966381073,0.02241731621325016,-0.017644740641117096
1772566904943174400,7.26217431640625,-0.0037958011962473392,0.02627277560532093,-0.020149176940321922
1772566904953203500,7.272203369140625,-0.013491379097104073,0.02728862129151821,-0.018939340487122536
1772566904963232500,7.282232421875,-0.01600540429353714,0.01920965500175953,-0.011154920794069767
1772566904973261300,7.29226123046875,-0.01058786828070879,0.017260510474443436,-0.002839495427906513
1772566904983290400,7.302290283203125,-0.0036109192296862602,0.01547832228243351,0.001554187387228012
1772566904993319400,7.3123193359375,0.003792145289480686,0.00932240393012762,-0.006134013645350933
1772566905003348200,7.32234814453125,0.006888602860271931,0.006564968265593052,-0.006222164258360863
1772566905013377500,7.33237744140625,0.008522283285856247,-0.0009040748700499535,-0.008317024447023869
1772566905023406600,7.342406494140625,0.005799466744065285,-0.015575429424643517,-0.011929603293538094
1772566905033435400,7.352435302734375,0.006371862255036831,-0.02633819356560707,0.0038268407806754112
1772566905043464400,7.36246435546875,0.003320944495499134,-0.03752027451992035,0.017109889537096024
1772566905053493500,7.372493408203125,-0.000050084665417671204,-0.04115122929215431,0.025759035721421242
1772566905063522300,7.382522216796875,0.0005043856799602509,-0.04191023111343384,0.018800729885697365
1772566905073551400,7.39255126953125,-0.0046140640042722225,-0.03854164853692055,0.00615161657333374
1772566905083580400,7.402580322265625,-0.012488499283790588,-0.03307391330599785,-0.0067484695464372635
1772566905093610500,7.412610595703125,-0.01455257274210453,-0.03176020830869675,-0.012961514294147491
1772566905103639300,7.422639404296875,-0.011079810559749603,-0.033547189086675644,-0.008971033617854118
1772566905113668400,7.43266845703125,-0.011978218331933022,-0.032554905861616135,0.006019412539899349
1772566905123697400,7.442697509765625,-0.013937239535152912,-0.027840308845043182,0.01623236946761608
1772566905133726500,7.4527265625,-0.0175057053565979,-0.030663615092635155,0.018500667065382004
1772566905143755500,7.462755615234375,-0.015725381672382355,-0.022790512070059776,0.016044434159994125
1772566905153784600,7.47278466796875,-0.01847868040204048,-0.015414102002978325,0.0005107894539833069
1772566905163813400,7.4828134765625,-0.018028341233730316,-0.013317395001649857,-0.009214009158313274
1772566905173842400,7.492842529296875,-0.01468407642096281,-0.015577064827084541,-0.01891859620809555
1772566905183871500,7.50287158203125,-0.006167553830891848,-0.01780027151107788,-0.015133712440729141
1772566905193900300,7.512900390625,0.004730435088276863,-0.02406071126461029,-0.0015148250386118889
1772566905203929300,7.522929443359375,0.007776559330523014,-0.03091435506939888,0.011856374330818653
1772566905213958400,7.53295849609375,0.01292839553207159,-0.03434254229068756,0.02701735869050026
1772566905223987500,7.542987548828125,0.023234564810991287,-0.03692660480737686,0.03734749183058739
1772566905234016500,7.5530166015625,0.021526698023080826,-0.02541380189359188,0.03741076588630676
1772566905244045600,7.563045654296875,0.02021961659193039,-0.011682010255753994,0.03264211118221283
1772566905254074400,7.573074462890625,0.01527650561183691,-0.00216809194535017,0.018215611577033997
1772566905264103400,7.583103515625,0.009656702168285847,0.0054908934980630875,0.004491809755563736
1772566905274132500,7.593132568359375,0.0021791458129882812,0.012583012692630291,-0.002969820983707905
1772566905284161300,7.603161376953125,-0.007284663151949644,0.017563391476869583,-0.003427884541451931
1772566905294190300,7.6131904296875,-0.010665099136531353,0.017900705337524414,0.0026224469766020775
1772566905304219400,7.623219482421875,-0.015608458779752254,0.009917880408465862,0.0028107324615120888
1772566905314248400,7.63324853515625,-0.017382018268108368,0.005228652618825436,0.004490915685892105
1772566905324277500,7.643277587890625,-0.016445651650428772,0.003705856390297413,0.0009369272738695145
1772566905334306600,7.653306640625,-0.0119228046387434,-0.004675909411162138,-0.0038607572205364704
1772566905344335600,7.663335693359375,-0.004621216095983982,-0.014989533461630344,0.0008652880787849426
1772566905354364400,7.673364501953125,0.0005258070304989815,-0.02877231314778328,0.0036573316901922226
1772566905364393500,7.6833935546875,0.0011127674952149391,-0.038671284914016724,0.013924882747232914
1772566905374422500,7.693422607421875,0.006966831162571907,-0.044941484928131104,0.02294529601931572
1772566905384452400,7.703452392578125,0.01314856018871069,-0.0446794256567955,0.0249922014772892
1772566905394481400,7.7134814453125,0.025170668959617615,-0.04209817573428154,0.019215019419789314
1772566905404510500,7.723510498046875,0.03415271267294884,-0.027507781982421875,0.006124516949057579
1772566905414539300,7.733539306640625,0.039702821522951126,-0.015061930753290653,-0.006465486250817776
1772566905424568300,7.743568359375,0.044443245977163315,-0.0032793069258332253,-0.017275789752602577
1772566905434597400,7.753597412109375,0.03843675181269646,-0.0077369059436023235,-0.02626742050051689
1772566905444626400,7.76362646484375,0.0362420417368412,-0.016561290249228477,-0.02517738938331604
1772566905454655500,7.773655517578125,0.03587079793214798,-0.020509425550699234,-0.012302602641284466
1772566905464684500,7.7836845703125,0.03726549446582794,-0.03433123230934143,0.008270315825939178
1772566905474713300,7.79371337890625,0.032177120447158813,-0.042894333600997925,0.021737629547715187
1772566905484742400,7.803742431640625,0.02838105335831642,-0.04263920336961746,0.017315451055765152
1772566905494771500,7.813771484375,0.025108877569437027,-0.03954687342047691,0.012592523358762264
1772566905504800500,7.823800537109375,0.016147874295711517,-0.03245168179273605,0.0019310908392071724
1772566905514829300,7.833829345703125,0.008418776094913483,-0.024475866928696632,-0.0021034092642366886
1772566905524858400,7.8438583984375,-0.008731980808079243,-0.015415260568261147,-0.0014876867644488811
1772566905534887400,7.853887451171875,-0.018908105790615082,-0.008754334412515163,0.006747430190443993
1772566905544916500,7.86391650390625,-0.02147752419114113,0.0005877688527107239,0.015677807852625847
1772566905554945500,7.873945556640625,-0.02248268947005272,0.00717981718480587,0.016350621357560158
1772566905564974300,7.883974365234375,-0.02626997046172619,0.011686950922012329,0.00397145003080368
1772566905575003400,7.89400341796875,-0.022942133247852325,0.020903464406728745,-0.0026548821479082108
1772566905585032400,7.904032470703125,-0.02778349444270134,0.02550460770726204,-0.011181524954736233
1772566905595061200,7.914061279296875,-0.030515674501657486,0.027137964963912964,-0.013620789162814617
1772566905605090300,7.92409033203125,-0.029355335980653763,0.020989257842302322,-0.011135261505842209
1772566905615119400,7.934119384765625,-0.030380234122276306,0.015480495058000088,-0.0011333636939525604
1772566905625148400,7.9441484375,-0.029655322432518005,0.008015654049813747,0.009661759249866009
1772566905635177500,7.954177490234375,-0.02436693012714386,0.0027848752215504646,0.018621884286403656
1772566905645206500,7.96420654296875,-0.016131635755300522,0.005147632211446762,0.026834804564714432
1772566905655235300,7.9742353515625,-0.008438591845333576,0.01126976776868105,0.023857954889535904
1772566905665264400,7.984264404296875,-0.002313320990651846,0.028621327131986618,0.01242740172892809
1772566905675293400,7.99429345703125,0.004245168529450893,0.03637315332889557,-0.004994024522602558
1772566905685321200,8.0043212890625,0.0024362513795495033,0.04685477167367935,-0.012879891321063042
1772566905695350500,8.0143505859375,0.0008980100974440575,0.04611334949731827,-0.013466851785779
1772566905705379600,8.024379638671874,0.0005838833749294281,0.04411569982767105,-0.00878293626010418
1772566905715408400,8.034408447265625,0.005872388370335102,0.038446094840765,0.00010776054114103317
1772566905725437400,8.0444375,0.013374913483858109,0.03240496665239334,0.01166431326419115
1772566905735466500,8.054466552734375,0.017990970984101295,0.022802138701081276,0.01195646170526743
1772566905745496600,8.06449658203125,0.019078128039836884,0.00856692809611559,0.012730787508189678
1772566905755524400,8.0745244140625,0.016875427216291428,0.0007915636524558067,0.010911048389971256
1772566905765554400,8.084554443359375,0.007920549251139164,-0.008391281589865685,0.01244369801133871
1772566905775583500,8.09458349609375,0.0004214523360133171,-0.008462279103696346,0.015912214294075966
1772566905785612300,8.1046123046875,-0.0010880278423428535,-0.01101731602102518,0.01166393980383873
1772566905795641300,8.114641357421876,-0.0009221239015460014,-0.004581019282341003,0.010182843543589115
1772566905805670400,8.12467041015625,-0.0017785965465009212,0.00015860889106988907,0.005765990354120731
1772566905815699500,8.134699462890625,-0.005114672239869833,0.0016945777460932732,0.00035792402923107147
1772566905825728500,8.144728515625,-0.0026251492090523243,-0.003464498557150364,-0.005953767336905003
1772566905835757600,8.154757568359376,-0.0016517499461770058,0.004154554568231106,-0.0019514639861881733
1772566905845786400,8.164786376953124,-0.007518960162997246,0.0024770302698016167,0.0012896033003926277
1772566905855815400,8.1748154296875,-0.009290129877626896,0.0073141781613230705,0.000005403999239206314
1772566905865844500,8.184844482421875,-0.0023446055129170418,0.009215408004820347,-0.006701766978949308
1772566905875873300,8.194873291015625,-0.0026867156848311424,0.014941508881747723,-0.002726940903812647
1772566905885902300,8.20490234375,0.00629399623721838,0.018109340220689774,-0.004054260440170765
1772566905895931400,8.214931396484374,0.012670925818383694,0.01729176752269268,-0.012818269431591034
1772566905905960400,8.22496044921875,0.021802637726068497,0.019672632217407227,-0.015059318393468857
1772566905915989500,8.234989501953125,0.02399911731481552,0.021515484899282455,-0.004043932072818279
1772566905926018600,8.2450185546875,0.017751872539520264,0.015121500007808208,-0.002513413317501545
1772566905936047400,8.25504736328125,0.012237372808158398,0.004590333439409733,0.003972773440182209
1772566905946076400,8.265076416015624,0.00028217583894729614,-0.005225545261055231,0.012532705441117287
1772566905956105500,8.27510546875,-0.009942231699824333,-0.010461851954460144,0.014974825084209442
1772566905966134300,8.28513427734375,-0.018779398873448372,-0.01825905591249466,0.008626380935311317
1772566905976163300,8.295163330078125,-0.023460200056433678,-0.017304783686995506,-0.000849645584821701
1772566905986192400,8.3051923828125,-0.028763551265001297,-0.013894481584429741,0.002116597257554531
1772566905996221200,8.31522119140625,-0.02648415043950081,-0.011740250512957573,0.004910786636173725
1772566906006250500,8.32525048828125,-0.024291016161441803,-0.006129507441073656,0.006252403371036053
1772566906016279600,8.335279541015625,-0.02270563691854477,-0.0026583438739180565,0.004384196363389492
1772566906026308400,8.345308349609375,-0.02594902738928795,0.002449939027428627,-0.004444912075996399
1772566906036337400,8.35533740234375,-0.030503567308187485,0.0023982739076018333,-0.00536982761695981
1772566906046366500,8.365366455078124,-0.030492771416902542,0.00023338105529546738,-0.0101791862398386
1772566906056395300,8.375395263671875,-0.030458148568868637,-0.0035850591957569122,-0.006350093055516481
1772566906066425300,8.38542529296875,-0.028579996898770332,-0.0035234270617365837,0.008345158770680428
1772566906076454400,8.395454345703126,-0.025710174813866615,-0.009234575554728508,0.018971703946590424
1772566906086483500,8.4054833984375,-0.02816876582801342,-0.021879084408283234,0.016014309599995613
1772566906096512300,8.41551220703125,-0.01890069991350174,-0.03134981542825699,0.012306390330195427
1772566906106541300,8.425541259765625,-0.016731780022382736,-0.029619114473462105,0.012117883190512657
1772566906116570400,8.4355703125,-0.01857176050543785,-0.027108021080493927,0.005841610953211784
1772566906126599400,8.445599365234376,-0.018675468862056732,-0.021759122610092163,0.0017495835199952126
1772566906136628500,8.45562841796875,-0.021937308833003044,-0.011638312600553036,0.002629757858812809
1772566906146657500,8.465657470703125,-0.019844532012939453,0.0010134689509868622,0.005916588939726353
1772566906156686300,8.475686279296875,-0.021668266505002975,0.0027011148631572723,0.0012446055188775063
1772566906166715400,8.48571533203125,-0.01999214105308056,0.007567928172647953,0.0009692246094346046
1772566906176744400,8.495744384765626,-0.017882652580738068,0.010313647799193859,-0.0038287262432277203
1772566906186773200,8.505773193359374,-0.017944585531949997,0.007109338417649269,-0.00844891183078289
1772566906196802300,8.51580224609375,-0.017143771052360535,-0.0036202706396579742,-0.011393302120268345
1772566906206831400,8.525831298828125,-0.011258956044912338,-0.013343801721930504,0.0020204754546284676
1772566906216860400,8.5358603515625,-0.007098033558577299,-0.019254421815276146,0.009642442688345909
1772566906226889500,8.545889404296876,-0.0048098936676979065,-0.0238229688256979,0.019669920206069946
1772566906236918500,8.55591845703125,-0.007464266382157803,-0.024892760440707207,0.01751222461462021
1772566906246947300,8.565947265625,-0.014176096767187119,-0.01648411899805069,0.0192267969250679
1772566906256976400,8.575976318359375,-0.01517930906265974,-0.009169215336441994,0.011082849465310574
1772566906267005400,8.58600537109375,-0.01532992348074913,0.008923547342419624,0.006096241995692253
1772566906277034200,8.5960341796875,-0.013769309967756271,0.018060320988297462,-0.007286408916115761
1772566906287063300,8.606063232421874,-0.008589869365096092,0.02150591090321541,-0.016934560611844063
1772566906297093400,8.61609326171875,-0.0005172952078282833,0.02013811469078064,-0.020270168781280518
1772566906307122400,8.626122314453125,0.007976057939231396,0.01105167344212532,-0.013578977435827255
1772566906317151200,8.636151123046876,0.015543544664978981,0.0032233409583568573,-0.0007890034466981888
1772566906327180300,8.64618017578125,0.016429046168923378,-0.008927064947783947,0.009155772626399994
1772566906337209300,8.656209228515625,0.010414923541247845,-0.009931248612701893,0.007665389217436314
1772566906347238400,8.66623828125,0.008685200475156307,-0.009774387814104557,0.00601556058973074
1772566906357267500,8.676267333984375,0.003908868879079819,-0.0043285926803946495,0.0006022769957780838
1772566906367296500,8.686296630859376,-0.001245945692062378,0.0029362449422478676,-0.005775993689894676
1772566906377325300,8.6963251953125,-0.005422885529696941,0.004722508601844311,-0.010538037866353989
1772566906387354400,8.706354248046875,-0.0016390662640333176,0.004369906149804592,-0.008420292288064957
1772566906397383400,8.716383544921875,0.0019563408568501472,0.010039253160357475,0.006501452997326851
1772566906407412200,8.726412109375,0.0007816208526492119,0.012192951515316963,0.016522927209734917
1772566906417441300,8.736441162109376,-0.003097245004028082,0.006388792768120766,0.010075381025671959
1772566906427470300,8.74647021484375,-0.0048067281022667885,0.0016925754025578499,-0.0010992423631250858
1772566906437499400,8.75649951171875,-0.010518853552639484,0.006286664865911007,0.0020349714905023575
1772566906447528400,8.766528564453125,-0.006665525957942009,0.011747743003070354,0.008816712535917759
1772566906457557500,8.7765576171875,-0.006570451892912388,0.012250219471752644,0.005367879755795002
1772566906467586600,8.786586669921874,-0.0034995609894394875,0.004384308122098446,-0.014165873639285564
1772566906477615400,8.796615478515625,0.0009109685197472572,0.015145198442041874,-0.018369127064943314
1772566906487644400,8.80664453125,0.004844989627599716,0.00694026704877615,-0.006237895227968693
1772566906497674500,8.816674560546875,0.008267397992312908,0.01372524257749319,0.019017236307263374
1772566906507703300,8.826703369140626,0.007926779799163342,0.010756882838904858,0.02573586069047451
1772566906517733000,8.836733154296875,0.009858273901045322,0.00674423947930336,0.012994250282645226
1772566906527762000,8.846761962890625,0.009745622985064983,0.0042989253997802734,-0.0029186694882810116
1772566906537791000,8.856791015625,0.006452159956097603,0.009070687927305698,-0.007310971152037382
1772566906547820000,8.866820068359376,0.006344035267829895,0.002888158895075321,-0.004480296745896339
1772566906557848800,8.876848876953124,0.006221313029527664,-0.001600978896021843,-0.0030868123285472393
1772566906567878000,8.8868779296875,0.012377209961414337,-0.007276974152773619,0.01113020721822977
1772566906577907200,8.8969072265625,0.012480402365326881,-0.015003889799118042,0.017653562128543854
1772566906587936000,8.90693603515625,0.011045491322875023,-0.02414598874747753,0.021253090351819992
1772566906597965000,8.916965087890626,0.00980352982878685,-0.026888005435466766,0.016146771609783173
1772566906607994000,8.926994140625,0.005141133442521095,-0.022975288331508636,0.009053976275026798
1772566906618023000,8.93702294921875,0.004158882424235344,-0.014837834984064102,0.0025389930233359337
1772566906628052000,8.947052001953125,-0.0005277488380670547,0.005135606974363327,-0.001007272396236658
1772566906638081000,8.9570810546875,-0.0038508218713104725,0.01758749969303608,-0.007234882563352585
1772566906648109800,8.96710986328125,-0.013083202764391899,0.020149728283286095,-0.014639003202319145
1772566906658139000,8.977138916015624,-0.014095853082835674,0.022379523143172264,-0.016033604741096497
1772566906668168200,8.987168212890625,-0.008519194088876247,0.02434040792286396,0.00112087931483984
1772566906678197000,8.997197021484375,-0.010457431897521019,0.012352965772151947,0.009942413307726383
1772566906688226000,9.00722607421875,-0.006711429916322231,0.0012995153665542603,0.011713414452970028
1772566906698255000,9.017255126953126,-0.002622010186314583,-0.013160680420696735,0.009378645569086075
1772566906708284200,9.0272841796875,-0.0008086636662483215,-0.013813953846693039,0.010339248925447464
1772566906718313000,9.03731298828125,-0.001508097629994154,-0.017474547028541565,0.005824754945933819
1772566906728342000,9.047342041015625,-0.00805867463350296,-0.022059444338083267,-0.000904786866158247
1772566906738371000,9.05737109375,-0.01256496086716652,-0.02131333202123642,-0.002348362933844328
1772566906748399900,9.06739990234375,-0.019287845119833946,-0.022714421153068542,0.013685463927686214
1772566906758429000,9.077428955078124,-0.021861039102077484,-0.022216305136680603,0.01573783904314041
1772566906768458200,9.087458251953125,-0.02441687509417534,-0.01894913986325264,0.0156632699072361
1772566906778487000,9.097487060546875,-0.027740489691495895,-0.016497986391186714,0.006185158155858517
1772566906788516000,9.10751611328125,-0.03084280714392662,-0.007624599616974592,0.0004931846633553505
1772566906798545200,9.117545166015624,-0.0312257781624794,-0.0010119499638676643,0.00396400410681963
1772566906808575000,9.127574951171875,-0.03765837848186493,0.006649430841207504,0.006792547181248665
1772566906818604000,9.13760400390625,-0.04241105541586876,0.006092831492424011,-0.008621295914053917
1772566906828633000,9.147633056640625,-0.04163207858800888,0.005413457751274109,-0.0161639004945755
1772566906838662000,9.157661865234376,-0.037052568048238754,0.0030236681923270226,-0.0066789863631129265
1772566906848691000,9.16769091796875,-0.031099071726202965,-0.003206530585885048,0.0011959811672568321
1772566906858720000,9.177719970703125,-0.022638870403170586,-0.012225356884300709,0.011129598133265972
1772566906868749000,9.1877490234375,-0.01808060333132744,-0.0123526556417346,0.024844080209732056
1772566906878777900,9.19777783203125,-0.015744034200906754,-0.017738977447152138,0.03316495567560196
1772566906888807200,9.20780712890625,-0.014162383042275906,-0.018821019679307938,0.029004566371440887
1772566906898836200,9.217836181640624,-0.019888218492269516,-0.028452521190047264,0.010832174681127071
1772566906908865000,9.227864990234375,-0.02081180363893509,-0.02860378846526146,0.0025532059371471405
1772566906918894000,9.23789404296875,-0.021554697304964066,-0.022384516894817352,0.006252284161746502
1772566906928923100,9.247923095703126,-0.021624740213155746,-0.015718625858426094,0.01418344397097826
1772566906938952000,9.257951904296876,-0.018716290593147278,-0.012376327067613602,0.015069855377078056
1772566906948981000,9.26798095703125,-0.012282092124223709,-0.005483533721417189,0.004493378102779388
1772566906959010000,9.278010009765625,-0.008944117464125156,0.002475658431649208,-0.0018422477878630161
1772566906969038800,9.288038818359375,-0.009688736870884895,0.008903464302420616,-0.008341692388057709
1772566906979068200,9.298068115234376,-0.014705173671245575,0.006570443511009216,-0.014867862686514854
1772566906989097200,9.30809716796875,-0.012546416372060776,0.009515101090073586,-0.009068296290934086
1772566906999126000,9.3181259765625,-0.01318221166729927,0.0107275927439332,0.0028499066829681396
1772566907009155000,9.328155029296875,-0.014220844954252243,0.001594281755387783,0.01586131379008293
1772566907019184000,9.33818408203125,-0.016033291816711426,-0.006234567612409592,0.011393302120268345
1772566907029213000,9.348212890625,-0.012144278734922409,-0.018335971981287003,0.007242766208946705
1772566907039242000,9.358241943359374,-0.013933153823018074,-0.021727174520492554,0.009239903651177883
1772566907049271000,9.36827099609375,-0.016452237963676453,-0.0298298429697752,0.00940661784261465
1772566907059299800,9.3782998046875,-0.021728936582803726,-0.030467864125967026,0.013208979740738869
1772566907069329000,9.388328857421875,-0.02643847092986107,-0.016502514481544495,0.016544323414564133
1772566907079358200,9.398358154296876,-0.029128242284059525,-0.000050080008804798126,0.028320707380771637
1772566907089387000,9.408386962890624,-0.03136849403381348,0.017075909301638603,0.020782366394996643
1772566907099416000,9.418416015625,-0.03286281228065491,0.02877974510192871,-0.0023990082554519176
1772566907109445000,9.428445068359375,-0.03534647822380066,0.03588426113128662,-0.027717681601643562
1772566907119474000,9.438473876953125,-0.034706972539424896,0.03162601962685585,-0.0393582358956337
1772566907129503000,9.4485029296875,-0.02763867750763893,0.02218351513147354,-0.033083025366067886
1772566907139533000,9.458532958984375,-0.02153543382883072,0.0030898014083504677,-0.015483707189559937
1772566907149562000,9.46856201171875,-0.01817132905125618,-0.0054259225726127625,0.0028225956484675407
1772566907159591000,9.4785908203125,-0.014179950580000877,-0.01727321185171604,0.016406025737524033
1772566907169620000,9.488619873046876,-0.013617224991321564,-0.02058352157473564,0.021398121491074562
1772566907179649000,9.49864892578125,-0.011937184259295464,-0.019141091033816338,0.014482061378657818
1772566907189678000,9.508677978515625,-0.013973969966173172,-0.011108729988336563,0.005037693306803703
1772566907199707100,9.51870703125,-0.011382211931049824,0.0007306337356567383,0.0010658549144864082
1772566907209736200,9.528736083984375,-0.010035717859864235,0.01012946292757988,-0.004944366868585348
1772566907219765000,9.538764892578126,-0.009539727121591568,0.022683408111333847,-0.006132316775619984
1772566907229794000,9.5487939453125,-0.008968212641775608,0.026520226150751114,-0.006307552568614483
1772566907239823000,9.558822998046875,-0.011110182851552963,0.02650555782020092,-0.007286986336112022
1772566907249852000,9.568851806640625,-0.009985797107219696,0.016081146895885468,-0.010514205321669579
1772566907259881000,9.578880859375,-0.00834610778838396,0.008492778986692429,-0.009744172915816307
1772566907269910000,9.588909912109376,-0.009727755561470985,-0.0072441063821315765,0.00017423741519451141
1772566907279938800,9.598938720703124,-0.011281482875347137,-0.016519542783498764,0.022350069135427475
1772566907289968000,9.608968017578125,-0.010825283825397491,-0.016946179792284966,0.033546533435583115
1772566907299997200,9.6189970703125,-0.011947490274906158,-0.01833566278219223,0.028498897328972816
1772566907310026000,9.62902587890625,-0.02291705086827278,-0.016305534169077873,0.02839716337621212
1772566907320055000,9.639054931640626,-0.026420339941978455,-0.006481081247329712,0.01550025213509798
1772566907330084000,9.649083984375,-0.03284468501806259,0.00875246711075306,0.007032731547951698
1772566907340113000,9.65911279296875,-0.027962680906057358,0.012698126956820488,-0.004453748464584351
1772566907350142000,9.669141845703125,-0.02484651654958725,0.008795265108346939,-0.010167826898396015
1772566907360171000,9.6791708984375,-0.022101137787103653,0.015316485427320004,-0.004139559809118509
1772566907370199800,9.68919970703125,-0.015355085022747517,0.010696965269744396,0.0023055560886859894
1772566907380229000,9.69922900390625,-0.012957844883203506,0.007824726402759552,0.0022072279825806618
1772566907390258200,9.709258056640625,-0.004699382930994034,0.0069434866309165955,-0.0008564731106162071
1772566907400287000,9.719286865234375,-0.000029904767870903015,0.006347181275486946,-0.003056563902646303
1772566907410316000,9.72931591796875,0.006918549537658691,0.00021392107009887695,-0.004937021993100643
1772566907420345000,9.739344970703126,0.006326922215521336,-0.008270662277936935,-0.0014275657013058662
1772566907430374000,9.749373779296874,0.007848386652767658,-0.010030479170382023,0.002304588444530964
1772566907440403000,9.75940283203125,0.004712553694844246,-0.008826547302305698,0.009714348241686821
1772566907450432000,9.769431884765625,0.004211879335343838,-0.006571649108082056,0.019424233585596085
1772566907460461000,9.7794609375,-0.001784131396561861,0.010402867570519447,0.014218800701200962
1772566907470489900,9.78948974609375,-0.010780556127429008,0.018819788470864296,0.01131861750036478
1772566907480520000,9.79952001953125,-0.017647307366132736,0.029372740536928177,-0.003760900814086199
1772566907490549000,9.809549072265625,-0.02452864870429039,0.032843369990587234,-0.017603479325771332
1772566907500578000,9.819578125,-0.024424172937870026,0.032308429479599,-0.0241241455078125
1772566907510607000,9.829607177734376,-0.025882519781589508,0.027938447892665863,-0.02346447855234146
1772566907520635400,9.839635498046874,-0.02833258919417858,0.024853087961673737,-0.019289132207632065
1772566907530664200,9.849664306640625,-0.029381608590483665,0.022517230361700058,-0.006636453326791525
1772566907540693200,9.859693359375,-0.026840806007385254,0.01911264657974243,-0.0025001605972647667
1772566907550722300,9.869722412109375,-0.022882282733917236,0.013591115362942219,-0.002057010307908058
1772566907560751000,9.879751220703126,-0.01507699117064476,0.002292162738740444,-0.009670748375356197
1772566907570780200,9.8897802734375,-0.006255535874515772,-0.001114020124077797,-0.015690824016928673
1772566907580809500,9.8998095703125,-0.0025077094323933125,-0.007433079183101654,-0.0016046087257564068
1772566907590838300,9.90983837890625,-0.0027785529382526875,0.0023654894903302193,0.020003214478492737
1772566907600867300,9.919867431640625,-0.0033279135823249817,0.005505777895450592,0.032274384051561356
1772566907610896400,9.929896484375,0.009089340455830097,0.007816601544618607,0.018526878207921982
1772566907620925200,9.93992529296875,0.006453058682382107,0.008430504240095615,0.0018015401437878609
1772566907630954200,9.949954345703125,0.0006489651277661324,0.012033228762447834,-0.001175873912870884
1772566907640983300,9.9599833984375,-0.0027656028978526592,0.008494982495903969,-0.0010296045802533627
1772566907651012000,9.97001220703125,-0.0003490508534014225,0.0020562568679451942,-0.006379362661391497
1772566907661041200,9.980041259765626,-0.0018702680245041847,-0.006366543937474489,-0.003974456340074539
1772566907671070500,9.990070556640624,-0.00521067064255476,-0.010199631564319134,0.002573990263044834
1772566907681099300,10.000099365234375,-0.011522756889462471,-0.008640069514513016,0.018280304968357086
1772566907691128300,10.01012841796875,-0.026969358325004578,-0.005125496070832014,0.02029392123222351
1772566907701157400,10.020157470703126,-0.039287857711315155,0.005946175195276737,0.02138409949839115
1772566907711186200,10.030186279296874,-0.03991396725177765,0.003369034267961979,-0.0033409548923373222
