time,seconds_elapsed,z,y,x
1772522045790516700,0.108516845703125,-0.00040690135210752487,-0.0011067315936088562,0.00008096033707261086
1772522045800512800,0.1185126953125,-0.0008140988647937775,0.001021933276206255,0.001698831096291542
1772522045810509600,0.128509521484375,-0.001576828770339489,0.0016150190494954586,-0.0012242547236382961
1772522045820506600,0.138506591796875,0.0011927876621484756,-0.001388778444379568,-0.0025917477905750275
1772522045830503700,0.148503662109375,0.0010126670822501183,0.0019389167428016663,0.0009209243580698967
1772522045840499700,0.158499755859375,0.0006946856155991554,-0.0014158678241074085,0.0013339808210730553
1772522045850496800,0.168496826171875,-0.00011247768998146057,-0.000012900680303573608,-0.00026127323508262634
1772522045860493600,0.17849365234375,0.0006481204181909561,0.0008582193404436111,-0.0006343820132315159
1772522045870491000,0.188490966796875,-0.0017325738444924355,0.0015158262103796005,-0.0024067522026598454
1772522045880486700,0.198486572265625,-0.000392204150557518,0.00000261794775724411,0.0009216666221618652
1772522045890483700,0.208483642578125,0.00040892884135246277,-0.00008908100426197052,-0.0006093280389904976
1772522045900480800,0.218480712890625,-0.00046192482113838196,-0.0006784382276237011,0.001381118781864643
1772522045910477600,0.2284775390625,-0.0002497956156730652,0.000048706308007240295,0.002101598773151636
1772522045920473600,0.2384736328125,0.000829850323498249,0.00037627480924129486,0.0005143550224602222
1772522045930470700,0.248470703125,-0.0018529482185840607,-0.0014085415750741959,0.0005853194743394852
1772522045940467700,0.2584677734375,0.002324486616998911,0.00028496282175183296,-0.0020762435160577297
1772522045950464500,0.268464599609375,0.0008017793297767639,-0.0007297801785171032,0.0016181315295398235
1772522045960460500,0.27846044921875,-0.0020656464621424675,0.0011618630960583687,0.00043302448466420174
1772522045970457600,0.28845751953125,0.0004606572911143303,-0.00033636391162872314,0.0012899190187454224
1772522045980454400,0.298454345703125,0.0005208440124988556,-0.0006841728463768959,-0.0013977428898215294
1772522045990451500,0.308451416015625,-0.0005628885701298714,0.0011934777721762657,-0.0007815128192305565
1772522046000447500,0.318447509765625,0.0002962471917271614,0.0007122443057596684,0.00025552185252308846
1772522046010444500,0.328444580078125,-0.0005863485857844353,0.000811736099421978,-0.0024887672625482082
1772522046020441600,0.338441650390625,-0.0008867532014846802,0.0011518215760588646,-0.0006676977500319481
1772522046030438700,0.348438720703125,0.0015440480783581734,-0.001069412101060152,0.0004726629704236984
1772522046040434700,0.3584345703125,-0.0005428055301308632,0.0012134495191276073,-0.0009574545547366142
1772522046050431500,0.368431396484375,-0.0009510843083262444,-0.0003672568127512932,0.001464356668293476
1772522046060428500,0.378428466796875,-0.00113723985850811,0.00007083313539624214,0.001769821159541607
1772522046070425600,0.388425537109375,0.0008327057585120201,-0.003624096279963851,-0.000014672987163066864
1772522046080421400,0.39842138671875,-0.0005295015871524811,0.00109768845140934,-0.002383288461714983
1772522046090418700,0.408418701171875,-0.001119065098464489,0.0004301704466342926,0.0015787421725690365
1772522046100415500,0.41841552734375,-0.0008964249864220619,-0.0006287023425102234,0.00004502804949879646
1772522046110412500,0.42841259765625,-0.000689375214278698,0.0031452085822820663,0.0006822380237281322
1772522046120408600,0.43840869140625,0.0007817549630999565,-0.0007240981794893742,-0.0006852950900793076
1772522046130405600,0.448405517578125,0.0019136262126266956,0.0016043703071773052,0.00032073725014925003
1772522046140402400,0.45840234375,-0.0004776259884238243,-0.0003016544505953789,-0.0003354656510055065
1772522046150399500,0.4683994140625,0.0018259151838719845,-0.0012581394985318184,-0.0011613382957875729
1772522046160395500,0.4783955078125,0.0022746575996279716,-0.0004264344461262226,0.0007771765813231468
1772522046170392600,0.488392578125,-0.0007029026746749878,0.000705069862306118,-0.00030111847445368767
1772522046180389600,0.4983896484375,0.001467307098209858,0.0002344888634979725,0.002323427237570286
1772522046190386400,0.508386474609375,0.0016084793023765087,0.0008889562450349331,-0.0018555400893092155
1772522046200382500,0.518382568359375,-0.0010027503594756126,0.0015124022029340267,-0.0015657884068787098
1772522046210379500,0.528379638671875,-0.0018634935840964317,-0.0002521686255931854,-0.002789498306810856
1772522046220376600,0.53837646484375,0.0003200322389602661,0.0016099135391414165,-0.002722653094679117
1772522046230373600,0.54837353515625,-0.00014627724885940552,-0.0024298750795423985,-0.0008528600446879864
1772522046240369700,0.55836962890625,-0.0011705290526151657,-0.002425081329420209,-0.0024100104346871376
1772522046250366500,0.568366455078125,0.0007966402918100357,0.002785081509500742,0.0001297425478696823
1772522046260363500,0.578363525390625,-0.002313399687409401,-0.000878096092492342,0.0007862118072807789
1772522046270360600,0.588360595703125,-0.001099754124879837,0.00002521555870771408,-0.001417852472513914
1772522046280356600,0.598356689453125,0.0019498313777148724,-0.0014179511927068233,0.0012785978615283966
1772522046290353700,0.608353759765625,-0.00014845933765172958,-0.002342967316508293,-0.001280088908970356
1772522046300350700,0.618350830078125,-0.0003391420468688011,0.0005183331668376923,0.0008515054360032082
1772522046310347500,0.628347412109375,0.0018547791987657547,0.00042186910286545753,0.002287305425852537
1772522046320343600,0.638343505859375,-0.0007260898128151894,0.0011577005498111248,-0.0014744098298251629
1772522046330340600,0.648340576171875,-0.00021214596927165985,0.0016626659780740738,-0.00043574441224336624
1772522046340337400,0.65833740234375,0.0007018512114882469,-0.0004122024402022362,-0.0005705002695322037
1772522046350334700,0.668334716796875,-0.00042930617928504944,-0.0031693580094724894,0.0005712686106562614
1772522046360330500,0.67833056640625,-0.00032783951610326767,0.00359027786180377,-0.000421824399381876
1772522046370327600,0.68832763671875,0.0016667093150317669,-0.0005154730752110481,0.00036444514989852905
1772522046380324600,0.69832470703125,-0.002609794959425926,0.0007862802594900131,0.00022409670054912567
1772522046390321400,0.7083212890625,-0.000512298196554184,0.0014060367830097675,0.0013484954833984375
1772522046400317400,0.7183173828125,0.001550852321088314,-0.00037561776116490364,0.0003972146660089493
1772522046410314500,0.728314453125,-0.0009885961189866066,0.002402643673121929,0.00447752745822072
1772522046420311600,0.7383115234375,0.0002923840656876564,0.0003514769487082958,-0.0008224290795624256
1772522046430308600,0.74830859375,-0.002629857510328293,-0.0007124845869839191,0.001032163854688406
1772522046440304600,0.7583046875,0.0004261201247572899,0.0003152294084429741,-0.002832349156960845
1772522046450301700,0.7683017578125,-0.00021424610167741776,-0.000026240944862365723,-0.00046435045078396797
1772522046460298500,0.778298583984375,0.00042198318988084793,-0.0003588697873055935,0.0005255462601780891
1772522046470295600,0.788295654296875,-0.0008329339325428009,0.0010331552475690842,0.0010573999024927616
1772522046480291600,0.79829150390625,0.0007220860570669174,-0.0009016310796141624,0.0017226575873792171
1772522046490288400,0.808288330078125,-0.0009363973513245583,0.001456179190427065,0.0012467438355088234
1772522046500285700,0.81828564453125,0.0014609801582992077,0.0013640336692333221,-0.0012797964736819267
1772522046510282500,0.828282470703125,0.00010172836482524872,-0.0007150601595640182,0.0021829395554959774
1772522046520278500,0.838278564453125,0.002450103871524334,0.0006207814440131187,0.0006396379321813583
1772522046530275600,0.848275634765625,0.0009571528062224388,-0.001958517823368311,-0.00160905160009861
1772522046540272400,0.8582724609375,-0.0009502032771706581,-0.0010519782081246376,-0.0017107841558754444
1772522046550269700,0.868269775390625,-0.0008301204070448875,0.0020544705912470818,0.002506797667592764
1772522046560266500,0.8782666015625,-0.00010973494499921799,-0.002711788984015584,-0.00040563521906733513
1772522046570262500,0.888262451171875,-0.0017629209905862808,-0.001422446221113205,0.0014593899250030518
1772522046580259600,0.898259521484375,0.0005740029737353325,0.000013263896107673645,-0.00016806740313768387
1772522046590256400,0.90825634765625,-0.0014682821929454803,-0.0008691637776792049,-0.0006511383689939976
1772522046600253700,0.918253662109375,0.0018814420327544212,0.00262037618085742,-0.0004130518063902855
1772522046610249500,0.92824951171875,-0.0007710019126534462,0.0010611722245812416,-0.00006803637370467186
1772522046620246500,0.93824658203125,0.0005464637652039528,-0.0004962440580129623,0.00044222502037882805
1772522046630243600,0.94824365234375,0.003149264957755804,0.002773196902126074,-0.0005870605818927288
1772522046640240400,0.958240478515625,0.0020096981897950172,-0.001479871105402708,0.0010079066269099712
1772522046650236700,0.968236572265625,0.0012635141611099243,0.0010818312875926495,-0.0006946725770831108
1772522046660233500,0.9782333984375,-0.0000899042934179306,0.0001119081862270832,-0.0000469917431473732
1772522046670230500,0.98823046875,-0.00023666303604841232,-0.0010565277189016342,-0.0043098158203065395
1772522046680227600,0.9982275390625,0.0006530992686748505,0.0006468300707638264,-0.0011600949801504612
1772522046690223400,1.008223388671875,-0.0007596435025334358,0.002751602791249752,0.000651257112622261
1772522046700220700,1.018220703125,-0.0022925594821572304,-0.0006561782211065292,0.002326119225472212
1772522046710217500,1.028217529296875,0.0001231413334608078,0.002360064070671797,0.0007484485395252705
1772522046720214500,1.038214599609375,-0.00013918057084083557,0.0001829303801059723,-0.00042547285556793213
1772522046730210600,1.04821044921875,-0.001364343799650669,0.0004080580547451973,-0.0009567290544509888
1772522046740207400,1.058207275390625,0.000453263521194458,-0.0014098156243562698,0.0006638043560087681
1772522046750204700,1.06820458984375,-0.0006555384024977684,0.0013406467624008656,0.0009110728278756142
1772522046760201500,1.078201416015625,0.0004840278998017311,0.00023144017904996872,-0.0015741889365017414
1772522046770197500,1.088197509765625,0.0011891787871718407,0.0004286123439669609,0.00009800773113965988
1772522046780194600,1.098194580078125,-0.00016024429351091385,-0.001716563943773508,-0.00013981247320771217
1772522046790191600,1.108191650390625,-0.0017861351370811462,0.0005537122488021851,0.0009628464467823505
1772522046800188400,1.1181884765625,0.0010874159634113312,0.00007168017327785492,0.0010081203654408455
1772522046810184400,1.128184326171875,-0.0015858132392168045,0.0003976323641836643,-0.0006059701554477215
1772522046820181500,1.138181396484375,0.0005423184484243393,-0.0016154511831700802,-0.0026861652731895447
1772522046830178600,1.148178466796875,0.001179092563688755,-0.0002507101744413376,-0.0002802126109600067
1772522046840175600,1.158175537109375,0.0006392700597643852,-0.002229172270745039,-0.0005406700074672699
1772522046850172400,1.16817236328125,-0.001777161844074726,0.00033678440377116203,-0.001274102833122015
1772522046860168400,1.17816845703125,0.002518783323466778,-0.0014339513145387173,-0.001530032604932785
1772522046870165500,1.18816552734375,0.0020415163598954678,0.00004134839400649071,0.00033500324934720993
1772522046880162600,1.19816259765625,0.0005237814038991928,0.0015969006344676018,-0.0014117639511823654
1772522046890159600,1.20815966796875,-0.0008428674191236496,-0.0006864783354103565,0.0013006017543375492
1772522046900155600,1.21815576171875,-0.0007848097011446953,-0.001046004705131054,0.00006835674867033958
1772522046910152400,1.22815234375,-0.00007912144064903259,0.002612182404845953,0.0012027760967612267
1772522046920149500,1.2381494140625,0.0007086414843797684,-0.00009119277819991112,-0.0004403945058584213
1772522046930146600,1.248146484375,0.0006777476519346237,0.002914064098149538,0.0005625570192933083
1772522046940142600,1.258142578125,-0.00024743378162384033,-0.0020583239383995533,0.00015243049710988998
1772522046950140400,1.268140380859375,0.0008829701691865921,-0.0002953070215880871,-0.00039405515417456627
1772522046960137500,1.278137451171875,0.0005673859268426895,-0.00035389652475714684,0.0003183404915034771
1772522046970134500,1.288134521484375,0.0010827518999576569,0.00047257496044039726,-0.001016305759549141
1772522046980130600,1.298130615234375,-0.0006059585139155388,0.002636925783008337,-0.0003308081068098545
1772522046990127600,1.308127685546875,0.0003775181248784065,0.0014059320092201233,0.0007503964006900787
1772522047000124400,1.31812451171875,0.00022411998361349106,0.0034850616939365864,0.002525392919778824
1772522047010121500,1.32812158203125,0.0010305130854249,0.00008927099406719208,0.0013532759621739388
1772522047020117500,1.338117431640625,0.00005872640758752823,-0.001252695918083191,0.0010986775159835815
1772522047030114300,1.3481142578125,0.0008323080837726593,-0.001171688549220562,0.0026846639811992645
1772522047040111600,1.358111572265625,0.0019417810253798962,-0.0016143061220645905,-0.002419017720967531
1772522047050108400,1.3681083984375,-0.0009712995961308479,0.0006235986948013306,-0.0008009024895727634
1772522047060104400,1.3781044921875,-0.0012876838445663452,-0.0007881429046392441,-0.0021884096786379814
1772522047070101500,1.3881015625,-0.00044845789670944214,0.002727773506194353,0.0017958576790988445
1772522047080098300,1.398098388671875,0.0012114904820919037,0.0003887196071445942,0.0012802700512111187
1772522047090095600,1.408095703125,0.00023303739726543427,-0.00030954787507653236,-0.00107134273275733
1772522047100092400,1.418092529296875,0.0003507491201162338,-0.0000706622377038002,0.0025952975265681744
1772522047110088400,1.42808837890625,0.002165689133107662,-0.000883767381310463,-0.00011621043086051941
1772522047120085500,1.43808544921875,0.002146247774362564,0.00003662100061774254,0.00040283985435962677
1772522047130082300,1.448082275390625,-0.000916692428290844,0.0017311624251306057,-0.0001498381607234478
1772522047140079600,1.45807958984375,0.00018638931214809418,-0.0005642161704599857,-0.0004308014176785946
1772522047150075400,1.468075439453125,-0.0013683987781405449,0.0010099411010742188,0.0018426920287311077
1772522047160072400,1.478072509765625,0.001110205426812172,-0.0001706378534436226,0.0004048519767820835
1772522047170069500,1.488069580078125,0.0011011185124516487,0.0006560399197041988,-0.0017413580790162086
1772522047180066300,1.49806640625,0.0002555651590228081,0.00195619510486722,0.0006229961290955544
1772522047190062600,1.5080625,0.00037777330726385117,-0.00017699319869279861,0.0006378614343702793
1772522047200059400,1.518059326171875,-0.0007418198511004448,-0.001971165183931589,-0.000323273241519928
1772522047210056400,1.528056396484375,-0.00016780011355876923,0.002166381571441889,0.0006387284956872463
1772522047220053500,1.538053466796875,0.0007406044751405716,0.0010278797708451748,0.0001987740397453308
1772522047230049300,1.54804931640625,-0.00025709159672260284,-0.002061752136796713,-0.0009794123470783234
1772522047240046600,1.558046630859375,-0.0011348696425557137,0.0016626790165901184,-0.00013226084411144257
1772522047250043400,1.56804345703125,0.0004010843113064766,-0.0008163847960531712,-0.0012357127852737904
1772522047260040400,1.57804052734375,-0.000997873954474926,-0.0010472810827195644,-0.0001864274963736534
1772522047270036500,1.588036376953125,-0.00043070968240499496,0.0007000379264354706,-0.003783715656027198
1772522047280033300,1.598033203125,-0.0006027501076459885,-0.0012973328121006489,0.00233356561511755
1772522047290030600,1.608030517578125,-0.0007978314533829689,0.00013451464474201202,0.002227766439318657
1772522047300027400,1.61802734375,-0.001538989134132862,0.0006865877658128738,0.0005960473790764809
1772522047310024400,1.6280244140625,-0.00042984727770090103,0.0015889815986156464,-0.0004589320160448551
1772522047320020500,1.6380205078125,0.000980030745267868,0.0015591545961797237,0.0007538711652159691
1772522047330017500,1.648017578125,-0.0034595243632793427,-0.001963924616575241,-0.0005863294936716557
1772522047340014300,1.658014404296875,0.001004733145236969,-0.002443560166284442,0.0022864225320518017
1772522047350011400,1.668011474609375,0.0019344231113791466,-0.0008814241737127304,-0.0012791873887181282
1772522047360007400,1.67800732421875,0.0007237503305077553,-0.0013631898909807205,0.00012855976819992065
1772522047370004500,1.68800439453125,-0.0011256672441959381,0.002333596348762512,0.00023392681032419205
1772522047380001500,1.69800146484375,-0.000059604644775390625,-0.0016249259933829308,-0.0016356119886040688
1772522047389998300,1.707998291015625,-0.001767604611814022,-0.0019028796814382076,-0.00042383186519145966
1772522047399994400,1.717994384765625,-0.0018549561500549316,0.0018662922084331512,0.003870515152812004
1772522047409991400,1.727991455078125,0.00020386185497045517,-0.00003338651731610298,-0.0006080297753214836
1772522047419988500,1.737988525390625,0.00033994950354099274,-0.00002353265881538391,0.0006833374500274658
1772522047429985500,1.747985595703125,0.00047392770648002625,0.0028723138384521008,-0.0003887261264026165
1772522047439981600,1.757981689453125,-0.00021050497889518738,-0.0005450542084872723,0.0006504394114017487
1772522047449978400,1.767978271484375,0.0008816979825496674,0.0009378506802022457,0.0005791164003312588
1772522047459975400,1.777975341796875,-0.00046239979565143585,0.001930410973727703,0.00014129234477877617
1772522047469972500,1.787972412109375,0.00022834166884422302,-0.000414959155023098,0.000711468979716301
1772522047479968500,1.797968505859375,0.00005923118442296982,0.001455911435186863,-0.0012869671918451786
1772522047489965300,1.80796533203125,0.0006302352994680405,0.0019552847370505333,-0.00020534591749310493
1772522047499962600,1.817962646484375,0.0015018880367279053,-0.00037817656993865967,-0.00015634391456842422
1772522047509959400,1.82795947265625,0.00047897547483444214,0.0010835793800652027,-0.0003805919550359249
1772522047519956200,1.837956298828125,-0.0005479399114847183,0.0010737255215644836,-0.0003457046113908291
1772522047529952500,1.847952392578125,0.0002725571393966675,-0.0008595641702413559,-0.00015601562336087227
1772522047539949300,1.85794921875,0.0011553950607776642,0.00037907250225543976,-0.000479323323816061
1772522047549946600,1.867946533203125,0.0019193477928638458,-0.00020769517868757248,0.0011955490335822105
1772522047559943400,1.877943359375,0.0014841873198747635,-0.0012742909602820873,-0.0011317874304950237
1772522047569939500,1.887939453125,0.0005039134994149208,-0.0004297853447496891,-0.0007333769463002682
1772522047579936500,1.8979365234375,0.0007361415773630142,0.00018194271251559258,-0.0002705198712646961
1772522047589933300,1.907933349609375,-0.0013969847932457924,0.0011991281062364578,0.001398489810526371
1772522047599930600,1.9179306640625,0.00009012408554553986,0.002554144710302353,0.0023292647674679756
1772522047609926400,1.927926513671875,0.0009637149050831795,0.00018391292542219162,-0.0004323231987655163
1772522047619923500,1.93792333984375,-0.0015614945441484451,0.001124541275203228,0.0017677140422165394
1772522047629920500,1.94792041015625,0.00032244808971881866,0.00004243198782205582,-0.0015473701059818268
1772522047639917300,1.957917236328125,-0.0003430759534239769,-0.0013844897039234638,-0.0017910492606461048
1772522047649913600,1.96791357421875,-0.00020863302052021027,0.0027307565324008465,0.002460746094584465
1772522047659910400,1.977910400390625,0.0006742049008607864,-0.002581983571872115,0.0008551264181733131
1772522047669907500,1.987907470703125,-0.0013255514204502106,-0.0019968831911683083,-0.002590708900243044
1772522047679904500,1.997904541015625,0.0005935225635766983,-0.0009830174967646599,0.0006849793717265129
1772522047689901300,2.0079013671875,0.000280255451798439,-0.0010367343202233315,0.00036804238334298134
1772522047699897600,2.017897705078125,-0.0009258901700377464,0.0007039075717329979,-0.0004103993996977806
1772522047709894400,2.027894287109375,-0.0000743325799703598,0.0005482444539666176,-0.0025581521913409233
1772522047719891500,2.037891357421875,-0.0010493164882063866,0.00031575048342347145,-0.000206048134714365
1772522047729888500,2.047888427734375,0.0013454784639179707,0.002646094188094139,-0.0007241475395858288
1772522047739884300,2.05788427734375,0.0010349536314606667,-0.0004522274248301983,-0.002629905939102173
1772522047749881600,2.067881591796875,0.0007734242826700211,-0.00004335353150963783,-0.00012307614088058472
1772522047759878400,2.07787841796875,0.0010053850710391998,0.000007246620953083038,-0.00032414449378848076
1772522047769875500,2.08787548828125,-0.002117111347615719,-0.000577735248953104,-0.001630022656172514
1772522047779871500,2.09787158203125,0.001075485721230507,-0.000015541911125183105,0.0011069080792367458
1772522047789868300,2.107868408203125,0.0004957588389515877,0.001241100486367941,-0.0012105610221624374
1772522047799865600,2.117865478515625,0.0016787350177764893,-0.00026225391775369644,0.001045935321599245
1772522047809862400,2.1278623046875,-0.0003112461417913437,-0.0032391338609158993,-0.0033353001344949007
1772522047819858400,2.1378583984375,0.0008381744846701622,-0.0006185830570757389,-0.00045349355787038803
1772522047829855500,2.14785546875,-0.0016046632081270218,-0.0022701770067214966,0.0021241437643766403
1772522047839852500,2.1578525390625,-0.0001343321055173874,-0.001401454210281372,0.0003632614389061928
1772522047849849300,2.167849365234375,0.0004179263487458229,0.0005247751250863075,0.00022640498355031013
1772522047859846400,2.177846435546875,-0.0018353741616010666,-0.0020326585508883,-0.001613306812942028
1772522047869842400,2.187842529296875,-0.00029205624014139175,0.0003746235743165016,-0.0004956764169037342
1772522047879839500,2.197839599609375,0.0010379264131188393,0.00034959008917212486,0.000048673711717128754
1772522047889836500,2.20783642578125,0.001434612087905407,0.000013830605894327164,0.001522319857031107
1772522047899833300,2.217833251953125,0.0009022466838359833,0.0012247697450220585,0.0008823620155453682
1772522047909829400,2.227829345703125,0.000021237879991531372,0.0000025336630642414093,0.001786529552191496
1772522047919826400,2.237826416015625,-0.0008125975728034973,0.0008147978223860264,0.0003659995272755623
1772522047929823500,2.247823486328125,-0.000720231793820858,-0.0006803344003856182,-0.0007897401228547096
1772522047939820500,2.257820556640625,0.00009815767407417297,-0.001039594877511263,-0.0005133040249347687
1772522047949815800,2.26781591796875,-0.0007643541321158409,-0.0012080036103725433,0.0012861094437539577
1772522047959812900,2.277812744140625,0.001479892060160637,-0.00022236770018935204,0.00016012461856007576
1772522047969809700,2.2878095703125,0.002027400303632021,-0.0011881017126142979,-0.00032526906579732895
1772522047979807000,2.297806884765625,-0.0005785031244158745,0.0005661221221089363,0.00036315806210041046
1772522047989802800,2.307802734375,0.0018226904794573784,-0.000959404744207859,-0.00007153768092393875
1772522047999799800,2.3177998046875,0.00011933315545320511,0.00022037560120224953,-0.001620432361960411
1772522048009796900,2.327796875,-0.0015807701274752617,-0.000340854749083519,-0.002161361277103424
1772522048019793700,2.337793701171875,0.0013260701671242714,-0.0013145064003765583,0.0008533373475074768
1772522048029791000,2.347791015625,-0.0007722070440649986,-0.0015707192942500114,-0.0006596585735678673
1772522048039786800,2.357786865234375,0.00013273488730192184,-0.0024287898559123278,-0.0009539378806948662
1772522048049784000,2.3677841796875,-0.0014321329072117805,-0.0005907565355300903,-0.0015499498695135117
1772522048059780900,2.37778076171875,0.001567917875945568,0.0008327029645442963,-0.000594407320022583
1772522048069777700,2.387777587890625,-0.0014221519231796265,-0.0003426959738135338,-0.0003026924096047878
1772522048079774000,2.39777392578125,0.0012447377666831017,0.0003220289945602417,-0.0008702119812369347
1772522048089770800,2.407770751953125,0.0008704550564289093,0.002173422835767269,-0.0003539775498211384
1772522048099767800,2.417767822265625,-0.0006036041304469109,0.00026313774287700653,0.001210629940032959
1772522048109764900,2.427764892578125,-0.002833738923072815,-0.0007813801057636738,0.001614636741578579
1772522048119760600,2.4377607421875,-0.0010142670944333076,0.0006527318619191647,-0.00004531117156147957
1772522048129758000,2.447758056640625,-0.0007959632202982903,-0.0016198735684156418,-0.001950658392161131
1772522048139754800,2.457754638671875,-0.0009363126009702682,0.0020009600557386875,-0.0013386639766395092
1772522048149751800,2.467751708984375,0.0008157854899764061,-0.0006761113181710243,-0.00048143742606043816
1772522048159747800,2.477747802734375,-0.00018795952200889587,-0.0020785322412848473,0.0009324350394308567
1772522048169744600,2.48774462890625,0.00010797195136547089,-0.0006894320249557495,-0.0025892709381878376
1772522048179742000,2.497741943359375,0.00013593491166830063,-0.001892914529889822,-0.0013088234700262547
1772522048189738800,2.50773876953125,-0.0006076134741306305,0.000815811101347208,-0.0006990646943449974
1772522048199735800,2.51773583984375,0.0009327596053481102,0.0026872148737311363,-0.001641024835407734
1772522048209731800,2.52773193359375,-0.0003570821136236191,-0.0026341364718973637,-0.00022426946088671684
1772522048219729000,2.53772900390625,-0.0009483033791184425,0.00023035937920212746,0.000900117214769125
1772522048229726000,2.547725830078125,-0.0005652997642755508,0.0011384855024516582,0.0034348098561167717
1772522048239722800,2.55772265625,-0.0006087087094783783,-0.0005523553118109703,-0.00021318811923265457
1772522048249718800,2.56771875,-0.0013188766315579414,0.001359389629215002,0.0004168534651398659
1772522048259715800,2.5777158203125,0.0005682390183210373,-0.00014343205839395523,0.0012967614457011223
1772522048269713000,2.587712890625,0.0006932299584150314,-0.0006269337609410286,0.0006114766001701355
1772522048279709700,2.597709716796875,-0.0017339754849672318,0.0027976250275969505,0.0011366521939635277
1772522048289705700,2.607705810546875,-0.00014196522533893585,-0.0011878865770995617,-0.0009354976937174797
1772522048299702800,2.617702880859375,-0.0008940417319536209,0.0021991217508912086,0.0007873009890317917
1772522048309699800,2.627699951171875,-0.0013196645304560661,0.00007961085066199303,0.0009777368977665901
1772522048319697000,2.63769677734375,-0.0004930188879370689,-0.0018610348924994469,-0.0006957938894629478
1772522048329693000,2.64769287109375,-0.00024402793496847153,0.00019399914890527725,0.0000817757099866867
1772522048339689700,2.657689697265625,0.0006694365292787552,0.0017532804049551487,0.0003227917477488518
1772522048349686800,2.667686767578125,0.0018451069481670856,0.00015330081805586815,-0.0006365673616528511
1772522048359683800,2.677683837890625,-0.0006726458668708801,0.0015796897932887077,-0.000142551027238369
1772522048369681000,2.687680908203125,0.0014939364045858383,0.0017767339013516903,-0.0009343740530312061
1772522048379677000,2.697677001953125,-0.0010107671841979027,-0.0009431522339582443,-0.0007641981355845928
1772522048389674000,2.707674072265625,-0.0005716318264603615,0.0006688660942018032,-0.00017501786351203918
1772522048399670800,2.7176708984375,-0.0005290210247039795,0.0005210605449974537,-0.00006955629214644432
1772522048409667800,2.727667724609375,0.0030182423070073128,-0.0020714462734758854,-0.0018811649642884731
1772522048419664000,2.737663818359375,0.000220591202378273,-0.002178771886974573,-0.0014555919915437698
1772522048429660700,2.74766064453125,-0.0003553517162799835,-0.003150307573378086,-0.0006513479165732861
1772522048439658000,2.757657958984375,-0.0007449714466929436,0.00157973263412714,-0.00006918096914887428
1772522048449654800,2.76765478515625,0.00022519566118717194,0.0003637494519352913,0.0001591891050338745
1772522048459650800,2.77765087890625,-0.002965005114674568,0.0005493718199431896,-0.001322327647358179
1772522048469648000,2.78764794921875,0.0010199816897511482,0.0017576259560883045,-0.0022100922651588917
1772522048479644700,2.797644775390625,-0.0003470182418823242,0.0009528184309601784,-0.0027637635357677937
1772522048489642000,2.80764208984375,-0.0002805907279253006,0.0002548010088503361,-0.002498728223145008
1772522048499637800,2.8176376953125,-0.0012177564203739166,0.0004340321756899357,-0.0001314440742135048
1772522048509634800,2.827634765625,-0.003952355124056339,-0.0007334025576710701,0.0010743681341409683
1772522048519632000,2.8376318359375,0.0002711517736315727,-0.0033587466459721327,-0.0015712166205048561
1772522048529628700,2.847628662109375,-0.0010062921792268753,0.0000815466046333313,-0.00081588514149189
1772522048539626000,2.8576259765625,0.00011037103831768036,-0.00204685190692544,-0.0016667651943862438
1772522048549621800,2.867621826171875,0.00002635456621646881,-0.00011002924293279648,0.002372550778090954
1772522048559619000,2.877619140625,-0.0007305154576897621,0.00040875421836972237,-0.001104472205042839
1772522048569616000,2.887615966796875,-0.00027303025126457214,0.002500795293599367,-0.0024412600323557854
1772522048579612700,2.89761279296875,-0.0015428252518177032,0.001944460440427065,0.000127358827739954
1772522048589609000,2.90760888671875,0.000035288743674755096,0.0015556961297988892,-0.0010778452269732952
1772522048599605800,2.917605712890625,-0.0008153244853019714,-0.0018070777878165245,0.00017117755487561226
1772522048609602800,2.927602783203125,-0.0026731928810477257,-0.00023648468777537346,-0.001292628701776266
1772522048619600000,2.937599853515625,0.0010110242292284966,-0.0006964122876524925,0.0004647914320230484
1772522048629595600,2.947595703125,-0.0005337335169315338,-0.00019093835726380348,0.0024586496874690056
1772522048639593000,2.957593017578125,-0.00020696409046649933,0.000692698173224926,-0.0005017202347517014
1772522048649589800,2.96758984375,-0.004228295758366585,-0.0014488566666841507,0.0018008137121796608
1772522048659586800,2.9775869140625,0.0017116190865635872,-0.001104776281863451,-0.0007454347796738148
1772522048669584000,2.987583984375,-0.0009996918961405754,0.0004753558896481991,0.0029030009172856808
1772522048679579600,2.99757958984375,-0.0008273851126432419,0.0005507231689989567,0.00040389038622379303
1772522048689577000,3.007576904296875,0.0029291845858097076,-0.0013026129454374313,-0.0002509094774723053
1772522048699573800,3.01757373046875,-0.0017305482178926468,0.000167185440659523,0.0008694822899997234
1772522048709570800,3.02757080078125,0.000216607004404068,0.0012689442373812199,0.0006593470461666584
1772522048719566800,3.03756689453125,0.0003854520618915558,0.00001912284642457962,0.0002766507677733898
1772522048729564000,3.04756396484375,-0.0009539695456624031,0.0015250067226588726,0.0016299830749630928
1772522048739561000,3.05756103515625,0.0004694899544119835,-0.0006542578339576721,-0.00021878350526094437
1772522048749557800,3.067557861328125,-0.00034371670335531235,0.0002755182795226574,-0.0008428678847849369
1772522048759553800,3.0775537109375,-0.00046808551996946335,-0.00003740331158041954,0.0011840644292533398
1772522048769550800,3.08755078125,-0.0014227582141757011,0.000951212365180254,0.0006203465163707733
1772522048779548000,3.0975478515625,-0.0005745422095060349,0.000978643074631691,-0.0015051220543682575
1772522048789544700,3.107544677734375,0.001427430659532547,0.0012989984825253487,0.0021661524660885334
1772522048799542000,3.1175419921875,0.0015826933085918427,0.0014265640638768673,-0.0007079308852553368
1772522048809537800,3.127537841796875,0.0009800000116229057,-0.002211763057857752,-0.0007070531137287617
1772522048819534800,3.137534912109375,-0.0019350964576005936,-0.002601649845018983,0.0003539500758051872
1772522048829532000,3.147531982421875,-0.0005579646676778793,0.0008952915668487549,-0.00006409548223018646
1772522048839528700,3.15752880859375,0.0017717685550451279,0.0006888965144753456,0.0003561512567102909
1772522048849524700,3.167524658203125,0.000879739411175251,0.00013174815103411674,0.0011507063172757626
1772522048859521800,3.177521728515625,0.0028259772807359695,0.0009786332957446575,-0.0006810161285102367
1772522048869518800,3.187518798828125,0.000330435112118721,-0.001108843833208084,-0.0008156099356710911
1772522048879516000,3.197515869140625,0.0005972832441329956,-0.001419368665665388,0.0040377345867455006
1772522048889512000,3.207511962890625,0.0004812963306903839,-0.0028580280486494303,0.00043058302253484726
1772522048899509000,3.217509033203125,0.002146038692444563,0.0007889047265052795,-0.001142013818025589
1772522048909505800,3.227505859375,0.0002576420083642006,0.0022057336755096912,0.0005735568702220917
1772522048919502800,3.2375029296875,0.0005524540320038795,0.00007626973092556,-0.000046160537749528885
1772522048929499000,3.247498779296875,0.002165339421480894,-0.001890568993985653,-0.00375681952573359
1772522048939495700,3.25749560546875,-0.0014240695163607597,-0.00032676057890057564,-0.00015702471137046814
1772522048949493500,3.267493408203125,-0.0013719890266656876,-0.0016676373779773712,0.00223330594599247
1772522048959490600,3.277490478515625,-0.0030612321570515633,0.0008277446031570435,0.0027683349326252937
1772522048969487400,3.2874873046875,0.0008930936455726624,0.0014200280420482159,0.001221399288624525
1772522048979483400,3.2974833984375,-0.0025421185418963432,-0.004129466600716114,-0.0014675944112241268
1772522048989480400,3.30748046875,-0.00043368153274059296,0.0009059589356184006,0.0022176429629325867
1772522048999477500,3.3174775390625,0.0013583595864474773,0.0005280566401779652,-0.0022740443237125874
1772522049009474600,3.327474609375,-0.0015642298385500908,-0.0010667582973837852,-0.0027927509509027004
1772522049019470300,3.33747021484375,-0.000036374665796756744,0.0006879987195134163,0.0026315758004784584
1772522049029467600,3.347467529296875,0.0008194707334041595,0.0006337636150419712,-0.000353742390871048
1772522049039464400,3.35746435546875,-0.002416003495454788,0.000431097112596035,-0.001659490168094635
1772522049049461200,3.367461181640625,0.0016459901817142963,0.002110317349433899,-0.00015114061534404755
1772522049059457500,3.37745751953125,0.0011788718402385712,0.0002887151204049587,0.0012984173372387886
1772522049069454300,3.387454345703125,-0.0013012923300266266,0.0004279669374227524,-0.0030823173001408577
1772522049079451600,3.39745166015625,0.0030055721290409565,0.0006178501062095165,-0.0017707105726003647
1772522049089448400,3.407448486328125,-0.000663096085190773,0.0012919865548610687,0.0011064833961427212
1772522049099445500,3.417445556640625,0.0012642336077988148,0.0011471104808151722,0.0010875752195715904
1772522049109441500,3.427441650390625,0.0015248917043209076,-0.0006940066814422607,0.0011343690566718578
1772522049119438300,3.437438232421875,-0.001209109090268612,-0.0006732339970767498,-0.0012403717264533043
1772522049129435600,3.447435546875,-0.001282673329114914,-0.0009015314280986786,0.00019972538575530052
1772522049139432400,3.457432373046875,0.0018255026079714298,-0.0029830581042915583,0.0025672754272818565
1772522049149428500,3.467428466796875,-0.0001945551484823227,-0.0006325840950012207,-0.000884669367223978
1772522049159425500,3.477425537109375,-0.0033474713563919067,0.0007016593590378761,0.0014336123131215572
1772522049169422300,3.48742236328125,-0.001346927136182785,-0.0009273993782699108,-0.001614399254322052
1772522049179419400,3.49741943359375,-0.0007469169795513153,-0.0007457719184458256,0.00034195883199572563
1772522049189415400,3.50741552734375,-0.0009870920330286026,-0.00042995112016797066,0.0032703191973268986
1772522049199412200,3.517412109375,-0.0002709683030843735,-0.001932240091264248,0.0002894429489970207
1772522049209409500,3.527409423828125,0.0016913521103560925,0.000319069717079401,0.0002705599181354046
1772522049219406300,3.53740625,0.00030437763780355453,0.000571537297219038,0.00018027890473604202
1772522049229402600,3.547402587890625,0.0017573661170899868,0.0004832143895328045,-0.00024301838129758835
1772522049239399400,3.5573994140625,-0.0001569138839840889,0.0011958763934671879,0.0017855116166174412
1772522049249396500,3.567396484375,-0.0013753045350313187,0.00014797458425164223,0.00030224164947867393
1772522049259393500,3.5773935546875,-0.00111404899507761,-0.0010246150195598602,0.0016173105686903
1772522049269390600,3.587390625,0.0008372422307729721,0.0023081600666046143,0.0011583375744521618
1772522049279386600,3.59738671875,0.00005560368299484253,0.0005334299057722092,-0.0008960249833762646
1772522049289383400,3.607383544921875,0.003178455401211977,0.002184550277888775,0.002399034798145294
1772522049299380500,3.61738037109375,0.000015152618288993835,0.00105563597753644,0.003025677055120468
1772522049309377500,3.62737744140625,-0.00046622566878795624,-0.0005744756199419498,0.001345018856227398
1772522049319373300,3.637373291015625,0.0022539268247783184,-0.00010922132059931755,-0.00043663568794727325
1772522049329370600,3.64737060546875,0.0003013927489519119,-0.0015770532190799713,-0.00021849153563380241
1772522049339367400,3.657367431640625,-0.0004219217225909233,-0.0006827637553215027,-0.0011684410274028778
1772522049349364500,3.667364501953125,-0.0029577715322375298,0.00038034096360206604,-0.000009620562195777893
1772522049359361500,3.677361572265625,-0.0010538771748542786,-0.00036161579191684723,-0.0005851299501955509
1772522049369357300,3.687357421875,0.0012232307344675064,-0.0014845170080661774,-0.0016565164551138878
1772522049379354400,3.697354248046875,-0.001859910786151886,0.0010161912068724632,0.000017280224710702896
1772522049389351400,3.707351318359375,-0.001004910096526146,-0.0013856315053999424,0.00040921662002801895
1772522049399348500,3.717348388671875,-0.0018896125257015228,0.0022210879251360893,-0.0006392700597643852
1772522049409344500,3.727344482421875,0.0008380962535738945,-0.00037534674629569054,0.0002031303010880947
1772522049419341600,3.737341552734375,0.00040400121361017227,-0.0008248887024819851,0.0014116722159087658
1772522049429338400,3.74733837890625,-0.0018985196948051453,-0.00007388507947325706,-0.00024245353415608406
1772522049439335400,3.75733544921875,-0.0007570888847112656,0.0009836559183895588,0.0005788649432361126
1772522049449331500,3.76733154296875,-0.0004363870248198509,0.0005739354528486729,0.00039930129423737526
1772522049459328500,3.77732861328125,-0.00026168301701545715,-0.0011898758821189404,-0.00003213062882423401
1772522049469325600,3.78732568359375,-0.0008070487529039383,0.0014915415085852146,0.0023936424404382706
1772522049479322400,3.797322265625,0.0017692930996418,0.0004036403261125088,-0.0015102853067219257
1772522049489318400,3.807318359375,0.0014547882601618767,0.0021807593293488026,0.0010506701655685902
1772522049499315500,3.8173154296875,0.0006470512598752975,-0.0006392616778612137,-0.0033986729104071856
1772522049509312500,3.8273125,-0.0004341341555118561,-0.0006635012105107307,-0.001103054266422987
1772522049519309600,3.8373095703125,0.001638337504118681,-0.0013322210870683193,-0.0015419432893395424
1772522049529306400,3.847306396484375,-0.00002062879502773285,0.0004695076495409012,0.0012555583380162716
1772522049539302400,3.857302490234375,0.002925093751400709,0.0007115891203284264,0.0003106687217950821
1772522049549299500,3.867299560546875,-0.0006702523678541183,0.001686460804194212,-0.0008522062562406063
1772522049559296300,3.877296142578125,-0.0014811847358942032,-0.0005668401718139648,-0.002259687054902315
1772522049569293600,3.88729345703125,-0.0011020088568329811,0.0005458071827888489,0.002380082383751869
1772522049579289300,3.897289306640625,-0.0004663122817873955,0.0011865640990436077,0.0006935023702681065
1772522049589286700,3.90728662109375,-0.0023000407963991165,-0.00004024431109428406,0.0017033666372299194
1772522049599283500,3.917283447265625,0.0008659251034259796,-0.00030496250838041306,0.0009398381225764751
1772522049609280300,3.9272802734375,0.0007165009155869484,0.00008075684309005737,0.0020974092185497284
1772522049619277600,3.937277587890625,-0.002572236582636833,0.001200349535793066,0.0034931721165776253
1772522049629273300,3.9472734375,-0.0005329931154847145,-0.0008017639629542828,0.0006391741335391998
1772522049639270700,3.957270751953125,-0.0005399174988269806,-0.0023788881953805685,-0.0021393015049397945
1772522049649267500,3.967267333984375,0.0007244907319545746,0.0016557201743125916,0.0008971034549176693
1772522049659264500,3.977264404296875,-0.0010427823290228844,-0.0009408621117472649,0.000023852568119764328
1772522049669260500,3.987260498046875,0.00041789282113313675,0.0006194356828927994,0.0005551176145672798
1772522049679257300,3.99725732421875,-0.0031925542280077934,0.0010721730068325996,0.0001905304379761219
1772522049689254400,4.00725439453125,0.0013932464644312859,-0.0008602766320109367,-0.00024236226454377174
1772522049699251500,4.01725146484375,0.00011546164751052856,-0.0016578929498791695,0.0005683037452399731
1772522049709247200,4.027247314453125,0.0017536911182105541,0.00045125512406229973,-0.00042802654206752777
1772522049719244500,4.03724462890625,-0.00048496201634407043,0.0007934714667499065,0.0002446882426738739
1772522049729241300,4.047241455078125,-0.0009506689384579659,0.0015474846586585045,-0.0018784021958708763
1772522049739238400,4.05723828125,-0.00014932453632354736,-0.0006392365321516991,0.0007799649611115456
1772522049749234400,4.067234375,-0.0004062289372086525,-0.0022351988591253757,0.0010494878515601158
1772522049759231500,4.0772314453125,-0.00034364499151706696,0.002907631453126669,-0.0011622672900557518
1772522049769228500,4.087228515625,0.0019781477749347687,0.0004475517198443413,-0.0016323709860444069
1772522049779225300,4.097225341796875,-0.0010495996102690697,-0.0008496739901602268,-0.0008017309010028839
1772522049789222400,4.107222412109375,0.00005308631807565689,0.0001034419983625412,0.0022244411520659924
1772522049799218400,4.117218505859375,-0.0018028700724244118,0.0005170311778783798,0.0006587686948478222
1772522049809215500,4.127215576171875,0.00015307404100894928,0.0000742482952773571,-0.0014576972462236881
1772522049819212500,4.137212646484375,-0.0003739660605788231,0.0016455133445560932,-0.000908819492906332
1772522049829209600,4.147209716796875,0.0029915296472609043,-0.0023254912812262774,0.001309538260102272
1772522049839205400,4.157205322265625,-0.00006737746298313141,0.0037158895283937454,-0.0003924877382814884
1772522049849202400,4.167202392578125,0.001043424941599369,0.0015135155990719795,-0.0008050622418522835
1772522049859199500,4.177199462890625,0.0010761814191937447,-0.00013578031212091446,0.00045168353244662285
1772522049869196300,4.1871962890625,-0.0020389510318636894,-0.001369986217468977,0.0024448875337839127
1772522049879192300,4.1971923828125,0.001534744631499052,0.001228992361575365,0.002315191552042961
1772522049889189400,4.207189453125,-0.002274520695209503,-0.0011477973312139511,0.00023715896531939507
1772522049899186400,4.2171865234375,-0.0006635738536715508,0.0013545090332627296,-0.001893103588372469
1772522049909183500,4.22718359375,-0.0009803222492337227,-0.0031753145158290863,-0.002273984719067812
1772522049919180300,4.23718017578125,0.00006789807230234146,-0.002255458850413561,0.001477610319852829
1772522049929176600,4.247176513671875,-0.0014947932213544846,0.0011473940685391426,0.001034056767821312
1772522049939173400,4.25717333984375,0.0014956709928810596,0.0006754817441105843,-0.0020877006463706493
1772522049949170000,4.267169921875,-0.0011588884517550468,0.001400264911353588,-0.00009858468547463417
1772522049959166700,4.277166748046875,0.00002595130354166031,-0.0010876599699258804,0.001397578977048397
1772522049969163000,4.2871630859375,0.002696535550057888,-0.00144960917532444,-0.0003614681772887707
1772522049979159800,4.297159912109375,0.00014629215002059937,0.000011933967471122742,-0.0025303466245532036
1772522049989156600,4.307156494140625,-0.0018970463424921036,-0.00032764114439487457,0.003279704600572586
1772522049999154000,4.31715380859375,-0.000027506612241268158,-0.0013042222708463669,-0.00119307404384017
1772522050009150700,4.327150634765625,-0.0028579728677868843,0.001520413439720869,0.0010792231187224388
1772522050019147000,4.33714697265625,-0.0003133229911327362,-0.0021076109260320663,-0.002651599235832691
1772522050029143800,4.347143798828125,0.0016625379212200642,0.0014199805445969105,-0.001113614533096552
1772522050039140900,4.357140869140625,-0.0009047491475939751,0.0009198389016091824,0.002716544084250927
1772522050049138000,4.367137939453125,0.0024021202698349953,0.0016463110223412514,-0.001710887998342514
1772522050059133700,4.3771337890625,0.0002968916669487953,0.002588004805147648,0.00028062378987669945
1772522050069131000,4.387131103515625,0.0014537498354911804,-0.00034430716186761856,0.0020746360532939434
1772522050079127800,4.3971279296875,0.0006228433921933174,-0.001056436449289322,-0.0012780176475644112
1772522050089124900,4.407124755859375,0.0009756702929735184,0.002339515369385481,0.00006348825991153717
1772522050099121000,4.417120849609375,0.0007711397483944893,-0.001633654348552227,-0.00046435045078396797
1772522050109117700,4.42711767578125,-0.002212272956967354,-0.002910606563091278,-0.0004977365024387836
1772522050119114800,4.43711474609375,0.0015582307241857052,-0.0002959147095680237,-0.0016210577450692654
1772522050129111800,4.44711181640625,-0.0004025036469101906,-0.0023588126059621572,0.0003369995392858982
1772522050139108900,4.45710888671875,0.0005783392116427422,0.002630087547004223,0.00006615603342652321
1772522050149105000,4.46710498046875,0.0013803676702082157,0.002312534023076296,0.0008127577602863312
1772522050159101700,4.477101806640625,-0.0010108845308423042,-0.0009700781665742397,-0.000515627209097147
1772522050169098800,4.4870986328125,-0.003089146688580513,-0.0011885245330631733,0.0013287588953971863
1772522050179095800,4.497095703125,0.0009093238040804863,-0.0003432370722293854,0.0024323733523488045
1772522050189091800,4.507091796875,-0.0004570474848151207,0.0007846779190003872,-0.0010781041346490383
1772522050199089000,4.5170888671875,0.0009115515276789665,0.001983633264899254,0.0014993036165833473
1772522050209086000,4.5270859375,-0.000876452773809433,0.001618928276002407,-0.0005038557574152946
1772522050219082800,4.537082763671875,-0.00016192719340324402,-0.0023465186823159456,-0.0003557838499546051
1772522050229079800,4.547079833984375,0.00007199868559837341,0.0005052904598414898,0.0000552530400454998
1772522050239075800,4.557075927734375,0.0014384663663804531,0.0002823839895427227,0.0001458004117012024
1772522050249073000,4.567072998046875,0.001120743341743946,0.0017687794752418995,-0.0005546561442315578
1772522050259070000,4.577070068359375,0.0017710872925817966,-0.0018520546145737171,0.001860830932855606
1772522050269066800,4.587066650390625,0.00038415566086769104,-0.0015724515542387962,-0.00040351273491978645
1772522050279062800,4.597062744140625,0.0007487423717975616,-0.00031623849645256996,-0.0001545073464512825
1772522050289059800,4.607059814453125,0.0006844000890851021,-0.0011834087781608105,0.0006820978596806526
1772522050299057000,4.617056884765625,-0.0017606476321816444,-0.0024241753853857517,0.0009926226921379566
1772522050309054000,4.627053955078125,0.00009151268750429153,0.0007409676909446716,0.002435896545648575
1772522050319049700,4.6370498046875,-0.0005092956125736237,0.0005108704790472984,0.002040416933596134
1772522050329046800,4.647046875,0.0008813329041004181,0.00014197733253240585,-0.0002629919908940792
1772522050339043800,4.6570439453125,0.0005750693380832672,0.000125199556350708,0.00043635396286845207
1772522050349040600,4.66704052734375,-0.001101592555642128,0.0003748438321053982,0.00042309798300266266
1772522050359038000,4.677037841796875,-0.0021237144246697426,0.0005612652748823166,-0.0016171494498848915
1772522050369033700,4.68703369140625,0.0019662859849631786,0.0021274667233228683,-0.0013798447325825691
1772522050379031000,4.697031005859375,-0.0009008739143610001,-0.001310674473643303,0.00046386197209358215
1772522050389027800,4.70702783203125,-0.0002960553392767906,-0.0008833101019263268,0.0010810238309204578
1772522050399024600,4.717024658203125,-0.0003072405233979225,-0.000313660129904747,-0.0018854709342122078
1772522050409021000,4.72702099609375,-0.0011188481003046036,-0.0017715920694172382,0.0008344664238393307
1772522050419017700,4.737017822265625,-0.0009201765060424805,0.000036694109439849854,0.00005043158307671547
1772522050429015000,4.74701513671875,-0.000005652196705341339,-0.00020371144637465477,-0.00156731391325593
1772522050439011800,4.75701171875,-0.0010022064670920372,0.0010892534628510475,0.0007802629843354225
1772522050449007900,4.7670078125,0.0001939116045832634,0.001496348064392805,0.00043732253834605217
1772522050459005000,4.7770048828125,0.0004517054185271263,-0.0009931749664247036,0.0007907240651547909
1772522050469001700,4.787001708984375,-0.0013732193037867546,0.002152802422642708,0.0003442075103521347
1772522050478998800,4.796998779296875,0.0028018178418278694,0.001667042262852192,-0.000855280552059412
1772522050488995800,4.806995849609375,0.0018281652592122555,-0.00026957830414175987,0.0007341918535530567
1772522050498991600,4.81699169921875,-0.0006075622513890266,0.0003330949693918228,0.0005211392417550087
1772522050508989000,4.826989013671875,-0.0003714952617883682,-0.0012443806044757366,-0.0004391171969473362
1772522050518985700,4.83698583984375,-0.002440504729747772,-0.0011935140937566757,-0.001551253255456686
1772522050528982800,4.846982666015625,0.0004374505952000618,0.0025324425660073757,-0.0014766664244234562
1772522050538978800,4.856978759765625,0.00022120214998722076,-0.0020330147817730904,-0.0008580139838159084
1772522050548975900,4.866975830078125,-0.0006291065365076065,0.00007474562153220177,-0.0016078581102192402
1772522050558973000,4.876972900390625,0.000170108862221241,-0.00022193044424057007,-0.00023579783737659454
1772522050568969700,4.8869697265625,0.002870873548090458,0.0013893386349081993,-0.0005530230700969696
1772522050578966800,4.896966796875,0.0016490151174366474,0.0022865580394864082,-0.0004736608825623989
1772522050588962800,4.906962890625,0.0002437550574541092,0.0007471241988241673,-0.00031034043058753014
1772522050598959900,4.9169599609375,-0.00003587640821933746,-0.000515480525791645,0.00122497184202075
1772522050608957000,4.92695703125,0.0004459992051124573,-0.00006467150524258614,-0.000852758064866066
1772522050618954000,4.9369541015625,0.00002468656748533249,-0.002250594086945057,0.0014138580299913883
1772522050628949800,4.94694970703125,0.0007681529968976974,-0.0032896059565246105,-0.0008597811684012413
1772522050638946800,4.95694677734375,0.000325535424053669,0.0009253788739442825,0.0010417159646749496
1772522050648943900,4.96694384765625,-0.0014901421964168549,-0.001229509711265564,0.0008274884894490242
1772522050658940700,4.976940673828125,-0.0028733881190419197,-0.00017330003902316093,-0.0010343273170292377
1772522050668936700,4.986936767578125,0.00037939660251140594,0.0022489549592137337,0.000928086694329977
1772522050678933800,4.996933837890625,-0.000082395039498806,-0.0008347192779183388,-0.0005158791318535805
1772522050688930800,5.006930908203125,0.0018070791848003864,0.0009154477156698704,0.0003474568948149681
1772522050698927900,5.016927978515625,0.0009663188830018044,0.0022899052128195763,0.001377833541482687
1772522050708924700,5.026924560546875,-0.00222619716078043,0.00004966789856553078,0.0008135465905070305
1772522050718921000,5.0369208984375,0.0017275316640734673,-0.0009884322062134743,-0.0013907519169151783
1772522050728917800,5.046917724609375,0.001952978316694498,-0.001591518521308899,0.0019522788934409618
1772522050738914800,5.056914794921875,-0.0010153809562325478,-0.002059169579297304,0.0004867417737841606
1772522050748911900,5.066911865234375,0.000103008933365345,0.000073947012424469,0.0012864265590906143
1772522050758908000,5.076907958984375,0.0003645317628979683,0.0009202994406223297,0.0010619224049150944
1772522050768905000,5.086905029296875,-0.003295673057436943,-0.0024441550485789776,0.0012456411495804787
1772522050778901800,5.09690185546875,-0.000556345097720623,0.001642465591430664,-0.0018319077789783478
1772522050788899000,5.106899169921875,0.0003644414246082306,-0.0011058030650019646,-0.0014781025238335133
1772522050798895900,5.116895751953125,-0.0002563418820500374,0.00009794579818844795,-0.00048634130507707596
1772522050808891600,5.1268916015625,-0.0010774126276373863,0.0009917025454342365,0.0007156361825764179
1772522050818889000,5.136888916015625,0.0007742838934063911,-0.0014445572160184383,-0.0001512225717306137
1772522050828885800,5.1468857421875,-0.0018722228705883026,0.001259098295122385,-0.000369152519851923
1772522050838882800,5.1568828125,0.0014426140114665031,0.0017411308363080025,-0.0014748969115316868
1772522050848878800,5.16687890625,0.0002798251807689667,-0.0013631624169647694,-0.00025161588564515114
1772522050858875600,5.176875732421875,-0.0010906374081969261,-0.002253190614283085,0.00014572776854038239
1772522050868873000,5.186873046875,-0.00014840532094240189,-0.0017703226767480373,-0.0023505790159106255
1772522050878869800,5.196869873046875,0.00020526163280010223,-0.0015271762385964394,0.00038741715252399445
1772522050888866000,5.206865966796875,0.0030923844315111637,0.0014479216188192368,-0.00027934834361076355
1772522050898862800,5.21686279296875,-0.0006019528955221176,-0.0014892788603901863,0.0001560784876346588
1772522050908859600,5.226859619140625,0.00003388896584510803,-0.0004300079308450222,0.0014817342162132263
1772522050918857000,5.23685693359375,0.0006277738139033318,-0.00030723586678504944,0.0021624378859996796
1772522050928853800,5.246853759765625,0.001974212471395731,0.002788006328046322,0.00005655502900481224
1772522050938850000,5.25685009765625,0.0004942938685417175,0.0027611078694462776,0.0024406169541180134
1772522050948847000,5.26684716796875,0.0008079977706074715,-0.0008101207204163074,0.0022168802097439766
1772522050958844200,5.27684423828125,-0.0010351762175559998,0.001202430110424757,-0.00035253725945949554
1772522050968841000,5.286841064453125,-0.00005766935646533966,0.00047337543219327927,0.001374152023345232
1772522050978837000,5.2968369140625,-0.00010400824248790741,-0.0009618024341762066,-0.00009271735325455666
1772522050988834000,5.306833984375,-0.001996079459786415,0.0026182769797742367,-0.000286150723695755
1772522050998831000,5.3168310546875,-0.0011457325890660286,-0.0009652730077505112,-0.0008565997704863548
1772522051008828200,5.326828125,0.0003211880102753639,-0.0024543791078031063,0.0005967752076685429
1772522051018823200,5.3368232421875,-0.0003613801673054695,-0.0006721918471157551,-0.0016959402710199356
1772522051028820000,5.346820068359375,0.0009263800457119942,-0.0008312934078276157,0.0009211758151650429
1772522051038817300,5.3568173828125,0.00003715045750141144,0.0019290726631879807,0.00013714097440242767
1772522051048814000,5.36681396484375,-0.0013510249555110931,0.0010502897202968597,0.0008666780777275562
1772522051058810000,5.37681005859375,0.00042050983756780624,-0.0014967573806643486,0.0016397940926253796
1772522051068807200,5.38680712890625,0.00012067798525094986,0.00039816414937376976,0.000991899985820055
1772522051078804000,5.396803955078125,0.00007966533303260803,0.0009220079518854618,0.0006885658949613571
1772522051088801000,5.406801025390625,0.0005932217463850975,-0.0007128189317882061,0.0009671561419963837
1772522051098798000,5.416798095703125,0.002349576912820339,0.00005337223410606384,-0.0015873480588197708
1772522051108793900,5.4267939453125,-0.0008310079574584961,0.0007327967323362827,-0.0025332788936793804
1772522051118791200,5.436791259765625,-0.000028330832719802856,-0.00034951185807585716,0.0002691657282412052
1772522051128788000,5.4467880859375,-0.002026471309363842,0.0011091064661741257,0.0013363356702029705
1772522051138785000,5.456784912109375,-0.0026411283761262894,0.00017513614147901535,-0.0007979213260114193
1772522051148781000,5.466781005859375,0.00008208397775888443,-0.001741977408528328,-0.0006794263608753681
1772522051158778000,5.476778076171875,-0.0010441672056913376,-0.00009241560474038124,0.0012172767892479897
1772522051168775200,5.486775146484375,-0.00029732752591371536,-0.000259659718722105,-0.00016973819583654404
1772522051178772000,5.49677197265625,-0.00020172074437141418,-0.0002063964493572712,-0.00005522230640053749
1772522051188768300,5.506768310546875,-0.0009737079963088036,-0.0003871372900903225,-0.0004042452201247215
1772522051198765000,5.51676513671875,-0.0010309666395187378,-0.0004819459281861782,0.0011925860308110714
1772522051208762000,5.52676220703125,-0.00009911134839057922,-0.0008735773153603077,0.0028584757819771767
1772522051218759200,5.53675927734375,-0.00007301196455955505,-0.000998479314148426,-0.001203643623739481
1772522051228756200,5.546756103515625,-0.002322644926607609,0.00035591190680861473,0.0004408569075167179
1772522051238752000,5.556751953125,0.002249736338853836,0.0014182468876242638,-0.0012326734140515327
1772522051248749000,5.5667490234375,0.0013235732913017273,0.0007077879272401333,-0.0025429129600524902
1772522051258746000,5.57674609375,-0.0017326707020401955,0.000006044749170541763,-0.0010113287717103958
1772522051268743000,5.586742919921875,-0.0012623388320207596,0.00007133232429623604,0.0019158357754349709
1772522051278739000,5.596739013671875,-0.0007414240390062332,-0.0023409586865454912,-0.000806713942438364
1772522051288736000,5.606736083984375,0.0010465588420629501,0.00015692319720983505,-0.0017725895158946514
1772522051298733000,5.616733154296875,0.0015275259502232075,-0.00018795626237988472,0.0016871234402060509
1772522051308730000,5.626730224609375,-0.0010895216837525368,-0.0013575581833720207,-0.0014168135821819305
1772522051318727000,5.636726806640625,-0.001461564563214779,0.0025503644719719887,0.0028511686250567436
1772522051328723200,5.64672314453125,-0.0020328275859355927,0.000997849740087986,0.0011124024167656898
1772522051338720000,5.656719970703125,0.00023591984063386917,0.00016934052109718323,-0.0003206441178917885
1772522051348717000,5.666717041015625,0.0013735033571720123,0.0010984293185174465,0.0016860570758581161
1772522051358714000,5.676714111328125,-0.00009469687938690186,-0.0005908138118684292,0.0011470331810414791
1772522051368710100,5.686710205078125,0.002179343719035387,0.0016208542510867119,0.00020900601521134377
1772522051378707200,5.696707275390625,-0.00015411805361509323,0.003425678238272667,-0.0002690311521291733
1772522051388704000,5.7067041015625,0.0007329229265451431,-0.0016713803634047508,-0.0009794100187718868
1772522051398701300,5.716701416015625,-0.0010194377973675728,-0.000026878435164690018,0.0006427215412259102
1772522051408698000,5.726697998046875,-0.0013966560363769531,0.0021822722628712654,0.0010285046882927418
1772522051418694100,5.736694091796875,-0.0005692113190889359,-0.0004012603312730789,0.002527065109461546
1772522051428691200,5.746691162109375,0.001421940978616476,0.000978824682533741,0.0013891016133129597
1772522051438688000,5.75668798828125,0.0019489806145429611,0.002218792214989662,0.000506796408444643
1772522051448685000,5.76668505859375,0.001198049634695053,-0.0031238547526299953,0.003381467889994383
1772522051458681000,5.77668115234375,-0.0009061144664883614,0.0005856622010469437,0.0035532410256564617
1772522051468678000,5.786677978515625,0.0021550487726926804,0.0008857082575559616,0.0019909613765776157
1772522051478675200,5.79667529296875,0.00027512386441230774,-0.001053072977811098,0.0007808208465576172
1772522051488672000,5.806672119140625,0.0003998149186372757,-0.00024161627516150475,-0.0015584109351038933
1772522051498668300,5.816668212890625,0.000008330680429935455,-0.0007838355377316475,0.00014761043712496758
1772522051508665000,5.8266650390625,0.00014969054609537125,-0.00040421774610877037,-0.0003250795416533947
1772522051518662000,5.836661865234375,0.000582454726099968,0.0008205701597034931,-0.0019240416586399078
1772522051528659200,5.8466591796875,-0.0012532882392406464,-0.0024368257727473974,-0.0005295891314744949
1772522051538656000,5.856656005859375,-0.0013707345351576805,-0.0017947377637028694,0.0017149229533970356
1772522051548652300,5.86665234375,0.0004904363304376602,0.0010131960734724998,0.00013481592759490013
1772522051558649000,5.876649169921875,-0.000786283053457737,-0.002313092118129134,0.0019329823553562164
1772522051568646100,5.886646240234375,0.0003419453278183937,0.0013107089325785637,-0.00007280008867383003
1772522051578643200,5.896643310546875,0.00013128947466611862,-0.0010682926513254642,0.001275824848562479
1772522051588640000,5.906639892578125,0.00007449742406606674,-0.00004332698881626129,0.0010894238948822021
1772522051598636000,5.916635986328125,-0.0023026401177048683,0.0013284669257700443,0.0011962163262069225
1772522051608633000,5.926633056640625,0.00004451349377632141,-0.002310337033122778,0.000879338476806879
1772522051618630100,5.936630126953125,-0.0013872021809220314,0.0016183583065867424,-0.00017740391194820404
1772522051628627000,5.946626953125,-0.0009641814976930618,0.0009169275872409344,0.0011713448911905289
1772522051638623000,5.956623046875,-0.00038627535104751587,-0.003436541883274913,0.0008853212930262089
1772522051648620000,5.9666201171875,0.00002464093267917633,-0.0028672688640654087,-0.0017339927144348621
1772522051658617000,5.9766171875,0.0029645045287907124,0.00029363716021180153,-0.00031692488119006157
1772522051668614100,5.9866142578125,-0.0013751490041613579,-0.0007326328195631504,-0.0020600678399205208
1772522051678610200,5.996610107421875,-0.0010598311200737953,-0.00002290075644850731,-0.0013338238932192326
1772522051688607000,6.00660693359375,0.0003333175554871559,0.000611655879765749,-0.000027871690690517426
1772522051698604000,6.01660400390625,0.0005663447082042694,-0.0003635934554040432,0.000888521783053875
1772522051708601000,6.02660107421875,0.00020730774849653244,0.0016924967058002949,-0.0033439069520682096
1772522051718598100,6.03659814453125,-0.0037914281710982323,-0.0017413832247257233,-0.0011867466382682323
1772522051728594200,6.04659423828125,-0.002103586681187153,-0.00081305718049407,0.0025692270137369633
1772522051738591200,6.05659130859375,0.00033959653228521347,-0.001393360085785389,-0.00011763628572225571
1772522051748588000,6.066588134765625,-0.0021722689270973206,0.0007828278467059135,0.0010834401473402977
1772522051758585000,6.076585205078125,0.0010901032947003841,0.0019623413681983948,0.000252534169703722
1772522051768581000,6.0865810546875,-0.0003306157886981964,0.0016906759701669216,-0.0010673804208636284
1772522051778578000,6.096577880859375,0.000561010092496872,-0.0010854029096662998,-0.0011861571110785007
1772522051788575200,6.1065751953125,0.00017692428082227707,0.0003224490210413933,0.0010631992481648922
1772522051798572000,6.116572021484375,-0.0005916636437177658,0.0006052767857909203,0.0011657308787107468
1772522051808569000,6.126569091796875,-0.00008714571595191956,0.0012352229095995426,-0.000015288125723600388
1772522051818565000,6.136565185546875,0.00005000736564397812,0.0002189604565501213,0.0011330670677125454
1772522051828562000,6.14656201171875,-0.0004281001165509224,-0.00011599157005548477,0.0027177506126463413
1772522051838559200,6.156559326171875,-0.0010475516319274902,0.0009141187183558941,0.00016724132001399994
1772522051848556000,6.16655615234375,0.0007308414205908775,0.0007199184037744999,-0.000327233225107193
1772522051858552000,6.176552001953125,0.0005060704424977303,-0.0012100744061172009,0.0018344549462199211
1772522051868549000,6.186549072265625,-0.0011480581015348434,0.0008753635920584202,-0.0005220118910074234
1772522051878546000,6.1965458984375,0.00036515016108751297,-0.002012834884226322,0.0008308738470077515
1772522051888543200,6.206543212890625,-0.0006611254066228867,0.0013148952275514603,-0.00024469755589962006
1772522051898540000,6.2165400390625,-0.0006944146007299423,-0.00028406642377376556,0.001338019035756588
1772522051908536300,6.226536376953125,-0.0006683776155114174,-0.0024859614204615355,-0.00017937971279025078
1772522051918533000,6.236533203125,-0.00024094060063362122,0.0025703157298266888,-0.0014459788799285889
1772522051928530000,6.246530029296875,-0.00024301093071699142,0.0026108701713383198,0.001712667290121317
1772522051938527200,6.25652734375,0.0018864520825445652,0.0017045964486896992,0.0010234415531158447
1772522051948523000,6.26652294921875,0.0005307197570800781,0.00027452362701296806,0.00167417386546731
1772522051958519800,6.276519775390625,-0.000025348737835884094,0.0017288755625486374,-0.00038791215047240257
1772522051968517000,6.28651708984375,0.0012539089657366276,0.0001414082944393158,-0.0004006805829703808
1772522051978514000,6.296513916015625,0.0006618881598114967,0.002539318520575762,0.0005090553313493729
1772522051988511000,6.306510986328125,-0.00042175594717264175,-0.001557989977300167,0.00010352255776524544
1772522051998507000,6.316507080078125,-0.00001615658402442932,0.0005014324560761452,-0.0015694750472903252
1772522052008504000,6.326504150390625,0.0008951043710112572,-0.00015339674428105354,0.0018381834961473942
1772522052018501000,6.336501220703125,-0.00047296192497015,-0.001060202717781067,0.0006898283027112484
1772522052028498000,6.346497802734375,-0.0003803502768278122,-0.0016941879875957966,0.000794578343629837
1772522052038494200,6.356494140625,0.0007104808464646339,-0.0003330465406179428,-0.00017374707385897636
1772522052048491000,6.366490966796875,-0.0018586628139019012,0.0016981763765215874,0.0018186015076935291
1772522052058488000,6.376488037109375,0.0011336649768054485,-0.0034081684425473213,0.0013616024516522884
1772522052068485000,6.386485107421875,-0.0008726976811885834,0.00016348809003829956,-0.00039657624438405037
1772522052078482200,6.396482177734375,0.0001981593668460846,-0.0011475859209895134,-0.0003294646739959717
1772522052088478200,6.406478271484375,0.000006146728992462158,-0.0003360793925821781,-0.0007392964325845242
1772522052098475000,6.41647509765625,0.0007201395928859711,0.000659409910440445,-0.0008681933395564556
1772522052108472000,6.42647216796875,-0.0015984037891030312,-0.0004742853343486786,-0.0014330828562378883
1772522052118469000,6.43646923828125,0.0022280258126556873,-0.0002412591129541397,0.002395477145910263
1772522052128465000,6.44646484375,0.001693521160632372,-0.0013344250619411469,-0.00005355663597583771
1772522052138462000,6.4564619140625,-0.0011070594191551208,-0.0028417743742465973,-0.00025648949667811394
1772522052148459000,6.466458984375,0.00023848563432693481,0.001360050868242979,0.001299150288105011
1772522052158456000,6.4764560546875,0.0008840356022119522,-0.0022900777403265238,0.00013375049456954002
1772522052168452900,6.486452880859375,-0.0012227622792124748,0.00042132940143346786,-0.0009730611927807331
1772522052178449200,6.49644921875,-0.00016522128134965897,0.0000013490207493305206,0.0010227118618786335
1772522052188446000,6.506446044921875,0.00005425792187452316,-0.0009317346848547459,-0.0010494156740605831
1772522052198443000,6.516443115234375,-0.0014682719483971596,0.0003407238982617855,-0.0014502215199172497
1772522052208440000,6.526440185546875,0.000146402046084404,-0.0017561446875333786,0.0023245299234986305
1772522052218436000,6.53643603515625,-0.0015313895419239998,-0.0018120710738003254,-0.00034315837547183037
1772522052228433200,6.54643310546875,-0.00097691360861063,-0.0020495858043432236,0.0019298642873764038
1772522052238430000,6.556429931640625,-0.0011651990935206413,-0.00038857245817780495,-0.0025154841132462025
1772522052248427300,6.56642724609375,0.002245201263576746,0.0006046085618436337,0.0023522931151092052
1772522052258424000,6.576424072265625,-0.001759127713739872,0.00011991336941719055,-0.0010477644391357899
1772522052268420000,6.586420166015625,0.0002805190160870552,-0.001576574519276619,0.000028498470783233643
1772522052278417200,6.596417236328125,-0.0009605139493942261,0.0020309430547058582,-0.002973416820168495
1772522052288414000,6.6064140625,0.00021423399448394775,-0.0008992711082100868,-0.0005197874270379543
1772522052298411000,6.616410888671875,-0.002504054456949234,0.00013882899656891823,0.0032392647117376328
1772522052308407000,6.626406982421875,0.0014821593649685383,0.00036041904240846634,-0.002253575250506401
1772522052318403800,6.63640380859375,-0.0007213400676846504,-0.00043586594983935356,0.0006237039342522621
1772522052328401200,6.646401123046875,-0.00160122849047184,0.00016389181837439537,0.0008796029724180698
1772522052338398000,6.65639794921875,0.00004167575389146805,0.0007114377804100513,0.0012015788815915585
1772522052348395000,6.66639501953125,0.000029832124710083008,-0.000801911111921072,0.0006113182753324509
1772522052358391000,6.67639111328125,-0.0006788354367017746,-0.0015406720340251923,-0.000026242341846227646
1772522052368387800,6.686387939453125,-0.0008699605241417885,0.001121322624385357,0.0007681776769459248
1772522052378385200,6.69638525390625,-0.0005506481975317001,-0.0018222695216536522,-0.0005314452573657036
1772522052388382000,6.7063818359375,0.0000030463561415672302,-0.002039508428424597,-0.00034563057124614716
1772522052398378200,6.716378173828125,0.00017082598060369492,-0.0005097887478768826,-0.00254486920312047
1772522052408375000,6.726375,0.000021725893020629883,0.00019063428044319153,0.001808249857276678
1772522052418372000,6.7363720703125,-0.0011367490515112877,0.0012305984273552895,0.001952860038727522
1772522052428369200,6.746369140625,0.0009833937510848045,0.00021646684035658836,0.0010156934149563313
1772522052438366000,6.756365966796875,-0.0018871361389756203,0.002081263344734907,0.0004147789441049099
1772522052448362200,6.7663623046875,-0.0008804742246866226,0.0011503947898745537,-0.0014123143628239632
1772522052458359000,6.776359130859375,0.0006210161373019218,0.0006039142608642578,-0.0005992511287331581
1772522052468356000,6.786356201171875,0.0012585925869643688,0.00018570106476545334,0.00019498122856020927
1772522052478353000,6.796352783203125,-0.0018117660656571388,-0.0007488024421036243,-0.000571210402995348
1772522052488349000,6.806348876953125,-0.0008761528879404068,-0.003410995239391923,0.00143021484836936
1772522052498346000,6.816345947265625,0.0008346624672412872,-0.001432799268513918,-0.0009328084997832775
1772522052508343000,6.826343017578125,-0.0010487977415323257,-0.0017197928391397,-0.00010460568591952324
1772522052518340000,6.836340087890625,0.0015421914868056774,-0.0017608054913580418,-0.000689435750246048
1772522052528337000,6.8463369140625,-0.00232809130102396,-0.0010422104969620705,0.000355706550180912
1772522052538333000,6.8563330078125,0.0008471952751278877,0.0007234653457999229,0.0004790108650922775
1772522052548330000,6.866330078125,0.0007947208359837532,-0.0006321817636489868,0.0006130640394985676
1772522052558327000,6.8763271484375,-0.001355515792965889,0.0021849097684025764,0.002290855161845684
1772522052568324000,6.886323974609375,-0.0005210088565945625,-0.00016288366168737411,0.001982014160603285
1772522052578320100,6.896320068359375,0.0003935201093554497,0.0031242561526596546,0.0017106379382312298
1772522052588317200,6.906317138671875,0.0009451108053326607,0.00019315583631396294,0.0007220394909381866
1772522052598314000,6.91631396484375,0.0006945077329874039,-0.001406871248036623,-0.002542729489505291
1772522052608311000,6.92631103515625,-0.00002569332718849182,-0.0030215922743082047,-0.002045640256255865
1772522052618308000,6.93630810546875,0.0014672745019197464,-0.0029177290853112936,0.0007589347660541534
1772522052628304100,6.94630419921875,0.0005275718867778778,0.0004894696176052094,-0.001281131524592638
1772522052638301200,6.95630126953125,-0.0001752357929944992,0.0005326131358742714,-0.0005583497695624828
1772522052648298000,6.966298095703125,0.000539400614798069,-0.0019765691831707954,-0.001991559285670519
1772522052658295000,6.976294921875,-0.001535734161734581,0.000020802021026611328,-0.002184371929615736
1772522052668291000,6.986291015625,-0.00008625537157058716,-0.0003108372911810875,0.0018395320512354374
1772522052678288000,6.996287841796875,0.0015153693966567516,-0.0013976735062897205,-0.0001549096778035164
1772522052688285200,7.00628515625,0.0012758267112076283,0.00020687654614448547,-0.0011101453565061092
1772522052698282000,7.016281982421875,-0.001148449257016182,0.0007107462733983994,0.002255823463201523
1772522052708279000,7.026279052734375,-0.0000157821923494339,0.00043923966586589813,0.001394519116729498
1772522052718275000,7.036275146484375,-0.0010118046775460243,0.002552990335971117,0.0007084887474775314
1772522052728272000,7.04627197265625,0.0007746992632746696,0.0015856502577662468,-0.00025910791009664536
1772522052738269200,7.056269287109375,-0.0005928343161940575,0.002634936012327671,0.0011249366216361523
1772522052748266000,7.066265869140625,-0.0009447969496250153,0.00037751393392682076,0.001786010805517435
1772522052758262300,7.07626220703125,-0.002128572203218937,-0.0019663339480757713,0.0009292722679674625
1772522052768259000,7.086259033203125,0.000516226515173912,0.0002580382861196995,0.0012082746252417564
1772522052778256000,7.096255859375,-0.0012563727796077728,0.001672176644206047,0.0013025500811636448
1772522052788253200,7.106253173828125,0.0014011776074767113,-0.0010992777533829212,-0.00021393084898591042
1772522052798250000,7.11625,0.0018331422470510006,-0.0010492103174328804,-0.0003830413334071636
1772522052808246000,7.12624609375,0.0007451307028532028,0.002584358211606741,0.0022515198215842247
1772522052818243000,7.1362431640625,0.0018713814206421375,0.0024994038976728916,0.0029724380001425743
1772522052828240100,7.146240234375,0.0008689071983098984,0.0013528396375477314,0.0011421763338148594
1772522052838237000,7.15623681640625,0.0008883476257324219,0.0004263259470462799,-0.00013720616698265076
1772522052848233000,7.16623291015625,-0.0005910713225603104,-0.002114667557179928,-0.00013629579916596413
1772522052858230000,7.17622998046875,0.001709367148578167,-0.0013050665147602558,-0.0005829078145325184
1772522052868227000,7.18622705078125,-0.0012096259742975235,-0.0044050379656255245,-0.002279141917824745
1772522052878224100,7.19622412109375,-0.0011813957244157791,-0.0033291210420429707,-0.003963058814406395
1772522052888221000,7.206220947265625,-0.001077704131603241,-0.0022257911041378975,-0.003775478806346655
1772522052898217000,7.216217041015625,-0.0021938346326351166,-0.00007635354995727539,-0.0008590510115027428
1772522052908214000,7.226214111328125,-0.0004073409363627434,0.005492886528372765,0.0019054845906794071
1772522052918211000,7.236211181640625,0.0028305305168032646,0.0052390871569514275,0.00604670075699687
1772522052928208100,7.2462080078125,-0.0010799262672662735,0.004491905681788921,0.005797665566205978
1772522052938204200,7.2562041015625,0.0004330156370997429,0.006932958960533142,0.006356396712362766
1772522052948201000,7.266200927734375,-0.0008583152666687965,0.005372612737119198,0.0036175334826111794
1772522052958198500,7.276198486328125,-0.00046656373888254166,0.002546200528740883,0.0010102982632815838
1772522052968195300,7.2861953125,-0.0011662943288683891,-0.0008697882294654846,0.0017650863155722618
1772522052978192600,7.296192626953125,0.001554924063384533,-0.0025268071331083775,-0.00245602335780859
1772522052988188400,7.3061884765625,-0.0005588429048657417,-0.006186136044561863,-0.0033203621860593557
1772522052998185700,7.316185791015625,-0.00034232810139656067,-0.004794368054717779,-0.002305165398865938
1772522053008182500,7.3261826171875,0.0010309582576155663,-0.003658673958852887,-0.0002785078249871731
1772522053018179600,7.3361796875,-0.0026572532951831818,-0.0007124189287424088,0.004490414168685675
1772522053028176600,7.3461767578125,-0.00022156350314617157,0.0030818101949989796,0.0005441764369606972
1772522053038172400,7.35617236328125,0.000708945095539093,-0.0023007048293948174,0.0013284776359796524
1772522053048169700,7.366169677734375,-0.0008463514968752861,0.0008311732672154903,-0.0010379892773926258
1772522053058166500,7.37616650390625,-0.0004016030579805374,-0.0008695214055478573,-0.00015887990593910217
1772522053068163600,7.38616357421875,-0.0011612558737397194,0.0007124445401132107,-0.0016086194664239883
1772522053078159600,7.39615966796875,-0.001057659275829792,0.0010807598009705544,0.0014939634129405022
1772522053088156400,7.406156494140625,-0.000046135857701301575,0.0002391771413385868,-0.000979614444077015
1772522053098153500,7.416153564453125,-0.000986764207482338,-0.0004471191205084324,-0.00042407913133502007
1772522053108150500,7.426150634765625,-0.0011016028001904488,0.0006788885220885277,0.0005011362954974174
1772522053118147600,7.436147705078125,-0.002096559852361679,-0.000684649683535099,-0.0005279090255498886
1772522053128143600,7.4461435546875,-0.000340120866894722,0.0006108572706580162,0.00197841739282012
1772522053138140400,7.456140380859375,-0.000013883225619792938,0.0005205762572586536,-0.0002916608937084675
1772522053148137500,7.466137451171875,-0.00041308626532554626,0.0016925367526710033,-0.000010087154805660248
1772522053158134500,7.476134521484375,0.0030540828593075275,0.0008555050007998943,0.0017934059724211693
1772522053168130600,7.486130615234375,-0.0007686847820878029,-0.0014347904361784458,0.0014072810299694538
1772522053178127600,7.496127685546875,0.0003849966451525688,0.00124727888032794,0.002788397017866373
1772522053188124700,7.506124755859375,-0.0007824283093214035,0.0027478253468871117,0.002108235377818346
1772522053198121500,7.51612158203125,0.00044608768075704575,0.002756880596280098,0.0022597690112888813
1772522053208118500,7.526118408203125,-0.001987718977034092,0.00016702990978956223,-0.0008115172386169434
1772522053218114600,7.536114501953125,0.0003393515944480896,0.001074102707207203,0.0009160754270851612
1772522053228111600,7.546111572265625,-0.0005643051117658615,0.0003628898411989212,0.0011295992881059647
1772522053238108700,7.556108642578125,-0.0008473992347717285,-0.0010405960492789745,-0.0022121351212263107
1772522053248105500,7.56610546875,0.0002155071124434471,-0.0010920166969299316,0.00013354280963540077
1772522053258102500,7.5761025390625,0.0002807546406984329,-0.0011569978669285774,0.00025445036590099335
1772522053268098600,7.5860986328125,-0.00003996957093477249,-0.00030219508334994316,-0.001344115473330021
1772522053278095400,7.596095458984375,-0.00005834456533193588,-0.002165076322853565,-0.0007001631893217564
1772522053288092700,7.6060927734375,-0.0019946815446019173,-0.00044034095481038094,-0.0017048371955752373
1772522053298089500,7.61608935546875,-0.0006529809907078743,0.00018203957006335258,-0.0007186685688793659
1772522053308085500,7.62608544921875,-0.0011155791580677032,0.0023670662194490433,-0.00008609052747488022
1772522053318082600,7.63608251953125,-0.0007472634315490723,0.001110853161662817,0.00310544203966856
1772522053328079400,7.646079345703125,-0.00026493147015571594,0.0017558475956320763,0.0007972465828061104
1772522053338076700,7.65607666015625,-0.0004042144864797592,0.00002878764644265175,0.0007546357810497284
1772522053348073500,7.666073486328125,0.002477531787008047,0.0008171065710484982,0.0010912930592894554
1772522053358069800,7.67606982421875,0.0006782999262213707,-0.00023164600133895874,0.0003671795129776001
1772522053368066600,7.686066650390625,0.0012098094448447227,-0.001120148692280054,-0.0004028775729238987
1772522053378063400,7.6960634765625,0.0006260443478822708,-0.0011252090334892273,-0.002734208945184946
1772522053388060700,7.706060791015625,0.00020339712500572205,0.00013260217383503914,0.00027063582092523575
1772522053398056400,7.716056396484375,0.0026556355878710747,-0.0005395798943936825,-0.0007893024012446404
1772522053408053800,7.7260537109375,0.0018360679969191551,0.0009629991836845875,-0.0009644678793847561
1772522053418050600,7.736050537109375,-0.0011543957516551018,-0.001856489572674036,-0.0006281109526753426
1772522053428047600,7.746047607421875,0.0006404025480151176,0.001756065059453249,0.0011380272917449474
1772522053438044700,7.756044677734375,0.0009093815460801125,0.003849309403449297,0.002230455633252859
1772522053448040400,7.76604052734375,-0.0001738928258419037,0.0002999939024448395,0.002061104867607355
1772522053458037500,7.77603759765625,-0.0003025233745574951,0.002501628827303648,0.0017050406895577908
1772522053468034600,7.78603466796875,0.0006319908425211906,0.002263276372104883,0.0010096891783177853
1772522053478031600,7.796031494140625,-0.0010220985859632492,-0.002423621015623212,0.00184911722317338
1772522053488027600,7.806027587890625,-0.0016464069485664368,-0.0014243782497942448,0.0013820510357618332
1772522053498024400,7.8160244140625,0.003250081092119217,0.0006542187184095383,0.00025233766064047813
1772522053508021500,7.826021484375,-0.0005806488916277885,-0.003141391556710005,-0.0008635055273771286
1772522053518018600,7.8360185546875,0.0002302834764122963,-0.00007795728743076324,-0.00017641019076108932
1772522053528015600,7.846015625,0.0005879225209355354,-0.00037175510078668594,0.0003347666934132576
1772522053538011600,7.85601171875,-0.0005372632294893265,0.0010663517750799656,-0.00042103836312890053
1772522053548008400,7.866008544921875,-0.002246333286166191,-0.00026682112365961075,0.0011398298665881157
1772522053558005500,7.876005615234375,0.000024011358618736267,0.0012237499468028545,0.0025060316547751427
1772522053568002600,7.88600244140625,0.00042553339153528214,0.0015398794785141945,-0.0016421540640294552
1772522053577999600,7.89599951171875,0.0011978503316640854,0.0033526932820677757,-0.0016884934157133102
1772522053587995600,7.90599560546875,-0.0011068377643823624,-0.0011923378333449364,0.0007469626143574715
1772522053597992700,7.91599267578125,-0.00022692978382110596,0.0009850626811385155,0.0012324568815529346
1772522053607989500,7.925989501953125,-0.0020028408616781235,-0.0005186274647712708,-0.00032764114439487457
1772522053617986600,7.935986572265625,0.00023661088198423386,0.0018009855411946774,0.0005730399861931801
1772522053627982600,7.945982666015625,-0.00280158594250679,0.0016120318323373795,-0.00035517849028110504
1772522053637979400,7.9559794921875,-0.0008604079484939575,0.00038111908361315727,0.0023495275527238846
1772522053647976700,7.965976806640625,0.0002561686560511589,0.0004086853004992008,-0.00022182054817676544
1772522053657973500,7.975973388671875,-0.002149730920791626,0.0017107045277953148,0.0003638085909187794
1772522053667970600,7.985970458984375,0.0004484625533223152,-0.000844862312078476,0.0014084568247199059
1772522053677966600,7.995966552734375,0.0005629779770970345,-0.0002994472160935402,-0.0010392549447715282
1772522053687963400,8.00596337890625,-0.001192648895084858,0.0006159357726573944,-0.00018737511709332466
1772522053697960700,8.015960693359375,0.0006670365110039711,-0.0015231147408485413,-0.00017166230827569962
1772522053707957500,8.02595751953125,-0.0008487217128276825,0.0010668584145605564,-0.0008521727286279202
1772522053717953500,8.03595361328125,-0.00010063964873552322,-0.0011917687952518463,0.0015859510749578476
1772522053727950600,8.04595068359375,0.000010674819350242615,-0.0008214777335524559,-0.0012650522403419018
1772522053737947400,8.055947509765625,0.0005696723237633705,0.0006129010580480099,0.000622329767793417
1772522053747944700,8.06594482421875,0.0001597478985786438,-0.0024226410314440727,0.0021209637634456158
1772522053757941500,8.07594140625,-0.002023777924478054,-0.002337952610105276,-0.0008607110939919949
1772522053767937500,8.0859375,0.0006789537146687508,0.00003727199509739876,-0.0008962349966168404
1772522053777934600,8.0959345703125,0.00013407133519649506,0.002553958911448717,-0.0014544334262609482
1772522053787931400,8.105931396484374,-0.0013970062136650085,0.0007801163010299206,0.0003501037135720253
1772522053797928400,8.115928466796875,-0.0008912719786167145,0.0016653509810566902,-0.0007769460789859295
1772522053807924500,8.125924560546874,-0.00036520417779684067,0.0006116488948464394,0.0011294079013168812
1772522053817921500,8.135921630859375,0.0003322772681713104,0.0024750628508627415,0.001194655429571867
1772522053827918600,8.145918701171874,0.0009694844484329224,0.0004406464286148548,0.0004325583577156067
1772522053837915600,8.15591552734375,-0.00041535962373018265,0.0017658350989222527,-0.001570405438542366
1772522053847912400,8.165912353515624,-0.0005234600976109505,-0.001228170469403267,-0.0011333627626299858
1772522053857908500,8.175908447265625,-0.000658748671412468,0.000943637453019619,0.00047518638893961906
1772522053867905500,8.185905517578124,-0.0005807783454656601,-0.0010910029523074627,-0.0011998233385384083
1772522053877902600,8.195902587890625,-0.0016175471246242523,-0.00021109450608491898,-0.00127013074234128
1772522053887899600,8.205899658203125,-0.0003688149154186249,-0.00086636608466506,0.0004678615368902683
1772522053897896400,8.215896484375,-0.0011592414230108261,-0.0002791392616927624,0.00021645892411470413
1772522053907892500,8.225892578125,0.000277714803814888,0.002064884640276432,0.001457467209547758
1772522053917889500,8.2358896484375,-0.0010480061173439026,-0.0006203805096447468,-0.00191489327698946
1772522053927886600,8.245886474609375,-0.00032662320882081985,0.0001240731216967106,0.001431859564036131
1772522053937883600,8.255883544921875,0.00031386781483888626,-0.000307359267026186,0.001692050602287054
1772522053947879700,8.265879638671874,0.0008362503722310066,0.002573430072516203,0.0008345982059836388
1772522053957875700,8.275875732421875,0.0021747550927102566,0.0041066124103963375,0.0015571140684187412
1772522053967872500,8.28587255859375,-0.0006815623492002487,0.0016014007851481438,0.00026499945670366287
1772522053977869800,8.295869873046875,-0.002018469385802746,-0.0015318081714212894,-0.0004045190289616585
1772522053987866600,8.30586669921875,-0.0006399219855666161,-0.0013673454523086548,0.00022587692365050316
1772522053997862700,8.315862548828125,-0.0008838679641485214,-0.003302398370578885,-0.0013003810308873653
1772522054007859700,8.325859619140624,-0.0011370694264769554,-0.0004419987089931965,0.0013945139944553375
1772522054017856500,8.3358564453125,0.00008425582200288773,0.0005745301023125648,0.0010831905528903008
1772522054027853800,8.345853759765625,0.0005744174122810364,0.000029676128178834915,-0.0005372557789087296
1772522054037850600,8.3558505859375,0.00009664706885814667,0.0012595239095389843,-0.0005500391125679016
1772522054047846700,8.3658466796875,-0.0009406544268131256,0.00027868151664733887,0.0015346831642091274
1772522054057843700,8.37584375,0.00008732546120882034,-0.0005373107269406319,-0.0003910483792424202
1772522054067840500,8.385840576171875,-0.000038419850170612335,0.003052264917641878,-0.0009302305988967419
1772522054077837800,8.395837890625,-0.0002591954544186592,-0.0003376724198460579,-0.001177371945232153
1772522054087833600,8.40583349609375,0.0013310732319951057,-0.0022808031644672155,-0.0032949750311672688
1772522054097830700,8.41583056640625,-0.00012354552745819092,-0.00021552154794335365,0.00013304594904184341
1772522054107827700,8.42582763671875,-0.0008019385859370232,-0.0007183295674622059,0.001526541542261839
1772522054117824500,8.435824462890626,-0.0008844966068863869,0.002199695911258459,-0.001400272361934185
1772522054127821600,8.445821533203125,-0.0007659150287508965,0.000023808330297470093,0.001286935992538929
1772522054137817600,8.455817626953126,0.0004197238013148308,-0.0006228075362741947,-0.000517621636390686
1772522054147814700,8.465814697265625,-0.0007408978417515755,-0.0005107959732413292,0.0011642235331237316
1772522054157811700,8.475811767578126,0.0003581894561648369,-0.001670602709054947,0.000775401946157217
1772522054167808800,8.485808837890625,-0.000010722316801548004,-0.0014106067828834057,-0.00019266735762357712
1772522054177805600,8.4958056640625,0.0003008674830198288,0.0016158092767000198,0.0006688651628792286
1772522054187801600,8.505801513671875,-0.00007401127368211746,-0.0003052428364753723,0.0010067611001431942
1772522054197798700,8.515798583984376,0.00038058962672948837,0.0005568224005401134,0.0012240749783813953
1772522054207795700,8.525795654296875,0.0007907561957836151,-0.0010282611474394798,-0.00310526299290359
1772522054217792800,8.535792724609376,0.0013705259189009666,-0.00035022059455513954,-0.0016751457005739212
1772522054227788800,8.545788818359375,0.0016743382439017296,-0.002451615408062935,0.0020857458002865314
1772522054237785600,8.55578564453125,-0.0001318175345659256,-0.002071049530059099,0.0006114202551543713
1772522054247782700,8.56578271484375,0.0025951871648430824,-0.0001372327096760273,0.0008190763182938099
1772522054257779700,8.57577978515625,0.0017272629775106907,-0.00008876295760273933,0.0003913724794983864
1772522054267776800,8.58577685546875,0.0015504141338169575,0.0015185177326202393,0.0004381784237921238
1772522054277772500,8.5957724609375,-0.0005372380837798119,0.0011595236137509346,0.0008163475431501865
1772522054287769600,8.60576953125,0.0010920185595750809,0.0011973138898611069,0.0014286129735410213
1772522054297766700,8.6157666015625,0.0025477022863924503,-0.0014504007995128632,0.0008586961776018143
1772522054307763500,8.625763427734375,-0.0009312015026807785,0.002211802639067173,-0.00020443787798285484
1772522054317759700,8.635759765625,-0.00007393024861812592,-0.0006361817941069603,0.00034230900928378105
1772522054327756500,8.645756591796875,0.0007891999557614326,-0.0022559589706361294,0.0007139481604099274
1772522054337753900,8.65575390625,-0.00031947437673807144,0.003034410532563925,0.0007246006280183792
1772522054347750700,8.665750732421875,0.00039401743561029434,0.0007156338542699814,0.0006009172648191452
1772522054357747500,8.67574755859375,0.0006550075486302376,-0.0011991788633167744,-0.0012941882014274597
1772522054367743700,8.68574365234375,-0.0002468898892402649,-0.0005611618980765343,0.0012934166006743908
1772522054377740500,8.695740478515624,-0.0006247926503419876,-0.0024831651244312525,0.001481435727328062
1772522054387737900,8.70573779296875,0.0015125777572393417,0.0008620466105639935,0.0021852641366422176
1772522054397734700,8.715734619140624,0.0005503781139850616,0.0007382095791399479,0.0014238669537007809
1772522054407731700,8.725731689453125,0.001251045148819685,-0.0009306422434747219,-0.0010033464059233665
1772522054417727700,8.735727783203124,0.00024756602942943573,-0.0012976257130503654,-0.0005447501316666603
1772522054427724500,8.745724609375,-0.0019522914662957191,0.0009460072033107281,-0.0003834795206785202
1772522054437721900,8.755721923828125,-0.000429762527346611,0.001501808874309063,-0.0018969536758959293
1772522054447718700,8.76571875,0.00021179299801588058,0.0009502540342509747,0.001004362478852272
1772522054457714400,8.77571435546875,0.002180134877562523,0.00012414157390594482,-0.00019326107576489449
1772522054467711700,8.785711669921875,-0.0013402830809354782,-0.0008252933621406555,0.0009270692244172096
1772522054477708500,8.79570849609375,0.002835020888596773,0.00008390983566641808,0.0014762133359909058
1772522054487705600,8.80570556640625,-0.0015187915414571762,0.00201701233163476,0.0010686437599360943
1772522054497702700,8.81570263671875,-0.00031158048659563065,0.0012833117507398129,0.002586113288998604
1772522054507698700,8.82569873046875,-0.000639825128018856,-0.000050121452659368515,-0.0005650045350193977
1772522054517695700,8.83569580078125,0.000986301340162754,-0.0018307110294699669,0.001420382410287857
1772522054527692500,8.845692626953126,0.0021027992479503155,-0.00046478165313601494,-0.0016167601570487022
1772522054537689600,8.855689697265625,0.000018076971173286438,0.0015533617697656155,0.0007326803170144558
1772522054547686700,8.865686767578126,0.0023460034281015396,0.00019625993445515633,0.0003477395512163639
1772522054557682700,8.8756826171875,0.0010232115164399147,0.0017246482893824577,0.000007387716323137283
1772522054567679700,8.8856796875,0.0001638634130358696,-0.0008979514241218567,0.0024144193157553673
1772522054577676800,8.8956767578125,0.00007464736700057983,0.0006325668655335903,-0.001045027282088995
1772522054587673600,8.905673583984376,0.0009962962940335274,-0.0004280298016965389,0.002592494711279869
1772522054597669600,8.915669677734375,-0.00012036692351102829,-0.0010930211283266544,0.000248646829277277
1772522054607666700,8.925666748046876,0.0008643614128232002,-0.000450801569968462,0.0021390216425061226
1772522054617663700,8.935663818359375,-0.00041315704584121704,-0.0002657119184732437,0.0022719139233231544
1772522054627660800,8.945660888671876,0.0006307167932391167,-0.001568575855344534,-0.00018511386588215828
1772522054637657600,8.95565771484375,-0.0012153862044215202,0.0011997800320386887,-0.00021360954269766808
1772522054647653600,8.965653564453126,-0.000729074701666832,0.0015534274280071259,0.00003098277375102043
1772522054657650700,8.975650634765625,-0.0007754135876893997,0.0013022911734879017,0.001929283607751131
1772522054667647500,8.9856474609375,-0.000037396326661109924,-0.0023713151458650827,0.0026660244911909103
1772522054677644800,8.995644775390625,0.00017432495951652527,0.00004470488056540489,-0.0003990074619650841
1772522054687640600,9.005640625,0.0012466348707675934,-0.0023915362544357777,-0.0008673886768519878
1772522054697637600,9.0156376953125,-0.0025627510622143745,-0.00353989121504128,-0.0003193099983036518
1772522054707634700,9.025634765625,0.0009859493002295494,-0.002673044102266431,-0.004172880202531815
1772522054717631500,9.035631591796875,-0.0022306162863969803,-0.002143607474863529,-0.0010218280367553234
1772522054727628800,9.04562890625,-0.00021616648882627487,-0.0003995206207036972,0.0012980704195797443
1772522054737624600,9.05562451171875,-0.0007274933159351349,0.0023147729225456715,0.0026940996758639812
1772522054747622000,9.065621826171874,-0.000752781517803669,0.0012267432175576687,0.002254028804600239
1772522054757618700,9.07561865234375,0.0028699166141450405,0.0012965179048478603,-0.00023629330098628998
1772522054767615500,9.085615478515624,-0.0005903486162424088,-0.0031536140013486147,0.0010950840078294277
1772522054777612800,9.09561279296875,0.0005582729354500771,0.0016078515909612179,-0.00376518489792943
1772522054787608600,9.105608642578124,-0.0013794517144560814,-0.0018985955975949764,-0.0029185921885073185
1772522054797605600,9.115605712890625,-0.001196226105093956,-0.002545210998505354,0.001010902225971222
1772522054807602700,9.125602783203124,0.0019606384448707104,0.0012961486354470253,-0.0014086565934121609
1772522054817599700,9.135599853515625,0.0014106952585279942,0.0019275844097137451,-0.000521291047334671
1772522054827596500,9.145596435546874,-0.000630631111562252,0.0011251522228121758,0.0010052593424916267
1772522054837592600,9.155592529296875,-0.0020426390692591667,0.0030769831500947475,0.002787180244922638
1772522054847589600,9.165589599609374,0.00015504192560911179,0.00139943091198802,0.000546471681445837
1772522054857586700,9.175586669921875,-0.0008108867332339287,-0.00022243428975343704,-0.0011891103349626064
1772522054867583700,9.185583740234375,0.0004387516528367996,0.0005520768463611603,-0.0014886767603456974
1772522054877579800,9.195579833984375,-0.0005980171263217926,-0.0010641957633197308,-0.0006220843642950058
1772522054887576600,9.20557666015625,0.0003575701266527176,0.0013970625586807728,-0.0009829318150877953
1772522054897573600,9.21557373046875,-0.000006750226020812988,-0.0019942065700888634,-0.001352312508970499
1772522054907570700,9.22557080078125,-0.0012976136058568954,-0.0023397509939968586,-0.000874966848641634
1772522054917567700,9.235567626953125,0.0014012334868311882,-0.0003399834968149662,-0.0012416839599609375
1772522054927563800,9.245563720703124,0.0012103901244699955,-0.0019148178398609161,0.000041350722312927246
1772522054937560600,9.255560546875,0.0015411549247801304,0.00013554980978369713,0.0002453490160405636
1772522054947557600,9.2655576171875,-0.002018543891608715,0.0031645474955439568,-0.0009806496091187
1772522054957555000,9.275554931640626,0.0010355692356824875,0.0006944658234715462,-0.0023939888924360275
1772522054967550700,9.28555078125,0.0011162199079990387,-0.0005403636023402214,0.000419040210545063
1772522054977547800,9.2955478515625,0.0006400467827916145,0.001209599431604147,-0.0007799151353538036
1772522054987544800,9.305544921875,0.0019702953286468983,0.0026074927300214767,0.00004886044189333916
1772522054997542000,9.3155419921875,0.0016129459254443645,0.0007944256067276001,0.0005473718047142029
1772522055007538700,9.32553857421875,0.0011407784186303616,-0.00006350968033075333,-0.0027765328995883465
1772522055017534700,9.33553466796875,-0.0004877448081970215,-0.0018811170011758804,0.0004858393222093582
1772522055027531800,9.34553173828125,-0.0004763146862387657,-0.0002789534628391266,0.00033490918576717377
1772522055037528800,9.35552880859375,-0.00011785328388214111,-0.0015468844212591648,0.0004938999190926552
1772522055047526000,9.36552587890625,0.0019338829442858696,0.0019499068148434162,0.0007303683087229729
1772522055057522700,9.375522705078126,0.001505912747234106,0.0019805333577096462,0.002031588926911354
1772522055067519000,9.38551904296875,-0.0005433326587080956,0.0005566622130572796,0.001806285697966814
1772522055077515800,9.395515869140626,0.0012577632442116737,0.00075480155646801,0.0003378186374902725
1772522055087512800,9.405512939453125,0.003052002750337124,-0.0012993612326681614,0.0006224405951797962
1772522055097510000,9.415510009765624,0.0016032434068620205,-0.00028496282175183296,-0.0010271216742694378
1772522055107506700,9.425506591796875,0.0014868797734379768,0.00021039694547653198,0.0030505824834108353
1772522055117503000,9.4355029296875,-0.002213049679994583,-0.0013981526717543602,0.0013807807117700577
1772522055127499800,9.445499755859375,0.0001832433044910431,-0.00044385483488440514,0.0011464995332062244
1772522055137496800,9.455496826171874,0.0003523537889122963,0.0004232702776789665,-0.0006029312498867512
1772522055147494000,9.465493896484375,0.00030251964926719666,-0.0011931094340980053,-0.00003291107714176178
1772522055157489700,9.47548974609375,-0.001035718247294426,-0.001559560652822256,-0.0006353179924190044
1772522055167487000,9.485487060546875,0.0006567426025867462,0.000682557001709938,-0.00022227643057703972
1772522055177483800,9.49548388671875,-0.001119052991271019,-0.0003715222701430321,-0.0012776870280504227
1772522055187480800,9.505480712890625,-0.00038584601134061813,0.0016926745884120464,0.00020400108769536018
1772522055197478000,9.515477783203124,0.00043387431651353836,-0.0014591761864721775,-0.0012010824866592884
1772522055207473700,9.5254736328125,-0.002197274938225746,-0.0003348211757838726,-0.0005547911860048771
1772522055217471000,9.535470947265624,-0.0008489163592457771,0.0025408603250980377,-0.001704211812466383
1772522055227467800,9.5454677734375,-0.002237018197774887,-0.00007886765524744987,0.002112434245646
1772522055237464800,9.55546484375,-0.001730751246213913,-0.00041469233110547066,0.0016487780958414078
1772522055247460900,9.5654609375,-0.0023320000618696213,-0.0022973413579165936,0.000986213330179453
1772522055257457700,9.575457763671874,-0.0022323979064822197,-0.0020986697636544704,-0.0002060839906334877
1772522055267455000,9.585455078125,-0.0008745277300477028,-0.0013397210277616978,-0.00043230969458818436
1772522055277451800,9.59545166015625,0.0009047305211424828,0.0005583139136433601,0.00032003317028284073
1772522055287448800,9.60544873046875,-0.0010771378874778748,-0.0013838987797498703,-0.0007131192833185196
1772522055297444900,9.61544482421875,0.000593995675444603,-0.0005902769044041634,0.0013665426522493362
1772522055307442000,9.62544189453125,-0.0005938289687037468,0.0011136108078062534,-0.00021969107910990715
1772522055317438700,9.635438720703124,-0.0016348585486412048,-0.0008784336969256401,0.0022607767023146152
1772522055327435800,9.645435791015625,-0.0008671609684824944,0.0012787524610757828,0.0016914638690650463
1772522055337432800,9.655432861328125,0.0017310185357928276,0.0017506643198430538,-0.0005735545419156551
1772522055347428900,9.665428955078125,0.0001345369964838028,0.0005630417726933956,0.002348862588405609
1772522055357426000,9.675426025390625,-0.0008076895028352737,0.0026509598828852177,0.0020170332863926888
1772522055367422700,9.685422607421875,0.0006223870441317558,0.0006404174491763115,-0.0012307120487093925
1772522055377420000,9.695419921875,-0.0030216164886951447,-0.0007798462174832821,-0.0002424130216240883
1772522055387417900,9.70541796875,0.0002485523000359535,-0.0008047265000641346,-0.0008618165738880634
1772522055397415000,9.715414794921875,-0.0001743575558066368,-0.0016758465208113194,-0.0009576906450092793
1772522055407411000,9.725410888671876,-0.0017047831788659096,-0.000879848375916481,0.00015289103612303734
1772522055417407700,9.73540771484375,0.0008664987981319427,-0.000599683728069067,0.0006309282034635544
1772522055427404800,9.74540478515625,-0.0011367127299308777,-0.0008991681970655918,0.0029633687809109688
1772522055437401900,9.75540185546875,-0.00003150012344121933,0.0007698344998061657,0.001187572255730629
1772522055447398000,9.76539794921875,-0.0002925451844930649,0.0012849261984229088,-0.00004167761653661728
1772522055457395000,9.77539501953125,-0.00042250752449035645,-0.0015678517520427704,0.0005013407208025455
1772522055467391700,9.785391845703124,0.0002394542098045349,0.0013046422973275185,0.002463669516146183
1772522055477388800,9.795388916015625,-0.00043911952525377274,-0.0007976568304002285,0.0018503433093428612
1772522055487385900,9.8053857421875,-0.000719740055501461,-0.0008074068464338779,-0.0015837149694561958
1772522055497382000,9.8153818359375,-0.0007325233891606331,0.0026480453088879585,-0.00046066008508205414
1772522055507379000,9.82537890625,0.00015254784375429153,0.00015627779066562653,0.00017501739785075188
1772522055517376000,9.8353759765625,-0.001098073087632656,-0.0019867680966854095,0.0008850162848830223
1772522055527372800,9.845372802734374,0.0007010716944932938,0.0013171089813113213,-0.0014113779179751873
1772522055537369900,9.855369873046875,0.0009492784738540649,-0.0021569845266640186,0.0006789369508624077
1772522055547366000,9.865365966796874,0.0006290487945079803,0.0006347019225358963,-0.0011044745333492756
1772522055557362700,9.87536279296875,-0.00020105857402086258,-0.0005285670049488544,-0.002372938208281994
1772522055567360000,9.885360107421874,0.000041661784052848816,-0.0005525620654225349,-0.001078329049050808
1772522055577356800,9.895356689453125,-0.0025487951934337616,0.000834146048873663,-0.0000636647455394268
1772522055587352800,9.905352783203124,-0.000250011682510376,-0.0009399964474141598,-0.001622835174202919
1772522055597350000,9.915349853515625,0.001542028971016407,0.004426273517310619,-0.001036140602082014
1772522055607346700,9.9253466796875,-0.0017955321818590164,-0.000048889778554439545,0.0002607707865536213
1772522055617344000,9.935343994140625,-0.001143057830631733,-0.00011653406545519829,0.0003382689319550991
1772522055627340800,9.9453408203125,-0.001175430603325367,-0.00018476974219083786,0.00002269027754664421
1772522055637336800,9.9553369140625,0.0005479017272591591,-0.0021549761295318604,-0.0024346080608665943
1772522055647334000,9.965333984375,-0.00022885017096996307,0.0003353557549417019,-0.000646855216473341
1772522055657330700,9.97533056640625,0.000041993334889411926,0.00002562999725341797,-0.0018343585543334484
1772522055667328000,9.985327880859375,-0.0001236218959093094,0.0006565614603459835,0.0001538447104394436
1772522055677324800,9.99532470703125,-0.0014743776991963387,0.0005321917124092579,0.00137996394187212
1772522055687320800,10.00532080078125,0.0022635208442807198,0.0006848410703241825,0.0012164795771241188
1772522055697318000,10.01531787109375,0.0006565693765878677,-0.0005695074796676636,-0.0013982118107378483
1772522055707314700,10.025314697265625,-0.0005982369184494019,-0.0012022070586681366,0.002293702680617571
1772522055717311700,10.035311767578126,0.0007498553022742271,0.0006252536550164223,-0.0009271241724491119
1772522055727307800,10.045307861328125,-0.00010196119546890259,-0.00010631652548909187,-0.00025991396978497505
1772522055737304800,10.055304931640626,-0.002541949041187763,0.0018862606957554817,-0.0008932137861847878
1772522055747302000,10.065302001953125,0.0016933409497141838,0.0020234365947544575,-0.00033550942316651344
1772522055757299000,10.075298828125,-0.0006600944325327873,-0.0001614205539226532,0.0015231105498969555
1772522055767295700,10.085295654296875,0.0020842337980866432,-0.00033072056248784065,-0.0005399566143751144
1772522055777291800,10.095291748046876,-0.00026254355907440186,-0.0009147520177066326,-0.0015578167513012886
1772522055787288800,10.105288818359375,0.0002683214843273163,-0.00017944257706403732,0.0033463104628026485
1772522055797286000,10.115285888671876,-0.00021291151642799377,0.0007622512057423592,0.0013856911100447178
1772522055807283000,10.125282958984375,-0.0008505508303642273,-0.0006131818518042564,0.0007562660612165928
1772522055817279700,10.13527978515625,-0.0007464215159416199,0.0023791464045643806,0.0008436175994575024
1772522055827275800,10.14527587890625,0.0003240583464503288,0.0000018863938748836517,-0.002179892733693123
1772522055837272800,10.15527294921875,-0.0015172511339187622,-0.0024503523018211126,0.00039325328543782234
1772522055847270000,10.165269775390625,-0.0008747512474656105,0.0017214557155966759,-0.00035122036933898926
1772522055857267000,10.175266845703124,-0.001225755549967289,0.00019200285896658897,-0.003722516121342778
1772522055867263700,10.185263671875,-0.0038751959800720215,0.00018669338896870613,0.0010455143637955189
1772522055877259800,10.195259765625,-0.00027140602469444275,0.0016130823642015457,-0.00019418727606534958
1772522055887256800,10.2052568359375,-0.0001761196181178093,0.00024349987506866455,0.0013921610079705715
1772522055897253600,10.215253662109374,0.00026836246252059937,0.00016280589625239372,0.0007873568683862686
1772522055907251000,10.2252509765625,0.0007897429168224335,0.0003171791322529316,0.000643707811832428
1772522055917246700,10.235246826171876,-0.0010446421802043915,0.0001880158670246601,-0.0005395347252488136
1772522055927244000,10.245244140625,0.001179225742816925,-0.0011958484537899494,-0.0016697212122380733
1772522055937240800,10.25524072265625,-0.0009726081043481827,0.0011266940273344517,0.0008275248110294342
1772522055947237600,10.265237548828125,-0.00008524861186742783,0.001170493196696043,0.0008437633514404297
1772522055957235000,10.27523486328125,0.0008258186280727386,0.0008772793225944042,0.0008397684432566166
1772522055967230700,10.285230712890625,0.0015641762875020504,-0.00008942512795329094,0.00104208430275321
1772522055977227800,10.295227783203124,0.0004208814352750778,-0.00045188143849372864,0.0015701893717050552
1772522055987224800,10.305224853515625,-0.0018563559278845787,0.00045943353325128555,-0.001227560918778181
1772522055997221600,10.3152216796875,0.0001444770023226738,-0.0026141207199543715,0.0007703425362706184
1772522056007219000,10.325218994140625,-0.0002949051558971405,0.00028351228684186935,0.0018458091653883457
1772522056017214700,10.335214599609374,0.0004097679629921913,-0.0010113166645169258,0.00005110446363687515
1772522056027212000,10.3452119140625,0.00028907880187034607,-0.0019337567500770092,0.0022172443568706512
1772522056037208800,10.355208740234374,0.00021983683109283447,0.0010625659488141537,-0.0012648385018110275
1772522056047205600,10.36520556640625,-0.0008723977953195572,0.0004290374927222729,0.0005739359185099602
1772522056057202000,10.375201904296874,0.000644272193312645,-0.0016788546927273273,0.0005323905497789383
1772522056067198700,10.38519873046875,0.0007199756801128387,0.0018137898296117783,0.00012785149738192558
1772522056077195800,10.39519580078125,0.0007058605551719666,-0.0011058337986469269,0.0006911102682352066
1772522056087192800,10.40519287109375,-0.0011782338842749596,-0.0007219328545033932,-0.0004792260006070137
1772522056097190000,10.41518994140625,0.00015867315232753754,0.0011103223077952862,0.00113651342689991
1772522056107186000,10.42518603515625,0.0025919615291059017,-0.0004063984379172325,-0.0004730154760181904
1772522056117182700,10.4351826171875,0.002487033139914274,-0.0011092065833508968,-0.00144879799336195
1772522056127179800,10.4451796875,0.0018695928156375885,0.0012195981107652187,0.0007183337584137917
1772522056137176800,10.4551767578125,-0.0002787793055176735,-0.000981238204985857,-0.00047822436317801476
1772522056147174000,10.465173828125,-0.0006365897133946419,0.0010143867693841457,-0.0015282942913472652
1772522056157170000,10.475169921875,0.0010097771883010864,0.00029986072331666946,0.00008265161886811256
1772522056167166700,10.485166748046876,0.0009745564311742783,-0.0024409976322203875,-0.0012840102426707745
1772522056177163800,10.495163818359375,0.0018611224368214607,0.00008474430069327354,-0.0021042637526988983
1772522056187160800,10.505160888671876,-0.0003707846626639366,0.00007832655683159828,-0.0015960047021508217
1772522056197158000,10.515157958984375,-0.0018978407606482506,0.0006237421184778214,0.00031055230647325516
1772522056207154000,10.52515380859375,0.00043349433690309525,-0.0012545804493129253,0.00015393877401947975
1772522056217150700,10.535150634765625,0.0007717162370681763,-0.0007855980657041073,-0.0026857899501919746
1772522056227147800,10.545147705078126,-0.0011905655264854431,0.0009402623400092125,0.0005762018263339996
1772522056237144800,10.555144775390625,0.002520815934985876,0.002216982189565897,0.0000627441331744194
1772522056247140900,10.565140869140626,-0.00005521439015865326,-0.000718995463103056,-0.0007456103339791298
1772522056257137700,10.5751376953125,-0.0017540445551276207,0.0019838460721075535,0.0010102116502821445
1772522056267135000,10.585135009765626,0.00001895800232887268,0.0003124931827187538,0.0015242872759699821
1772522056277131800,10.5951318359375,0.001512458547949791,-0.00046594860032200813,0.0004851222038269043
1772522056287128600,10.605128662109376,0.00020717084407806396,0.001704634167253971,-0.00039769383147358894
1772522056297124900,10.615124755859375,-0.001712702214717865,-0.0006671776063740253,-0.0021431297063827515
1772522056307121700,10.62512158203125,-0.0003506327047944069,-0.0008321274071931839,0.00256374292075634
1772522056317119000,10.635118896484375,-0.0012609008699655533,0.0007188976742327213,0.0024590808898210526
1772522056327115800,10.64511572265625,0.00009672343730926514,-0.0002176067791879177,-0.001394809689372778
1772522056337112800,10.65511279296875,-0.0014995746314525604,-0.0003744671121239662,0.002355719916522503
1772522056347108900,10.66510888671875,-0.000033425167202949524,0.00013400660827755928,0.0018713241443037987
1772522056357105700,10.675105712890625,0.0003444775938987732,-0.0021214247681200504,0.0005272268317639828
1772522056367103000,10.68510302734375,-0.00041069649159908295,0.0025317766703665257,0.0003896290436387062
1772522056377099800,10.695099853515625,-0.0006903288885951042,-0.0021665715612471104,-0.0014519472606480122
1772522056387096800,10.705096923828124,-0.0000830749049782753,-0.001340110320597887,0.000767990481108427
1772522056397092900,10.7150927734375,-0.00027721934020519257,0.0014916290529072285,-0.0012102052569389343
1772522056407089700,10.725089599609374,-0.0008265841752290726,-0.000715737696737051,0.002935661468654871
1772522056417086700,10.735086669921875,-0.0006982190534472466,0.00006243819370865822,-0.001382388174533844
1772522056427083800,10.745083740234374,-0.0017806189134716988,0.0014322446659207344,-0.003517460310831666
1772522056437079800,10.755079833984375,-0.00020136404782533646,-0.0008468884043395519,-0.0027680466882884502
1772522056447076900,10.765076904296874,0.0004337150603532791,-0.0018954500555992126,-0.00029863929376006126
1772522056457073700,10.77507373046875,-0.0006701648235321045,-0.0008845143020153046,-0.0006480459123849869
1772522056467070700,10.78507080078125,-0.0012923190370202065,0.00015578046441078186,0.003317874390631914
1772522056477067800,10.79506787109375,0.00070212222635746,-0.0012383842840790749,-0.0009027034975588322
1772522056487063800,10.805063720703124,0.00030152779072523117,-0.0012641646899282932,0.0010676877573132515
1772522056497060900,10.815060791015625,-0.0012750634923577309,0.0011033853515982628,0.003351614810526371
1772522056507058000,10.825057861328125,0.002493536099791527,0.0019005569629371166,0.0002867509610950947
1772522056517054700,10.8350546875,-0.0006327489390969276,-0.0003242478705942631,0.0006998074240982533
1772522056527051800,10.8450517578125,0.0000595608726143837,-0.0001232493668794632,0.00016508903354406357
1772522056537047800,10.8550478515625,-0.00056468416005373,-0.0024497867561876774,-0.0013944581151008606
1772522056547044900,10.865044921875,0.0009917523711919785,-0.0024990204256027937,0.0009454870596528053
1772522056557042000,10.8750419921875,0.00005618389695882797,0.0005652126856148243,-0.0007227170281112194
1772522056567038700,10.885038818359375,0.0015199454501271248,0.00046674953773617744,-0.0014263899065554142
1772522056577035800,10.895035888671876,-0.00000657886266708374,-0.002606804482638836,0.000687361229211092
1772522056587031800,10.90503173828125,-0.0008184155449271202,0.002741935197263956,-0.00007478427141904831
1772522056597028600,10.915028564453126,0.0005821408703923225,-0.00015984522178769112,0.0019074063748121262
1772522056607026000,10.92502587890625,-0.0010446738451719284,0.0005893856287002563,-0.001051205676048994
1772522056617022700,10.935022705078126,-0.001108855940401554,-0.00035763438791036606,-0.0004570544697344303
1772522056627018800,10.945018798828125,-0.0007560085505247116,-0.0006503374315798283,-0.0017740242183208466
1772522056637015800,10.955015869140626,0.00003415066748857498,-0.0011536749079823494,-0.0004344540648162365
1772522056647012600,10.9650126953125,-0.0021841861307621002,0.0002389713190495968,0.00008294405415654182
1772522056657010000,10.975010009765626,-0.0009530065581202507,0.00044616498053073883,0.00036710361018776894
1772522056667006700,10.9850068359375,0.0012458967976272106,0.001629859209060669,-0.0013630352914333344
1772522056677003000,10.9950029296875,-0.001756284385919571,-0.002115876879543066,0.0016213031485676765
1772522056686999800,11.004999755859375,0.0019425717182457447,-0.0013103368692100048,-0.0003709583543241024
1772522056696996600,11.01499658203125,-0.00013282988220453262,0.001101954374462366,-0.0012937439605593681
1772522056706994000,11.024993896484375,-0.0008018901571631432,-0.0000966307707130909,-0.00010214466601610184
1772522056716990700,11.03499072265625,0.0011752410791814327,0.000675152987241745,0.000760186929255724
1772522056726987000,11.044987060546875,0.0001218058168888092,0.0008259802125394344,0.0014111916534602642
1772522056736983800,11.05498388671875,-0.003226053901016712,-0.0021969741210341454,-0.0002799155190587044
1772522056746980900,11.06498095703125,0.0006572892889380455,-0.0006678709760308266,-0.0010312939994037151
1772522056756978000,11.07497802734375,0.0006876494735479355,-0.0007818541489541531,-0.0005934704095125198
1772522056766974700,11.084974609375,0.00012429244816303253,0.0004957686178386211,-0.0010667359456419945
1772522056776970800,11.094970703125,-0.00136627908796072,-0.0014906832948327065,-0.0005088038742542267
1772522056786967800,11.1049677734375,0.0016526700928807259,-0.0022606616839766502,-0.0012962990440428257
1772522056796964900,11.11496484375,0.0004396000877022743,-0.0031565490644425154,0.0011804411187767982
1772522056806961700,11.124961669921875,-0.0022085392847657204,0.0001497836783528328,0.0006600678898394108
1772522056816959000,11.134958984375,0.0001054815948009491,-0.0016100327484309673,-0.0014795158058404922
1772522056826954800,11.144954833984375,0.00030965451151132584,0.00281201908364892,0.0042940243147313595
1772522056836951800,11.154951904296874,-0.0015369812026619911,0.004040003288537264,0.005793118383735418
1772522056846948900,11.164948974609375,0.0018995711579918861,0.0010769106447696686,0.002441050484776497
1772522056856945700,11.174945556640624,0.0007445579394698143,-0.0015215356834232807,0.0008125277236104012
1772522056866941700,11.184941650390625,-0.001213887706398964,0.001590097788721323,0.0000677378848195076
1772522056876938800,11.194938720703124,0.00022368691861629486,-0.0006674635224044323,-0.0002928539179265499
1772522056886935800,11.204935791015625,0.0011690636165440083,-0.0016993186436593533,-0.0006253044120967388
1772522056896932900,11.214932861328125,-0.001990511082112789,-0.00422319583594799,-0.003937744535505772
1772522056906929700,11.2249296875,0.0008040145039558411,-0.0020895511843264103,-0.0012651486322283745
1772522056916926000,11.234926025390624,0.0003981487825512886,-0.0008256151340901852,-0.00013064173981547356
1772522056926922800,11.2449228515625,0.000981534831225872,-0.0032455874606966972,0.000031696632504463196
