time,seconds_elapsed,z,y,x
1772623489278797300,0.07379736328125,0.09398469012081623,0.6831415461316704,-0.5162598525064066
1772623489288826400,0.083826416015625,0.20417700319886206,0.7709881718888878,-0.3721062696482986
1772623489298856400,0.0938564453125,0.31937282365262504,0.8782099447235464,-0.21956096174828707
1772623489308885500,0.103885498046875,0.46401334977746006,0.9575976619541644,-0.04471117532067
1772623489318915600,0.11391552734375,0.6406248851805925,0.9712865800887346,0.06058971245400607
1772623489328945400,0.1239453125,0.7351993578881025,0.97868984208256,0.04025390365086496
1772623489338974500,0.133974365234375,0.8091489757180214,0.968281260792911,0.00372358710039407
1772623489349004500,0.144004638671875,0.8469792324185371,0.9382330362707376,-0.05650134716182947
1772623489359034600,0.15403466796875,0.9191478120505809,0.8487900812327861,-0.09870868643540888
1772623489369063700,0.164063720703125,1.0353250447571276,0.7716542345821857,-0.057918191689811646
1772623489379093500,0.174093505859375,1.0757394727319478,0.7272878541111946,-0.049437838516384364
1772623489389123300,0.184123291015625,1.1046791514903307,0.6457870902493595,-0.1599325686071068
1772623489399152600,0.194152587890625,1.0666367133438586,0.5383499210983514,-0.2781728347906843
1772623489409182500,0.204182373046875,1.046022379860282,0.36662031251788135,-0.3339408261766657
1772623489419211300,0.214211181640625,1.0350701932132242,0.1734647618100047,-0.4305413978843018
1772623489429241300,0.224241455078125,0.9922551338374614,0.025421733765304086,-0.466955358046107
1772623489439271400,0.234271484375,0.9209639215618372,-0.11520020436793565,-0.4951372772397473
1772623489449300500,0.244300537109375,0.843622323206067,-0.22450901260972023,-0.5683844824213534
1772623489459330600,0.25433056640625,0.7940729871392249,-0.326864640712738,-0.6721892133541405
1772623489469360600,0.264360595703125,0.7707201686024665,-0.42212446533590553,-0.7723942392945289
1772623489479389700,0.2743896484375,0.7466431274443864,-0.47271512714922426,-0.83525708431229
1772623489489419800,0.284419677734375,0.7574129432618617,-0.518551872433722,-0.7955084267698228
1772623489499448600,0.294448486328125,0.7238175476521254,-0.5320002598106861,-0.7176997223589568
1772623489509478700,0.304478759765625,0.7093973926335573,-0.5018678641363978,-0.7052442184768617
1772623489519508500,0.314508544921875,0.6662801354408264,-0.4588526060134172,-0.6925340822465718
1772623489529537800,0.324537841796875,0.5856301431894302,-0.4833475803226232,-0.6447861695785075
1772623489539567600,0.334567626953125,0.5143494523078203,-0.566958175945282,-0.5586049928154796
1772623489549597700,0.34459765625,0.4387795397996902,-0.6719570120334625,-0.47606911375224586
1772623489559626500,0.35462646484375,0.31166531801521774,-0.7394982241258025,-0.47590025999136265
1772623489569656600,0.364656494140625,0.16696107900440693,-0.7874000852465629,-0.5602008837047964
1772623489579686700,0.374686767578125,0.09744272162020205,-0.8491384562790393,-0.6184547736223787
1772623489589715700,0.3847158203125,0.026145664125680923,-0.9246706671252846,-0.6623473991017789
1772623489599745500,0.39474560546875,-0.11177227574586868,-0.9858642637565731,-0.7242796852711588
1772623489609774600,0.404774658203125,-0.23412673578262327,-1.0233075669661165,-0.8026243962548673
1772623489619804700,0.4148046875,-0.35780864503085613,-1.0315455262184143,-0.8647777047637849
1772623489629834800,0.424834716796875,-0.472355646187067,-1.035682772153616,-0.919730068917945
1772623489639863800,0.43486376953125,-0.5092629428237676,-0.9861445420026779,-0.9079271106604486
1772623489649893600,0.4448935546875,-0.4484001855820417,-0.9097183049261569,-0.7918776690520346
1772623489659923500,0.45492333984375,-0.302017199704051,-0.8639093244314193,-0.5541892952650785
1772623489669952500,0.464952392578125,-0.14580138659775257,-0.8454036536648869,-0.24794775586426257
1772623489679982600,0.474982666015625,0.054417234364151953,-0.8067407455325126,0.028750512861832975
1772623489690012700,0.4850126953125,0.18563070816099642,-0.7181509001925587,0.16550642321668566
1772623489700041500,0.49504150390625,0.2278828729569912,-0.5776680782690644,0.319055355201289
1772623489710071600,0.505071533203125,0.21462007128000257,-0.4834010640755296,0.4313610071714967
1772623489720100600,0.5151005859375,0.1871919661283493,-0.5155661346212029,0.6014314503680914
1772623489730130700,0.525130615234375,0.15355273137688635,-0.679690236634016,0.8205587699394673
1772623489740160800,0.535160888671875,-0.02165361340343952,-0.8228112981066107,1.0354789201445878
1772623489750189600,0.545189453125,-0.2678326060295105,-0.8821075366839766,1.0722021654512732
1772623489760219600,0.5552197265625,-0.6144219379097223,-0.7448734874233603,0.9161639739342033
1772623489770249700,0.565249755859375,-1.1912801611006258,-0.4372299722701311,0.39532296764999625
1772623489780278800,0.57527880859375,-1.8117220899522304,-0.0984603742301464,-0.12857289616018533
1772623489790308600,0.58530859375,-2.241449723768234,0.1367439276561141,-0.43959264628086236
1772623489800338400,0.59533837890625,-2.507163437947631,0.22818448625206947,-0.48149961436837907
1772623489810367500,0.605367431640625,-2.3866227493345735,0.34614626428782935,-0.552870065892674
1772623489820397600,0.6153974609375,-2.027241155898571,0.6909282544851303,-0.4304433443373069
1772623489830426600,0.625426513671875,-1.3971534468233584,1.0256146748647093,-0.2522374158822
1772623489840456700,0.635456787109375,-0.7126613628655671,1.2345002941459418,-0.04529365138374269
1772623489850486500,0.645486572265625,-0.10047989735901355,1.3374457048356532,0.21978037665262817
1772623489860515600,0.655515625,0.5171703549474478,1.3337185010060668,0.47080925699528303
1772623489870545700,0.665545654296875,0.9884674319922924,1.1410130321532488,0.5642183026526123
1772623489880575700,0.67557568359375,1.2756892136245965,0.9108645523518324,0.604365019601956
1772623489890604800,0.685604736328125,1.3763923983454704,0.7243529697030783,0.5055609465006738
1772623489900634600,0.695634521484375,1.306582364538312,0.628852029800415,0.3533759963456541
1772623489910664400,0.70566455078125,1.0576309845894574,0.5736977133333683,0.17102153337635098
1772623489920693800,0.71569384765625,0.5249310520768166,0.48470863954275845,-0.03763933723829686
1772623489930723600,0.7257236328125,-0.2235287694007158,0.29634061537235973,-0.22954324391726402
1772623489940752400,0.73575244140625,-0.8631056068331002,0.18322277023643255,-0.3862806697448715
1772623489950782500,0.745782470703125,-1.3344997145116329,0.211707983225584,-0.6184943019151687
1772623489960812500,0.7558125,-1.610333840689063,0.3564858719944954,-0.8899890837140381
1772623489970841600,0.765841552734375,-1.7031705298185347,0.6293623174101114,-0.9656303809579462
1772623489980871700,0.77587158203125,-1.544641179072857,0.9199275642514229,-0.7676243945442139
1772623489990901800,0.78590185546875,-1.1740350117892027,1.127286120095849,-0.5755461176790296
1772623490000930600,0.7959306640625,-0.7364438049912452,1.3312217157542705,-0.4510820085445419
1772623490010960600,0.805960693359375,-0.24704233145713805,1.5036001436322926,-0.36758955940883603
1772623490020990700,0.81599072265625,0.26322891162633894,1.6075471325799822,-0.2664716198746115
1772623490031019800,0.826019775390625,0.7196954992860555,1.5635136373251675,-0.06573836392145603
1772623490041049600,0.836049560546875,1.211640227562189,1.431407014080882,0.19651819554138927
1772623490051079400,0.846079345703125,1.5852748027563095,1.2483648611083626,0.30365144984237846
1772623490061108500,0.8561083984375,1.8992115728348493,1.0550775007143616,0.3059254226563498
1772623490071138600,0.866138671875,2.151408802837133,0.8974155804529785,0.2433203883245587
1772623490081167600,0.876167724609375,2.2127555442035196,0.7420142985999584,0.11131938087921589
1772623490091197700,0.88619775390625,2.112487828290462,0.4681301374465227,0.000011909633502364157
1772623490101227500,0.8962275390625,2.022119575101137,0.10947276663184165,0.026828203029744327
1772623490111256600,0.906256591796875,1.9147955109357833,-0.20600451088696717,0.12145908209960907
1772623490121286700,0.91628662109375,1.7384622079521417,-0.39160394712686536,0.19039635166022925
1772623490131316700,0.926316650390625,1.4725550170272588,-0.5270818003699184,0.2713461123094894
1772623490141345800,0.936345703125,1.2210264800667763,-0.6853545460060239,0.3604582462241873
1772623490151375600,0.946375732421875,0.9625713587135076,-0.8172682770267129,0.4008394660491496
1772623490161404700,0.95640478515625,0.6943675812840462,-0.8709116044089198,0.3964305635657161
1772623490171434800,0.966434814453125,0.4861187986016273,-0.8771972605496644,0.2840560841429978
1772623490181464600,0.976464599609375,0.34774142452478407,-0.8398743688493967,0.06258042961349711
1772623490191493600,0.98649365234375,0.2798001071989536,-0.7494456176444888,-0.029286674698302522
1772623490201523500,0.9965234375,0.26920272533893586,-0.6744970519050956,0.03801823528697714
1772623490211553500,1.006553466796875,0.3138333097040653,-0.6405845531702041,0.1975863727621734
1772623490221582600,1.01658251953125,0.37619770368039607,-0.6270119548916816,0.3201243361396715
1772623490231612700,1.02661279296875,0.3414718427360058,-0.6202303319275378,0.3975214275423437
1772623490241642800,1.036642822265625,0.3295668854087591,-0.6401780181959271,0.46010874355435366
1772623490251671600,1.046671630859375,0.3976806366920471,-0.6492632419273257,0.3687944416865706
1772623490261701600,1.05670166015625,0.417565486857295,-0.6476444085538386,0.3091117976075038
1772623490271731700,1.066731689453125,0.37263328919708727,-0.6851470407351851,0.4041159669691696
1772623490281760800,1.0767607421875,0.2656657833844423,-0.7435933844849467,0.4902172103637829
1772623490291790800,1.086790771484375,0.13127894024848938,-0.8129805167049169,0.43081035101879384
1772623490301819600,1.096819580078125,-0.008379705810546874,-0.8109080943450331,0.31827216893434523
1772623490311849500,1.106849365234375,-0.15638590897619722,-0.7637775098577141,0.20492478935886174
1772623490321879600,1.116879638671875,-0.3231622790634632,-0.6957903075635433,0.17637566255433484
1772623490331908600,1.12690869140625,-0.4229612084209919,-0.6225678349643945,0.14972165618087163
1772623490341938700,1.136938720703125,-0.49358898835182186,-0.5187231373474002,0.1188965107357595
1772623490351968500,1.146968505859375,-0.545986115065217,-0.3891732128486037,0.10568643475985154
1772623490361997600,1.15699755859375,-0.5721171661436557,-0.27395138117074963,0.08412258199909702
1772623490372027600,1.167027587890625,-0.5429214667975902,-0.15672697749882936,0.05298763081929646
1772623490382057700,1.1770576171875,-0.503667314773798,-0.08200316042602061,0.08271559214484878
1772623490392086500,1.18708642578125,-0.3462368651807308,-0.10193857173472642,0.17315781475268302
1772623490402116600,1.19711669921875,-0.22395020968317983,-0.16898323248177766,0.2443003758052364
1772623490412145700,1.207145751953125,-0.11137246277332305,-0.22312807964533565,0.18395077398372814
1772623490422175700,1.21717578125,-0.03761749073266983,-0.19707944615334272,0.06182669320332352
1772623490432205600,1.22720556640625,-0.0842038853406906,-0.1590901994988322,-0.06799262738795951
1772623490442234600,1.237234619140625,-0.22439444631934163,-0.1927224199876189,-0.21820311739854514
1772623490452264700,1.2472646484375,-0.3300286577016115,-0.3062736881047487,-0.3668851374665275
1772623490462294800,1.257294677734375,-0.3693003453820944,-0.45839784798324107,-0.4230667146220803
1772623490472323600,1.267323486328125,-0.33035306735038755,-0.6732005823537707,-0.3929983240947127
1772623490482353700,1.277353759765625,-0.3473170616328716,-0.8808145742639899,-0.23445414110608398
1772623490492383700,1.2873837890625,-0.41890111937522884,-0.997233506771922,-0.1740731394993141
1772623490502412800,1.297412841796875,-0.5351017329573631,-0.974251275113225,-0.2785441157884896
1772623490512443000,1.30744287109375,-0.8214747888058423,-0.899453223760426,-0.5499479313682765
1772623490522472700,1.31747265625,-1.1264192741334438,-0.8842524397581816,-0.760216456375271
1772623490532501800,1.327501708984375,-1.3523416606724261,-0.9273322875499724,-0.8183318146049976
1772623490542531800,1.33753173828125,-1.5182991155922412,-0.8782295262068509,-0.7919882898196577
1772623490552561000,1.347560791015625,-1.5482529398292302,-0.6311915786638855,-0.7549189344890416
1772623490562590700,1.3575908203125,-1.366357326543331,-0.268909587611258,-0.6689345954723656
1772623490572620500,1.36762060546875,-1.068379757618904,0.0634273470327258,-0.4724873097427189
1772623490582649600,1.377649658203125,-0.7233820788443088,0.2647787714168429,-0.14272425330788827
1772623490592679700,1.3876796875,-0.3427987074255943,0.42174189575910564,0.1011485538681969
1772623490602709800,1.397709716796875,-0.008639818051457405,0.5838526121228933,0.1801124196635559
1772623490612738600,1.407738525390625,0.23366145635843275,0.721798316784203,0.1540930122660473
1772623490622768600,1.4177685546875,0.38807051230371,0.7917053812250494,0.0317406711211428
1772623490632798700,1.427798828125,0.49189913556873793,0.7803077888980507,-0.13060171684036032
1772623490642827800,1.437827880859375,0.5759072060763836,0.7100690082848071,-0.28638365030772983
1772623490652857900,1.44785791015625,0.5778741222351789,0.6348039239421487,-0.2609995451390743
1772623490662888000,1.457887939453125,0.5748351929306984,0.5559720870286226,-0.2984682019855827
1772623490672916700,1.467916748046875,0.5575549723058939,0.4715913838163018,-0.4526837081201374
1772623490682946600,1.477946533203125,0.35181788018345833,0.429744000428915,-0.5833071801345795
1772623490692975900,1.487975830078125,0.11284428889155387,0.371128729853034,-0.6552322333343327
1772623490703005700,1.498005615234375,-0.11149287428259849,0.27037556851059197,-0.7418331698793917
1772623490713035800,1.508035888671875,-0.3221826203763485,0.17345891659110785,-0.6900218071646989
1772623490723064600,1.518064697265625,-0.39829555371999736,0.1452189105346799,-0.5619159439943731
1772623490733094700,1.5280947265625,-0.3441711648225784,0.18319646675139664,-0.44570561273582276
1772623490743124700,1.538124755859375,-0.22467443230450151,0.3020128157898784,-0.3362586015997454
1772623490753153800,1.54815380859375,-0.022619828087091443,0.4905430447846651,-0.23897899811938403
1772623490763183600,1.55818359375,0.23342764760255813,0.7004407637178898,-0.14779153750166296
1772623490773213700,1.568213623046875,0.5047048411279916,0.8450885963663458,-0.0747836209686473
1772623490783242800,1.57824267578125,0.8325082239955663,0.911256766539812,-0.004149187534744851
1772623490793272800,1.58827294921875,1.1291226878732443,0.9313146351844072,0.04490538271851837
1772623490803302700,1.598302734375,1.4167092111647128,0.9316291079610586,0.10220220937328413
1772623490813331700,1.608331787109375,1.667702910596132,0.9142644239231944,0.1049860679381527
1772623490823361500,1.618361572265625,1.8454039948016403,0.8788792222872376,0.0669543338487856
1772623490833390600,1.628390625,1.9968126998871563,0.8279962995290756,0.000316116744466126
1772623490843420700,1.638420654296875,2.13625215023756,0.770782712444663,-0.06543331656027584
1772623490853450800,1.64845068359375,2.1783955939620734,0.699897450621426,-0.16132139261700212
1772623490863479600,1.6584794921875,2.153296224018931,0.6157336050301789,-0.27638038014965133
1772623490873509600,1.668509521484375,2.081973447561264,0.500537784576416,-0.38295740707367654
1772623490883539700,1.678539794921875,1.8952292252004146,0.37635844720005984,-0.47713856961466367
1772623490893568800,1.68856884765625,1.6658873856067657,0.2017705265790224,-0.4860682374581694
1772623490903598800,1.698598876953125,1.490067292842269,0.050992520612478255,-0.5296376953978091
1772623490913629000,1.70862890625,1.2748305509686468,-0.057903907436132426,-0.6242793150573969
1772623490923657700,1.71865771484375,1.1081617329090834,-0.13898410779833792,-0.7067785153720527
1772623490933687800,1.728687744140625,1.029690253740549,-0.19698095421493053,-0.7297647656187415
1772623490943717600,1.738717529296875,0.9683739075124264,-0.2237561484158039,-0.6603993337739259
1772623490953746700,1.74874658203125,0.9420254142910242,-0.2182610581308603,-0.5883079475639388
1772623490963776800,1.75877685546875,0.9519850827693939,-0.2198825218528509,-0.49158502811826765
1772623490973806600,1.768806640625,0.9629051207125187,-0.24405834721028805,-0.4087560843925923
1772623490983835600,1.778835693359375,0.930388167989254,-0.3172849114626646,-0.3474964367877692
1772623490993865700,1.78886572265625,0.8369155190438031,-0.42135611131191253,-0.27329394017532466
1772623491003894800,1.798894775390625,0.7279688221126794,-0.5548159027308225,-0.23782756306193767
1772623491013924600,1.808924560546875,0.5601181007921695,-0.6910504195600747,-0.21442728865426033
1772623491023954700,1.81895458984375,0.38362230072319503,-0.8062699131503701,-0.23821643451536073
1772623491033983700,1.828983642578125,0.16593991926312446,-0.8576224992468953,-0.2516523825358599
1772623491044013800,1.839013916015625,-0.1794581570059061,-0.8928320520550012,-0.30272748513156544
1772623491054043600,1.849043701171875,-0.5277314964503049,-0.946363735756278,-0.4300122229110449
1772623491064072700,1.85907275390625,-0.8887930057972669,-0.94425244269073,-0.5969978518348187
1772623491074102500,1.8691025390625,-1.1979442951649426,-0.8789926195338368,-0.7066326040953397
1772623491084132600,1.879132568359375,-1.4283032028466462,-0.8283654251024126,-0.7316476567558944
1772623491094161700,1.88916162109375,-1.5730512809991835,-0.7938038148090243,-0.7619442300159484
1772623491104191700,1.899191650390625,-1.6280454384684562,-0.7408931856155395,-0.6946250631764531
1772623491114221800,1.909221923828125,-1.583306133031845,-0.6796060654819012,-0.5366236087623983
1772623491124250600,1.919250732421875,-1.4700830739557742,-0.7079743740931153,-0.31982429374717175
1772623491134280700,1.92928076171875,-1.2910901963740586,-0.7533093073353171,-0.08466468951916321
1772623491144310800,1.939310791015625,-1.082237018057704,-0.6924816214069723,0.0767787677080836
1772623491154339800,1.94933984375,-0.8684645035177468,-0.6190642107576132,0.23824326772335916
1772623491164370000,1.959369873046875,-0.7229711599558591,-0.6523182455837726,0.380951254883036
1772623491174399500,1.9693994140625,-0.6762345432221889,-0.7639683562546968,0.4632124817233532
1772623491184428800,1.9794287109375,-0.7567366514354944,-0.8657686885625123,0.46680590310543774
1772623491194458600,1.989458740234375,-0.9305787221252918,-0.8625286837279796,0.34818040046393867
1772623491204487700,1.99948779296875,-1.2155787360548973,-0.6897364143520593,0.12188195628733374
1772623491214517500,2.009517578125,-1.8024895667046308,-0.4035018901914358,-0.2242503616735339
1772623491224547600,2.019547607421875,-2.3485879099726676,-0.22462942411899564,-0.5346086887434125
1772623491234576600,2.02957666015625,-2.6060651262044905,-0.15887012700736522,-0.7660125754334032
1772623491244606700,2.039606689453125,-2.573231362617016,-0.04981587804853916,-0.9450332178048789
1772623491254636800,2.04963671875,-2.1990970212072134,0.20818682336211203,-0.8807428242020309
1772623491264665600,2.05966552734375,-1.59407653337121,0.6025193186700344,-0.4496553002096712
1772623491274695700,2.06969580078125,-0.7122101119667291,0.9601187048643827,-0.011467725820606574
1772623491284725800,2.079725830078125,-0.002623334240913391,1.2752543293386698,0.1580136015095748
1772623491294754800,2.0897548828125,0.4600146355301141,1.416029996728897,0.26917483268501236
1772623491304785000,2.099784912109375,0.9216846370518207,1.3036720300495623,0.47951896194517607
1772623491314814700,2.109814697265625,1.2138386143893003,1.145562950542569,0.6850294057048857
1772623491324843500,2.119843505859375,1.3859960929930208,1.0120108046650886,0.7701808010287582
1772623491334873600,2.12987353515625,1.4890028784811495,0.876215263774991,0.698044662361592
1772623491344903700,2.139903564453125,1.478621769720316,0.75316405364573,0.5659735122894868
1772623491354932700,2.1499326171875,1.352842011409998,0.7771060702472925,0.43358872969094664
1772623491364962800,2.159962890625,1.140788575747609,0.8247212233811616,0.31517091498337685
1772623491374992600,2.16999267578125,0.7563730788201093,0.8264350415617228,0.29443576813172545
1772623491385021700,2.180021728515625,0.2307750872671604,0.7435580209106206,0.3383173972930759
1772623491395051800,2.1900517578125,-0.20690964303314685,0.6177262401521205,0.3437625109564513
1772623491405080800,2.200080810546875,-0.531517444729805,0.582150484380126,0.19235972415506838
1772623491415111000,2.21011083984375,-0.7981798379361629,0.6458563560932874,0.04345130688610952
1772623491425140700,2.220140625,-0.9761930568307637,0.7278039869397879,0.10639261026782915
1772623491435169800,2.230169677734375,-1.017068088054657,0.7681155390620231,0.40273813927732405
1772623491445199600,2.24019970703125,-0.8027998989522457,0.8229565517961979,0.6069445147011429
1772623491455230000,2.25022998046875,-0.5077805953115224,0.9592425065517425,0.5875634128069505
1772623491465259000,2.260259033203125,-0.2402735679745674,1.1375532470881937,0.5263873152997345
1772623491475289000,2.2702890625,0.08340601296126841,1.2472902176141738,0.4991619661785662
1772623491485319200,2.280319091796875,0.4142530013084411,1.2287450916200875,0.48145727306399494
1772623491495348000,2.290347900390625,0.7369862413048743,1.0609715271890163,0.5804418172987178
1772623491505378000,2.3003779296875,0.9830851544320582,0.8959662584275007,0.728107280735299
1772623491515408100,2.310408203125,1.109415532362461,0.7448609202027321,0.8221780417043715
1772623491525437200,2.320437255859375,1.2215747615993022,0.6252659880071878,0.8321967468935996
1772623491535467300,2.33046728515625,1.3162638005971907,0.5553519093036652,0.768606245188415
1772623491545497000,2.3404970703125,1.358431209719181,0.509362896066904,0.6746281309388578
1772623491555526100,2.350526123046875,1.3681307659566402,0.417311804357171,0.5218931091530248
1772623491565556000,2.360555908203125,1.3311977503567933,0.2622083364069462,0.3684527521094307
1772623491575586000,2.3705859375,1.2900953401178121,0.06624328123629093,0.27295089889131485
1772623491585615000,2.380614990234375,1.2113134798258542,-0.11818974157273769,0.21154787902673705
1772623491595645200,2.390645263671875,1.139115674099326,-0.26486966457068917,0.1659856763673015
1772623491605675000,2.400675048828125,1.0976035140156746,-0.3948953898876905,0.14220476861158385
1772623491615704000,2.4107041015625,1.0718471414685249,-0.47121290589272974,0.1305243955541402
1772623491625734100,2.420734130859375,1.067527524703741,-0.50041854211092,0.1271845470743254
1772623491635764200,2.43076416015625,1.1288953088581561,-0.5203957467347383,0.0836707191789057
1772623491645793300,2.440793212890625,1.1581377699553965,-0.5113198753535747,0.020978910745959728
1772623491655823000,2.450822998046875,1.1809750401854515,-0.5387357055455446,-0.012654862379096448
1772623491665852200,2.46085205078125,1.2205465875953436,-0.549264698344469,0.03879050743426196
1772623491675882000,2.470882080078125,1.236015959405899,-0.5450701692640781,0.07192187486197799
1772623491685912000,2.480912109375,1.2077402975142002,-0.597490092331171,0.137216102611972
1772623491695940900,2.49094091796875,1.2214742238342762,-0.7376344760805368,0.23397728084195404
1772623491705971000,2.500970947265625,1.1910942831397056,-0.8391396248340606,0.28998119987566023
1772623491716001000,2.5110009765625,1.098740409091115,-0.908136588692665,0.28825861386675383
1772623491726030000,2.521030029296875,1.0242325728565453,-0.9661977325171232,0.2671461581353098
1772623491736060200,2.53106005859375,0.8825982428103685,-1.0294020844489336,0.2552497129080817
1772623491746090200,2.54109033203125,0.5573392837285995,-1.1570166569709777,0.2303788544911891
1772623491756119000,2.551119140625,0.2598983058989048,-1.2697925568014383,0.17782372420448808
1772623491766149000,2.561149169921875,-0.029518939951062202,-1.199092296156287,0.13514974466669372
1772623491776179200,2.57117919921875,-0.3781517603576183,-1.0442845962822436,0.033513660726591475
1772623491786208300,2.581208251953125,-0.6868710880488157,-0.9565040214985608,-0.06486865928168409
1772623491796238000,2.591238037109375,-0.8972744184166193,-0.9220318430542945,-0.16477547859363256
1772623491806268000,2.601267822265625,-0.9874538710355758,-0.8045873668909073,-0.1986639023331925
1772623491816297000,2.611296875,-0.9684352823108434,-0.6671715313225984,-0.13074174636555835
1772623491826327000,2.6213271484375,-0.8663245688796043,-0.5995604688644409,-0.08025659075332806
1772623491836357000,2.631357177734375,-0.7484113061606884,-0.5810656117528676,0.023179083104780875
1772623491846386200,2.64138623046875,-0.6394716234922408,-0.5911679035723209,0.14609109025932848
1772623491856416000,2.651416015625,-0.5597802471399307,-0.4957347682088613,0.18098048946866765
1772623491866446000,2.661446044921875,-0.5138233826071024,-0.3215320475131273,0.13233992054350674
1772623491876475100,2.67147509765625,-0.4205652531951666,-0.22194413055777548,0.01712026255642995
1772623491886505200,2.681505126953125,-0.3293868526667356,-0.18089958798587322,-0.15038541731922886
1772623491896534000,2.691533935546875,-0.25013152964413166,-0.2818202148497104,-0.15422551607191562
1772623491906564000,2.701564208984375,-0.17229542576968668,-0.5552145466595888,-0.019032270190212874
1772623491916594000,2.711593994140625,-0.17529519210755823,-0.7941255941092967,0.08383278700597584
1772623491926623200,2.721623291015625,-0.37448096289038657,-0.8367559445679187,-0.02254986812341958
1772623491936653000,2.731653076171875,-0.7236755088329315,-0.7665384990036487,-0.4020430331526324
1772623491946683100,2.74168310546875,-1.228951427847147,-0.7429945418089627,-0.7914804133627563
1772623491956712000,2.7517119140625,-1.6547124961197375,-0.8343950606554746,-0.9721285838708281
1772623491966742000,2.761741943359375,-1.8678472972780464,-0.8425777825891971,-0.9239152456481009
1772623491976772000,2.771772216796875,-1.9111288051217794,-0.6397843427032232,-0.7281836339071392
1772623491986801200,2.78180126953125,-1.6525281378179788,-0.25182196694910525,-0.5000553348217159
1772623491996831200,2.791831298828125,-1.3296698101371527,0.21639818686842918,-0.20408145213620735
1772623492006861000,2.801861083984375,-0.8828560169637203,0.5978390518993139,0.10497558307675645
1772623492016890000,2.81189013671875,-0.4097621196299791,0.8833212963879108,0.2194903076648712
1772623492026920200,2.821920166015625,-0.09021101680099963,1.085832412201166,0.12625669163968414
1772623492036950000,2.831949951171875,0.20363047523200511,1.153211419469118,0.029701726339175363
1772623492046979000,2.84197900390625,0.4129460103631019,1.1290531297683715,0.037257813407690264
1772623492057009000,2.8520087890625,0.49830023478269575,1.0190455256074666,-0.04271255798251368
1772623492067039000,2.8620390625,0.6406780766725539,0.8908078527510166,-0.17181973454933613
1772623492077068000,2.872068115234375,0.7204495325237512,0.8411725919663906,-0.28787111238650975
1772623492087098000,2.88209814453125,0.6574386573374271,0.8152893781691789,-0.36123080149926245
1772623492097128200,2.892128173828125,0.5130290173590183,0.7498036373019218,-0.31297475664597
1772623492107157000,2.902156982421875,0.3978156612485647,0.639182285156846,-0.23862949056196955
1772623492117187000,2.91218701171875,0.3799474116027355,0.6042927580833435,-0.2211553365339525
1772623492127217200,2.922217041015625,0.3754325645267963,0.6486538778573274,-0.18666006947504354
1772623492137246200,2.93224609375,0.48345630139410495,0.7135165183901786,-0.08149141151160001
1772623492147276300,2.9422763671875,0.604230214241147,0.7290764910936355,0.07742693855166435
1772623492157305000,2.95230517578125,0.7235434068858623,0.6973457203119993,0.24414361434094606
1772623492167335000,2.9623349609375,0.8824363302469252,0.672677727523446,0.31125629882290956
1772623492177365000,2.972364990234375,1.07728319504261,0.6610603549659252,0.3586514159979298
1772623492187394000,2.98239404296875,1.1933119591891765,0.6379705712795257,0.45490584114901716
1772623492197424000,2.992424072265625,1.2381506333470345,0.5902092876732349,0.581756443561241
1772623492207454000,3.002453857421875,1.294875560131669,0.5533347242623567,0.5972799932444468
1772623492217483000,3.01248291015625,1.356141052955389,0.5517950936049223,0.535154011133872
1772623492227513000,3.02251318359375,1.3935837716430426,0.5424304684102534,0.4614138713361695
1772623492237543200,3.032543212890625,1.3727473198413849,0.48466743074953555,0.36932843896541745
1772623492247572200,3.042572265625,1.303271632555127,0.37519466411769387,0.2544393281069584
1772623492257602000,3.05260205078125,1.255562955918908,0.22207155632972717,0.17143402316737918
1772623492267632000,3.062632080078125,1.1649252381384372,0.07580313674211502,0.06712171260521281
1772623492277661200,3.0726611328125,1.1017004279404878,-0.06372866806685924,-0.019945973801915533
1772623492287691000,3.08269091796875,1.0546323872953653,-0.18829320536851882,-0.12102101034275256
1772623492297721000,3.09272119140625,0.9724801737874745,-0.28155484191179275,-0.1876412259995006
1772623492307750000,3.10275,0.9138952983498573,-0.34938276199102397,-0.21426418878072873
1772623492317780000,3.112780029296875,0.9024491907060146,-0.3941659065693617,-0.30789281373918054
1772623492327810000,3.12281005859375,0.8352601530522108,-0.4132745116651058,-0.3800917885094881
1772623492337839000,3.132839111328125,0.766821407598257,-0.4343108699530363,-0.43525110994521526
1772623492347869200,3.142869140625,0.7712380549967288,-0.443692446282506,-0.4744033359644934
1772623492357899300,3.152899169921875,0.7885872492045164,-0.3969792104244232,-0.4298770522240549
1772623492367928000,3.162927978515625,0.7585457466840744,-0.36542145812213417,-0.40766752197090533
1772623492377958100,3.172958251953125,0.7714227639138698,-0.3460018873810768,-0.4530980976073071
1772623492387988000,3.182988037109375,0.8033645470976829,-0.33404783021509643,-0.41632571592926976
1772623492398017300,3.193017333984375,0.8837064963132143,-0.3784948747068643,-0.36611181500647216
1772623492408047000,3.203047119140625,0.9165233087658882,-0.44182899049818514,-0.34370310891941186
1772623492418077000,3.213076904296875,0.8986872078239917,-0.542757800668478,-0.36495946663357315
1772623492428106000,3.22310595703125,0.8003308784902096,-0.664693743032217,-0.44200065727066246
1772623492438136000,3.233135986328125,0.6549544393062591,-0.817592394414544,-0.5250474815307185
1772623492448165000,3.2431650390625,0.46370179961025715,-0.9838692905470728,-0.5737888622155413
1772623492458194200,3.253194091796875,0.21492577622830866,-1.0960802499711513,-0.6121834382679313
1772623492468224300,3.263224365234375,-0.09513093754649161,-1.1425021016672252,-0.654536067763716
1772623492478253300,3.27325341796875,-0.43522564671039576,-1.1572843679964542,-0.6664011314719915
1772623492488283400,3.283283447265625,-0.7623954078495502,-1.1581170194283128,-0.6338382937803864
1772623492498313500,3.2933134765625,-1.068762034934759,-1.1373659078225493,-0.5269287287000567
1772623492508342300,3.30334228515625,-1.2096920161038636,-1.1296814907997845,-0.45249834161587055
1772623492518372400,3.313372314453125,-1.206571253734827,-1.0960498548328876,-0.28321050016432997
1772623492528402400,3.32340234375,-1.1513637457758188,-1.0405006938293575,-0.06750467947423458
1772623492538431500,3.333431396484375,-1.0723287875056267,-0.9414517060562968,0.09019622109066694
1772623492548461300,3.34346142578125,-1.0380144299715757,-0.8153700421899557,0.12759612354990094
1772623492558491100,3.3534912109375,-0.9571966799378394,-0.7516524800390004,0.2049593674818985
1772623492568520200,3.363520263671875,-0.7901385702997445,-0.7508049232989549,0.4070994397593662
1772623492578550300,3.37355029296875,-0.6874854205548763,-0.7762161356702446,0.6417316773787141
1772623492588580400,3.383580322265625,-0.6659989804118871,-0.8685781930252909,0.8860996750600636
1772623492598609400,3.393609375,-0.7862538378208875,-1.0145043750464915,1.0404881266087294
1772623492608639200,3.40363916015625,-1.1609048965811728,-1.0248653178021312,0.9502882157236338
1772623492618669300,3.41366943359375,-1.6718974396765232,-0.8068491743430495,0.590687938035652
1772623492628698400,3.423698486328125,-2.2341367704063653,-0.525985821826756,0.1692178084226325
1772623492638728400,3.433728515625,-2.5915368346363303,-0.3978668069139123,-0.038365349957905706
1772623492648758500,3.443758544921875,-2.543815883040428,-0.271345290325582,0.06244914965033531
1772623492658787300,3.453787353515625,-2.3624486775428055,-0.010694997015595436,0.13948418454127384
1772623492668817400,3.4638173828125,-1.95003165948987,0.28202538203299043,0.2140895811324939
1772623492678847200,3.47384716796875,-1.2856138107895851,0.6169841896131635,0.4171955575663596
1772623492688876300,3.483876220703125,-0.6642009910792112,0.9154951347619295,0.5875910679988563
1772623492698906400,3.49390625,-0.18263970965147017,1.0728060496285556,0.6855703807137906
1772623492708936200,3.503936279296875,0.3137631670773029,1.058769633230567,0.8473537648193538
1772623492718965200,3.51396533203125,0.6634522185385227,1.0070131425082682,1.050951360695064
1772623492728995300,3.523995361328125,0.7464175019949674,0.9026607876300812,1.0898895786374807
1772623492739025400,3.534025390625,0.767388393831253,0.8004226484268904,0.9602562136389314
1772623492749054500,3.544054443359375,0.6922282311677932,0.7902934686005115,0.7791241320714354
1772623492759084300,3.554084228515625,0.49348669702112674,0.8723661871314048,0.6297196794804185
1772623492769114400,3.5641142578125,0.16907763276696205,0.8662935892194509,0.5191212698195129
1772623492779143400,3.574143310546875,-0.1426321089118719,0.8035381500989198,0.4816966713104397
1772623492789173200,3.58417333984375,-0.41365503541529175,0.7960901721805334,0.4326865932194516
1772623492799203300,3.594203369140625,-0.5462234309524298,0.8706266499876976,0.4047582469280809
1772623492809232100,3.604232177734375,-0.5156143576771021,1.0303893419206143,0.4311303402207792
1772623492819262200,3.61426220703125,-0.3926379663497209,1.2488467994064092,0.534502123096399
1772623492829292300,3.624292236328125,-0.1862900488525629,1.424527191439271,0.6630421764329075
1772623492839321300,3.6343212890625,0.13204758653342724,1.5052525870144366,0.7251243924669921
1772623492849351400,3.644351318359375,0.4357867877244949,1.550545726941526,0.6402207613591104
1772623492859380200,3.654380126953125,0.7915630501449108,1.5807354057610035,0.5251095139162615
1772623492869410300,3.664410400390625,1.230538404777646,1.5718702545210719,0.5030137097032741
1772623492879440400,3.6744404296875,1.641906206038594,1.5626128890931605,0.5487825043180957
1772623492889470500,3.684470458984375,1.921674164533615,1.4963418430671096,0.5168472604729235
1772623492899499500,3.69449951171875,2.1056337246119976,1.2972662546604872,0.36848479121550914
1772623492909529300,3.704529296875,2.2536469420403242,1.0900640584215522,0.25555845006369055
1772623492919558400,3.714558349609375,2.272699433034658,0.9219739753872156,0.15771005198573693
1772623492929588200,3.724588134765625,2.198943876472115,0.7514569574669003,0.1867686626823619
1772623492939618300,3.734618408203125,2.1362918977260588,0.5827689085394143,0.2971945287879556
1772623492949647400,3.7446474609375,2.03964471039772,0.46119536974728104,0.3650489715479314
1772623492959677200,3.75467724609375,1.8935732746869325,0.34004590158611536,0.40089393618274477
1772623492969707300,3.764707275390625,1.723086359643936,0.19844284346103666,0.45561632750593123
1772623492979736300,3.774736328125,1.5587205578297376,0.028761984103918073,0.4355815474759787
1772623492989766400,3.784766357421875,1.425991418772936,-0.0771066205561161,0.37791696522105483
1772623492999796500,3.79479638671875,1.3273264618813991,-0.11482260322719812,0.25697281037364156
1772623493009825300,3.8048251953125,1.2440022819846868,-0.14314853400141,0.13256560079185292
1772623493019855400,3.81485546875,1.1593985836714507,-0.21775164730399846,0.12920925783496348
1772623493029885200,3.82488525390625,1.1120908890515566,-0.30876959657371045,0.2150167972463183
1772623493039914500,3.83491455078125,1.082317097556591,-0.3929416254714131,0.35715894895046946
1772623493049944300,3.8449443359375,1.0252771134734153,-0.4544368353977799,0.4938075995385647
1772623493059974400,3.854974365234375,0.9897551337152719,-0.4763485152155161,0.588299033605121
1772623493070003200,3.865003173828125,0.9315233094990253,-0.4792401450037956,0.6649225833520293
1772623493080033300,3.875033203125,0.838307265663147,-0.5051236510619521,0.770423669873923
1772623493090063400,3.8850634765625,0.7866770316690206,-0.6034890404850244,0.8669016381151974
1772623493100092400,3.895092529296875,0.642272652387619,-0.7237181789308786,0.9217974497765302
1772623493110122500,3.90512255859375,0.46196752316355705,-0.8525167005404829,0.9024803895618766
1772623493120152300,3.91515234375,0.21405893026590345,-0.9691147890076041,0.9004923575498163
1772623493130181400,3.925181396484375,-0.03422843281626701,-1.1155655794247985,0.8070991305161267
1772623493140211500,3.93521142578125,-0.3621452129304409,-1.2261769946977494,0.6318382790695876
1772623493150241300,3.9452412109375,-0.747822692617774,-1.2289359380170701,0.4489422931021079
1772623493160270300,3.955270263671875,-1.1764794823318718,-1.1938806989878414,0.2768621540509164
1772623493170300200,3.965300048828125,-1.5633043784886598,-1.1424676148757338,0.13061397353373466
1772623493180330200,3.975330322265625,-1.8645184451162815,-1.077716325762868,0.06135459587927907
1772623493190359300,3.985359375,-1.982180363422632,-0.9554846153229475,0.061701582686044275
1772623493200389400,3.995389404296875,-1.8670751438617705,-0.8021957955792546,0.20091635743509978
1772623493210416400,4.00541650390625,-1.641962320140004,-0.681478873616457,0.4968324637850746
1772623493220446500,4.015446533203125,-1.3216209437161683,-0.5667918794676661,0.6626492315925657
1772623493230476300,4.025476318359375,-1.0950187582194804,-0.4298945148155093,0.6459877273879945
1772623493240505300,4.03550537109375,-0.9704057056009769,-0.3221817435935139,0.49714540219176556
1772623493250535200,4.04553515625,-0.758552176424861,-0.2178518928080797,0.3550562775827944
1772623493260565200,4.055565185546875,-0.6259007787793874,-0.1323033148601651,0.2946656130985357
1772623493270594300,4.06559423828125,-0.5386170476019382,-0.18433190052211285,0.36048783764485265
1772623493280624400,4.075624267578125,-0.4768891979634762,-0.4009244409188628,0.48497616790514436
1772623493290654500,4.085654541015625,-0.5214350266546011,-0.6714119453713298,0.5638166265165433
1772623493300683300,4.095683349609375,-0.7178256137609481,-0.8219532199725508,0.4846044850485399
1772623493310713300,4.10571337890625,-1.1583680715799332,-0.7968202400207519,0.16234887250121682
1772623493320743400,4.115743408203125,-1.7506646869212388,-0.6566510140910744,-0.3352270300623029
1772623493330772500,4.1257724609375,-2.251844276532531,-0.5618702051565051,-0.7596800114110112
1772623493340802300,4.13580224609375,-2.482874799865484,-0.47818800560235974,-0.9168492527846246
1772623493350832000,4.14583203125,-2.503599023464322,-0.3465656587436795,-0.8593433316901326
1772623493360861200,4.155861083984375,-2.1686744104146958,-0.13397855459600685,-0.6092535953611136
1772623493370891300,4.165891357421875,-1.6260563104778527,0.19020313064306973,-0.2258490655744448
1772623493380921300,4.17592138671875,-1.047919153392315,0.5545516988366842,0.14712083516586572
1772623493390950400,4.185950439453125,-0.43099312370717524,0.8578104230344294,0.3251193679479882
1772623493400980200,4.195980224609375,0.03961363298594951,1.0883663145929574,0.3275664688391611
1772623493411010300,4.20601025390625,0.3290402311861515,1.1191405153021217,0.177937030119542
1772623493421039400,4.216039306640625,0.4896469727277755,1.007623383361101,-0.031462055109161884
1772623493431069400,4.2260693359375,0.45945583260357375,0.9200608352422713,-0.29633763796398416
1772623493441099500,4.236099609375,0.3600526245653629,0.8829246982857585,-0.6095400110870599
1772623493451128300,4.24612841796875,0.2981879968047142,0.8927078411534428,-0.9911190424796193
1772623493461158400,4.256158447265625,0.15204466490149496,0.8808157433077692,-1.3328437639981507
1772623493471188500,4.2661884765625,-0.13579378732442854,0.8275318968877196,-1.5278534181401133
1772623493481217500,4.276217529296875,-0.3816320036888122,0.6376932156428694,-1.680903752952814
1772623493491247600,4.28624755859375,-0.33001813630759713,0.49852586023211476,-1.6222671473279595
1772623493501277700,4.296277587890625,-0.10814356385469436,0.5078212195828556,-1.3825313394919037
1772623493511306500,4.306306396484375,0.2855693382501602,0.6087129126131534,-1.0159460982874036
1772623493521336600,4.316336669921875,0.7114379585504531,0.7265136548683047,-0.6446045294012874
1772623493531366700,4.32636669921875,1.0409913999557494,0.8588482416495681,-0.425605585449934
1772623493541395700,4.336395751953125,1.2671499333381653,0.9567454290390014,-0.37663039600923653
1772623493551425800,4.34642578125,1.4175608595579863,0.9653115973323583,-0.25496782722678035
1772623493561455600,4.35645556640625,1.5583552316486835,0.9191112794324755,-0.03891574124912731
1772623493571484700,4.366484619140625,1.7054630246698856,0.9294365663528442,0.19622184294331818
1772623493581514500,4.376514404296875,1.8015403031557797,1.0137614477247,0.37512631158921866
1772623493591544600,4.386544677734375,1.835412177619338,1.0729559794932604,0.3697907592475414
1772623493601573400,4.396573486328125,1.83096981125772,1.1027142811581492,0.24777141291666774
1772623493611603500,4.406603515625,1.772225361344218,1.0372346777707337,0.12697758979275822
1772623493621633500,4.416633544921875,1.6366355721592902,0.8589338741064071,0.0443570463870652
1772623493631662600,4.42666259765625,1.4783113885968924,0.6303343773126602,0.08038547783000394
1772623493641692700,4.436692626953125,1.41822487642467,0.38285745383054015,0.2463960694428533
1772623493651722800,4.44672265625,1.3458984758824108,0.15082389093488455,0.2578717319747433
1772623493661751600,4.45675146484375,1.150218082872033,-0.016328034466505048,0.05501425040923059
1772623493671781600,4.46678173828125,0.9554974748045205,-0.1445148539185524,-0.16401651345249266
1772623493681811500,4.4768115234375,0.7744786443531513,-0.26946283757984635,-0.2637852486011572
1772623493691840800,4.4868408203125,0.6135737966477871,-0.4032946771815419,-0.2625353946705349
1772623493701870600,4.49687060546875,0.3798988962858915,-0.5601835672438145,-0.3053420150115155
1772623493711900400,4.506900390625,0.19026888935565947,-0.689302406848967,-0.34361433465741575
1772623493721929500,4.516929443359375,0.11022796891331672,-0.7327657010003924,-0.36242461439371104
1772623493731959600,4.52695947265625,0.0827443341821432,-0.6712929951667785,-0.35383462683334943
1772623493741989600,4.53698974609375,0.114276367521286,-0.5738824222505092,-0.2284561428003013
1772623493752018700,4.547018798828125,0.24739070650339126,-0.49157238783240315,-0.10402659352254122
1772623493762048500,4.557048583984375,0.463981785595417,-0.3930006621822715,-0.07585842885961756
1772623493772078600,4.56707861328125,0.6361445248961448,-0.26421003161817785,-0.10205014235042036
1772623493782107600,4.577107666015625,0.7121411383837462,-0.18637538904845713,-0.11293046020451002
1772623493792137700,4.5871376953125,0.8380594283819198,-0.25627690053135155,-0.07792646730532869
1772623493802167600,4.59716748046875,0.9057266049414873,-0.3970174966081977,-0.018273811939149162
1772623493812196600,4.607196533203125,0.9174351629137992,-0.534590860825777,0.025953993461502248
1772623493822227500,4.6172275390625,0.8794371484309434,-0.6472273521855473,0.0065877009773743335
1772623493832257500,4.627257568359375,0.7891279319524764,-0.7059680027067661,-0.08702708040210418
1772623493842287600,4.63728759765625,0.6986702469140291,-0.691022070248425,-0.18043123982176185
1772623493852316700,4.647316650390625,0.5415998628050088,-0.622322628031671,-0.25846673872582615
1772623493862346800,4.6573466796875,0.30588381200432774,-0.6018365971028804,-0.36243798533193766
1772623493872376600,4.66737646484375,0.06973930665850639,-0.6163081900477408,-0.4536555853595957
1772623493882405600,4.677405517578125,-0.1444008721500635,-0.6050628656730055,-0.5365858705678954
1772623493892435500,4.687435546875,-0.30316461617350576,-0.5707222046539188,-0.5346290739443152
1772623493902465500,4.697465576171875,-0.3943471083551645,-0.5295356232628226,-0.4725893088124692
1772623493912494600,4.70749462890625,-0.39698213303387164,-0.45038960583359,-0.30111117250872776
1772623493922524700,4.717524658203125,-0.29341420653164385,-0.3738128543704748,-0.08101570202494039
1772623493932554500,4.727554443359375,-0.1219797815054655,-0.3344827145010233,0.13056953160380944
1772623493942583600,4.73758349609375,0.08725099795162677,-0.32837504527568817,0.39480705401711164
1772623493952613600,4.747613525390625,0.18557400953769682,-0.3830065069124102,0.48013840901777144
1772623493962643700,4.757643798828125,0.20240005665421484,-0.45097120511382816,0.45551732411086554
1772623493972672800,4.7676728515625,0.1813268734872341,-0.43914983441680666,0.39004013187624514
1772623493982702600,4.77770263671875,0.12328560340702532,-0.4808274141952395,0.4158795065317303
1772623493992732400,4.787732421875,0.09977847109138965,-0.7014709835484624,0.5961819323420524
1772623494002761700,4.79776171875,0.02548398534655571,-1.0639058270752428,0.8246962350703776
1772623494012791600,4.80779150390625,-0.207569568246603,-1.3851575963422655,0.9783175016388297
1772623494022821600,4.817821533203125,-0.6224637900680303,-1.4945450227782129,0.9086804863110184
1772623494032850400,4.827850341796875,-1.2389917603462934,-1.3302686528131364,0.614108561111614
1772623494042880500,4.837880615234375,-1.978010384261608,-1.021359063246846,0.026754407141171395
1772623494052910600,4.84791064453125,-2.5154279929459094,-0.7768228693917393,-0.4980704446148127
1772623494062939600,4.857939697265625,-2.8525258583813904,-0.6175336401894688,-0.6069765903398394
1772623494072969700,4.8679697265625,-2.8606103806376457,-0.561603663174808,-0.3908159385543316
1772623494082999600,4.87799951171875,-2.426135844555497,-0.48206513929665085,-0.07067926352289505
1772623494093028600,4.888028564453125,-1.8689362615585325,-0.19771072979420423,0.18895419002790004
1772623494103058700,4.89805859375,-1.2747937260895967,0.20293723227083682,0.44487515326105054
1772623494113088500,4.908088623046875,-0.6843091286063194,0.556687541821599,0.5933928130801767
1772623494123117600,4.91811767578125,-0.33777824891507624,0.7286801852524281,0.5707339681569487
1772623494133147400,4.9281474609375,-0.1912006172478199,0.6966951474487781,0.5418491979235783
1772623494143177500,4.938177490234375,-0.22058745525181292,0.5606465085804462,0.4797707447491586
1772623494153206500,4.94820654296875,-0.4284060298234224,0.48399055440127847,0.2184011972539127
1772623494163236600,4.958236572265625,-0.6770756702214479,0.5511366296961904,-0.14617248493246734
1772623494173266700,4.9682666015625,-1.0569985319048165,0.6129354987442494,-0.35567492093779146
1772623494183295500,4.97829541015625,-1.3727566721916198,0.6264008372560144,-0.3661491513421759
1772623494193325600,4.98832568359375,-1.570145038163662,0.7509343948975205,-0.3000588687105104
1772623494203355600,4.998355712890625,-1.5890204190254211,0.9381994262620806,-0.27299280180428176
1772623494213384700,5.008384765625,-1.4222802892953157,1.158890341888368,-0.1422479045004118
1772623494223414800,5.018414794921875,-1.0523813934981823,1.3853528266534207,0.08456796027957461
1772623494233444600,5.028444580078125,-0.6508972728699446,1.5655015962719916,0.32805249879043547
1772623494243473400,5.038473388671875,-0.11166472371816634,1.7577482154414057,0.5335589604947716
1772623494253503500,5.04850341796875,0.4430412888973951,1.8725851394549011,0.5260552338011563
1772623494263533600,5.058533447265625,0.9710422499388456,1.8738970988363026,0.45359936166033143
1772623494273562600,5.068562744140625,1.4505273096144198,1.7665698198005555,0.37314134831707924
1772623494283592700,5.0785927734375,1.9153543138623237,1.6200480099737644,0.4094671187387779
1772623494293622500,5.08862255859375,2.289671610623598,1.443406663954258,0.5984926569698378
1772623494303651600,5.098651611328125,2.614199917343259,1.2139520116358995,0.766826960556209
1772623494313681700,5.108681640625,2.8142221389502287,1.0073962966069578,0.7720606234259902
1772623494323711700,5.118711669921875,2.7728718914300203,0.7811030309289694,0.66001398771815
1772623494333740500,5.128740478515625,2.5618402000308036,0.4360547910109162,0.5191942619904876
1772623494343770600,5.1387705078125,2.4185516730368137,0.15857523571401833,0.4503804361464456
1772623494353800400,5.148800537109375,2.1523931376993657,-0.09269757291972637,0.36815329423882065
1772623494363829500,5.15882958984375,1.994873840779066,-0.31562574607878924,0.3525640223756432
1772623494373859600,5.168859619140625,1.7882704872161148,-0.5003428465262055,0.36642858933806416
1772623494383889700,5.1788896484375,1.5782693079084158,-0.6739844262078404,0.34756844257805497
1772623494393919500,5.18891943359375,1.3718985940575599,-0.824091985566914,0.34604002743437884
1772623494403948500,5.198948486328125,1.1717542073756455,-0.9021902475088834,0.33931400711499154
1772623494413978600,5.208978515625,0.9558552022010087,-0.9240054812148213,0.3800399487243965
1772623494424008700,5.2190087890625,0.7884720983922481,-0.9274988762885331,0.39860929584428667
1772623494434037800,5.229037841796875,0.7077087088942527,-0.9022589288309216,0.3200649341026321
1772623494444067600,5.239067626953125,0.7005424705266952,-0.8179024832770228,0.274539647653792
1772623494454097400,5.249097412109375,0.7209072131633758,-0.7415785375311971,0.35087902843076735
1772623494464127200,5.259127197265625,0.7739952447503805,-0.7051710071101784,0.5001068458132446
1772623494474157000,5.269156982421875,0.7410784790545701,-0.7055415939882397,0.6893282719425856
1772623494484187100,5.279187255859375,0.6518570578128099,-0.7872989629596472,0.9188570854756981
1772623494494216200,5.28921630859375,0.5783411552250385,-0.9738213592633604,1.0520448550201953
1772623494504246300,5.299246337890625,0.505877392038703,-1.0895400345474482,1.054114135574922
1772623494514276400,5.3092763671875,0.4100064497798681,-1.10261958861202,1.0134238132681697
1772623494524305200,5.31930517578125,0.29678572879135606,-1.0955728849709034,0.9798607124928385
1772623494534335200,5.329335205078125,0.14419044426977634,-1.1141361311435698,0.9234860604505986
1772623494544365000,5.339364990234375,-0.2108849764049053,-1.057668978512287,0.7984607007041573
1772623494554394400,5.349394287109375,-0.5379857639610767,-0.8613555482953786,0.62126383969374
1772623494564424200,5.359424072265625,-0.9052046268939972,-0.5929235150679946,0.48168856106922026
1772623494574454300,5.369454345703125,-1.2018307812094688,-0.4405138162463903,0.34541027816347775
1772623494584483000,5.379483154296875,-1.2815350170433522,-0.30143472364097834,0.17704479398755354
1772623494594513200,5.38951318359375,-1.2898054172605276,-0.09892886852473019,0.04712086681090295
1772623494604543200,5.399543212890625,-1.1614935101240873,0.07597060226351023,-0.027288020827528087
1772623494614572300,5.409572265625,-0.9972399365127086,0.1984706082507968,-0.04188333148360252
1772623494624602400,5.419602294921875,-0.8792840036958456,0.2854877974465489,0.038306605507992204
1772623494634632200,5.429632080078125,-0.7258662968754768,0.30853403425216674,0.11435969842318444
1772623494644661200,5.4396611328125,-0.5833762267827988,0.3466495376348495,0.10099109828416257
1772623494654691300,5.44969140625,-0.33322423887252806,0.3294479352042079,0.07827215720415115
1772623494664721200,5.45972119140625,-0.0913888284087181,0.1746238687172532,0.08770612130798398
1772623494674750200,5.469750244140625,0.03722936819791794,-0.15885171456784009,0.2543052351322025
1772623494684780000,5.479780029296875,0.027891046488285064,-0.5442366410493851,0.46506914244070646
1772623494694810000,5.48981005859375,-0.3448398578643799,-0.8076306801095604,0.3600882073353976
1772623494704839200,5.499839111328125,-1.0406354261249304,-0.7989411776974796,-0.1251169835526496
1772623494714869200,5.509869140625,-1.7897540037721393,-0.702928196619451,-0.7312962860349566
1772623494724899300,5.5198994140625,-2.3967092590630052,-0.7262918288111686,-1.1169584220226854
1772623494734928100,5.52992822265625,-2.7447546349704264,-0.6400786494746804,-1.2338774860724806
1772623494744958200,5.539958251953125,-2.801186131766438,-0.38704759899675845,-1.0778494506232439
1772623494754988300,5.54998828125,-2.5455624344468117,-0.006432955656945705,-0.7971891463983803
1772623494765017300,5.560017333984375,-2.0729612890660762,0.4798825345605611,-0.5280542255986481
1772623494775047400,5.57004736328125,-1.4662468567937612,0.9446165998280048,-0.40859585232958195
1772623494785077000,5.580076904296875,-0.8154653192579746,1.3124731761425732,-0.4558004884338006
1772623494795106000,5.59010595703125,-0.19613515104055404,1.5874249665275215,-0.555930257180892
1772623494805136100,5.60013623046875,0.32132980293929575,1.7025924376696346,-0.6187482766762376
1772623494815166200,5.610166259765625,0.7546323726326227,1.6103391013860702,-0.535616331415996
1772623494825195300,5.6201953125,1.1427911477416752,1.3686305321723222,-0.430602115095593
1772623494835225000,5.63022509765625,1.3449743467748165,1.1228647965222596,-0.5039582240117714
1772623494845255200,5.640255126953125,1.3242565529167651,1.0402607475936412,-0.7627845532976091
1772623494855285200,5.65028515625,1.3691414043039083,1.0015785502389072,-0.9744809922158717
1772623494865314300,5.660314208984375,1.1731272492945193,0.837272077396512,-1.143952738866955
1772623494875344400,5.670344482421875,0.7823463089883327,0.5763207553133368,-1.2260576061017812
1772623494885374200,5.680374267578125,0.443975939399004,0.37450901994109154,-1.2142151926167308
1772623494895403300,5.6904033203125,0.2715495807260275,0.23433014940023422,-1.1389826223041861
1772623494905433000,5.70043310546875,0.17792437156736848,0.20227613801360128,-1.010174090757221
1772623494915463200,5.710463134765625,0.20539280872941015,0.26681962959468364,-0.8365962239615619
1772623494925492200,5.7204921875,0.3710936585396528,0.36808775472193955,-0.7238491118341684
1772623494935522300,5.730522216796875,0.5447498512685298,0.49839726541638374,-0.6810944043435156
1772623494945552100,5.74055224609375,0.7830044806361198,0.6139385383069514,-0.6208448105640709
1772623494955581200,5.750581298828125,1.0730810671776532,0.68430795956254,-0.507653607930988
1772623494965611300,5.760611328125,1.2884247765570878,0.6977572237223386,-0.3466324403695762
1772623494975641300,5.770641357421875,1.4868231963545082,0.6661255294010042,-0.22643008033279327
1772623494985670100,5.780670166015625,1.6564023489028215,0.609019494344294,-0.2307460803683847
1772623494995700200,5.7907001953125,1.754683274912834,0.5101011472135782,-0.26115630660336464
1772623495005730000,5.80072998046875,1.7848054414540528,0.3834139186695218,-0.242187548369728
1772623495015759000,5.810759033203125,1.7914765897810458,0.22905513160675764,-0.2166433572685346
1772623495025789200,5.8207890625,1.7286211974173784,0.06409457876980304,-0.24729473531562834
1772623495035819300,5.8308193359375,1.6464818433910606,-0.09139321232289076,-0.2890717568805441
1772623495045848000,5.84084814453125,1.5153642311841249,-0.23928981763422488,-0.3000331497473642
1772623495055878100,5.850878173828125,1.3817302522420882,-0.39634441965222356,-0.2947194804439321
1772623495065908200,5.860908203125,1.2480699698150157,-0.514085248413682,-0.30616602647919205
1772623495075937300,5.870937255859375,1.0945827048897743,-0.5795590065822005,-0.3347448725685477
1772623495085967400,5.88096728515625,0.9506324991166591,-0.6170470257163048,-0.4118957341251895
1772623495095997200,5.8909970703125,0.7853209408849477,-0.660708180527389,-0.5163256477516144
1772623495106026200,5.901026123046875,0.7441676772415637,-0.6881438844636082,-0.5661497456392273
1772623495116056300,5.911056396484375,0.784255357480049,-0.6650885875687003,-0.5352228020537644
1772623495126086100,5.921086181640625,0.8269920909225941,-0.6619885757267475,-0.4847678954493254
1772623495136115200,5.931115234375,0.910404533624649,-0.7099339837282895,-0.41937779697626826
1772623495146145000,5.94114501953125,0.9449924474030733,-0.7293924251750111,-0.2867486842278391
1772623495156175000,5.951175048828125,0.8800655094623565,-0.7647714893311262,-0.14326744767334312
1772623495166205200,5.961205078125,0.8546013978600502,-0.8028159733042121,-0.10041212935242802
1772623495176234200,5.971234130859375,0.7721592614948749,-0.8621443605855107,-0.06410195835866034
1772623495186264300,5.981264404296875,0.7203127544015645,-0.9277344386100769,-0.0023346900252625346
1772623495196294400,5.99129443359375,0.6360317121714353,-1.012678036402166,0.09341379489768296
1772623495206323200,6.0013232421875,0.5642231980234385,-1.0736080136612056,0.09116977883055806
1772623495216353300,6.011353271484375,0.4778764554351568,-1.119147529564798,-0.025425679288059472
1772623495226383000,6.021383056640625,0.2534405080616474,-1.1916273671030997,-0.17732801310941576
1772623495236412200,6.031412109375,-0.05282090508341789,-1.3113418340250849,-0.3341905996866524
1772623495246442200,6.041442138671875,-0.30360593020021914,-1.3906906805500387,-0.44786600564010437
1772623495256472000,6.05147216796875,-0.5231979446738958,-1.3753610094711184,-0.46051356149557976
1772623495266501000,6.061501220703125,-0.6728332103461027,-1.279827044081688,-0.3947729690844193
1772623495276531200,6.07153125,-0.7826613662868738,-1.1264254116132855,-0.3311446195868775
1772623495286561300,6.081561279296875,-0.8437427347153424,-0.9501046758502721,-0.2465877560900524
1772623495296590000,6.091590087890625,-0.7624743183046578,-0.8486360597148537,-0.0289430762918666
1772623495306620200,6.1016201171875,-0.5946615909069776,-0.8416913551434874,0.08522774849571287
1772623495316650200,6.111650146484375,-0.4382172297418117,-0.776599582029879,0.11465692780409008
1772623495326679300,6.12167919921875,-0.29175299532115456,-0.6649778206706046,0.2034933317836374
1772623495336709400,6.13170947265625,-0.23054303207695484,-0.5098445421040058,0.35543460937589405
1772623495346739200,6.1417392578125,-0.19296411978900432,-0.45097880389839407,0.4715885342720896
1772623495356768300,6.151768310546875,-0.021113515177369115,-0.5313756981715559,0.5942419772554188
1772623495366798000,6.161798095703125,0.11267243945598601,-0.7099325224235653,0.8358565845753997
1772623495376828200,6.171828125,0.04519230990111828,-0.9648951254859566,1.1010110574368386
1772623495386857200,6.181857177734375,-0.28627777878046035,-1.1126619669377804,1.0677128912080078
1772623495396887300,6.19188720703125,-0.9066220924764871,-0.9017308133035897,0.6603705460708588
1772623495406917000,6.201917236328125,-1.7346821048915386,-0.4424979758009314,0.12787585380673408
1772623495416946200,6.2119462890625,-2.4223095642656087,-0.07746288664788008,-0.3221750215917826
1772623495426976300,6.221976318359375,-2.753936889335513,0.11981325112134218,-0.4859823858056217
1772623495437006300,6.23200634765625,-2.7328964393943544,0.34691169570237396,-0.21890921984128653
1772623495447036200,6.2420361328125,-2.3404981270194054,0.5944312892824412,-0.05596767867654562
1772623495457065000,6.25206494140625,-1.7319646626263856,0.8443059215560555,-0.04424337514583021
1772623495467094800,6.2620947265625,-1.067583638805151,1.0989891231551765,-0.021592238605022428
1772623495477124900,6.272124755859375,-0.5253296960055828,1.2520192919626831,0.00992393957786262
1772623495487153700,6.282153564453125,-0.07740823385119437,1.2273890008360147,0.1755237401664257
1772623495497183700,6.292183837890625,0.4397966078877449,1.0776461831361055,0.18549509908258913
1772623495507213800,6.3022138671875,0.5544780490785837,0.9539458614483475,0.1549308878622949
1772623495517243000,6.312242919921875,0.4877618896335363,0.881129631562531,0.24527970569878815
1772623495527273000,6.32227294921875,0.39333939261734485,0.7909498866826296,0.29376725775301454
1772623495537302800,6.332302734375,0.20792028138041496,0.7250941434592009,0.2070963247116655
1772623495547331800,6.342331787109375,0.027478958556056022,0.7048606259867548,-0.004218567543104291
1772623495557362000,6.35236181640625,-0.08795067065358161,0.804101044678688,-0.28913134158067405
1772623495567392000,6.36239208984375,-0.3263520150154829,0.9052455434262752,-0.5340381953790784
1772623495577421000,6.372421142578125,-0.4472364024996757,0.8961956832692026,-0.6013122079025953
1772623495587450600,6.38245068359375,-0.31497721904218196,0.9151540662392973,-0.560147363419272
1772623495597480700,6.392480712890625,-0.16655892794430255,0.9952867566183209,-0.5109611250437796
1772623495607510800,6.4025107421875,-0.014662147080898283,1.0091402176648379,-0.4904452104333788
1772623495617539800,6.412539794921875,0.2097784764677286,0.9265028509885073,-0.4412637578308582
1772623495627570000,6.42256982421875,0.3891010243952274,0.7715805848240852,-0.19340499542430042
1772623495637600000,6.43260009765625,0.44575522403120993,0.6917100525125861,0.18771628226339815
1772623495647628800,6.44262890625,0.6509732607156038,0.709714788019657,0.2559512122409418
1772623495657659000,6.452658935546875,0.9459037170290946,0.837857476069033,0.09861267871502787
1772623495667689000,6.46268896484375,1.153396128386259,0.9178399443224072,0.10685527760982513
1772623495677718000,6.472718017578125,1.4213345328778029,0.8330857316225767,0.0912679785080254
1772623495687747800,6.482747802734375,1.5676543903917073,0.7007967375487089,0.06334889323534444
1772623495697777700,6.492777587890625,1.564102250868082,0.5859244499608874,0.15138210933953522
1772623495707806700,6.502806640625,1.5855694017887114,0.42183045082539317,0.20741057829260826
1772623495717836800,6.5128369140625,1.5765163267612456,0.22677228136658667,0.19744479060070588
1772623495727867000,6.522866943359375,1.3241367259293795,0.05773001217395067,0.24382329634539782
1772623495737895700,6.532895751953125,0.9448732049375772,-0.12009703649878502,0.31780327278096226
1772623495747925800,6.54292578125,0.7804886984229087,-0.2564297530055046,0.28649737634789196
1772623495757955800,6.552955810546875,0.6728793875753879,-0.21510580897033213,0.04768377965698018
1772623495767985000,6.56298486328125,0.5837509053140878,-0.10993395440280437,-0.12984607616746796
1772623495778015000,6.573014892578125,0.539197477838397,-0.15477525890916585,-0.13841063702562822
1772623495788045000,6.583045166015625,0.5633060831785202,-0.29882980183959007,-0.07372191915442235
1772623495798073900,6.593073974609375,0.6848375363945961,-0.3365940075665712,-0.025838278676941988
1772623495808103700,6.603103759765625,0.79339201913774,-0.28109599222838877,0.03450963351097889
1772623495818133800,6.6131337890625,0.8954594779491424,-0.2801490667670965,0.11531316322311758
1772623495828162800,6.623162841796875,1.0807342122793198,-0.3408218543946743,0.1680478878604248
1772623495838193000,6.63319287109375,1.1683166341423987,-0.39212826326191424,0.23515061720395458
1772623495848222700,6.64322265625,1.1128683031648396,-0.44529023686796426,0.3675122198563069
1772623495858252800,6.653252685546875,0.9727660049915313,-0.5971554535493254,0.6293666282590479
1772623495868281900,6.66328173828125,0.8269125959455966,-0.7791051351100206,0.8309766305141151
1772623495878312000,6.67331201171875,0.6876894186943769,-0.8427923021227121,0.7936321845691651
1772623495888342000,6.683342041015625,0.4821060558289289,-0.8248860585540533,0.6225600900493562
1772623495898370800,6.693370849609375,0.26065818435549737,-0.8437658233299851,0.42700021814610806
1772623495908401000,6.70340087890625,0.018854922595620154,-0.9064353377327322,0.2613800688892603
1772623495918430700,6.7134306640625,-0.23933482581973076,-0.945144130833447,0.1367890911052469
1772623495928459800,6.723459716796875,-0.611166150984168,-0.8956064852043986,0.13039222054183483
1772623495938489900,6.73348974609375,-0.9366863913506269,-0.8035182763546704,0.17822846908047793
1772623495948520000,6.74352001953125,-1.1163128906607627,-0.6838280670911073,0.14606270441506058
1772623495958548700,6.753548828125,-1.2000029812604187,-0.5696615896850824,0.0928581885752268
1772623495968578800,6.763578857421875,-1.185744738805294,-0.48376229860335584,0.10285415220968425
1772623495978609000,6.77360888671875,-1.0212181934714317,-0.36669250097125766,0.17868335497481747
1772623495988638000,6.783637939453125,-0.8320435290932655,-0.2421604046344757,0.28500067151673136
1772623495998667800,6.793667724609375,-0.6103741238236426,-0.12995178329795598,0.30004913276778533
1772623496008697900,6.80369775390625,-0.4425847773015499,-0.06115414140373468,0.2047338881629519
1772623496018727000,6.813726806640625,-0.23847499412000178,-0.09756021052002906,0.14024962508897296
1772623496028756700,6.8237568359375,-0.10123509964048862,-0.23892829084545372,0.190126284280885
1772623496038786800,6.833786865234375,-0.05686228942871093,-0.5066407776266336,0.33888891357071693
1772623496048817000,6.84381689453125,-0.08819383175969123,-0.8724147024482488,0.4984127187138423
1772623496058845700,6.853845703125,-0.2739443669080734,-1.1406699178040027,0.37715175300221887
1772623496068875800,6.863875732421875,-0.9376222108960152,-0.9982616807758807,-0.23300240792781113
1772623496078905900,6.87390576171875,-1.8106629362881184,-0.6584402355954051,-0.9721680390983819
1772623496088935000,6.883934814453125,-2.3458014941245318,-0.5962678570598363,-1.37800597102195
1772623496098965000,6.893965087890625,-2.6750176663994787,-0.7027867423221469,-1.435489314958453
1772623496108994800,6.903994873046875,-2.87472015453279,-0.658171647787094,-1.349757197137177
1772623496119023900,6.91402392578125,-2.6572061153769493,-0.34212972212284803,-1.2611688131019472
1772623496129054000,6.924053955078125,-2.23591839312613,0.14134148457944393,-1.1442162851739675
1772623496139083800,6.934083740234375,-1.909519616359472,0.5502265291139483,-0.8455347326986491
1772623496149112800,6.94411279296875,-1.4141992741703986,0.7891872609242796,-0.44123233977928755
1772623496159142700,6.954142578125,-0.9286129750102757,1.0243369100138544,-0.2896670193599537
1772623496169172700,6.9641728515625,-0.662845484817028,1.2493290299654005,-0.2654121008843183
1772623496179201800,6.974201904296875,-0.43378012407720085,1.2671864659562706,-0.3024921054731123
1772623496189231900,6.98423193359375,-0.2025800893962383,1.2272177359223364,-0.46481399863585826
1772623496199262000,6.994261962890625,-0.012473697125911712,1.2498825721949338,-0.7110342000551522
1772623496209292000,7.0042919921875,0.15390402903258799,1.320733931748569,-0.8970048807602375
1772623496219320800,7.01432080078125,0.303415960586071,1.2603072278365492,-0.8432841772928833
1772623496229351000,7.024350830078125,0.34504970122277734,1.0153118920370936,-0.6350616980955004
1772623496239380700,7.034380615234375,0.2845692212969064,0.7644871194317936,-0.5805579544916749
1772623496249409800,7.044409912109375,0.33262685750126836,0.6050824471563101,-0.4713179737024009
1772623496259439900,7.05443994140625,0.430877972894907,0.5258525508359074,-0.4041135923489928
1772623496269469700,7.0644697265625,0.5778554175347089,0.5411173399850726,-0.3507646448034793
1772623496279498800,7.074498779296875,0.7778034048616885,0.5878051491409539,-0.26904139729738236
1772623496289528800,7.08452880859375,0.9787427413135766,0.6276467456638812,-0.15177003094488753
1772623496299559000,7.094558837890625,1.202445698237419,0.6725345196604728,0.003527717468421906
1772623496309587700,7.104587646484375,1.3842548022836445,0.7467001183286309,0.13626103950999677
1772623496319617800,7.11461767578125,1.4507184482723474,0.797129744361341,0.25783969286866487
1772623496329647900,7.12464794921875,1.4633020355135202,0.7905249392688274,0.3278109816521406
1772623496339677000,7.134677001953125,1.411459035551548,0.7508671748802065,0.30563922612611205
1772623496349707000,7.14470703125,1.38133511544466,0.7044543832734227,0.2516475967628881
1772623496359736800,7.15473681640625,1.38577397467494,0.6603022300750017,0.2527431369146332
1772623496369767000,7.164766845703125,1.3630851730048656,0.6259861189752817,0.3042670975226909
1772623496379795700,7.174795654296875,1.3381938928544521,0.5522150725826621,0.33994266040734944
1772623496389825800,7.18482568359375,1.3703706538379192,0.45353608716577287,0.3360125909494236
1772623496399855900,7.19485595703125,1.3321242175519465,0.3432379756256938,0.2927482169035822
1772623496409885000,7.204885009765625,1.2563029606312512,0.24833909326940773,0.25833222562596203
1772623496419914800,7.214914794921875,1.2603192105352878,0.15624270111322403,0.23646153540574014
1772623496429944800,7.22494482421875,1.1220786145806312,0.08020283300578594,0.13252371614519506
1772623496439974000,7.234973876953125,0.9622598085463047,-0.03596358604580164,0.009010916386172175
1772623496450004000,7.24500390625,0.8437415656715631,-0.13024462876468895,-0.08368780731102451
1772623496460034000,7.255033935546875,0.7365110250085591,-0.19094518118202686,-0.25794806688027455
1772623496470063000,7.26506298828125,0.6775923875719309,-0.19058190082758664,-0.3974321418236941
1772623496480093200,7.27509326171875,0.6589870558232068,-0.17995675417780876,-0.48921979682426897
1772623496490123000,7.285123046875,0.64797758603096,-0.22894728731811045,-0.5938651067670434
1772623496500153000,7.295153076171875,0.6315326471865177,-0.2615644855454564,-0.6727530577819794
1772623496510182100,7.30518212890625,0.588010316324234,-0.2788496746063232,-0.6557367487903684
1772623496520212200,7.315212158203125,0.5634446148663759,-0.3420101873964071,-0.5666684357510879
1772623496530242300,7.3252421875,0.5939484742015599,-0.4085848925441503,-0.4973244485531002
1772623496540271000,7.33527099609375,0.6226128431499004,-0.44879736820608374,-0.40067835720330475
1772623496550301200,7.34530126953125,0.650549482345581,-0.504732021395862,-0.3508194802632555
1772623496560331000,7.3553310546875,0.6255997500061988,-0.6209603997677564,-0.32726456328313797
1772623496570360000,7.365360107421875,0.6225199041694403,-0.7168903787374497,-0.32831637389101087
1772623496580390100,7.37539013671875,0.6178495742708444,-0.7855413056373596,-0.27757643980011343
1772623496590420000,7.385419921875,0.5759153893828391,-0.839694628368318,-0.23958357641641048
1772623496600449000,7.395448974609375,0.5394119973719119,-0.8947817248180508,-0.30455793369542805
1772623496610479000,7.40547900390625,0.46042847702801226,-0.9217308142811059,-0.43506274776626375
1772623496620509200,7.41550927734375,0.2828893053859472,-0.8955179301381111,-0.5835146488728001
1772623496630538200,7.425538330078125,0.028400749576091764,-0.8504363871350884,-0.602499408393167
1772623496640568000,7.435568115234375,-0.14720833078622816,-0.8282266011536121,-0.5313618888419122
1772623496650598100,7.44559814453125,-0.25626608687639235,-0.7589122419089078,-0.43015141218602654
1772623496660628000,7.4556279296875,-0.3949585182517767,-0.6757037973463534,-0.24318134518004952
1772623496670657300,7.4656572265625,-0.41173371196389197,-0.6490469688281416,-0.061287668122909957
1772623496680687000,7.47568701171875,-0.35742695223689075,-0.6142243695110082,0.097636782887578
1772623496690717200,7.48571728515625,-0.28085283112227916,-0.5273299299120903,0.19532507676668465
1772623496700746000,7.49574609375,-0.2590606860309839,-0.34906244399547576,0.14080416283234953
1772623496710776000,7.505776123046875,-0.2251496486008167,-0.14477292033284903,0.10284348468519747
1772623496720806100,7.51580615234375,-0.1562298416316509,-0.028306641551852224,0.23699155062921343
1772623496730835200,7.525835205078125,-0.03739537241458893,-0.12058861940801142,0.45138855374306436
1772623496740865300,7.535865234375,0.006974515187740326,-0.3434945807352662,0.643653731482476
1772623496750895000,7.54589501953125,-0.0183387897670269,-0.5883189438819885,0.8379664163362235
1772623496760924200,7.555924072265625,-0.08619652046263217,-0.7738613892376422,0.9600794688325375
1772623496770954200,7.565954345703125,-0.4637415470987558,-0.7746540009200572,0.8124857189252972
1772623496780984000,7.575984130859375,-1.1240700806587933,-0.492003472726047,0.2723917306385934
1772623496791014100,7.58601416015625,-1.6674767006248234,-0.16912439451813696,-0.3174112412560731
1772623496801043000,7.59604296875,-2.0434359193742275,-0.0100189974501729,-0.49291784762460733
1772623496811073000,7.606072998046875,-2.1383196041613814,0.214593183273077,-0.4750318431263789
1772623496821103000,7.61610302734375,-2.0145073465317487,0.49060032792985436,-0.3486355238202959
1772623496831132200,7.626132080078125,-1.5449322709739208,0.6947396294668317,-0.19567085799705236
1772623496841162200,7.636162353515625,-0.9654536361515521,0.8945581451952457,-0.09501648085396737
1772623496851192300,7.6461923828125,-0.4560241045892238,1.1012974000975488,-0.0764234240649268
1772623496861221000,7.65622119140625,-0.016010639080405235,1.2002642625451088,-0.09098886930570006
1772623496871251200,7.666251220703125,0.4642179324388504,1.1241796785131095,0.16383483674265442
1772623496881281000,7.676281005859375,0.8664993409246206,0.9031935793325304,0.5043069278515875
1772623496891310300,7.686310302734375,0.9510855035811662,0.6409136389940977,0.6365677918095142
1772623496901340000,7.69633984375,0.9454793541371822,0.5037982476770878,0.6351560983806848
1772623496911370000,7.706369873046875,0.7861825261503458,0.47394233085662124,0.5221973893292248
1772623496921400000,7.716400146484375,0.44560617094933985,0.48648646287024017,0.3007453531373292
1772623496931429000,7.72642919921875,-0.04823123920559883,0.4236228872001171,0.03151281718201935
1772623496941459200,7.736459228515625,-0.5093967983365059,0.3420724389776587,-0.3618907997779548
1772623496951489300,7.7464892578125,-0.8062240281820297,0.3967442326247692,-0.6226746563397347
1772623496961518000,7.75651806640625,-0.8484007896542549,0.598527034163475,-0.6974860055655241
1772623496971548200,7.766548095703125,-0.7281640524238348,0.7983034643158317,-0.6759291305348276
1772623496981578000,7.776577880859375,-0.5190332262098789,0.935930896808207,-0.6044109045702963
1772623496991607300,7.786607177734375,-0.3200198893845081,1.0232084905058145,-0.5198354825034738
1772623497001637000,7.79663720703125,-0.05654314047694206,1.0772679974734782,-0.44639476404376327
1772623497011667000,7.8066669921875,0.38062954864799975,1.0936661745667458,-0.30196309489663686
1772623497021697000,7.816697021484375,0.8536614866614342,1.0534612976893782,-0.17077018896378576
1772623497031726000,7.82672607421875,1.2225269477576017,0.9325888929039239,-0.0747782141411677
1772623497041756200,7.836756103515625,1.5372849710911511,0.7259832012534141,-0.02510930681526661
1772623497051786200,7.8467861328125,1.8378128090202808,0.48796325742453334,-0.014771708402596413
1772623497061815000,7.85681494140625,2.0034785875171424,0.28060850097239015,-0.02283807394765317
1772623497071845000,7.86684521484375,1.984953919789195,0.12294687297195195,0.2075601793637499
1772623497081875200,7.876875244140625,2.0101485668003556,-0.06363163743317127,0.3995803693661466
1772623497091904300,7.886904296875,1.9766426030397415,-0.22191198185384273,0.4137841782202944
1772623497101934000,7.89693408203125,1.8503560642510652,-0.3420245081827044,0.28917463273312893
1772623497111964200,7.906964111328125,1.7474094845175743,-0.4765937221482396,0.15615933367870746
1772623497121993000,7.916992919921875,1.6209575260341167,-0.5997805413559079,0.12677242260947824
1772623497132023000,7.92702294921875,1.475837107437849,-0.6740776574492454,0.15192231716345994
1772623497142053000,7.93705322265625,1.2875520853757858,-0.7769847819551825,0.14445461163129655
1772623497152083200,7.947083251953125,1.011239820292592,-0.902659326325357,0.124980917816516
1772623497162112300,7.9571123046875,0.8339771275043487,-1.017265364192426,0.12939687109524384
1772623497172142000,7.96714208984375,0.7312251935601234,-1.0714321309268473,0.21075289272414519
1772623497182172200,7.977172119140625,0.6967763959914446,-1.0726906065553425,0.28614434339283035
1772623497192201200,7.987201171875,0.721070879292488,-1.0144672579064964,0.24751427808413282
1772623497202231300,7.997231201171875,0.7205407179385424,-0.8971987228319048,0.07163729490009137
1772623497212259000,8.007259033203125,0.6856961990505457,-0.7681696073368192,-0.012187664992455393
1772623497222289200,8.0172890625,0.6867518455833196,-0.6983052129939198,0.08910245277089998
1772623497232319200,8.0273193359375,0.6889484788447618,-0.6441074665993451,0.3737948803223669
1772623497242348300,8.037348388671875,0.6581798310935497,-0.62096303011626,0.6643604194246232
1772623497252378000,8.047378173828125,0.5462544106125832,-0.6499310581862926,0.9539233573555945
1772623497262408000,8.057407958984374,0.26569150234758854,-0.7266521865561604,1.183440042059496
1772623497272437000,8.06743701171875,-0.05780336967110634,-0.8135153542339801,1.2686777274273335
1772623497282467000,8.077467041015625,-0.22773908057212827,-0.8426797816589474,1.181844735692069
1772623497292497200,8.0874970703125,-0.5131494288682937,-0.7692305145666003,0.8854469102397561
1772623497302527200,8.09752734375,-0.885469414332509,-0.7001198612004518,0.5435596185706556
1772623497312556000,8.10755615234375,-1.1856675819158553,-0.6776987705558538,0.29344931437764316
1772623497322586000,8.117586181640625,-1.5180202986508606,-0.6214984521672129,0.16509068202264607
1772623497332616200,8.1276162109375,-1.7540303639620543,-0.5345584198608995,0.1354868402671069
1772623497342645200,8.137645263671875,-1.7955974691033363,-0.4130301815152168,0.1521370741589926
1772623497352675000,8.147675048828125,-1.6568617831081152,-0.2164125076547265,0.1968918694256805
1772623497362705200,8.157705078125,-1.4049720116198061,0.005982289279997348,0.2744618697098456
1772623497372734000,8.16773388671875,-1.1657529211342335,0.19997224498540161,0.3743575922390446
1772623497382764000,8.177763916015625,-0.8973767097473144,0.33421061956137416,0.4452542157065123
1772623497392794000,8.187794189453125,-0.6376748032033444,0.42763036927580833,0.5023585337301716
1772623497402824200,8.19782421875,-0.4300976361721754,0.46702188394367694,0.5408031594693661
1772623497412853200,8.207853271484375,-0.3037438773661852,0.3861915666893124,0.5319322726083919
1772623497422883000,8.217883056640625,-0.173331783080101,0.16507044295221565,0.5543767075959593
1772623497432913200,8.2279130859375,-0.10646598603129387,-0.07254004329293966,0.5428706864584237
1772623497442942200,8.237942138671874,-0.3126747873187065,-0.20779986987113952,0.42009927965123206
1772623497452972300,8.24797216796875,-0.7464180865168571,-0.19064152206033466,0.11116187049625441
1772623497463001600,8.258001708984375,-1.2844324920505283,-0.08252367716878652,-0.38580406520906835
1772623497473030400,8.268030517578126,-1.8839947144806384,-0.04292991792708635,-0.7594665878560394
1772623497483060500,8.278060546875,-2.265476496043801,-0.0836792769446969,-0.8013282189644872
1772623497493090300,8.28809033203125,-2.344437220034003,-0.04824555999189615,-0.7412688870601356
1772623497503119400,8.298119384765625,-2.1847084303706885,0.14475304658859967,-0.7373280404798686
1772623497513149200,8.308149169921874,-1.7466197954446077,0.4347545220673084,-0.6923183206040412
1772623497523179300,8.31817919921875,-1.2262123582720756,0.7164455575793981,-0.5095918094519526
1772623497533209300,8.328209228515625,-0.6525853720873593,0.8510401982471346,-0.2859013101508841
1772623497543238400,8.33823828125,-0.16237550477981566,0.8641343653589486,-0.2715398447833024
1772623497553268500,8.3482685546875,0.15940028836131095,0.8409045886799693,-0.39246600731629877
1772623497563298600,8.358298583984375,0.34446225672364233,0.6963014719560742,-0.5081708367381245
1772623497573327400,8.368327392578125,0.5185393052130938,0.5359744241386651,-0.4388672180831432
1772623497583357400,8.378357421875,0.5932721823751926,0.49713908204883334,-0.4345090594062581
1772623497593387300,8.38838720703125,0.5588321526348591,0.5136103243783116,-0.6326177390094846
1772623497603416300,8.398416259765625,0.46157706254124636,0.5145873527169227,-0.7987186940532177
1772623497613446400,8.4084462890625,0.3807072900593281,0.4629109414935112,-0.9587099340450018
1772623497623476200,8.418476318359374,0.3828887257516384,0.43987697964757677,-0.956511328022182
1772623497633506300,8.42850634765625,0.4845867667287588,0.4175923748642206,-0.8326067159339785
1772623497643535400,8.438535400390625,0.6045815118968486,0.39757162335962054,-0.6702788496881723
1772623497653565400,8.4485654296875,0.7537088280469179,0.3624611470118165,-0.5055061475735158
1772623497663595500,8.458595458984375,0.9481015193343162,0.32930209699273105,-0.40812195120751854
1772623497673624300,8.468624267578125,1.1793652669012546,0.3240697492972016,-0.26728478115471077
1772623497683654400,8.478654296875,1.3835942925482987,0.3423524249628186,-0.13725850784843788
1772623497693684200,8.488684326171875,1.5182698894977569,0.3836725696057081,-0.012410221701953559
1772623497703713500,8.498713623046875,1.5634423256546257,0.4896425888136029,0.0792558162129484
1772623497713743400,8.508743408203125,1.606803328475356,0.5351376810535788,0.09076871461584232
1772623497723773400,8.5187734375,1.6758733575701712,0.5141404857322573,0.13728063748185523
1772623497733803300,8.52880322265625,1.7138561744838952,0.48320729506909843,0.2095037511795759
1772623497743832300,8.538832275390625,1.6808961541682481,0.40191374421715736,0.21305165291950107
1772623497753862400,8.5488623046875,1.6407102742522954,0.2784475235462189,0.23852113481666892
1772623497763892500,8.558892578125,1.6138427255928516,0.13061053946763276,0.24006248250715434
1772623497773921500,8.568921630859375,1.5303630628734826,0.028679274256527422,0.20146217301590366
1772623497783951400,8.578951416015625,1.3914596190959214,-0.09839344647377729,0.13364734074710868
1772623497793981400,8.5889814453125,1.2100994278609751,-0.2359042668491602,0.05418521570656448
1772623497804010500,8.599010498046875,1.0249877751380205,-0.3598988953083753,-0.06331064358418807
1772623497814040300,8.609040283203125,0.8108622093766927,-0.4307917559161782,-0.21479898977717382
1772623497824072400,8.619072509765624,0.6213537829995155,-0.4507449951425194,-0.3562019404865801
1772623497834102300,8.629102294921875,0.4295353261142969,-0.44432489896714683,-0.5039790110714734
1772623497844131600,8.639131591796875,0.26388649875223635,-0.41694589365422724,-0.6163373430769891
1772623497854161200,8.6491611328125,0.168010880318284,-0.4102592554971575,-0.6780229610089212
1772623497864191200,8.659191162109375,0.20937164923250673,-0.40665275543779134,-0.6888898805253207
1772623497874220300,8.66922021484375,0.40313188783526416,-0.4230889264538884,-0.6611164690673351
1772623497884250400,8.67925048828125,0.5670499458819628,-0.4532423649162054,-0.6408743298970162
1772623497894280400,8.689280517578124,0.6936766764104366,-0.4982297998949885,-0.5836038615262136
1772623497904310500,8.699310546875,0.7873445556670426,-0.4913756962165236,-0.36144228882547463
1772623497914339300,8.70933935546875,0.8734873001158237,-0.4445946558192372,-0.20259740585722028
1772623497924369400,8.719369384765624,0.9121388100713491,-0.4883423198699951,-0.28403842062214385
1772623497934399500,8.7293994140625,0.9414338781386613,-0.5979419277518987,-0.4084215186759829
1772623497944428500,8.739428466796875,0.886752439880371,-0.6947115724161267,-0.47358599169962107
1772623497954458400,8.749458251953126,0.6895400149971246,-0.7831926966845989,-0.5265201478991657
1772623497964488200,8.75948828125,0.48151685776412484,-0.8770704192996025,-0.5889990716332569
1772623497974517200,8.769517333984375,0.27766660230159756,-0.998835681271553,-0.6597567250214517
1772623497984547300,8.77954736328125,0.07865735712945461,-1.0663403607457875,-0.7161770428363233
1772623497994577400,8.789577392578124,-0.10437047505676746,-1.0526607949614524,-0.7500823081128298
1772623498004607500,8.799607421875,-0.24143793557882307,-1.0412649562001228,-0.7643827822744846
1772623498014636300,8.80963623046875,-0.3313087606400251,-1.0047966355025768,-0.7056395014047623
1772623498024666400,8.819666259765626,-0.36838966027796266,-0.9786948105186224,-0.6045606517719104
1772623498034696400,8.829696533203125,-0.3994634284555912,-0.9730816468119621,-0.4733961316833272
1772623498044725500,8.8397255859375,-0.5152595528900623,-0.9827382406905293,-0.35963717563226816
1772623498054755300,8.84975537109375,-0.6572948649525642,-0.9962123470306395,-0.19324783210121094
1772623498064785400,8.859785400390624,-0.7459551451802253,-0.9888894567966461,-0.02306793718077242
1772623498074815200,8.869815185546875,-0.8825082264393568,-0.9041019263491034,0.08840960253537632
1772623498084844300,8.87984423828125,-0.9907137496143579,-0.7745452798485756,0.11366261040396057
1772623498094874400,8.889874267578126,-1.0223410600215197,-0.6548647151961923,0.16795706777181477
1772623498104904400,8.899904541015625,-1.0679448733329773,-0.6258300516307354,0.34811058663073924
1772623498114933500,8.90993359375,-1.107733278363943,-0.7233490533575415,0.6043956339359283
1772623498124963300,8.91996337890625,-1.1917676523566245,-0.8098980405196547,0.746540397722274
1772623498134993400,8.929993408203124,-1.4444284082174301,-0.6988526177436113,0.5842809205375612
1772623498145022500,8.9400224609375,-1.867279142001271,-0.3178136115118861,0.12445569749916903
1772623498155052500,8.950052490234375,-2.2565870871454474,0.12832798148840666,-0.3618516002787277
1772623498165082400,8.960082275390626,-2.52534849845767,0.4852849781259894,-0.6322098888609557
1772623498175112400,8.970112548828125,-2.5739865648984908,0.6892705504059791,-0.6750448950462042
1772623498185141200,8.980141357421875,-2.333603691330552,0.7839686494931578,-0.39483741262275723
1772623498195171300,8.99017138671875,-1.8377958578854798,0.9133914404809474,-0.3075982877720147
1772623498205201400,9.000201416015624,-1.3245219258546828,1.124962645584345,-0.21689444595277307
1772623498215230500,9.01023046875,-0.6862415579736232,1.2214713012248277,-0.04042453837688081
1772623498225260300,9.02026025390625,-0.10338146401941775,1.1802692300036548,0.2484114095869474
1772623498235290400,9.030290283203126,0.5551023184567689,1.112101118184626,0.5693043006800115
1772623498245319400,9.0403193359375,1.0027829575926064,1.0571385248973966,0.6800130388475955
1772623498255349500,9.050349609375,1.321602823537588,0.9896733006507158,0.6662753131352365
1772623498265379300,9.06037939453125,1.4883943911939859,0.9335767348974943,0.576760279241763
1772623498275409400,9.070409423828124,1.382721016845107,0.8788786377653479,0.4167553029855713
1772623498285438200,9.080438232421875,1.1282307074695825,0.8784238797351718,0.20366251433808355
1772623498295468300,9.09046826171875,0.7890875999420881,0.9104372668504714,-0.017234627917408943
1772623498305498400,9.100498291015626,0.3017980039954185,0.9212363087624311,-0.201170478326641
1772623498315527400,9.11052734375,-0.21118775874376297,0.8568874629706144,-0.3036435587968677
1772623498325557500,9.1205576171875,-0.5101116686075926,0.7316919342890381,-0.3563289643997326
1772623498335587300,9.13058740234375,-0.642332273620367,0.6187479844152927,-0.3587341989105567
1772623498345616400,9.140616455078124,-0.7312678636580705,0.5739344446986914,-0.29067044251514595
1772623498355646500,9.150646484375,-0.6784639097094536,0.5674386529386043,-0.18747021681414916
1772623498365676300,9.16067626953125,-0.6149760646611452,0.5750812766462564,-0.11311017328612506
1772623498375706400,9.170706298828126,-0.4866764324843883,0.5917559325933456,-0.019586853599362075
1772623498385735200,9.180735107421874,-0.1389759244918823,0.6364101900950074,0.09625135641116649
1772623498395765200,9.19076513671875,0.35865152559578417,0.7354521636053919,0.19834712800160048
1772623498405795300,9.20079541015625,0.8157266005426644,0.8176628293022513,0.28998887172546234
1772623498415824400,9.210824462890624,1.2383382648736239,0.7588941217303276,0.3369154580732807
1772623498425854500,9.2208544921875,1.6733230885654686,0.5964554885864257,0.3984790570607409
1772623498435884500,9.230884521484375,2.014830002614856,0.4174970977962017,0.4822127310737967
1772623498445914400,9.240914306640626,2.2526462405651806,0.23865794947147367,0.5584686530847102
1772623498455943400,9.250943359375,2.2570979592770337,0.09663578915148972,0.6103346685960889
1772623498465973500,9.260973388671875,2.156864145633578,-0.05188888493031263,0.6608500732161104
1772623498476003300,9.27100341796875,2.093425984945893,-0.21346125663369891,0.5900764550738036
1772623498486032400,9.281032470703124,1.914676852992177,-0.3192339997038245,0.436679243052192
1772623498496062200,9.291062255859375,1.6831056469112633,-0.4224827772542834,0.3389499961081892
1772623498506092300,9.30109228515625,1.5132552762061358,-0.5264820809110998,0.3006285583572462
1772623498516121300,9.311121337890626,1.4187825103074312,-0.6196466868206858,0.29514088419377804
1772623498526151400,9.3211513671875,1.3160948737710714,-0.6887286986142397,0.25275347564555706
1772623498536181500,9.331181396484375,1.2187374923467635,-0.7254717445999384,0.1613502168526873
1772623498546211600,9.341211669921876,1.1642203047394752,-0.7305711135655641,0.11530567403640597
1772623498556240400,9.351240478515624,1.1086042159795761,-0.7186600187584757,0.14113361398242413
1772623498566270500,9.3612705078125,1.1021452490985393,-0.7000032490834593,0.2311389886761084
1772623498576300300,9.37130029296875,1.012248705074191,-0.681230744074285,0.3364706003826111
1772623498586329300,9.381329345703126,0.8860030828177928,-0.7167264203473925,0.3786648244462907
1772623498596359400,9.391359375,0.7914625123798846,-0.7400830382764338,0.37428299263287335
1772623498606389200,9.40138916015625,0.706475367707014,-0.7498390008762479,0.42777646321561186
1772623498616419300,9.41141943359375,0.5894745436578989,-0.7885577308490872,0.5094396145649254
1772623498626448400,9.421448486328124,0.4243360039055347,-0.852734727205336,0.6140852533012628
1772623498636478500,9.431478515625,0.2504126846730709,-0.9355492040142417,0.6333041138384491
1772623498646508500,9.441508544921875,0.08018003665208816,-0.9951756974592805,0.5800518316004425
1772623498656537300,9.451537353515626,-0.10300795453190803,-1.0142971620365977,0.485932920640707
1772623498666567400,9.4615673828125,-0.34232232208549973,-0.9930451151713728,0.3205381411049515
1772623498676597200,9.47159716796875,-0.6613800884395837,-0.9432891506165265,0.06953191098552197
1772623498686627300,9.48162744140625,-0.9460743974208832,-0.8576122701138258,-0.14051212108321487
1772623498696656400,9.491656494140624,-1.2099305010348558,-0.7664271475836634,-0.2089891527209431
1772623498706686200,9.501686279296875,-1.4086603447437285,-0.6989312359377742,-0.12557216170793398
1772623498716716300,9.51171630859375,-1.4813485643357038,-0.6018216917946935,0.0049456031760200855
1772623498726745300,9.521745361328126,-1.320845867690444,-0.4452972511306405,0.09838701673299073
1772623498736775400,9.531775390625,-1.1773784769982099,-0.26811259201467036,0.05239055084213614
1772623498746805500,9.541805419921875,-1.1542448541700838,-0.15518325518816709,-0.11039247529264538
1772623498756835600,9.551835693359376,-1.0403922650188207,-0.12262947758585215,-0.26608437412269415
1772623498766864400,9.561864501953124,-0.8221925816863774,-0.10681962177455424,-0.3276127191336825
1772623498776894200,9.571894287109375,-0.5646440537840127,-0.16583119819164274,-0.324191877839528
1772623498786924300,9.58192431640625,-0.3044359512835741,-0.3424962173476815,-0.21565284839384258
1772623498796953300,9.591953369140626,-0.16261574327647685,-0.5577165926083922,-0.12957082115635274
1772623498806983400,9.6019833984375,-0.20768530358076095,-0.6689011315941811,-0.2094280921274796
1772623498817013200,9.61201318359375,-0.3876981718599796,-0.6311237741246819,-0.37614312394894656
1772623498827043300,9.622043212890626,-0.689559888741374,-0.5309419829294085,-0.6309519246891141
1772623498837072400,9.632072265625,-1.0925134974002837,-0.3856637434229255,-0.9685433457951992
1772623498847102500,9.6421025390625,-1.5261568433552979,-0.2184890216678381,-1.1642674318168311
1772623498857132500,9.652132568359375,-1.7783219246536492,-0.09866057297736405,-1.1864919039107857
1772623498867161300,9.662161376953126,-1.7554139272749423,0.006586392652988433,-1.145280772600323
1772623498877191400,9.67219140625,-1.4569213945657014,0.18755407743901012,-1.0031411233805119
1772623498887221200,9.68222119140625,-1.066321071523428,0.4544838894098997,-0.6758234782032668
1772623498897251300,9.692251220703126,-0.6189239255040884,0.6504919069394469,-0.5314741170447319
1772623498907280400,9.7022802734375,-0.23092940104603765,0.7757078938871622,-0.4476338773846626
1772623498917310500,9.712310546875,0.12986322823166846,0.8230114968538284,-0.3023546514974907
1772623498927340300,9.72234033203125,0.41491000391244887,0.8276037930801511,-0.1478242707274854
1772623498937369300,9.732369384765626,0.5449029960036278,0.7967112266883254,-0.15397325834389775
1772623498947399400,9.7423994140625,0.5664893893897534,0.795411834527552,-0.27492475624755025
1772623498957429500,9.752429443359375,0.4636006773233413,0.8057987885072827,-0.40521351641491055
1772623498967459300,9.762459228515626,0.21996786204874513,0.7669684148535132,-0.5647761922637
1772623498977488400,9.77248828125,-0.17832184645235538,0.6727902479872108,-0.7271298870705067
1772623498987518200,9.782518310546875,-0.5002291570186614,0.5617763893932104,-0.8250551315106451
1772623498997548300,9.79254833984375,-0.6492576889693736,0.5090823255598544,-0.8116049175027757
1772623499007578400,9.802578369140624,-0.6261983004212379,0.5661264012962579,-0.656207946498692
1772623499017607400,9.812607421875,-0.4672872568815946,0.6842343098044396,-0.4908245286071673
1772623499027637500,9.822637451171875,-0.19464520474374294,0.7976841633737087,-0.37334070681408044
1772623499037667300,9.832667236328126,0.14734393986463545,0.8843240436896681,-0.2773045457898639
1772623499047696400,9.8426962890625,0.521539656072855,0.941663887502253,-0.19748952479157594
1772623499057726500,9.8527265625,0.8902671700030564,0.9074147041589021,-0.122000751228258
1772623499067756300,9.86275634765625,1.2413637501746415,0.8641811271101236,-0.0025364962076768276
1772623499077786400,9.872786376953124,1.580752941417694,0.8174760745584965,0.14872414217665791
1772623499087815200,9.882815185546875,1.8494582386285066,0.7517766909405589,0.267003096402809
1772623499097845200,9.89284521484375,2.0511118608295917,0.6442936368212103,0.3388502255281433
1772623499107875300,9.902875244140626,2.1382196509182454,0.5428285278171301,0.39259416374061257
1772623499117904400,9.912904296875,2.115970409709215,0.45372430321425194,0.42457310059703884
1772623499127934500,9.9229345703125,2.0675182212293146,0.34791356622129677,0.41790933185890317
1772623499137964500,9.932964599609376,2.007438138797879,0.23901158521473406,0.31791528178807343
1772623499147994400,9.942994384765624,1.914887280872464,0.16569062067717313,0.22016838958952575
1772623499158023400,9.9530234375,1.7079717926204203,0.05723521439433098,0.17736560517344624
1772623499168053500,9.963053466796875,1.3168722878843546,-0.15356354503184555,0.02016954885814339
1772623499178083300,9.973083251953126,0.8979904577314853,-0.4214207009807229,-0.3105224681230262
1772623499188113400,9.983113525390625,0.9533487723380326,-0.5468474080696701,-0.5552516272669658
1772623499198142200,9.99314208984375,2.991857756704092,0.023733050025999545,-0.22330475138649344
1772623499208172300,10.00317236328125,1.6351596543878315,0.2746066302090883,0.3091308311015367
1772623499218202400,10.013202392578124,0.7629623940825462,-0.23489538206756114,0.46987763870097693
1772623499228231400,10.0232314453125,0.3815869955033064,-0.7894839057832956,-0.16763649404793976
1772623499238261500,10.033261474609375,-0.2790986809313297,-0.9019728053659201,-0.25758301469385625
1772623499248291600,10.04329150390625,-0.4209808482587337,-0.8631719500675797,0.0307381430150941
1772623499258321400,10.0533212890625,0.3488724743813276,-0.4099094191461801,0.16138685906864703
1772623499268350500,10.0633505859375,1.6997469851106404,0.5158335533857346,-0.48202597633004185
