time,seconds_elapsed,z,y,x
1772623489278797300,0.07379736328125,-0.11904960125684738,0.06214417517185211,-0.00205421494320035
1772623489288826400,0.083826416015625,-0.15201866626739502,0.1935846507549286,-0.19409829378128052
1772623489298856400,0.0938564453125,-0.1514684557914734,0.24991822242736816,-0.33985280990600586
1772623489308885500,0.103885498046875,-0.12737244367599487,0.2612750232219696,-0.40675559639930725
1772623489318915600,0.11391552734375,-0.08541727811098099,0.25233426690101624,-0.3912719786167145
1772623489328945400,0.1239453125,-0.027979183942079544,0.26292744278907776,-0.3181266486644745
1772623489338974500,0.133974365234375,0.031337134540081024,0.26928576827049255,-0.2006213515996933
1772623489349004500,0.144004638671875,0.09598763287067413,0.25479263067245483,-0.05650467798113823
1772623489359034600,0.15403466796875,0.15077924728393555,0.23717184364795685,0.09252900630235672
1772623489369063700,0.164063720703125,0.1898316740989685,0.20763319730758667,0.22029316425323486
1772623489379093500,0.174093505859375,0.22237497568130493,0.18933409452438354,0.29858264327049255
1772623489389123300,0.184123291015625,0.2573906481266022,0.1651431769132614,0.3136455714702606
1772623489399152600,0.194152587890625,0.2849964499473572,0.14586135745048523,0.2678666412830353
1772623489409182500,0.204182373046875,0.299983412027359,0.13533653318881989,0.18318001925945282
1772623489419211300,0.214211181640625,0.29639241099357605,0.13580524921417236,0.07167239487171173
1772623489429241300,0.224241455078125,0.2654927372932434,0.13576513528823853,-0.04670919105410576
1772623489439271400,0.234271484375,0.2153395563364029,0.12094705551862717,-0.14599689841270447
1772623489449300500,0.244300537109375,0.15083259344100952,0.09648264944553375,-0.2165445238351822
1772623489459330600,0.25433056640625,0.08609434217214584,0.07664422690868378,-0.2645210921764374
1772623489469360600,0.264360595703125,0.011662466451525688,0.07938828319311142,-0.29036378860473633
1772623489479389700,0.2743896484375,-0.06808589398860931,0.10846894234418869,-0.2999967038631439
1772623489489419800,0.284419677734375,-0.1463131159543991,0.1458432972431183,-0.2972036302089691
1772623489499448600,0.294448486328125,-0.19700318574905396,0.1816100925207138,-0.28713127970695496
1772623489509478700,0.304478759765625,-0.2104329764842987,0.20933139324188232,-0.2730712890625
1772623489519508500,0.314508544921875,-0.1943429559469223,0.21735817193984985,-0.2549157440662384
1772623489529537800,0.324537841796875,-0.14598539471626282,0.2153230458498001,-0.22748611867427826
1772623489539567600,0.334567626953125,-0.08301575481891632,0.20869310200214386,-0.1944943517446518
1772623489549597700,0.34459765625,-0.006289052311331034,0.18818184733390808,-0.14987865090370178
1772623489559626500,0.35462646484375,0.07428115606307983,0.14418348670005798,-0.09994544088840485
1772623489569656600,0.364656494140625,0.14957281947135925,0.09655154496431351,-0.02807454578578472
1772623489579686700,0.374686767578125,0.20950698852539062,0.04797149449586868,0.05611196905374527
1772623489589715700,0.3847158203125,0.25035560131073,-0.014192130416631699,0.14024551212787628
1772623489599745500,0.39474560546875,0.2681383192539215,-0.07582646608352661,0.21224194765090942
1772623489609774600,0.404774658203125,0.26821744441986084,-0.11541130393743515,0.26429447531700134
1772623489619804700,0.4148046875,0.24454167485237122,-0.12419334799051285,0.29512590169906616
1772623489629834800,0.424834716796875,0.19960440695285797,-0.08651266992092133,0.3072589337825775
1772623489639863800,0.43486376953125,0.08598010241985321,0.002999899908900261,0.31527185440063477
1772623489649893600,0.4448935546875,0.1024523377418518,0.11265261471271515,0.3117664158344269
1772623489659923500,0.45492333984375,-0.06743523478507996,0.22780290246009827,0.294048935174942
1772623489669952500,0.464952392578125,-0.02252565696835518,0.32039114832878113,0.26619741320610046
1772623489679982600,0.474982666015625,-0.13597898185253143,0.38272881507873535,0.2205071747303009
1772623489690012700,0.4850126953125,-0.030822550877928734,0.3767050504684448,0.17178718745708466
1772623489700041500,0.49504150390625,-0.10556922852993011,0.34255507588386536,0.11290763318538666
1772623489710071600,0.505071533203125,0.021786097437143326,0.29128745198249817,0.05151668190956116
1772623489720100600,0.5151005859375,-0.031646765768527985,0.26703593134880066,-0.003534049727022648
1772623489730130700,0.525130615234375,0.10900014638900757,0.2199723869562149,-0.05211424082517624
1772623489740160800,0.535160888671875,0.05800434201955795,0.12769998610019684,-0.09797467291355133
1772623489750189600,0.545189453125,0.20665451884269714,-0.0288246963173151,-0.1292538344860077
1772623489760219600,0.5552197265625,0.16845306754112244,-0.2807333767414093,-0.15223824977874756
1772623489770249700,0.565249755859375,0.304380863904953,-0.5951921343803406,-0.1646251082420349
1772623489780278800,0.57527880859375,0.21510690450668335,-0.8640691041946411,-0.15801593661308289
1772623489790308600,0.58530859375,0.2611714005470276,-1.0196342468261719,-0.13134588301181793
1772623489800338400,0.59533837890625,0.09617899358272552,-0.9495720267295837,-0.05961576849222183
1772623489810367500,0.605367431640625,0.0889701098203659,-0.6825133562088013,0.04128045588731766
1772623489820397600,0.6153974609375,-0.10616369545459747,-0.26806074380874634,0.15766724944114685
1772623489830426600,0.625426513671875,-0.07822584360837936,0.20006436109542847,0.2566692531108856
1772623489840456700,0.635456787109375,-0.1593068391084671,0.5706525444984436,0.3074413537979126
1772623489850486500,0.645486572265625,-0.014460556209087372,0.805050253868103,0.2916696071624756
1772623489860515600,0.655515625,0.02599978633224964,0.9037895798683167,0.2344832867383957
1772623489870545700,0.665545654296875,0.27723369002342224,0.8815270662307739,0.1336667388677597
1772623489880575700,0.67557568359375,0.3765440285205841,0.7582160830497742,0.019620060920715332
1772623489890604800,0.685604736328125,0.6051137447357178,0.5530115365982056,-0.10108157992362976
1772623489900634600,0.695634521484375,0.599280059337616,0.29509636759757996,-0.20640960335731506
1772623489910664400,0.70566455078125,0.6661691665649414,-0.011307654902338982,-0.30937618017196655
1772623489920693800,0.71569384765625,0.5063115954399109,-0.40261441469192505,-0.39446738362312317
1772623489930723600,0.7257236328125,0.4402064383029938,-0.8080405592918396,-0.45560988783836365
1772623489940752400,0.73575244140625,0.2029632329940796,-1.1239128112792969,-0.46063873171806335
1772623489950782500,0.745782470703125,0.11548043042421341,-1.2704423666000366,-0.4128477871417999
1772623489960812500,0.7558125,-0.097639299929142,-1.242026686668396,-0.32682234048843384
1772623489970841600,0.765841552734375,-0.17585712671279907,-1.063698172569275,-0.21576400101184845
1772623489980871700,0.77587158203125,-0.3662846088409424,-0.7696638703346252,-0.11275719106197357
1772623489990901800,0.78590185546875,-0.37787261605262756,-0.4092821478843689,-0.04096175730228424
1772623490000930600,0.7959306640625,-0.44300955533981323,-0.07564158737659454,-0.01923862099647522
1772623490010960600,0.805960693359375,-0.3235057592391968,0.19813655316829681,-0.051463425159454346
1772623490020990700,0.81599072265625,-0.24964430928230286,0.36261656880378723,-0.12647615373134613
1772623490031019800,0.826019775390625,-0.1282447725534439,0.4506652057170868,-0.21433281898498535
1772623490041049600,0.836049560546875,-0.003070881124585867,0.4867086708545685,-0.3072209656238556
1772623490051079400,0.846079345703125,0.1211947500705719,0.46514692902565,-0.36345311999320984
1772623490061108500,0.8561083984375,0.248225137591362,0.4378567039966583,-0.3921806514263153
1772623490071138600,0.866138671875,0.3589373826980591,0.38189464807510376,-0.38227564096450806
1772623490081167600,0.876167724609375,0.45160579681396484,0.3018498718738556,-0.34594428539276123
1772623490091197700,0.88619775390625,0.5149486064910889,0.2181265503168106,-0.2868615686893463
1772623490101227500,0.8962275390625,0.5302180647850037,0.13705699145793915,-0.20613795518875122
1772623490111256600,0.906256591796875,0.5030855536460876,0.06587283313274384,-0.11959239840507507
1772623490121286700,0.91628662109375,0.4300294518470764,-0.033168528228998184,-0.052828289568424225
1772623490131316700,0.926316650390625,0.3228421211242676,-0.1569911390542984,-0.007239175960421562
1772623490141345800,0.936345703125,0.19005264341831207,-0.26606887578964233,0.002565251663327217
1772623490151375600,0.946375732421875,0.04339742660522461,-0.3652253746986389,-0.026396002620458603
1772623490161404700,0.95640478515625,-0.08866473287343979,-0.43721461296081543,-0.07555262744426727
1772623490171434800,0.966434814453125,-0.1727793663740158,-0.44841524958610535,-0.13487067818641663
1772623490181464600,0.976464599609375,-0.20845641195774078,-0.4027004837989807,-0.18092845380306244
1772623490191493600,0.98649365234375,-0.21928922832012177,-0.32935094833374023,-0.19826655089855194
1772623490201523500,0.9965234375,-0.22023704648017883,-0.2534458041191101,-0.1849731206893921
1772623490211553500,1.006553466796875,-0.20874162018299103,-0.19034940004348755,-0.1375485062599182
1772623490221582600,1.01658251953125,-0.18125353753566742,-0.1613137573003769,-0.0647861585021019
1772623490231612700,1.02661279296875,-0.1368011236190796,-0.1484796553850174,0.027418896555900574
1772623490241642800,1.036642822265625,-0.0751257836818695,-0.12444169074296951,0.14584407210350037
1772623490251671600,1.046671630859375,-0.00682637095451355,-0.0828419104218483,0.272683709859848
1772623490261701600,1.05670166015625,0.03419642895460129,-0.06914500892162323,0.3821263015270233
1772623490271731700,1.066731689453125,0.04262830689549446,-0.09312593191862106,0.4524238407611847
1772623490281760800,1.0767607421875,0.03195622190833092,-0.14092807471752167,0.4797428250312805
1772623490291790800,1.086790771484375,0.007567056454718113,-0.2014729380607605,0.4572904407978058
1772623490301819600,1.096819580078125,-0.0216014813631773,-0.2655065059661865,0.3950265347957611
1772623490311849500,1.106849365234375,-0.07332495599985123,-0.3130270540714264,0.3002379238605499
1772623490321879600,1.116879638671875,-0.14344412088394165,-0.345073938369751,0.1910128891468048
1772623490331908600,1.12690869140625,-0.2199692726135254,-0.3426486849784851,0.0834878459572792
1772623490341938700,1.136938720703125,-0.2989293336868286,-0.291557252407074,-0.012450668029487133
1772623490351968500,1.146968505859375,-0.3686247766017914,-0.19362269341945648,-0.08843480050563812
1772623490361997600,1.15699755859375,-0.4075300991535187,-0.06254109740257263,-0.14012277126312256
1772623490372027600,1.167027587890625,-0.4228209853172302,0.06136895716190338,-0.15962353348731995
1772623490382057700,1.1770576171875,-0.4002288579940796,0.1589764803647995,-0.14739403128623962
1772623490392086500,1.18708642578125,-0.3336435556411743,0.20484495162963867,-0.09282425791025162
1772623490402116600,1.19711669921875,-0.2241884171962738,0.1975257843732834,-0.007783930283039808
1772623490412145700,1.207145751953125,-0.09433960914611816,0.1540379673242569,0.0960007905960083
1772623490422175700,1.21717578125,0.024032309651374817,0.070583276450634,0.19712500274181366
1772623490432205600,1.22720556640625,0.10921745002269745,-0.04851318895816803,0.2766176760196686
1772623490442234600,1.237234619140625,0.1592201590538025,-0.16469572484493256,0.3263295590877533
1772623490452264700,1.2472646484375,0.16423575580120087,-0.2165091633796692,0.3429289758205414
1772623490462294800,1.257294677734375,0.14184071123600006,-0.17399737238883972,0.3329884707927704
1772623490472323600,1.267323486328125,0.09523290395736694,-0.08994930237531662,0.284402996301651
1772623490482353700,1.277353759765625,0.04383896291255951,-0.036428820341825485,0.19488456845283508
1772623490492383700,1.2873837890625,0.002759660594165325,-0.029685474932193756,0.07535581290721893
1772623490502412800,1.297412841796875,-0.029813993722200394,-0.08885505050420761,-0.07885931432247162
1772623490512443000,1.30744287109375,-0.06583413481712341,-0.22397813200950623,-0.24193859100341797
1772623490522472700,1.31747265625,-0.11734367161989212,-0.36096370220184326,-0.38934776186943054
1772623490532501800,1.327501708984375,-0.20606860518455505,-0.4597935974597931,-0.4979541599750519
1772623490542531800,1.33753173828125,-0.33409926295280457,-0.4564872980117798,-0.5439488887786865
1772623490552561000,1.347560791015625,-0.49443551898002625,-0.33425700664520264,-0.5272310376167297
1772623490562590700,1.3575908203125,-0.6563029885292053,-0.14665274322032928,-0.46748512983322144
1772623490572620500,1.36762060546875,-0.7950117588043213,0.06443528085947037,-0.37484386563301086
1772623490582649600,1.377649658203125,-0.8749686479568481,0.2560100257396698,-0.27393001317977905
1772623490592679700,1.3876796875,-0.8732940554618835,0.4275890290737152,-0.17937390506267548
1772623490602709800,1.397709716796875,-0.7937771081924438,0.5649538040161133,-0.10588982701301575
1772623490612738600,1.407738525390625,-0.6378940939903259,0.6390596032142639,-0.06126028299331665
1772623490622768600,1.4177685546875,-0.4220925569534302,0.635767936706543,-0.03805190324783325
1772623490632798700,1.427798828125,-0.17786917090415955,0.5479101538658142,-0.014937902800738811
1772623490642827800,1.437827880859375,0.045852869749069214,0.3714989125728607,0.031054623425006866
1772623490652857900,1.44785791015625,0.2222318798303604,0.14131754636764526,0.11038104444742203
1772623490662888000,1.457887939453125,0.35358884930610657,-0.06268219649791718,0.21966864168643951
1772623490672916700,1.467916748046875,0.4213120937347412,-0.23414364457130432,0.3402425944805145
1772623490682946600,1.477946533203125,0.42545998096466064,-0.3887915313243866,0.44889211654663086
1772623490692975900,1.487975830078125,0.37476736307144165,-0.4889717400074005,0.5210138559341431
1772623490703005700,1.498005615234375,0.27444207668304443,-0.5398650169372559,0.5407078862190247
1772623490713035800,1.508035888671875,0.12691107392311096,-0.5335448384284973,0.5113959908485413
1772623490723064600,1.518064697265625,-0.0399777851998806,-0.470797061920166,0.4467464089393616
1772623490733094700,1.5280947265625,-0.1922072470188141,-0.35515347123146057,0.3551005721092224
1772623490743124700,1.538124755859375,-0.30848565697669983,-0.21765632927417755,0.2513715326786041
1772623490753153800,1.54815380859375,-0.37710195779800415,-0.07953983545303345,0.15554410219192505
1772623490763183600,1.55818359375,-0.39482876658439636,0.03859053552150726,0.08235695958137512
1772623490773213700,1.568213623046875,-0.3656363785266876,0.13365359604358673,0.035947687923908234
1772623490783242800,1.57824267578125,-0.300982803106308,0.19584614038467407,0.02676590345799923
1772623490793272800,1.58827294921875,-0.22341077029705048,0.2207331657409668,0.05390038341283798
1772623490803302700,1.598302734375,-0.14760202169418335,0.2158915400505066,0.11214850842952728
1772623490813331700,1.608331787109375,-0.07745249569416046,0.19204744696617126,0.1798039972782135
1772623490823361500,1.618361572265625,-0.01466333121061325,0.14417868852615356,0.24849899113178253
1772623490833390600,1.628390625,0.04544408991932869,0.09690091758966446,0.31372639536857605
1772623490843420700,1.638420654296875,0.09418952465057373,0.05154702439904213,0.3709726631641388
1772623490853450800,1.64845068359375,0.12700073421001434,-0.0019492264837026596,0.40999168157577515
1772623490863479600,1.6584794921875,0.14312909543514252,-0.05190293863415718,0.43045276403427124
1772623490873509600,1.668509521484375,0.14427459239959717,-0.11842693388462067,0.4243762493133545
1772623490883539700,1.678539794921875,0.12461327016353607,-0.20177216827869415,0.3926423192024231
1772623490893568800,1.68856884765625,0.07428090274333954,-0.2585511803627014,0.3284054100513458
1772623490903598800,1.698598876953125,0.013848453760147095,-0.3006477653980255,0.2322932481765747
1772623490913629000,1.70862890625,-0.046321190893650055,-0.317804217338562,0.11432626843452454
1772623490923657700,1.71865771484375,-0.10880986601114273,-0.29398196935653687,-0.005228888243436813
1772623490933687800,1.728687744140625,-0.16468201577663422,-0.23466141521930695,-0.11071405559778214
1772623490943717600,1.738717529296875,-0.2147185504436493,-0.14802877604961395,-0.1953815370798111
1772623490953746700,1.74874658203125,-0.25764021277427673,-0.04505952075123787,-0.2527081072330475
1772623490963776800,1.75877685546875,-0.28753048181533813,0.06996746361255646,-0.2887049913406372
1772623490973806600,1.768806640625,-0.30517053604125977,0.18139736354351044,-0.3044551610946655
1772623490983835600,1.778835693359375,-0.30442458391189575,0.26664915680885315,-0.3113948404788971
1772623490993865700,1.78886572265625,-0.2822883129119873,0.3012014627456665,-0.3099213242530823
1772623491003894800,1.798894775390625,-0.2308163046836853,0.2795206904411316,-0.2967333495616913
1772623491013924600,1.808924560546875,-0.17124459147453308,0.22360143065452576,-0.2801673412322998
1772623491023954700,1.81895458984375,-0.10295822471380234,0.15235042572021484,-0.26134437322616577
1772623491033983700,1.828983642578125,-0.046239398419857025,0.03730405494570732,-0.25296300649642944
1772623491044013800,1.839013916015625,0.009737582877278328,-0.08995296061038971,-0.23975293338298798
1772623491054043600,1.849043701171875,0.05951665714383125,-0.19189706444740295,-0.2063174694776535
1772623491064072700,1.85907275390625,0.08321452885866165,-0.2535737454891205,-0.15547612309455872
1772623491074102500,1.8691025390625,0.08514659851789474,-0.2615792453289032,-0.07876867055892944
1772623491084132600,1.879132568359375,0.06508234143257141,-0.2194501757621765,0.006238100118935108
1772623491094161700,1.88916162109375,0.044885434210300446,-0.1482652723789215,0.1113884225487709
1772623491104191700,1.899191650390625,0.026180189102888107,-0.05099623650312424,0.21732337772846222
1772623491114221800,1.909221923828125,0.029661232605576515,0.043392106890678406,0.3120342195034027
1772623491124250600,1.919250732421875,0.06282611191272736,0.14033809304237366,0.3905809819698334
1772623491134280700,1.92928076171875,0.11169172823429108,0.22719885408878326,0.4404936134815216
1772623491144310800,1.939310791015625,0.172517791390419,0.3027961552143097,0.4705559015274048
1772623491154339800,1.94933984375,0.2418554425239563,0.34627804160118103,0.48131710290908813
1772623491164370000,1.959369873046875,0.31909748911857605,0.34633052349090576,0.47010278701782227
1772623491174399500,1.9693994140625,0.4070609509944916,0.28352534770965576,0.4427352249622345
1772623491184428800,1.9794287109375,0.4836784899234772,0.16518539190292358,0.3987826704978943
1772623491194458600,1.989458740234375,0.5276135802268982,-0.010208802297711372,0.3487739562988281
1772623491204487700,1.99948779296875,0.5127260088920593,-0.2737792134284973,0.2786555886268616
1772623491214517500,2.009517578125,0.42118480801582336,-0.5681250095367432,0.1766146868467331
1772623491224547600,2.019547607421875,0.27288880944252014,-0.7672817707061768,0.06866718828678131
1772623491234576600,2.02957666015625,0.1150050014257431,-0.796938419342041,-0.0142056904733181
1772623491244606700,2.039606689453125,-0.039684709161520004,-0.6248846054077148,-0.048405472189188004
1772623491254636800,2.04963671875,-0.21509581804275513,-0.3141663372516632,-0.028853904455900192
1772623491264665600,2.05966552734375,-0.3887570798397064,0.10395899415016174,0.0339338444173336
1772623491274695700,2.06969580078125,-0.4960898458957672,0.5366520285606384,0.09846367686986923
1772623491284725800,2.079725830078125,-0.497633695602417,0.8610183596611023,0.13001760840415955
1772623491294754800,2.0897548828125,-0.41129517555236816,1.0726269483566284,0.12315375357866287
1772623491304785000,2.099784912109375,-0.26561546325683594,1.156761884689331,0.08992869406938553
1772623491314814700,2.109814697265625,-0.09172384440898895,1.091234564781189,0.0382678359746933
1772623491324843500,2.119843505859375,0.08406475931406021,0.9134300351142883,-0.012751935981214046
1772623491334873600,2.12987353515625,0.25169485807418823,0.6705459356307983,-0.03686293587088585
1772623491344903700,2.139903564453125,0.37241700291633606,0.38815972208976746,-0.021673331037163734
1772623491354932700,2.1499326171875,0.4201068580150604,0.08951213955879211,0.02141917683184147
1772623491364962800,2.159962890625,0.39722469449043274,-0.22721706330776215,0.06879521161317825
1772623491374992600,2.16999267578125,0.3184807598590851,-0.5571396946907043,0.10792507231235504
1772623491385021700,2.180021728515625,0.1997746229171753,-0.8534384965896606,0.1226092129945755
1772623491395051800,2.1900517578125,0.08198519796133041,-1.0353460311889648,0.11664152145385742
1772623491405080800,2.200080810546875,-0.018614646047353745,-1.0853646993637085,0.08211470395326614
1772623491415111000,2.21011083984375,-0.10732226073741913,-1.0191446542739868,0.02859034761786461
1772623491425140700,2.220140625,-0.20803235471248627,-0.873514711856842,-0.03494095802307129
1772623491435169800,2.230169677734375,-0.30514100193977356,-0.6399883031845093,-0.07798836380243301
1772623491445199600,2.24019970703125,-0.36230310797691345,-0.32379311323165894,-0.1020931676030159
1772623491455230000,2.25022998046875,-0.36386722326278687,0.01881469413638115,-0.10195860266685486
1772623491465259000,2.260259033203125,-0.31374362111091614,0.32824552059173584,-0.10101024806499481
1772623491475289000,2.2702890625,-0.21478520333766937,0.5612567067146301,-0.08095800876617432
1772623491485319200,2.280319091796875,-0.09392456710338593,0.6936752200126648,-0.04763574153184891
1772623491495348000,2.290347900390625,0.0316697359085083,0.7302199006080627,-0.0028926762752234936
1772623491505378000,2.3003779296875,0.1461089700460434,0.6843647956848145,0.05599673464894295
1772623491515408100,2.310408203125,0.24505452811717987,0.5817651152610779,0.12857764959335327
1772623491525437200,2.320437255859375,0.34123244881629944,0.47632014751434326,0.21056759357452393
1772623491535467300,2.33046728515625,0.406870037317276,0.37758052349090576,0.2983699142932892
1772623491545497000,2.3404970703125,0.45274779200553894,0.30788666009902954,0.37601783871650696
1772623491555526100,2.350526123046875,0.4843285083770752,0.2442518174648285,0.4266342520713806
1772623491565556000,2.360555908203125,0.5099177360534668,0.17660406231880188,0.4458140730857849
1772623491575586000,2.3705859375,0.5226638317108154,0.09652270376682281,0.42906850576400757
1772623491585615000,2.380614990234375,0.5181066393852234,0.02254967764019966,0.3788154721260071
1772623491595645200,2.390645263671875,0.4864650070667267,-0.02856239676475525,0.30949753522872925
1772623491605675000,2.400675048828125,0.4315144121646881,-0.04204678162932396,0.24216830730438232
1772623491615704000,2.4107041015625,0.34496253728866577,-0.02442885749042034,0.18032433092594147
1772623491625734100,2.420734130859375,0.2573101818561554,0.01775188371539116,0.13331501185894012
1772623491635764200,2.43076416015625,0.18157273530960083,0.07292262464761734,0.09959592670202255
1772623491645793300,2.440793212890625,0.1271933764219284,0.11313555389642715,0.07368576526641846
1772623491655823000,2.450822998046875,0.09161403775215149,0.14121395349502563,0.06067795306444168
1772623491665852200,2.46085205078125,0.06255415827035904,0.151834636926651,0.049214646220207214
1772623491675882000,2.470882080078125,0.041944876313209534,0.14651738107204437,0.03435426205396652
1772623491685912000,2.480912109375,0.036411892622709274,0.1260954588651657,0.0186418816447258
1772623491695940900,2.49094091796875,0.0447891503572464,0.0962054654955864,0.016356240957975388
1772623491705971000,2.500970947265625,0.06223525106906891,0.06644943356513977,0.017615383490920067
1772623491716001000,2.5110009765625,0.077778659760952,0.03223200887441635,0.033982135355472565
1772623491726030000,2.521030029296875,0.09366175532341003,-0.010510923340916634,0.04935682937502861
1772623491736060200,2.53106005859375,0.10003232210874557,-0.09912941604852676,0.06217522174119949
1772623491746090200,2.54109033203125,0.10061076283454895,-0.20084832608699799,0.0747128501534462
1772623491756119000,2.551119140625,0.08501337468624115,-0.28581783175468445,0.10423016548156738
1772623491766149000,2.561149169921875,0.05155660957098007,-0.36155813932418823,0.12340838462114334
1772623491776179200,2.57117919921875,0.011672992259263992,-0.4136260747909546,0.1398220956325531
1772623491786208300,2.581208251953125,-0.02335689775645733,-0.4195300340652466,0.15292005240917206
1772623491796238000,2.591238037109375,-0.057955652475357056,-0.36128708720207214,0.1587124615907669
1772623491806268000,2.601267822265625,-0.10664542764425278,-0.24929238855838776,0.16818585991859436
1772623491816297000,2.611296875,-0.1607096791267395,-0.08795052766799927,0.18140405416488647
1772623491826327000,2.6213271484375,-0.19044066965579987,0.08621568232774734,0.1970469355583191
1772623491836357000,2.631357177734375,-0.2012278288602829,0.22525160014629364,0.21146272122859955
1772623491846386200,2.64138623046875,-0.17740371823310852,0.2983926832675934,0.21908310055732727
1772623491856416000,2.651416015625,-0.13796372711658478,0.2877604365348816,0.21685972809791565
1772623491866446000,2.661446044921875,-0.07921625673770905,0.24363717436790466,0.21002686023712158
1772623491876475100,2.67147509765625,-0.007524688728153706,0.21676331758499146,0.20165735483169556
1772623491886505200,2.681505126953125,0.07406897097826004,0.21011340618133545,0.19607403874397278
1772623491896534000,2.691533935546875,0.14883211255073547,0.21710196137428284,0.18363907933235168
1772623491906564000,2.701564208984375,0.21121905744075775,0.21373891830444336,0.1622685343027115
1772623491916594000,2.711593994140625,0.25660350918769836,0.14906278252601624,0.11127182841300964
1772623491926623200,2.721623291015625,0.28958195447921753,-0.00012777652591466904,0.03066859394311905
1772623491936653000,2.731653076171875,0.31815305352211,-0.23374813795089722,-0.08790819346904755
1772623491946683100,2.74168310546875,0.3165130913257599,-0.5116711258888245,-0.21597561240196228
1772623491956712000,2.7517119140625,0.26346898078918457,-0.7374495267868042,-0.31784701347351074
1772623491966742000,2.761741943359375,0.1380825787782669,-0.8820120096206665,-0.3592272102832794
1772623491976772000,2.771772216796875,-0.04354005306959152,-0.8427057862281799,-0.31372570991516113
1772623491986801200,2.78180126953125,-0.2585066854953766,-0.6379369497299194,-0.2200639545917511
1772623491996831200,2.791831298828125,-0.48263972997665405,-0.31550559401512146,-0.11793066561222076
1772623492006861000,2.801861083984375,-0.6442111134529114,0.06827215850353241,-0.030121181160211563
1772623492016890000,2.81189013671875,-0.6909594535827637,0.3907446563243866,0.009606660343706608
1772623492026920200,2.821920166015625,-0.6172794103622437,0.6021372675895691,0.001710919663310051
1772623492036950000,2.831949951171875,-0.4495667517185211,0.6718851327896118,-0.04995116591453552
1772623492046979000,2.84197900390625,-0.23290447890758514,0.5855941772460938,-0.11857656389474869
1772623492057009000,2.8520087890625,0.0019282931461930275,0.3760761618614197,-0.17239151895046234
1772623492067039000,2.8620390625,0.20370854437351227,0.10944607108831406,-0.1921015828847885
1772623492077068000,2.872068115234375,0.34852150082588196,-0.1724490374326706,-0.16042567789554596
1772623492087098000,2.88209814453125,0.4146736264228821,-0.44303208589553833,-0.0985221117734909
1772623492097128200,2.892128173828125,0.40880370140075684,-0.6476712822914124,-0.021627388894557953
1772623492107157000,2.902156982421875,0.34438106417655945,-0.7226605415344238,0.05263672024011612
1772623492117187000,2.91218701171875,0.24350714683532715,-0.6699937582015991,0.10382243245840073
1772623492127217200,2.922217041015625,0.10779085755348206,-0.49766963720321655,0.11763704568147659
1772623492137246200,2.93224609375,-0.03995075449347496,-0.2697492241859436,0.08637669682502747
1772623492147276300,2.9422763671875,-0.18446452915668488,-0.04223085194826126,0.0035675708204507828
1772623492157305000,2.95230517578125,-0.29805848002433777,0.1388767659664154,-0.11509206146001816
1772623492167335000,2.9623349609375,-0.3622518479824066,0.2533588707447052,-0.2580883800983429
1772623492177365000,2.972364990234375,-0.3793051838874817,0.31106865406036377,-0.393289715051651
1772623492187394000,2.98239404296875,-0.3615490794181824,0.3087144196033478,-0.5122238397598267
1772623492197424000,2.992424072265625,-0.30878061056137085,0.2752187252044678,-0.5858643054962158
1772623492207454000,3.002453857421875,-0.2283875197172165,0.23393788933753967,-0.6033686995506287
1772623492217483000,3.01248291015625,-0.1382884681224823,0.1917707771062851,-0.5587669014930725
1772623492227513000,3.02251318359375,-0.0476515106856823,0.1622815877199173,-0.46867406368255615
1772623492237543200,3.032543212890625,0.028280574828386307,0.1268867552280426,-0.3532804548740387
1772623492247572200,3.042572265625,0.08467087894678116,0.11235388368368149,-0.2346709817647934
1772623492257602000,3.05260205078125,0.1158037781715393,0.09942816942930222,-0.14197462797164917
1772623492267632000,3.062632080078125,0.12508143484592438,0.07627172023057938,-0.08556994795799255
1772623492277661200,3.0726611328125,0.12818360328674316,0.05056549981236458,-0.06923850625753403
1772623492287691000,3.08269091796875,0.10756700485944748,0.021158341318368912,-0.08636129647493362
1772623492297721000,3.09272119140625,0.05941277742385864,-0.005249234847724438,-0.13635306060314178
1772623492307750000,3.10275,-0.006610709708184004,-0.0012305248528718948,-0.19756342470645905
1772623492317780000,3.112780029296875,-0.07777150720357895,0.017651062458753586,-0.2656550705432892
1772623492327810000,3.12281005859375,-0.14891332387924194,0.050141364336013794,-0.333358496427536
1772623492337839000,3.132839111328125,-0.21064622700214386,0.09717912971973419,-0.38732314109802246
1772623492347869200,3.142869140625,-0.26817798614501953,0.14528672397136688,-0.4202965497970581
1772623492357899300,3.152899169921875,-0.3233790099620819,0.18787692487239838,-0.4363842308521271
1772623492367928000,3.162927978515625,-0.36264944076538086,0.2288999855518341,-0.44153743982315063
1772623492377958100,3.172958251953125,-0.3732825517654419,0.26641982793807983,-0.4234943687915802
1772623492387988000,3.182988037109375,-0.35581621527671814,0.31189650297164917,-0.38702157139778137
1772623492398017300,3.193017333984375,-0.31253015995025635,0.33504676818847656,-0.33734720945358276
1772623492408047000,3.203047119140625,-0.24130629003047943,0.319505900144577,-0.2718992233276367
1772623492418077000,3.213076904296875,-0.1556178778409958,0.2668280303478241,-0.21177920699119568
1772623492428106000,3.22310595703125,-0.0645071417093277,0.18136931955814362,-0.1700325608253479
1772623492438136000,3.233135986328125,0.01156877726316452,0.06578569114208221,-0.13830342888832092
1772623492448165000,3.2431650390625,0.07384200394153595,-0.07384544610977173,-0.11358582973480225
1772623492458194200,3.253194091796875,0.10832542926073074,-0.23272432386875153,-0.09707248210906982
1772623492468224300,3.263224365234375,0.11224427074193954,-0.38931286334991455,-0.08112600445747375
1772623492478253300,3.27325341796875,0.08244337141513824,-0.49611181020736694,-0.07001233845949173
1772623492488283400,3.283283447265625,0.024720951914787292,-0.5288218259811401,-0.06745490431785583
1772623492498313500,3.2933134765625,-0.041998449712991714,-0.4767181873321533,-0.06306847929954529
1772623492508342300,3.30334228515625,-0.11538265645503998,-0.32486873865127563,-0.05313888564705849
1772623492518372400,3.313372314453125,-0.19643555581569672,-0.10759548097848892,-0.04544344171881676
1772623492528402400,3.32340234375,-0.2550821006298065,0.11003697663545609,-0.046814169734716415
1772623492538431500,3.333431396484375,-0.2723551392555237,0.27047428488731384,-0.061306923627853394
1772623492548461300,3.34346142578125,-0.2402334362268448,0.3476375341415405,-0.0853845626115799
1772623492558491100,3.3534912109375,-0.18031948804855347,0.3947158455848694,-0.10461267083883286
1772623492568520200,3.363520263671875,-0.11371010541915894,0.40810301899909973,-0.11667465418577194
1772623492578550300,3.37355029296875,-0.046433087438344955,0.37704402208328247,-0.1256958693265915
1772623492588580400,3.383580322265625,0.006686322391033173,0.29865068197250366,-0.14212916791439056
1772623492598609400,3.393609375,0.0626775473356247,0.14398573338985443,-0.18062002956867218
1772623492608639200,3.40363916015625,0.11859753727912903,-0.08653455972671509,-0.23562896251678467
1772623492618669300,3.41366943359375,0.17018747329711914,-0.3616793751716614,-0.28651750087738037
1772623492628698400,3.423698486328125,0.1930088996887207,-0.5919490456581116,-0.30770400166511536
1772623492638728400,3.433728515625,0.15595044195652008,-0.6770283579826355,-0.2611900269985199
1772623492648758500,3.443758544921875,0.06310385465621948,-0.585388720035553,-0.15031757950782776
1772623492658787300,3.453787353515625,-0.04318149387836456,-0.33139118552207947,0.01162491925060749
1772623492668817400,3.4638173828125,-0.13592687249183655,0.04660937190055847,0.19540327787399292
1772623492678847200,3.47384716796875,-0.18133090436458588,0.4464685022830963,0.36190488934516907
1772623492688876300,3.483876220703125,-0.14210067689418793,0.7489184141159058,0.4721008837223053
1772623492698906400,3.49390625,-0.032815784215927124,0.9007065892219543,0.5301674604415894
1772623492708936200,3.503936279296875,0.11340401321649551,0.9069404602050781,0.5347403883934021
1772623492718965200,3.51396533203125,0.27354204654693604,0.7642976641654968,0.4908107817173004
1772623492728995300,3.523995361328125,0.4372055232524872,0.5265316963195801,0.40898117423057556
1772623492739025400,3.534025390625,0.5800297856330872,0.23932693898677826,0.3201248347759247
1772623492749054500,3.544054443359375,0.6638594269752502,-0.0598408505320549,0.22607634961605072
1772623492759084300,3.554084228515625,0.672613799571991,-0.353842556476593,0.1415424346923828
1772623492769114400,3.5641142578125,0.6099863648414612,-0.593397319316864,0.06412114202976227
1772623492779143400,3.574143310546875,0.4994204342365265,-0.7374927401542664,-0.004308701958507299
1772623492789173200,3.58417333984375,0.3592340648174286,-0.7710914611816406,-0.06272221356630325
1772623492799203300,3.594203369140625,0.21142467856407166,-0.6702536940574646,-0.10418598353862762
1772623492809232100,3.604232177734375,0.058985333889722824,-0.48320066928863525,-0.1351148635149002
1772623492819262200,3.61426220703125,-0.07567963004112244,-0.2599225342273712,-0.16456809639930725
1772623492829292300,3.624292236328125,-0.1712479591369629,-0.0224604532122612,-0.2155093103647232
1772623492839321300,3.6343212890625,-0.19790711998939514,0.18204833567142487,-0.28342947363853455
1772623492849351400,3.644351318359375,-0.14259779453277588,0.326907753944397,-0.35663869976997375
1772623492859380200,3.654380126953125,-0.04069574922323227,0.39061617851257324,-0.4150487780570984
1772623492869410300,3.664410400390625,0.06797507405281067,0.3783392608165741,-0.427631139755249
1772623492879440400,3.6744404296875,0.1697656363248825,0.3052076995372772,-0.41360852122306824
1772623492889470500,3.684470458984375,0.26888900995254517,0.19971829652786255,-0.37509068846702576
1772623492899499500,3.69449951171875,0.3765079379081726,0.09709960967302322,-0.3074762225151062
1772623492909529300,3.704529296875,0.46737581491470337,0.020834404975175858,-0.23445020616054535
1772623492919558400,3.714558349609375,0.5294708013534546,-0.05963844060897827,-0.15785276889801025
1772623492929588200,3.724588134765625,0.5526493787765503,-0.11874410510063171,-0.09265325218439102
1772623492939618300,3.734618408203125,0.5286071300506592,-0.1420184224843979,-0.04599791020154953
1772623492949647400,3.7446474609375,0.4837312400341034,-0.1543525904417038,-0.029245829209685326
1772623492959677200,3.75467724609375,0.4220455288887024,-0.16030369699001312,-0.0511961355805397
1772623492969707300,3.764707275390625,0.3563975393772125,-0.17729252576828003,-0.10343776643276215
1772623492979736300,3.774736328125,0.30335932970046997,-0.19272640347480774,-0.1715785413980484
1772623492989766400,3.784766357421875,0.26262545585632324,-0.19783568382263184,-0.24347776174545288
1772623492999796500,3.79479638671875,0.2370629608631134,-0.18866035342216492,-0.30648308992385864
1772623493009825300,3.8048251953125,0.21873268485069275,-0.1797371655702591,-0.3482923209667206
1772623493019855400,3.81485546875,0.19427065551280975,-0.17265436053276062,-0.3603948652744293
1772623493029885200,3.82488525390625,0.15620103478431702,-0.16591443121433258,-0.34461429715156555
1772623493039914500,3.83491455078125,0.11044307053089142,-0.14514267444610596,-0.30795910954475403
1772623493049944300,3.8449443359375,0.06996248662471771,-0.1079508438706398,-0.25100448727607727
1772623493059974400,3.854974365234375,0.046254392713308334,-0.06821642816066742,-0.1809697300195694
1772623493070003200,3.865003173828125,0.03983963653445244,-0.031246691942214966,-0.11393184214830399
1772623493080033300,3.875033203125,0.04882951080799103,0.004768303595483303,-0.058189041912555695
1772623493090063400,3.8850634765625,0.07201818376779556,0.026368670165538788,-0.020657643675804138
1772623493100092400,3.895092529296875,0.10182226449251175,0.027745148167014122,-0.006432676687836647
1772623493110122500,3.90512255859375,0.12607674300670624,-0.006225869059562683,-0.028216002508997917
1772623493120152300,3.91515234375,0.1460045576095581,-0.04966703802347183,-0.06825407594442368
1772623493130181400,3.925181396484375,0.15646599233150482,-0.11325719952583313,-0.1100851446390152
1772623493140211500,3.93521142578125,0.13981615006923676,-0.2044648826122284,-0.14106477797031403
1772623493150241300,3.9452412109375,0.09334585070610046,-0.3226490318775177,-0.1589614897966385
1772623493160270300,3.955270263671875,0.009190035052597523,-0.4199637770652771,-0.1687254160642624
1772623493170300200,3.965300048828125,-0.10102595388889313,-0.46338555216789246,-0.18074746429920197
1772623493180330200,3.975330322265625,-0.22299295663833618,-0.4333147704601288,-0.18706312775611877
1772623493190359300,3.985359375,-0.3512875437736511,-0.30275970697402954,-0.17706270515918732
1772623493200389400,3.995389404296875,-0.4686118960380554,-0.10284776240587234,-0.1522495001554489
1772623493210416400,4.00541650390625,-0.5381312966346741,0.11923723667860031,-0.11944601684808731
1772623493220446500,4.015446533203125,-0.5316759347915649,0.30297598242759705,-0.08652005344629288
1772623493230476300,4.025476318359375,-0.44388508796691895,0.4043140411376953,-0.06822413206100464
1772623493240505300,4.03550537109375,-0.3101864457130432,0.4581703543663025,-0.04874511808156967
1772623493250535200,4.04553515625,-0.17847129702568054,0.4604859948158264,-0.03389134258031845
1772623493260565200,4.055565185546875,-0.0850844532251358,0.4134133458137512,-0.016374927014112473
1772623493270594300,4.06559423828125,-0.033647626638412476,0.3487304747104645,0.006888318806886673
1772623493280624400,4.075624267578125,-0.0015830527991056442,0.2700236141681671,0.031507521867752075
1772623493290654500,4.085654541015625,0.02010413259267807,0.17990170419216156,0.0323067381978035
1772623493300683300,4.095683349609375,0.03650590404868126,0.03345261141657829,-0.000056439079344272614
1772623493310713300,4.10571337890625,0.038767993450164795,-0.19016769528388977,-0.06759367138147354
1772623493320743400,4.115743408203125,0.010556669905781746,-0.4214684069156647,-0.14895570278167725
1772623493330772500,4.1257724609375,-0.07209374010562897,-0.5519840717315674,-0.22795438766479492
1772623493340802300,4.13580224609375,-0.20816172659397125,-0.5558862090110779,-0.27206531167030334
1772623493350832000,4.14583203125,-0.3843567371368408,-0.4065034091472626,-0.25876280665397644
1772623493360861200,4.155861083984375,-0.5760573148727417,-0.1294642835855484,-0.189480721950531
1772623493370891300,4.165891357421875,-0.7371777892112732,0.1901342123746872,-0.09527938067913055
1772623493380921300,4.17592138671875,-0.8274182081222534,0.48058679699897766,-0.0026164380833506584
1772623493390950400,4.185950439453125,-0.8054444789886475,0.6911094188690186,0.06904976069927216
1772623493400980200,4.195980224609375,-0.6583263278007507,0.7488450407981873,0.11689551174640656
1772623493411010300,4.20601025390625,-0.4017089605331421,0.6525871753692627,0.14619801938533783
1772623493421039400,4.216039306640625,-0.09287696331739426,0.4266228973865509,0.16509154438972473
1772623493431069400,4.2260693359375,0.19452020525932312,0.12531714141368866,0.1926099956035614
1772623493441099500,4.236099609375,0.413846492767334,-0.13638781011104584,0.2516958713531494
1772623493451128300,4.24612841796875,0.5381953120231628,-0.31148770451545715,0.3338592052459717
1772623493461158400,4.256158447265625,0.5601693987846375,-0.4104240834712982,0.41132673621177673
1772623493471188500,4.2661884765625,0.4996200501918793,-0.4619261622428894,0.4566952884197235
1772623493481217500,4.276217529296875,0.3628293573856354,-0.42362815141677856,0.4766378402709961
1772623493491247600,4.28624755859375,0.15750762820243835,-0.3097021281719208,0.4710633158683777
1772623493501277700,4.296277587890625,-0.0880996584892273,-0.17249484360218048,0.44442445039749146
1772623493511306500,4.306306396484375,-0.33330783247947693,-0.06504534929990768,0.39949318766593933
1772623493521336600,4.316336669921875,-0.5256796479225159,-0.04167771339416504,0.3309294581413269
1772623493531366700,4.32636669921875,-0.6265972256660461,-0.09097948670387268,0.23708951473236084
1772623493541395700,4.336395751953125,-0.6347525119781494,-0.19341184198856354,0.11957157403230667
1772623493551425800,4.34642578125,-0.575687050819397,-0.3133712708950043,0.00988343358039856
1772623493561455600,4.35645556640625,-0.4811346232891083,-0.40238508582115173,-0.07210639864206314
1772623493571484700,4.366484619140625,-0.36906003952026367,-0.4495512843132019,-0.11628583818674088
1772623493581514500,4.376514404296875,-0.24916905164718628,-0.44085049629211426,-0.10660170763731003
1772623493591544600,4.386544677734375,-0.1215684711933136,-0.3680271506309509,-0.061504799872636795
1772623493601573400,4.396573486328125,0.018010733649134636,-0.23962493240833282,-0.0039281384088099
1772623493611603500,4.406603515625,0.16884446144104004,-0.07914230972528458,0.04008246213197708
1772623493621633500,4.416633544921875,0.31403762102127075,0.06435966491699219,0.05473342165350914
1772623493631662600,4.42666259765625,0.41653895378112793,0.132799431681633,0.04073318466544151
1772623493641692700,4.436692626953125,0.46748843789100647,0.15924303233623505,0.005662666633725166
1772623493651722800,4.44672265625,0.4891047775745392,0.18745948374271393,-0.06116536259651184
1772623493661751600,4.45675146484375,0.48566460609436035,0.21559953689575195,-0.15922635793685913
1772623493671781600,4.46678173828125,0.4488280415534973,0.22410300374031067,-0.2647567689418793
1772623493681811500,4.4768115234375,0.3714331090450287,0.19415676593780518,-0.3603183627128601
1772623493691840800,4.4868408203125,0.2687040865421295,0.12628290057182312,-0.43284663558006287
1772623493701870600,4.49687060546875,0.15152421593666077,0.04206400737166405,-0.492083877325058
1772623493711900400,4.506900390625,0.029064342379570007,-0.01928936317563057,-0.5066412091255188
1772623493721929500,4.516929443359375,-0.09042172133922577,-0.02298455685377121,-0.4879443645477295
1772623493731959600,4.52695947265625,-0.1967867761850357,0.031126350164413452,-0.43519753217697144
1772623493741989600,4.53698974609375,-0.26473382115364075,0.12440367788076401,-0.3549497127532959
1772623493752018700,4.547018798828125,-0.271775484085083,0.22544799745082855,-0.2623633146286011
1772623493762048500,4.557048583984375,-0.23082822561264038,0.31191781163215637,-0.16308192908763885
1772623493772078600,4.56707861328125,-0.15345194935798645,0.34794771671295166,-0.06862946599721909
1772623493782107600,4.577107666015625,-0.061998575925827026,0.35764914751052856,0.007340257987380028
1772623493792137700,4.5871376953125,0.02812039852142334,0.3392102122306824,0.07630840688943863
1772623493802167600,4.59716748046875,0.09969016909599304,0.2825445532798767,0.13298299908638
1772623493812196600,4.607196533203125,0.1537664532661438,0.20366914570331573,0.18262751400470734
1772623493822227500,4.6172275390625,0.18906302750110626,0.13242506980895996,0.22406727075576782
1772623493832257500,4.627257568359375,0.2099512666463852,0.08061406761407852,0.2521934509277344
1772623493842287600,4.63728759765625,0.20348694920539856,0.04891302064061165,0.264883428812027
1772623493852316700,4.647316650390625,0.17054924368858337,0.009842051193118095,0.2545018792152405
1772623493862346800,4.6573466796875,0.12120388448238373,-0.034405678510665894,0.209100142121315
1772623493872376600,4.66737646484375,0.05448264628648758,-0.08681349456310272,0.14185158908367157
1772623493882405600,4.677405517578125,-0.0289810411632061,-0.12483560293912888,0.052354056388139725
1772623493892435500,4.687435546875,-0.132460817694664,-0.12462254613637924,-0.03183245658874512
1772623493902465500,4.697465576171875,-0.2358461618423462,-0.06281212717294693,-0.11442666500806808
1772623493912494600,4.70749462890625,-0.3284871578216553,0.04415560141205788,-0.17895078659057617
1772623493922524700,4.717524658203125,-0.3943323493003845,0.19224871695041656,-0.23488906025886536
1772623493932554500,4.727554443359375,-0.4218750298023224,0.3492729365825653,-0.26771360635757446
1772623493942583600,4.73758349609375,-0.39812523126602173,0.4967895448207855,-0.29812994599342346
1772623493952613600,4.747613525390625,-0.3161241114139557,0.5877559781074524,-0.3165110945701599
1772623493962643700,4.757643798828125,-0.20343419909477234,0.6194931864738464,-0.3294621706008911
1772623493972672800,4.7676728515625,-0.09263363480567932,0.6014180779457092,-0.3357272446155548
1772623493982702600,4.77770263671875,-0.0038516507484018803,0.5550346374511719,-0.3344317078590393
1772623493992732400,4.787732421875,0.05869482085108757,0.5024380087852478,-0.33046919107437134
1772623494002761700,4.79776171875,0.10478492826223373,0.4160214066505432,-0.33369821310043335
1772623494012791600,4.80779150390625,0.14317172765731812,0.2507525682449341,-0.3461785614490509
1772623494022821600,4.817821533203125,0.15243834257125854,-0.033337004482746124,-0.3732350468635559
1772623494032850400,4.827850341796875,0.13182121515274048,-0.3812105357646942,-0.3967089354991913
1772623494042880500,4.837880615234375,0.09183260798454285,-0.662918746471405,-0.400297075510025
1772623494052910600,4.84791064453125,0.033992208540439606,-0.8147916793823242,-0.3732832968235016
1772623494062939600,4.857939697265625,-0.0635450929403305,-0.8355115056037903,-0.32163140177726746
1772623494072969700,4.8679697265625,-0.1856110841035843,-0.6639296412467957,-0.19491764903068542
1772623494082999600,4.87799951171875,-0.2926546037197113,-0.3401055634021759,-0.02477046474814415
1772623494093028600,4.888028564453125,-0.3555872142314911,0.04324234277009964,0.15800094604492188
1772623494103058700,4.89805859375,-0.35306140780448914,0.39620035886764526,0.311397910118103
1772623494113088500,4.908088623046875,-0.25495216250419617,0.6047016382217407,0.4199694097042084
1772623494123117600,4.91811767578125,-0.07121939957141876,0.6186908483505249,0.46715810894966125
1772623494133147400,4.9281474609375,0.15077504515647888,0.46804752945899963,0.4393714964389801
1772623494143177500,4.938177490234375,0.3696746528148651,0.19618326425552368,0.36286234855651855
1772623494153206500,4.94820654296875,0.5393252372741699,-0.123471699655056,0.27576714754104614
1772623494163236600,4.958236572265625,0.6093528270721436,-0.42146921157836914,0.2195075899362564
1772623494173266700,4.9682666015625,0.5706459283828735,-0.6594780087471008,0.21800237894058228
1772623494183295500,4.97829541015625,0.4349229037761688,-0.7970506548881531,0.27201271057128906
1772623494193325600,4.98832568359375,0.24916529655456543,-0.8079581260681152,0.36264753341674805
1772623494203355600,4.998355712890625,0.0476546511054039,-0.6844649314880371,0.45666229724884033
1772623494213384700,5.008384765625,-0.12503430247306824,-0.4520348608493805,0.5314803123474121
1772623494223414800,5.018414794921875,-0.24400800466537476,-0.19553586840629578,0.5481284260749817
1772623494233444600,5.028444580078125,-0.30950260162353516,0.05137484893202782,0.5034555196762085
1772623494243473400,5.038473388671875,-0.3141891062259674,0.28488707542419434,0.381536602973938
1772623494253503500,5.04850341796875,-0.24011729657649994,0.46324217319488525,0.22466418147087097
1772623494263533600,5.058533447265625,-0.09815111011266708,0.5730030536651611,0.04640389233827591
1772623494273562600,5.068562744140625,0.06877795606851578,0.6245402693748474,-0.12803475558757782
1772623494283592700,5.0785927734375,0.21712090075016022,0.6100658178329468,-0.2768087685108185
1772623494293622500,5.08862255859375,0.3112681806087494,0.5408158898353577,-0.36840182542800903
1772623494303651600,5.098651611328125,0.3604477345943451,0.4618144631385803,-0.40621107816696167
1772623494313681700,5.108681640625,0.3847386837005615,0.39163270592689514,-0.40479135513305664
1772623494323711700,5.118711669921875,0.4104716181755066,0.3096400797367096,-0.3694958984851837
1772623494333740500,5.128740478515625,0.43670162558555603,0.2512180507183075,-0.30440664291381836
1772623494343770600,5.1387705078125,0.4536387622356415,0.1749413013458252,-0.20511409640312195
1772623494353800400,5.148800537109375,0.45233964920043945,0.09297001361846924,-0.10082844644784927
1772623494363829500,5.15882958984375,0.435857355594635,-0.005512828007340431,0.012608818709850311
1772623494373859600,5.168859619140625,0.3991078734397888,-0.13240952789783478,0.10154348611831665
1772623494383889700,5.1788896484375,0.3411075472831726,-0.28385838866233826,0.16001836955547333
1772623494393919500,5.18891943359375,0.25693196058273315,-0.43576642870903015,0.18903431296348572
1772623494403948500,5.198948486328125,0.139408677816391,-0.5605847835540771,0.180344358086586
1772623494413978600,5.208978515625,0.011132736690342426,-0.6160717010498047,0.12122190743684769
1772623494424008700,5.2190087890625,-0.09797646850347519,-0.5739203691482544,0.02766401693224907
1772623494434037800,5.229037841796875,-0.17421293258666992,-0.4458785355091095,-0.08236181735992432
1772623494444067600,5.239067626953125,-0.2290424108505249,-0.256310373544693,-0.1704724282026291
1772623494454097400,5.249097412109375,-0.267436146736145,-0.019658690318465233,-0.23266257345676422
1772623494464127200,5.259127197265625,-0.2738075256347656,0.19389961659908295,-0.2613624632358551
1772623494474157000,5.269156982421875,-0.2558985650539398,0.34163713455200195,-0.2603001296520233
1772623494484187100,5.279187255859375,-0.21834133565425873,0.4355824887752533,-0.2443695366382599
1772623494494216200,5.28921630859375,-0.17092081904411316,0.47650542855262756,-0.21313998103141785
1772623494504246300,5.299246337890625,-0.13231651484966278,0.4515075385570526,-0.17307379841804504
1772623494514276400,5.3092763671875,-0.1128152459859848,0.375187486410141,-0.12979716062545776
1772623494524305200,5.31930517578125,-0.11133724451065063,0.27340245246887207,-0.10143916308879852
1772623494534335200,5.329335205078125,-0.12282079458236694,0.13967205584049225,-0.09832273423671722
1772623494544365000,5.339364990234375,-0.1595400869846344,-0.003343419171869755,-0.11597637832164764
1772623494554394400,5.349394287109375,-0.22025111317634583,-0.15823127329349518,-0.1592617928981781
1772623494564424200,5.359424072265625,-0.2964399456977844,-0.26582685112953186,-0.20894113183021545
1772623494574454300,5.369454345703125,-0.3688960373401642,-0.22479714453220367,-0.23582015931606293
1772623494584483000,5.379483154296875,-0.42610400915145874,-0.06063046306371689,-0.2295195758342743
1772623494594513200,5.38951318359375,-0.4554211497306824,0.18825897574424744,-0.19548676908016205
1772623494604543200,5.399543212890625,-0.45503708720207214,0.46780332922935486,-0.1279623806476593
1772623494614572300,5.409572265625,-0.419412761926651,0.698779821395874,-0.06432721018791199
1772623494624602400,5.419602294921875,-0.3514156937599182,0.8430469036102295,0.00397205725312233
1772623494634632200,5.429632080078125,-0.2617180347442627,0.9032793045043945,0.0730414018034935
1772623494644661200,5.4396611328125,-0.14925718307495117,0.9209927320480347,0.12643511593341827
1772623494654691300,5.44969140625,-0.03400488942861557,0.919174313545227,0.18171142041683197
1772623494664721200,5.45972119140625,0.07347690314054489,0.8559496998786926,0.2305353581905365
1772623494674750200,5.469750244140625,0.16859756410121918,0.7333961129188538,0.2660027742385864
1772623494684780000,5.479780029296875,0.26499852538108826,0.4791598320007324,0.2637028396129608
1772623494694810000,5.48981005859375,0.36693766713142395,0.04892697557806969,0.20818550884723663
1772623494704839200,5.499839111328125,0.4549470841884613,-0.4818716049194336,0.10379267483949661
1772623494714869200,5.509869140625,0.481415718793869,-0.9632906913757324,-0.0066749765537679195
1772623494724899300,5.5198994140625,0.4123849868774414,-1.2967286109924316,-0.05842188000679016
1772623494734928100,5.52992822265625,0.2238033562898636,-1.4476728439331055,-0.03126722201704979
1772623494744958200,5.539958251953125,-0.057219162583351135,-1.333579421043396,0.06374885141849518
1772623494754988300,5.54998828125,-0.3714229166507721,-0.9920344948768616,0.17950767278671265
1772623494765017300,5.560017333984375,-0.6329137086868286,-0.512276291847229,0.28298014402389526
1772623494775047400,5.57004736328125,-0.759017288684845,0.002297581173479557,0.3325439691543579
1772623494785077000,5.580076904296875,-0.7190254926681519,0.4626149535179138,0.2947489619255066
1772623494795106000,5.59010595703125,-0.5300997495651245,0.7563834190368652,0.1929675042629242
1772623494805136100,5.60013623046875,-0.2607578933238983,0.8311339616775513,0.06649288535118103
1772623494815166200,5.610166259765625,0.020006921142339706,0.7128778696060181,-0.02774173393845558
1772623494825195300,5.6201953125,0.2875276803970337,0.45808136463165283,-0.04765041917562485
1772623494835225000,5.63022509765625,0.5186386704444885,0.10797234624624252,0.0055741844698786736
1772623494845255200,5.640255126953125,0.6759021878242493,-0.21367007493972778,0.13349363207817078
1772623494855285200,5.65028515625,0.7487433552742004,-0.4423530399799347,0.2860701382160187
1772623494865314300,5.660314208984375,0.7329232692718506,-0.5617860555648804,0.42310476303100586
1772623494875344400,5.670344482421875,0.634200930595398,-0.590951681137085,0.5112130641937256
1772623494885374200,5.680374267578125,0.4597897529602051,-0.5281468033790588,0.5266227126121521
1772623494895403300,5.6904033203125,0.24843280017375946,-0.41266340017318726,0.4566047489643097
1772623494905433000,5.70043310546875,0.021129585802555084,-0.2746813893318176,0.30397194623947144
1772623494915463200,5.710463134765625,-0.16573138535022736,-0.10790865868330002,0.09332551062107086
1772623494925492200,5.7204921875,-0.28656840324401855,0.054652079939842224,-0.14345639944076538
1772623494935522300,5.730522216796875,-0.3393900692462921,0.18468943238258362,-0.37041977047920227
1772623494945552100,5.74055224609375,-0.33488208055496216,0.27427199482917786,-0.5387200117111206
1772623494955581200,5.750581298828125,-0.2982947826385498,0.3112627863883972,-0.6326310634613037
1772623494965611300,5.760611328125,-0.24546204507350922,0.31846630573272705,-0.6483045220375061
1772623494975641300,5.770641357421875,-0.1801738440990448,0.3112933337688446,-0.5929731130599976
1772623494985670100,5.780670166015625,-0.09779658913612366,0.2827705144882202,-0.487846314907074
1772623494995700200,5.7907001953125,-0.01832732930779457,0.23676733672618866,-0.36382797360420227
1772623495005730000,5.80072998046875,0.044835321605205536,0.18816828727722168,-0.2332071214914322
1772623495015759000,5.810759033203125,0.08391588181257248,0.11592630296945572,-0.1251501590013504
1772623495025789200,5.8207890625,0.10619457811117172,0.03682354837656021,-0.05320773646235466
1772623495035819300,5.8308193359375,0.10911500453948975,-0.05677138268947601,-0.022351551800966263
1772623495045848000,5.84084814453125,0.09484200179576874,-0.14214077591896057,-0.03631215542554855
1772623495055878100,5.850878173828125,0.06466732174158096,-0.21584400534629822,-0.07530643045902252
1772623495065908200,5.860908203125,0.021827073767781258,-0.26379913091659546,-0.12722718715667725
1772623495075937300,5.870937255859375,-0.03875052183866501,-0.2702184021472931,-0.18893688917160034
1772623495085967400,5.88096728515625,-0.09556170552968979,-0.24553224444389343,-0.25164785981178284
1772623495095997200,5.8909970703125,-0.1522124707698822,-0.1809050440788269,-0.3126201331615448
1772623495106026200,5.901026123046875,-0.20640261471271515,-0.07091543078422546,-0.3423044681549072
1772623495116056300,5.911056396484375,-0.24464187026023865,0.05209650844335556,-0.3497392237186432
1772623495126086100,5.921086181640625,-0.25392046570777893,0.166037455201149,-0.32220658659935
1772623495136115200,5.931115234375,-0.23759768903255463,0.2274630069732666,-0.27144432067871094
1772623495146145000,5.94114501953125,-0.19829745590686798,0.22579069435596466,-0.22062616050243378
1772623495156175000,5.951175048828125,-0.15226338803768158,0.20414692163467407,-0.1778523176908493
1772623495166205200,5.961205078125,-0.0773303285241127,0.17405666410923004,-0.13401752710342407
1772623495176234200,5.971234130859375,-0.0006629815325140953,0.12097426503896713,-0.07589376717805862
1772623495186264300,5.981264404296875,0.08176575601100922,0.061700932681560516,0.009179512970149517
1772623495196294400,5.99129443359375,0.14548401534557343,0.0043984949588775635,0.10846935212612152
1772623495206323200,6.0013232421875,0.1845865696668625,-0.01766344904899597,0.20202477276325226
1772623495216353300,6.011353271484375,0.19871197640895844,-0.01413555908948183,0.2649843096733093
1772623495226383000,6.021383056640625,0.1961045265197754,-0.026060234755277634,0.28330740332603455
1772623495236412200,6.031412109375,0.17723628878593445,-0.06484757363796234,0.2602465748786926
1772623495246442200,6.041442138671875,0.13307388126850128,-0.13229244947433472,0.21289218962192535
1772623495256472000,6.05147216796875,0.05912775918841362,-0.20475547015666962,0.163956880569458
1772623495266501000,6.061501220703125,-0.030285723507404327,-0.25005078315734863,0.12354088574647903
1772623495276531200,6.07153125,-0.12237090617418289,-0.25502076745033264,0.08721456676721573
1772623495286561300,6.081561279296875,-0.2166392207145691,-0.17301245033740997,0.06212179362773895
1772623495296590000,6.091590087890625,-0.28056761622428894,0.017849909141659737,0.03763163089752197
1772623495306620200,6.1016201171875,-0.2880496382713318,0.2529168128967285,0.008248567581176758
1772623495316650200,6.111650146484375,-0.2533225417137146,0.46598806977272034,-0.0223626047372818
1772623495326679300,6.12167919921875,-0.20805957913398743,0.6086912155151367,-0.07855239510536194
1772623495336709400,6.13170947265625,-0.1787317842245102,0.6571953892707825,-0.15164604783058167
1772623495346739200,6.1417392578125,-0.15975044667720795,0.6687402129173279,-0.2146163433790207
1772623495356768300,6.151768310546875,-0.1537543386220932,0.6938716769218445,-0.2698577642440796
1772623495366798000,6.161798095703125,-0.15958774089813232,0.7017300724983215,-0.3221026360988617
1772623495376828200,6.171828125,-0.15522494912147522,0.6055047512054443,-0.37485426664352417
1772623495386857200,6.181857177734375,-0.14119276404380798,0.3427681624889374,-0.43087998032569885
1772623495396887300,6.19188720703125,-0.12258366495370865,-0.09376199543476105,-0.4946339428424835
1772623495406917000,6.201917236328125,-0.09994461387395859,-0.5529794692993164,-0.5351845026016235
1772623495416946200,6.2119462890625,-0.084523044526577,-0.8491061925888062,-0.502721905708313
1772623495426976300,6.221976318359375,-0.12608276307582855,-0.9189042448997498,-0.3888563811779022
1772623495437006300,6.23200634765625,-0.20421218872070312,-0.7242471575737,-0.2038804143667221
1772623495447036200,6.2420361328125,-0.2707778215408325,-0.3024563789367676,0.015541225671768188
1772623495457065000,6.25206494140625,-0.28472158312797546,0.2273089736700058,0.21255655586719513
1772623495467094800,6.2620947265625,-0.2261766493320465,0.6729990839958191,0.3189939856529236
1772623495477124900,6.272124755859375,-0.11952901631593704,0.8977562785148621,0.3282082676887512
1772623495487153700,6.282153564453125,0.024864714592695236,0.9710314273834229,0.2611892819404602
1772623495497183700,6.292183837890625,0.17431491613388062,0.8828203082084656,0.134630024433136
1772623495507213800,6.3022138671875,0.2751275897026062,0.6067747473716736,-0.027122799307107925
1772623495517243000,6.312242919921875,0.31845802068710327,0.20777754485607147,-0.1579737514257431
1772623495527273000,6.32227294921875,0.296425461769104,-0.21728552877902985,-0.23923978209495544
1772623495537302800,6.332302734375,0.23314981162548065,-0.5655204653739929,-0.2541910409927368
1772623495547331800,6.342331787109375,0.15993349254131317,-0.7684909701347351,-0.21508891880512238
1772623495557362000,6.35236181640625,0.0892697125673294,-0.8232937455177307,-0.15445539355278015
1772623495567392000,6.36239208984375,0.023246265947818756,-0.7814162373542786,-0.09094100445508957
1772623495577421000,6.372421142578125,-0.04544943943619728,-0.6613271236419678,-0.01974458619952202
1772623495587450600,6.38245068359375,-0.1050039604306221,-0.5492047667503357,0.02422184869647026
1772623495597480700,6.392480712890625,-0.1457282304763794,-0.5123058557510376,0.022863637655973434
1772623495607510800,6.4025107421875,-0.16956256330013275,-0.5217147469520569,-0.039682481437921524
1772623495617539800,6.412539794921875,-0.18521767854690552,-0.5375863909721375,-0.13972651958465576
1772623495627570000,6.42256982421875,-0.21534723043441772,-0.5915247797966003,-0.24177205562591553
1772623495637600000,6.43260009765625,-0.22987636923789978,-0.6069556474685669,-0.30194857716560364
1772623495647628800,6.44262890625,-0.2097226232290268,-0.5315263271331787,-0.2966703474521637
1772623495657659000,6.452658935546875,-0.15886422991752625,-0.4223948121070862,-0.25641027092933655
1772623495667689000,6.46268896484375,-0.07942630350589752,-0.2907143235206604,-0.18680910766124725
1772623495677718000,6.472718017578125,0.03219396620988846,-0.16422535479068756,-0.09951121360063553
1772623495687747800,6.482747802734375,0.14096471667289734,-0.10912615060806274,-0.011822205036878586
1772623495697777700,6.492777587890625,0.22558479011058807,-0.10723717510700226,0.052685149013996124
1772623495707806700,6.502806640625,0.27941304445266724,-0.13861490786075592,0.09721783548593521
1772623495717836800,6.5128369140625,0.30655649304389954,-0.21281856298446655,0.11755239963531494
1772623495727867000,6.522866943359375,0.3098083436489105,-0.3379768133163452,0.12777136266231537
1772623495737895700,6.532895751953125,0.2888316810131073,-0.41916540265083313,0.14607393741607666
1772623495747925800,6.54292578125,0.25961723923683167,-0.41152021288871765,0.18231287598609924
1772623495757955800,6.552955810546875,0.2284366637468338,-0.34378722310066223,0.21777738630771637
1772623495767985000,6.56298486328125,0.18501579761505127,-0.23696257174015045,0.237955242395401
1772623495778015000,6.573014892578125,0.14436903595924377,-0.11435648798942566,0.23876670002937317
1772623495788045000,6.583045166015625,0.11319118738174438,0.00029499176889657974,0.23241855204105377
1772623495798073900,6.593073974609375,0.09306275099515915,0.0738469734787941,0.22493506968021393
1772623495808103700,6.603103759765625,0.08159983903169632,0.10280096530914307,0.21259574592113495
1772623495818133800,6.6131337890625,0.09159708023071289,0.13799996674060822,0.209304079413414
1772623495828162800,6.623162841796875,0.11807794123888016,0.1688467264175415,0.2098938673734665
1772623495838193000,6.63319287109375,0.14334255456924438,0.16155605018138885,0.22101150453090668
1772623495848222700,6.64322265625,0.1638055443763733,0.11865130066871643,0.23508112132549286
1772623495858252800,6.653252685546875,0.17160460352897644,0.07186329364776611,0.2626762390136719
1772623495868281900,6.66328173828125,0.1832520216703415,0.02529275417327881,0.3009217381477356
1772623495878312000,6.67331201171875,0.20221959054470062,-0.03041338548064232,0.3397231996059418
1772623495888342000,6.683342041015625,0.21322226524353027,-0.08809265494346619,0.35866308212280273
1772623495898370800,6.693370849609375,0.2166508287191391,-0.1423521786928177,0.3602186441421509
1772623495908401000,6.70340087890625,0.19554828107357025,-0.18571658432483673,0.34382009506225586
1772623495918430700,6.7134306640625,0.13257890939712524,-0.238150492310524,0.3026582896709442
1772623495928459800,6.723459716796875,0.00880315713584423,-0.27184903621673584,0.2314339429140091
1772623495938489900,6.73348974609375,-0.15100647509098053,-0.25048649311065674,0.14052002131938934
1772623495948520000,6.74352001953125,-0.2977757155895233,-0.16078145802021027,0.036645300686359406
1772623495958548700,6.753548828125,-0.4087935984134674,-0.02570832520723343,-0.05597411096096039
1772623495968578800,6.763578857421875,-0.4635325074195862,0.12765821814537048,-0.12168747931718826
1772623495978609000,6.77360888671875,-0.46456846594810486,0.2540028691291809,-0.1483590304851532
1772623495988638000,6.783637939453125,-0.4190625548362732,0.3512822091579437,-0.13895854353904724
1772623495998667800,6.793667724609375,-0.3366164267063141,0.414057195186615,-0.08261218667030334
1772623496008697900,6.80369775390625,-0.2253652662038803,0.46470266580581665,0.00004849955439567566
1772623496018727000,6.813726806640625,-0.11639963090419769,0.500156819820404,0.09909838438034058
1772623496028756700,6.8237568359375,-0.030753888189792633,0.5276185274124146,0.1936669945716858
1772623496038786800,6.833786865234375,0.0293632410466671,0.550456702709198,0.2661196291446686
1772623496048817000,6.84381689453125,0.08910324424505234,0.5651389360427856,0.2919684648513794
1772623496058845700,6.853845703125,0.1447231024503708,0.4389255940914154,0.2565063536167145
1772623496068875800,6.863875732421875,0.16347792744636536,0.09182123094797134,0.13986995816230774
1772623496078905900,6.87390576171875,0.11114761233329773,-0.32970497012138367,-0.007543195504695177
1772623496088935000,6.883934814453125,-0.03223424777388573,-0.6835076212882996,-0.15546375513076782
1772623496098965000,6.893965087890625,-0.27167266607284546,-0.9304928779602051,-0.26166582107543945
1772623496108994800,6.903994873046875,-0.569963276386261,-0.9916703701019287,-0.29070815443992615
1772623496119023900,6.91402392578125,-0.8756638169288635,-0.8068330883979797,-0.25775232911109924
1772623496129054000,6.924053955078125,-1.1412166357040405,-0.49892398715019226,-0.20084023475646973
1772623496139083800,6.934083740234375,-1.3377946615219116,-0.19016267359256744,-0.1385726034641266
1772623496149112800,6.94411279296875,-1.4123238325119019,0.08722786605358124,-0.08220106363296509
1772623496159142700,6.954142578125,-1.3525582551956177,0.24976617097854614,-0.04538685455918312
1772623496169172700,6.9641728515625,-1.1498326063156128,0.2680787146091461,-0.017658956348896027
1772623496179201800,6.974201904296875,-0.8340994119644165,0.2019905149936676,0.011730091646313667
1772623496189231900,6.98423193359375,-0.4515022933483124,0.12266463786363602,0.06360761821269989
1772623496199262000,6.994261962890625,-0.09459742158651352,0.05893758311867714,0.14710624516010284
1772623496209292000,7.0042919921875,0.16978727281093597,0.006218554452061653,0.25703611969947815
1772623496219320800,7.01432080078125,0.30709078907966614,-0.03526949882507324,0.36881324648857117
1772623496229351000,7.024350830078125,0.3532198965549469,-0.07669614255428314,0.45352882146835327
1772623496239380700,7.034380615234375,0.3221549093723297,-0.09064844250679016,0.5023810267448425
1772623496249409800,7.044409912109375,0.24389691650867462,-0.06222095713019371,0.49882546067237854
1772623496259439900,7.05443994140625,0.1423170417547226,-0.004152593202888966,0.4576207995414734
1772623496269469700,7.0644697265625,0.039749547839164734,0.05748610571026802,0.373135507106781
1772623496279498800,7.074498779296875,-0.04103291779756546,0.09538155794143677,0.2754744589328766
1772623496289528800,7.08452880859375,-0.09493933618068695,0.09674818813800812,0.17026667296886444
1772623496299559000,7.094558837890625,-0.13379353284835815,0.07061458379030228,0.07844141125679016
1772623496309587700,7.104587646484375,-0.15243270993232727,0.03790755942463875,-0.0013120854273438454
1772623496319617800,7.11461767578125,-0.14940710365772247,0.00761223491281271,-0.07009834051132202
1772623496329647900,7.12464794921875,-0.12090839445590973,0.008744772523641586,-0.12246686965227127
1772623496339677000,7.134677001953125,-0.07433770596981049,0.039001479744911194,-0.15600405633449554
1772623496349707000,7.14470703125,-0.030100690200924873,0.09471246600151062,-0.16691854596138
1772623496359736800,7.15473681640625,0.014166906476020813,0.14029087126255035,-0.1599477231502533
1772623496369767000,7.164766845703125,0.04364829510450363,0.1538449227809906,-0.15066182613372803
1772623496379795700,7.174795654296875,0.08898328244686127,0.14165936410427094,-0.12780258059501648
1772623496389825800,7.18482568359375,0.13265937566757202,0.11767242848873138,-0.10435769706964493
1772623496399855900,7.19485595703125,0.18377502262592316,0.05168995261192322,-0.07629863172769547
1772623496409885000,7.204885009765625,0.20991618931293488,-0.00567800085991621,-0.06231963634490967
1772623496419914800,7.214914794921875,0.22730104625225067,-0.0737776905298233,-0.05799465999007225
1772623496429944800,7.22494482421875,0.23639070987701416,-0.14557300508022308,-0.07090958952903748
1772623496439974000,7.234973876953125,0.23739178478717804,-0.1923559606075287,-0.09171287715435028
1772623496450004000,7.24500390625,0.23519867658615112,-0.21367083489894867,-0.11405093967914581
1772623496460034000,7.255033935546875,0.22271297872066498,-0.20664194226264954,-0.11431378871202469
1772623496470063000,7.26506298828125,0.19035644829273224,-0.15655705332756042,-0.09375159442424774
1772623496480093200,7.27509326171875,0.14991047978401184,-0.05631539598107338,-0.06481395661830902
1772623496490123000,7.285123046875,0.09912528842687607,0.08044984936714172,-0.03122158721089363
1772623496500153000,7.295153076171875,0.04846983030438423,0.19824786484241486,-0.00834556482732296
1772623496510182100,7.30518212890625,0.0029839864000678062,0.28229352831840515,-0.006721176207065582
1772623496520212200,7.315212158203125,-0.028774742037057877,0.3340288996696472,-0.03335545212030411
1772623496530242300,7.3252421875,-0.04275314509868622,0.3740982711315155,-0.06857221573591232
1772623496540271000,7.33527099609375,-0.03652241453528404,0.41404062509536743,-0.11171914637088776
1772623496550301200,7.34530126953125,-0.019519492983818054,0.4441904127597809,-0.15475235879421234
1772623496560331000,7.3553310546875,0.014596930705010891,0.45575252175331116,-0.178090438246727
1772623496570360000,7.365360107421875,0.05404728278517723,0.43897494673728943,-0.1711842119693756
1772623496580390100,7.37539013671875,0.08642227202653885,0.3867034614086151,-0.13171003758907318
1772623496590420000,7.385419921875,0.12283222377300262,0.3060232698917389,-0.06874024122953415
1772623496600449000,7.395448974609375,0.15508870780467987,0.2199951857328415,0.013868086040019989
1772623496610479000,7.40547900390625,0.17623990774154663,0.14127160608768463,0.09936479479074478
1772623496620509200,7.41550927734375,0.16754788160324097,0.05274146795272827,0.16017435491085052
1772623496630538200,7.425538330078125,0.12602989375591278,-0.0174710676074028,0.20422987639904022
1772623496640568000,7.435568115234375,0.06252522021532059,-0.04394954442977905,0.22081151604652405
1772623496650598100,7.44559814453125,-0.010224503464996815,-0.03667975217103958,0.20448097586631775
1772623496660628000,7.4556279296875,-0.07533000409603119,0.006936969235539436,0.16007569432258606
1772623496670657300,7.4656572265625,-0.11488102376461029,0.07331487536430359,0.09758741408586502
1772623496680687000,7.47568701171875,-0.11478914320468903,0.14273656904697418,0.04007139801979065
1772623496690717200,7.48571728515625,-0.0798700824379921,0.20106852054595947,-0.004299741238355637
1772623496700746000,7.49574609375,-0.016696177423000336,0.26105302572250366,-0.02099216729402542
1772623496710776000,7.505776123046875,0.0531255379319191,0.32848644256591797,-0.00719533022493124
1772623496720806100,7.51580615234375,0.12259089201688766,0.4201868176460266,0.027704596519470215
1772623496730835200,7.525835205078125,0.1986166387796402,0.5081658363342285,0.07119575142860413
1772623496740865300,7.535865234375,0.267693430185318,0.5468876361846924,0.0924333930015564
1772623496750895000,7.54589501953125,0.31808140873908997,0.5193695425987244,0.07620155811309814
1772623496760924200,7.555924072265625,0.3480595350265503,0.3705081343650818,0.015021285973489285
1772623496770954200,7.565954345703125,0.3613227903842926,0.031343985348939896,-0.09339199960231781
1772623496780984000,7.575984130859375,0.3555200397968292,-0.39018353819847107,-0.21000969409942627
1772623496791014100,7.58601416015625,0.2938254177570343,-0.7269057631492615,-0.2867782413959503
1772623496801043000,7.59604296875,0.18080593645572662,-0.8767544031143188,-0.2914063036441803
1772623496811073000,7.606072998046875,0.03645654395222664,-0.8265364170074463,-0.22843575477600098
1772623496821103000,7.61610302734375,-0.10868280380964279,-0.5498641133308411,-0.09586626291275024
1772623496831132200,7.626132080078125,-0.19793060421943665,-0.0947272852063179,0.067807137966156
1772623496841162200,7.636162353515625,-0.19354145228862762,0.39497876167297363,0.20821139216423035
1772623496851192300,7.6461923828125,-0.08500891923904419,0.7767055034637451,0.28363049030303955
1772623496861221000,7.65622119140625,0.07184328138828278,0.97142493724823,0.30216261744499207
1772623496871251200,7.666251220703125,0.2232540249824524,0.9817419052124023,0.2694920599460602
1772623496881281000,7.676281005859375,0.37209492921829224,0.7948647141456604,0.20525605976581573
1772623496891310300,7.686310302734375,0.49183201789855957,0.46322742104530334,0.12471044063568115
1772623496901340000,7.69633984375,0.5373204350471497,0.0427185595035553,0.043850477784872055
1772623496911370000,7.706369873046875,0.49744120240211487,-0.37676307559013367,-0.02683641016483307
1772623496921400000,7.716400146484375,0.3828192949295044,-0.7410054802894592,-0.0984746441245079
1772623496931429000,7.72642919921875,0.2500792145729065,-0.9819943904876709,-0.1524508148431778
1772623496941459200,7.736459228515625,0.1062203124165535,-1.0491456985473633,-0.19041790068149567
1772623496951489300,7.7464892578125,-0.06570594012737274,-0.918540894985199,-0.2095993012189865
1772623496961518000,7.75651806640625,-0.24309884011745453,-0.63768470287323,-0.2239670604467392
1772623496971548200,7.766548095703125,-0.3979032039642334,-0.2814618647098541,-0.246990367770195
1772623496981578000,7.776577880859375,-0.48407644033432007,0.03711904585361481,-0.30938583612442017
1772623496991607300,7.786607177734375,-0.4884893596172333,0.2373219132423401,-0.42586639523506165
1772623497001637000,7.79663720703125,-0.42926597595214844,0.32433271408081055,-0.5528600215911865
1772623497011667000,7.8066669921875,-0.34319111704826355,0.33832064270973206,-0.6601011157035828
1772623497021697000,7.816697021484375,-0.2533557415008545,0.31292662024497986,-0.7249586582183838
1772623497031726000,7.82672607421875,-0.172378271818161,0.26431819796562195,-0.7323958873748779
1772623497041756200,7.836756103515625,-0.1036740392446518,0.2391849011182785,-0.6873114705085754
1772623497051786200,7.8467861328125,-0.04427727311849594,0.2432241290807724,-0.6005653142929077
1772623497061815000,7.85681494140625,-0.022145606577396393,0.1936749368906021,-0.4914339780807495
1772623497071845000,7.86684521484375,-0.03192675858736038,0.0986594706773758,-0.3741990327835083
1772623497081875200,7.876875244140625,-0.038157492876052856,-0.032978180795907974,-0.2529573142528534
1772623497091904300,7.886904296875,-0.016349995508790016,-0.19540169835090637,-0.13526013493537903
1772623497101934000,7.89693408203125,0.0433354377746582,-0.3660232424736023,-0.025716334581375122
1772623497111964200,7.906964111328125,0.09921464323997498,-0.5217846035957336,0.07270502299070358
1772623497121993000,7.916992919921875,0.11824159324169159,-0.6506267786026001,0.13923797011375427
1772623497132023000,7.92702294921875,0.09060952812433243,-0.7430747747421265,0.17082394659519196
1772623497142053000,7.93705322265625,0.03303252160549164,-0.8181630969047546,0.1504611372947693
1772623497152083200,7.947083251953125,-0.04813624173402786,-0.8925976157188416,0.09530332684516907
1772623497162112300,7.9571123046875,-0.1523156464099884,-0.9683440923690796,0.027790594846010208
1772623497172142000,7.96714208984375,-0.29256248474121094,-1.0284545421600342,-0.029599379748106003
1772623497182172200,7.977172119140625,-0.43616095185279846,-1.0264315605163574,-0.05858708918094635
1772623497192201200,7.987201171875,-0.5440685749053955,-0.9359045028686523,-0.05917239561676979
1772623497202231300,7.997231201171875,-0.5931969285011292,-0.7792682647705078,-0.041387006640434265
1772623497212259000,8.007259033203125,-0.5666724443435669,-0.6049064993858337,-0.0035083056427538395
1772623497222289200,8.0172890625,-0.4897424876689911,-0.43372491002082825,0.0531829372048378
1772623497232319200,8.0273193359375,-0.38651639223098755,-0.2961355149745941,0.11406509578227997
1772623497242348300,8.037348388671875,-0.2735786437988281,-0.18791155517101288,0.15794706344604492
1772623497252378000,8.047378173828125,-0.16537770628929138,-0.1588149219751358,0.17635320127010345
1772623497262408000,8.057407958984374,-0.07921059429645538,-0.1960219442844391,0.16401931643486023
1772623497272437000,8.06743701171875,-0.01501939631998539,-0.21124272048473358,0.1279534250497818
1772623497282467000,8.077467041015625,0.013453524559736252,-0.18681088089942932,0.08071773499250412
1772623497292497200,8.0874970703125,0.015128015540540218,-0.15805990993976593,0.02344440668821335
1772623497302527200,8.09752734375,-0.02309873141348362,-0.15151919424533844,-0.03118874318897724
1772623497312556000,8.10755615234375,-0.09634282439947128,-0.162601038813591,-0.0828426331281662
1772623497322586000,8.117586181640625,-0.19636741280555725,-0.1402246356010437,-0.11499177664518356
1772623497332616200,8.1276162109375,-0.3009606897830963,-0.03862769901752472,-0.12229762971401215
1772623497342645200,8.137645263671875,-0.37297388911247253,0.14393173158168793,-0.09089656174182892
1772623497352675000,8.147675048828125,-0.39412182569503784,0.33212703466415405,-0.03217391297221184
1772623497362705200,8.157705078125,-0.36822736263275146,0.4648693799972534,0.0404004231095314
1772623497372734000,8.16773388671875,-0.3052087724208832,0.5349887609481812,0.10916010290384293
1772623497382764000,8.177763916015625,-0.21488207578659058,0.5699448585510254,0.17399634420871735
1772623497392794000,8.187794189453125,-0.11208873987197876,0.6180745959281921,0.2181074172258377
1772623497402824200,8.19782421875,-0.005235524848103523,0.6688448190689087,0.23545950651168823
1772623497412853200,8.207853271484375,0.09929250180721283,0.6948841214179993,0.24136868119239807
1772623497422883000,8.217883056640625,0.19753651320934296,0.7029673457145691,0.23824292421340942
1772623497432913200,8.2279130859375,0.2891295254230499,0.6442703008651733,0.21037912368774414
1772623497442942200,8.237942138671874,0.3495803475379944,0.4715874493122101,0.15776996314525604
1772623497452972300,8.24797216796875,0.38061070442199707,0.1882757693529129,0.07982179522514343
1772623497463001600,8.258001708984375,0.3640325367450714,-0.12990140914916992,-0.0005095303058624268
1772623497473030400,8.268030517578126,0.2793118953704834,-0.3997006118297577,-0.07520322501659393
1772623497483060500,8.278060546875,0.15432417392730713,-0.534422755241394,-0.10569030046463013
1772623497493090300,8.28809033203125,0.02161567285656929,-0.5299481153488159,-0.08374091237783432
1772623497503119400,8.298119384765625,-0.08130031824111938,-0.3912227153778076,-0.01492935698479414
1772623497513149200,8.308149169921874,-0.15443719923496246,-0.18446458876132965,0.07376200705766678
1772623497523179300,8.31817919921875,-0.17588390409946442,0.04040740430355072,0.16180744767189026
1772623497533209300,8.328209228515625,-0.11382687091827393,0.22041238844394684,0.21667663753032684
1772623497543238400,8.33823828125,0.043299637734889984,0.2873400151729584,0.22683687508106232
1772623497553268500,8.3482685546875,0.24387148022651672,0.24082307517528534,0.20843084156513214
1772623497563298600,8.358298583984375,0.39364978671073914,0.11794401705265045,0.19384869933128357
1772623497573327400,8.368327392578125,0.4558936059474945,-0.03772355243563652,0.21823246777057648
1772623497583357400,8.378357421875,0.45737671852111816,-0.18100349605083466,0.2622758150100708
1772623497593387300,8.38838720703125,0.42420798540115356,-0.29566237330436707,0.30885303020477295
1772623497603416300,8.398416259765625,0.3871708810329437,-0.3722114562988281,0.3455202281475067
1772623497613446400,8.4084462890625,0.3480122685432434,-0.40097925066947937,0.3546735942363739
1772623497623476200,8.418476318359374,0.2890602648258209,-0.36010000109672546,0.3331568241119385
1772623497633506300,8.42850634765625,0.22350341081619263,-0.27282270789146423,0.27759382128715515
1772623497643535400,8.438535400390625,0.15622636675834656,-0.1457158625125885,0.19105014204978943
1772623497653565400,8.4485654296875,0.10050078481435776,-0.013650555163621902,0.08642207831144333
1772623497663595500,8.458595458984375,0.048492979258298874,0.08705128729343414,-0.016732003539800644
1772623497673624300,8.468624267578125,-0.0013623954728245735,0.13619226217269897,-0.1048218235373497
1772623497683654400,8.478654296875,-0.032321907579898834,0.15891516208648682,-0.16375252604484558
1772623497693684200,8.488684326171875,-0.03907110542058945,0.14214006066322327,-0.2034599334001541
1772623497703713500,8.498713623046875,-0.01832827553153038,0.09974412620067596,-0.222538560628891
1772623497713743400,8.508743408203125,0.026119202375411987,0.06378315389156342,-0.21623577177524567
1772623497723773400,8.5187734375,0.07232876867055893,0.04645396023988724,-0.18953518569469452
1772623497733803300,8.52880322265625,0.11413809657096863,0.05502337962388992,-0.14595089852809906
1772623497743832300,8.538832275390625,0.14269119501113892,0.06706059724092484,-0.10201191902160645
1772623497753862400,8.5488623046875,0.16138647496700287,0.08103115856647491,-0.060836147516965866
1772623497763892500,8.558892578125,0.16382832825183868,0.08102316409349442,-0.03487006202340126
1772623497773921500,8.568921630859375,0.15617656707763672,0.06063023582100868,-0.053408633917570114
1772623497783951400,8.578951416015625,0.14311827719211578,0.016171425580978394,-0.10445423424243927
1772623497793981400,8.5889814453125,0.1206541359424591,-0.03569060564041138,-0.17522954940795898
1772623497804010500,8.599010498046875,0.07299314439296722,-0.09866291284561157,-0.26236340403556824
1772623497814040300,8.609040283203125,0.012887312099337578,-0.1711169332265854,-0.33559033274650574
1772623497824072400,8.619072509765624,-0.055788420140743256,-0.2340274453163147,-0.3779955804347992
1772623497834102300,8.629102294921875,-0.11547012627124786,-0.2654727101325989,-0.40190890431404114
1772623497844131600,8.639131591796875,-0.16379611194133759,-0.23582135140895844,-0.40176162123680115
1772623497854161200,8.6491611328125,-0.20643088221549988,-0.140767440199852,-0.3766484260559082
1772623497864191200,8.659191162109375,-0.225398451089859,0.02766099013388157,-0.32132020592689514
1772623497874220300,8.66922021484375,-0.21359694004058838,0.20436380803585052,-0.2608891427516937
1772623497884250400,8.67925048828125,-0.18338575959205627,0.3282111585140228,-0.20592841506004333
1772623497894280400,8.689280517578124,-0.1464548259973526,0.36353951692581177,-0.16173557937145233
1772623497904310500,8.699310546875,-0.11282868683338165,0.3305962085723877,-0.12363692373037338
1772623497914339300,8.70933935546875,-0.053803980350494385,0.2649006247520447,-0.08537963777780533
1772623497924369400,8.719369384765624,0.0409528911113739,0.1906450092792511,-0.028003958985209465
1772623497934399500,8.7293994140625,0.13643094897270203,0.11731380224227905,0.051594994962215424
1772623497944428500,8.739428466796875,0.2045261114835739,0.050950221717357635,0.12343589961528778
1772623497954458400,8.749458251953126,0.24416539072990417,-0.007497591432183981,0.18807633221149445
1772623497964488200,8.75948828125,0.2542888820171356,-0.050810977816581726,0.21972188353538513
1772623497974517200,8.769517333984375,0.24853667616844177,-0.06861190497875214,0.21857592463493347
1772623497984547300,8.77954736328125,0.22261852025985718,-0.06631999462842941,0.1891179084777832
1772623497994577400,8.789577392578124,0.1877516508102417,-0.06755107641220093,0.13892769813537598
1772623498004607500,8.799607421875,0.1388094127178192,-0.0856214165687561,0.08699232339859009
1772623498014636300,8.80963623046875,0.07107869535684586,-0.11165919899940491,0.053806811571121216
1772623498024666400,8.819666259765626,-0.007011315785348415,-0.10966262966394424,0.032381411641836166
1772623498034696400,8.829696533203125,-0.08368226885795593,-0.07866135239601135,0.02024073526263237
1772623498044725500,8.8397255859375,-0.14194104075431824,-0.022396745160222054,0.012311439961194992
1772623498054755300,8.84975537109375,-0.18583962321281433,0.05687709525227547,-0.0009574885480105877
1772623498064785400,8.859785400390624,-0.1984393149614334,0.13075077533721924,-0.012736916542053223
1772623498074815200,8.869815185546875,-0.18196356296539307,0.19927869737148285,-0.01991075649857521
1772623498084844300,8.87984423828125,-0.14641302824020386,0.2943194508552551,-0.03128378838300705
1772623498094874400,8.889874267578126,-0.10483948886394501,0.395494282245636,-0.035153359174728394
1772623498104904400,8.899904541015625,-0.07017818093299866,0.45352375507354736,-0.04230181500315666
1772623498114933500,8.90993359375,-0.050215497612953186,0.4455326497554779,-0.06348496675491333
1772623498124963300,8.91996337890625,-0.048586972057819366,0.31902849674224854,-0.1000504344701767
1772623498134993400,8.929993408203124,-0.06149904429912567,0.062271539121866226,-0.15063424408435822
1772623498145022500,8.9400224609375,-0.07715843617916107,-0.24749191105365753,-0.18880639970302582
1772623498155052500,8.950052490234375,-0.09706725180149078,-0.4608312249183655,-0.17895439267158508
1772623498165082400,8.960082275390626,-0.1232016533613205,-0.517717719078064,-0.1253071278333664
1772623498175112400,8.970112548828125,-0.18737924098968506,-0.42774102091789246,-0.03064129129052162
1772623498185141200,8.980141357421875,-0.24752141535282135,-0.14259693026542664,0.06972339004278183
1772623498195171300,8.99017138671875,-0.260443776845932,0.2424561083316803,0.1546066552400589
1772623498205201400,9.000201416015624,-0.22215871512889862,0.6342896819114685,0.18759018182754517
1772623498215230500,9.01023046875,-0.14372971653938293,0.9051714539527893,0.1759934276342392
1772623498225260300,9.02026025390625,-0.059306979179382324,1.045369029045105,0.1478792428970337
1772623498235290400,9.030290283203126,0.038264237344264984,1.05533766746521,0.12043177336454391
1772623498245319400,9.0403193359375,0.14591266214847565,0.9468715786933899,0.09613895416259766
1772623498255349500,9.050349609375,0.2532675266265869,0.7641257643699646,0.0867297500371933
1772623498265379300,9.06037939453125,0.33735576272010803,0.5226159691810608,0.08424608409404755
1772623498275409400,9.070409423828124,0.39592304825782776,0.25825247168540955,0.08601513504981995
1772623498285438200,9.080438232421875,0.42567428946495056,0.005778956227004528,0.08691288530826569
1772623498295468300,9.09046826171875,0.42551296949386597,-0.20745256543159485,0.06908231973648071
1772623498305498400,9.100498291015626,0.39120158553123474,-0.3777076303958893,0.029004938900470734
1772623498315527400,9.11052734375,0.31756559014320374,-0.4894048273563385,-0.020211096853017807
1772623498325557500,9.1205576171875,0.2130466252565384,-0.53684002161026,-0.0701000913977623
1772623498335587300,9.13058740234375,0.06358189880847931,-0.5077974200248718,-0.13014419376850128
1772623498345616400,9.140616455078124,-0.10240866988897324,-0.4015287756919861,-0.19989052414894104
1772623498355646500,9.150646484375,-0.254932701587677,-0.21828040480613708,-0.2918505370616913
1772623498365676300,9.16067626953125,-0.35583242774009705,-0.018566492944955826,-0.4035174250602722
1772623498375706400,9.170706298828126,-0.3894577622413635,0.18787327408790588,-0.5030552744865417
1772623498385735200,9.180735107421874,-0.36537158489227295,0.38069891929626465,-0.5704108476638794
1772623498395765200,9.19076513671875,-0.3065301179885864,0.5447141528129578,-0.5951584577560425
1772623498405795300,9.20079541015625,-0.2203073352575302,0.6431517601013184,-0.5630820393562317
1772623498415824400,9.210824462890624,-0.10802726447582245,0.6783921122550964,-0.4886550009250641
1772623498425854500,9.2208544921875,-0.0012390324845910072,0.6202622056007385,-0.3748224377632141
1772623498435884500,9.230884521484375,0.08948084712028503,0.5006494522094727,-0.24842722713947296
1772623498445914400,9.240914306640626,0.15171146392822266,0.3342069685459137,-0.13028833270072937
1772623498455943400,9.250943359375,0.1825767159461975,0.13744117319583893,-0.03677422180771828
1772623498465973500,9.260973388671875,0.1955108940601349,-0.01984618604183197,0.03744541481137276
1772623498476003300,9.27100341796875,0.20267897844314575,-0.10611621290445328,0.07385573536157608
1772623498486032400,9.281032470703124,0.21510368585586548,-0.1317339539527893,0.0824875682592392
1772623498496062200,9.291062255859375,0.21395018696784973,-0.11264059692621231,0.05277194827795029
1772623498506092300,9.30109228515625,0.21045851707458496,-0.07160714268684387,0.005049164406955242
1772623498516121300,9.311121337890626,0.19481323659420013,-0.03244376182556152,-0.05522589385509491
1772623498526151400,9.3211513671875,0.17251014709472656,-0.017566867172718048,-0.10476228594779968
1772623498536181500,9.331181396484375,0.15494193136692047,-0.02361929975450039,-0.12399667501449585
1772623498546211600,9.341211669921876,0.1368097960948944,-0.06133711710572243,-0.09714322537183762
1772623498556240400,9.351240478515624,0.12299376726150513,-0.09646353870630264,-0.026827668771147728
1772623498566270500,9.3612705078125,0.09238044917583466,-0.11885645985603333,0.053032275289297104
1772623498576300300,9.37130029296875,0.06423389166593552,-0.11598695069551468,0.12402031570672989
1772623498586329300,9.381329345703126,0.04918169975280762,-0.08955959975719452,0.17778073251247406
1772623498596359400,9.391359375,0.04948752373456955,-0.05670566484332085,0.20897184312343597
1772623498606389200,9.40138916015625,0.05443168431520462,-0.03559957817196846,0.23252590000629425
1772623498616419300,9.41141943359375,0.06472994387149811,-0.029354795813560486,0.23712901771068573
1772623498626448400,9.421448486328124,0.08868268132209778,-0.04143649339675903,0.2286926507949829
1772623498636478500,9.431478515625,0.12316476553678513,-0.05509070307016373,0.20818376541137695
1772623498646508500,9.441508544921875,0.1582963764667511,-0.07840214669704437,0.18225443363189697
1772623498656537300,9.451537353515626,0.180196151137352,-0.12377453595399857,0.1442001760005951
1772623498666567400,9.4615673828125,0.17570073902606964,-0.19205158948898315,0.09666915237903595
1772623498676597200,9.47159716796875,0.1347741037607193,-0.2677959203720093,0.05630304664373398
1772623498686627300,9.48162744140625,0.05054230988025665,-0.3076956570148468,0.02543248049914837
1772623498696656400,9.491656494140624,-0.05397288501262665,-0.2975068688392639,0.011908935382962227
1772623498706686200,9.501686279296875,-0.15082991123199463,-0.23627972602844238,0.01951252669095993
1772623498716716300,9.51171630859375,-0.21999934315681458,-0.10008101165294647,0.051871273666620255
1772623498726745300,9.521745361328126,-0.23999622464179993,0.076945960521698,0.07461626827716827
1772623498736775400,9.531775390625,-0.1973525583744049,0.22829701006412506,0.06891396641731262
1772623498746805500,9.541805419921875,-0.11238919943571091,0.29460999369621277,0.038225289434194565
1772623498756835600,9.551835693359376,-0.027469104155898094,0.30202582478523254,0.019713329151272774
1772623498766864400,9.561864501953124,0.03909287601709366,0.2693203389644623,0.030302854254841805
1772623498776894200,9.571894287109375,0.07180356979370117,0.2307215929031372,0.08616199344396591
1772623498786924300,9.58192431640625,0.08431696146726608,0.164571613073349,0.18057531118392944
1772623498796953300,9.591953369140626,0.08762365579605103,0.048800189048051834,0.2660858929157257
1772623498806983400,9.6019833984375,0.08571337163448334,-0.09744516760110855,0.31819915771484375
1772623498817013200,9.61201318359375,0.06932460516691208,-0.2859427332878113,0.31626248359680176
1772623498827043300,9.622043212890626,0.03550804778933525,-0.4611952304840088,0.2566489577293396
1772623498837072400,9.632072265625,-0.03393804654479027,-0.6058862805366516,0.14334146678447723
1772623498847102500,9.6421025390625,-0.14611758291721344,-0.6519725322723389,0.009327471256256104
1772623498857132500,9.652132568359375,-0.27930372953414917,-0.5593128800392151,-0.10325068235397339
1772623498867161300,9.662161376953126,-0.4030003845691681,-0.3335447609424591,-0.16988615691661835
1772623498877191400,9.67219140625,-0.5255240201950073,-0.03588405251502991,-0.1759611815214157
1772623498887221200,9.68222119140625,-0.5971041917800903,0.2752770185470581,-0.14110173285007477
1772623498897251300,9.692251220703126,-0.5841535329818726,0.50697922706604,-0.07931560277938843
1772623498907280400,9.7022802734375,-0.501473069190979,0.6077937483787537,-0.010873423889279366
1772623498917310500,9.712310546875,-0.37970733642578125,0.5599332451820374,0.07023069262504578
1772623498927340300,9.72234033203125,-0.24171696603298187,0.3747016191482544,0.157295823097229
1772623498937369300,9.732369384765626,-0.09335120767354965,0.08863410353660583,0.2531910836696625
1772623498947399400,9.7423994140625,0.012372555211186409,-0.2342243790626526,0.3467292785644531
1772623498957429500,9.752429443359375,0.060634367167949677,-0.4997962713241577,0.41520076990127563
1772623498967459300,9.762459228515626,0.036753006279468536,-0.6686899662017822,0.430454283952713
1772623498977488400,9.77248828125,-0.026157304644584656,-0.735387921333313,0.38810446858406067
1772623498987518200,9.782518310546875,-0.11628186702728271,-0.6905597448348999,0.30702561140060425
1772623498997548300,9.79254833984375,-0.23401343822479248,-0.5417355895042419,0.20391349494457245
1772623499007578400,9.802578369140624,-0.3487674295902252,-0.32850053906440735,0.0910351574420929
1772623499017607400,9.812607421875,-0.4262353181838989,-0.10623443126678467,-0.021500300616025925
1772623499027637500,9.822637451171875,-0.44911348819732666,0.08258502185344696,-0.1210135743021965
1772623499037667300,9.832667236328126,-0.4168188273906708,0.2160472273826599,-0.20253810286521912
1772623499047696400,9.8426962890625,-0.34183114767074585,0.2915198802947998,-0.2539871633052826
1772623499057726500,9.8527265625,-0.2657802402973175,0.322948694229126,-0.25963592529296875
1772623499067756300,9.86275634765625,-0.1980389952659607,0.31804901361465454,-0.21772253513336182
1772623499077786400,9.872786376953124,-0.15453767776489258,0.2876583933830261,-0.15645557641983032
1772623499087815200,9.882815185546875,-0.11687657982110977,0.23351368308067322,-0.0714099183678627
1772623499097845200,9.89284521484375,-0.08586011826992035,0.16743525862693787,0.007168569602072239
1772623499107875300,9.902875244140626,-0.05615362524986267,0.08709780871868134,0.05976254120469093
1772623499117904400,9.912904296875,-0.015872657299041748,0.03270966559648514,0.08716253191232681
1772623499127934500,9.9229345703125,0.035114627331495285,0.017055602744221687,0.09342868626117706
1772623499137964500,9.932964599609376,0.0849635973572731,0.039473406970500946,0.0792120024561882
1772623499147994400,9.942994384765624,0.11515026539564133,0.0640660971403122,0.032468196004629135
1772623499158023400,9.9530234375,0.12034323811531067,0.09176233410835266,-0.06469197571277618
1772623499168053500,9.963053466796875,0.12016214430332184,0.1904127299785614,-0.2044336348772049
1772623499178083300,9.973083251953126,0.13238313794136047,0.34832963347435,-0.33181214332580566
1772623499188113400,9.983113525390625,0.12248017638921738,0.6801097393035889,-0.18685227632522583
1772623499198142200,9.99314208984375,0.026461677625775337,0.55931156873703,0.1761462688446045
1772623499208172300,10.00317236328125,-0.09346872568130493,0.0920543223619461,0.3745192885398865
1772623499218202400,10.013202392578124,-0.11020293086767197,-0.14119747281074524,0.3236965835094452
1772623499228231400,10.0232314453125,-0.06812445819377899,-0.29329514503479004,0.11908004432916641
1772623499238261500,10.033261474609375,-0.10644151270389557,-0.28197258710861206,-0.13846111297607422
1772623499248291600,10.04329150390625,-0.25925901532173157,-0.014664703980088234,-0.3479490876197815
1772623499258321400,10.0533212890625,-0.3657771348953247,0.4348968267440796,-0.4036346971988678
1772623499268350500,10.0633505859375,-0.33659127354621887,0.6974887847900391,-0.37365150451660156
