time,seconds_elapsed,z,y,x
1772565952070566100,0.082566162109375,0.11485387514829636,-0.005149633281561546,0.02034340758770704
1772565952080595200,0.09259521484375,0.09435118534564971,-0.0006383116032695397,-0.006691405663732439
1772565952090623200,0.102623291015625,0.10572305870950222,0.012774004379892722,-0.01754974001487717
1772565952100651300,0.1126513671875,0.10137889202535152,0.0038078769835177806,-0.010375811531208454
1772565952110680000,0.12268017578125,0.09703647890686988,0.002870600699982606,0.00637169045638293
1772565952120708400,0.132708251953125,0.11799392673969268,0.0013219784519169478,0.0012446662988513707
1772565952130737400,0.1427373046875,0.09571545943617821,-0.003269262895057909,-0.020940697627421467
1772565952140765200,0.15276513671875,0.11351181288957596,0.012897228900762274,-0.020600834681186824
1772565952150793200,0.162793212890625,0.10107610968649387,-0.0014761917660944164,0.010966562232282012
1772565952160822300,0.172822265625,0.10287292997539042,-0.0022311565855517982,0.009090210433769971
1772565952170850300,0.182850341796875,0.10707096618711948,0.003961729538091458,-0.010228585080243647
1772565952180879000,0.192879150390625,0.1024339540362358,-0.008309202424180694,-0.0194496553520672
1772565952190907100,0.2029072265625,0.11320084724426269,0.0030460759978974236,-0.0032359679802320897
1772565952200935200,0.21293505859375,0.11050269420146941,-0.0022909559148130937,0.010591627972666174
1772565952210964200,0.222964111328125,0.11410744069516658,-0.002005873629427515,-0.0050181934881955385
1772565952220992300,0.2329921875,0.09705869073867797,0.003250037604779936,-0.027632852209825066
1772565952231021000,0.24302099609375,0.1117149926006794,-0.003917730566160753,-0.00877217572685331
1772565952241049300,0.25304931640625,0.10407821411192417,0.0014395723830210043,0.011951664279494434
1772565952251077000,0.2630771484375,0.10976970375180244,0.011001756843249312,0.0069815294504165645
1772565952261106200,0.273106201171875,0.09825579156875609,-0.004345879150624387,-0.01362781733078882
1772565952271134200,0.28313427734375,0.1045382328391075,0.0034333354495465753,-0.011764745138958095
1772565952281163300,0.293163330078125,0.11186579924821853,-0.003986019162554293,0.003898176482319832
1772565952291191000,0.30319091796875,0.09391045584082602,0.0017052741145016624,0.015523184357024728
1772565952301219300,0.31321923828125,0.11083061098158359,0.002670022926852107,-0.012704035283066331
1772565952311248400,0.323248291015625,0.10080839866101741,-0.001059929982246831,-0.02014192106570117
1772565952321276200,0.333276123046875,0.10139935029149055,-0.00036390140894800423,0.00020543204476125538
1772565952331304200,0.34330419921875,0.10333820939958095,0.0022223476580111308,0.018174703512806444
1772565952341333200,0.353333251953125,0.10678513498306273,-0.008973397387377917,0.0024169888806995004
1772565952351361300,0.363361328125,0.11052665959894656,0.006388774021924473,-0.01648064034548588
1772565952361390000,0.37339013671875,0.1177057574480772,0.005137184791942127,-0.014416684419848023
1772565952371418000,0.383418212890625,0.1115624323874712,-0.004624189201928675,0.014167404100205748
1772565952381446100,0.393446044921875,0.09809972422420978,0.006856199737428687,0.005991258037742227
1772565952391475200,0.40347509765625,0.1082815110206604,-0.0033624484706902876,-0.007257332450803369
1772565952401503200,0.413503173828125,0.09989946712255478,0.0029061332376673814,-0.00813134793951176
1772565952411532300,0.4235322265625,0.11186404568254947,0.004266384173627011,0.006637246057391166
1772565952421560300,0.433560302734375,0.10468202522397041,-0.01069457232390996,0.011683295666892081
1772565952431588000,0.443588134765625,0.10827508127987384,0.0004269749741069972,0.009345500369090586
1772565952441617200,0.4536171875,0.10244213734269142,-0.0010008430390385911,0.001814693872304633
1772565952451645200,0.463645263671875,0.11320961507260799,-0.004357907515135593,-0.000901972074713558
1772565952461674200,0.47367431640625,0.10946575236916542,-0.004694418593659065,-0.0024907391034998
1772565952471702000,0.483701904296875,0.10587561892271041,-0.0024300584248267113,-0.0030161512170918284
1772565952481730300,0.493730224609375,0.10109072273373604,-0.005662829800974578,-0.017124829133693127
1772565952491759400,0.50375927734375,0.10602350296080112,0.007758304242882877,-0.017897238278295844
1772565952501787100,0.513787109375,0.10871288817524909,-0.004755565063212998,0.005322144870832562
1772565952511816200,0.523816162109375,0.10901040981709957,-0.003928722317633219,0.0027792006560601293
1772565952521844200,0.53384423828125,0.10242927786111831,-0.0049377669294364745,-0.010477901932504027
1772565952531872300,0.543872314453125,0.10392623842060565,-0.007743535932013765,-0.009110212042182684
1772565952541901000,0.553901123046875,0.11230886684060096,0.0035297998276539143,-0.000164141053147614
1772565952551929300,0.563929443359375,0.10737199496030807,-0.00283437860913109,0.005563515878655016
1772565952561958400,0.57395849609375,0.10857260292172431,0.0005988563757156953,-0.005272971966862678
1772565952571986200,0.583986083984375,0.10872516313493251,0.0002358591490658,-0.009794988569105044
1772565952582014200,0.59401416015625,0.10139058246314525,0.004420515289413743,-0.010692165737692267
1772565952592043300,0.604043212890625,0.11710311537981033,0.0006828768307808787,-0.0005367372252047061
1772565952602071300,0.6140712890625,0.10588204866349696,-0.0046215999526204535,0.003871964328829199
1772565952612099000,0.62409912109375,0.09870295081436634,-0.006670636870339512,-0.009457865569228306
1772565952622128000,0.634128173828125,0.10259177494645118,-0.010097611077758483,-0.00936625089617446
1772565952632156200,0.64415625,0.11052022985816001,-0.010524321190384217,0.00016887202719226478
1772565952642185200,0.654185302734375,0.11575579242408275,-0.0008188010030193254,0.005210464657284319
1772565952652214000,0.664214111328125,0.10917056881487369,0.0010660263628931715,0.006935151291731744
1772565952662242000,0.674241943359375,0.10513035351336002,0.006033133551245555,-0.0034602782553993165
1772565952672271000,0.68427099609375,0.09944470909237861,-0.002513229496520944,0.004747304124943912
1772565952682299000,0.694298828125,0.0912146408855915,-0.004854029602161608,0.008752575977239756
1772565952692328000,0.704327880859375,0.10513327612280846,-0.0005548026048578322,0.007818144671339542
1772565952702356000,0.71435595703125,0.11097206527888774,-0.005291334174037911,-0.015223370293388142
1772565952712384000,0.724384033203125,0.09675532387793064,-0.0013586343676084652,-0.01172150878543034
1772565952722413000,0.7344130859375,0.11380991905331611,0.0017790882693836465,0.006500760196149349
1772565952732440800,0.74444091796875,0.11111702670753001,0.0008413005291949957,0.005660948371142149
1772565952742470100,0.75447021484375,0.11814882504045962,-0.006480457193637266,-0.00365236676139757
1772565952752498000,0.764497802734375,0.10946867497861384,0.0013871846086578443,-0.008681355638243257
1772565952762526000,0.77452587890625,0.09719429981708526,0.004950895839068107,-0.010911854636669159
1772565952772554800,0.7845546875,0.10916355455219745,-0.0003171898901229724,-0.004857723963167518
1772565952782583000,0.7945830078125,0.10377893890440464,-0.0033106041190214455,-0.0025122385492548343
1772565952792612000,0.804612060546875,0.10034019662737846,0.00017016436855774372,-0.004436228881776333
1772565952802640000,0.814639892578125,0.1103641625136137,0.008158651504968292,0.004454148130957037
1772565952812668000,0.82466796875,0.11500175918638705,0.0031257582045625893,-0.0010188216537237167
1772565952822697000,0.834697021484375,0.09779635736346244,0.0029858200109098105,0.0038002142668701706
1772565952832725000,0.84472509765625,0.09959726930558681,0.0022654333144892006,0.0022496420903131364
1772565952842753800,0.85475390625,0.1147124208509922,0.0008046035143081099,-0.010442794086504727
1772565952852782000,0.864781982421875,0.10678221237361431,0.005366892761434428,-0.005131298473849892
1772565952862809900,0.874809814453125,0.10438684166967868,-0.0041139974903548135,0.008150244436226785
1772565952872839000,0.8848388671875,0.10902794547379016,-0.005602793009695597,-0.00010528700537979602
1772565952882867000,0.894866943359375,0.10408756646215915,-0.0012824227596633134,-0.004505567790940404
1772565952892895000,0.90489501953125,0.11815350121557712,0.00018396456504706293,0.003643133142171427
1772565952902924000,0.914924072265625,0.11261574083268641,-0.003798739262414165,0.0038336416124366223
1772565952912952000,0.9249521484375,0.10393559077084064,-0.0005803343383362517,0.0014970884236507117
1772565952922981000,0.934981201171875,0.10258885233700275,-0.009530565479258075,-0.0050315278938040135
1772565952933009000,0.9450087890625,0.11381284166276454,-0.0017687952042324468,-0.007723086799029261
1772565952943037000,0.955036865234375,0.1045347257077694,-0.0058227330704219635,0.0028061434619128705
1772565952953066000,0.96506591796875,0.11515724200904369,0.0035886812748853114,-0.0030419615117833016
1772565952963094000,0.975093994140625,0.09824994634985923,-0.0013014288542326539,0.001361680274643004
1772565952973123000,0.985123046875,0.10423428145647048,0.00048170996918343005,-0.0006314480376429856
1772565952983150800,0.99515087890625,0.10513035351336002,0.006770192821254022,-0.008638466344587504
1772565952993179100,1.00517919921875,0.11365969692766666,0.002611050148075446,0.004087177982088178
1772565953003208000,1.0152080078125,0.10662848311662673,-0.008105948636773974,-0.000006046148296445607
1772565953013236000,1.025236083984375,0.10573124201595782,-0.003749342596158385,-0.0031455680167302488
1772565953023264800,1.0352646484375,0.10797931320369243,-0.003501811275607906,-0.014921464737365022
1772565953033293000,1.04529296875,0.1205506254851818,-0.0005646983777871355,-0.0007297938455827534
1772565953043320800,1.05532080078125,0.11426409256160258,-0.006469059016788378,0.0016091065639164297
1772565953053350000,1.065349853515625,0.09705459908545017,0.0015036916943732648,-0.010608761770557612
1772565953063378000,1.0753779296875,0.10139584316015243,0.002607593249087222,-0.004388316353131086
1772565953073407000,1.085406982421875,0.10468436331152915,-0.013054734717146493,0.001709251603297889
1772565953083435000,1.09543505859375,0.10737900922298431,-0.0022889557539718225,-0.004855732935480773
1772565953093463000,1.105463134765625,0.09959785382747649,0.003332450624648481,-0.006619893063791096
1772565953103492000,1.1154921875,0.10528583633601665,-0.011878672108519821,0.0009424684818834066
1772565953113519900,1.125519775390625,0.11486088941097258,0.006302684907359071,0.0037909167155623434
1772565953123549000,1.135548828125,0.10318915631771088,0.005330985764414072,-0.006563632831908762
1772565953133577000,1.145576904296875,0.1049871456503868,-0.016635415348666718,0.0024028872901108115
1772565953143605000,1.15560498046875,0.10872808574438095,-0.0031433851927984502,0.0004409669668413698
1772565953153634000,1.165634033203125,0.1088777233481407,-0.0057894198892870915,-0.0064507835745811455
1772565953163662000,1.175662109375,0.10109715247452258,-0.007461590885207988,-0.009760931035876273
1772565953173690000,1.185690185546875,0.12249416076838969,-0.0035600579685997214,-0.005249773754365742
1772565953183719000,1.195718994140625,0.11531272483170033,-0.0012011239846469834,-0.00479839499136433
1772565953193747000,1.205746826171875,0.1051356142103672,-0.0016779796821996568,-0.009225326321832835
1772565953203776000,1.21577587890625,0.10573299558162688,-0.00802783733268734,-0.012875281930435448
1772565953213804000,1.225803955078125,0.10423837310969829,0.0029805456141708416,-0.006314407311193645
1772565953223831800,1.235831787109375,0.10798223581314086,0.005931157314381562,0.0008432824237272143
1772565953233860900,1.24586083984375,0.10289514180719851,-0.0022621499454369767,-0.003330002939235419
1772565953243889000,1.255888916015625,0.10693711067438125,0.007410436086705886,-0.003653371408395469
1772565953253918000,1.26591796875,0.1090308680832386,0.0017112380644073708,0.002327821893058717
1772565953263946000,1.275946044921875,0.10618833813369273,0.004893009905680082,-0.001678655535634607
1772565953273974000,1.28597412109375,0.11307342147231102,0.0026934175021713597,-0.005134056686516851
1772565953284003000,1.296003173828125,0.10334989983737468,-0.003989704390405677,-0.005547149265743792
1772565953294030800,1.30603076171875,0.1046954692274332,-0.0020745549514656885,-0.005676264671282842
1772565953304060000,1.316059814453125,0.10559212580621243,0.004656223741429858,-0.0006505911295302211
1772565953314088000,1.326087890625,0.11352408784925937,0.005249924451415426,-0.010309194302093237
1772565953324116000,1.336115966796875,0.10484569135308265,-0.002366665199259296,-0.0033154994898475705
1772565953334145000,1.34614501953125,0.10424772545993327,0.00002412066110409796,-0.0022399974791333078
1772565953344173000,1.356173095703125,0.11412439182996749,-0.002813413452915847,0.0013629223836585879
1772565953354202000,1.3662021484375,0.1079892500758171,-0.0014346633124630898,-0.002666771523840725
1772565953364230000,1.37622998046875,0.12070844639539718,-0.007241915685962885,-0.00177723880559206
1772565953374258000,1.3862578125,0.1127776533961296,0.00010795388650149106,-0.005095697437506169
1772565953384287000,1.396286865234375,0.10918693542778492,0.002224247354152612,-0.0007034812273923307
1772565953394315000,1.40631494140625,0.09512216971814631,-0.0034149595426395535,-0.000608633417636156
1772565953404344000,1.416343994140625,0.10185703093111514,-0.0037873456521425393,0.004095726614724845
1772565953414371800,1.426371826171875,0.11023907482922077,0.004122527856682427,0.0017923724426422267
1772565953424400000,1.43639990234375,0.10963818632662296,0.0060702735241269686,-0.00328825528989546
1772565953434429000,1.446428955078125,0.11487667150199413,0.003937207018188201,-0.005599564439570531
1772565953444457000,1.45645703125,0.11308218930065632,-0.00047118857516907154,-0.004128039715439081
1772565953454486000,1.466486083984375,0.10216098231375217,-0.0008681931026978417,-0.0007039013525005429
1772565953464514000,1.47651416015625,0.10201251375377178,-0.0007927167136920616,-0.00020072847018018364
1772565953474541800,1.486541748046875,0.10410977829396724,0.007203894363669678,0.00004173851618543267
1772565953484571000,1.49657080078125,0.10860007545053958,0.00677043484984897,-0.0006308452494442463
1772565953494599000,1.506598876953125,0.10096914218068122,-0.0011834832966793327,-0.004781690451735631
1772565953504627000,1.516626953125,0.1147340481609106,-0.0038891392259160053,0.005074773380486295
1772565953514656000,1.526656005859375,0.10725450606048106,0.0006499700750224292,-0.004542977191880345
1772565953524684000,1.53668408203125,0.10830372285246849,0.002493483616434969,-0.005937125830864533
1772565953534713000,1.546713134765625,0.11279226644337177,-0.0031623912873677907,-0.007438680367078632
1772565953544740900,1.556740966796875,0.11189385629892348,-0.007893333365977742,-0.004190976283280179
1772565953554769200,1.56676904296875,0.10725450606048106,-0.003986800047266297,0.007950602811435238
1772565953564798000,1.5767978515625,0.0967781202316284,0.007608086683810688,0.008064246653206646
1772565953574826000,1.586825927734375,0.11503566145598888,0.004830105303879827,0.006384549937956035
1772565953584855000,1.59685498046875,0.11787702236175536,-0.001629400433273986,0.008818535619229078
1772565953594883000,1.606883056640625,0.11458441055715084,0.012008942858106456,0.007133477742271498
1772565953604910800,1.616910888671875,0.1138368070602417,0.0016559779129456727,0.0004300071814097464
1772565953614940000,1.62693994140625,0.09827566531300544,0.0003802817215910181,-0.009988565779291093
1772565953624968000,1.636968017578125,0.10171908376514911,0.0004322402376914397,-0.0029342998862266537
1772565953634997000,1.6469970703125,0.11368892302215099,-0.006607421741285361,-0.0021132566937711087
1772565953645025000,1.65702490234375,0.11383797610402106,0.00492375667039305,-0.006729609649116173
1772565953655048700,1.667048583984375,0.10590542953908443,-0.0009448294023284688,-0.0017349614332895725
1772565953665077500,1.677077392578125,0.1117407115638256,-0.0023682863341877238,-0.0026357918636873362
1772565953675105500,1.68710546875,0.11113982306122779,-0.007253889251546934,0.008330706436512991
1772565953685134300,1.69713427734375,0.11114157662689685,0.0035284709536703303,0.0035095424909144636
1772565953695162600,1.70716259765625,0.11129296779632568,-0.0006149900931864976,-0.0034311891582328824
1772565953705190400,1.7171904296875,0.10171733019948005,0.003477978308871388,-0.001736139610223472
1772565953715219500,1.727219482421875,0.1056108305066824,-0.0038648176354123278,0.0076425141097977755
1772565953725247700,1.737247802734375,0.11099603067636489,0.002635992793086916,0.00345824156193994
1772565953735276500,1.747276611328125,0.10755144318044185,-0.003366238729818724,-0.0010528061217162758
1772565953745304600,1.7573046875,0.10231120443940162,-0.0034590407129609954,-0.005719674554746598
1772565953755332400,1.767332275390625,0.09856851077973842,0.011227231595618649,-0.00641681737289764
1772565953765361700,1.777361572265625,0.09453063356578349,-0.0036884838209720328,0.0007532477864064276
1772565953775389400,1.787389404296875,0.09842062674164771,-0.003725582694658078,0.0022296039492823183
1772565953785417500,1.79741748046875,0.10111410360932349,-0.003576273884461261,0.004923071683803573
1772565953795446300,1.8074462890625,0.10410627116262912,-0.004328074065875262,-0.00017413272419944406
1772565953805474600,1.817474609375,0.11188684203624724,-0.008068502703215926,-0.001236336861923337
1772565953815503600,1.827503662109375,0.10694763206839561,0.0012962594887707382,0.008510099857719614
1772565953825531400,1.837531494140625,0.11009119079113006,-0.003978968367259949,0.00024243958690203725
1772565953835559700,1.8475595703125,0.09707038117647171,-0.0004231481823604554,-0.003299087211163714
1772565953845588500,1.85758837890625,0.1073965448796749,0.00629581220857799,0.0020827519576530904
1772565953855616500,1.867616455078125,0.10844342358410358,-0.002979440502473153,0.005493884708546102
1772565953865645300,1.877645263671875,0.11158172160983085,0.000476220943313092,-0.0014537516054231672
1772565953875673600,1.887673583984375,0.09975742830336093,-0.006732637289841659,-0.005003954900288954
1772565953885701400,1.897701416015625,0.10978197871148586,-0.009464309009746649,-0.007445146640483289
1772565953895730400,1.90773046875,0.10828618719577789,0.0016853501379024236,0.006696255368785932
1772565953905758700,1.9177587890625,0.10619184526503085,-0.0063248556399717925,0.005499264136562124
1772565953915787500,1.92778759765625,0.11232698701918124,-0.0011087512597674502,-0.001378841471998021
1772565953925815600,1.937815673828125,0.10798808103203773,-0.003307279650773853,0.0010882336281239986
1772565953935843600,1.947843505859375,0.10664251164197922,-0.003798332837037742,-0.008609970902465283
1772565953945872600,1.95787255859375,0.11008651461601257,-0.007074742425512522,0.005250851466599852
1772565953955900400,1.967900390625,0.1085907231003046,-0.01084088089284487,0.00881156702232547
1772565953965929500,1.977929443359375,0.09781798467338085,-0.008473453075182623,-0.010588550099590793
1772565953975957500,1.98795751953125,0.09721943425834179,0.0004928752505918964,-0.01225363376759924
1772565953985985500,1.997985595703125,0.11487550245821475,-0.008605660053528846,-0.0015647194329183548
1772565953996014600,2.0080146484375,0.11577274355888366,0.007461225559026933,-0.0028105639087036252
1772565954006042400,2.01804248046875,0.10021043276786804,-0.0009613604120211675,-0.007431739169638603
1772565954016071700,2.02807177734375,0.10380115073621272,-0.0016500230961944908,0.0033497853519394993
1772565954026099500,2.038099365234375,0.10963526371717452,0.0030143565522274002,0.007332726641418412
1772565954036127500,2.04812744140625,0.10425006354749203,0.0020579143439186736,0.0034451628846582025
1772565954046156300,2.05815625,0.10275427203178406,-0.006335788025939836,0.005583800614858045
1772565954056184600,2.0681845703125,0.10350479813814163,0.0019101536034140734,-0.00877778348373249
1772565954066212400,2.07821240234375,0.11158522874116897,-0.007564151643961668,-0.0073491023874841625
1772565954076241400,2.088241455078125,0.11652268514335155,-0.004350779088027775,0.0031175292323343453
1772565954086269700,2.098269775390625,0.10335516053438186,0.004100891413609497,-0.003379650767240673
1772565954096298500,2.108298583984375,0.10365502026379107,-0.01231995416919235,0.002042931403918192
1772565954106326500,2.118326416015625,0.10365209765434265,-0.002831008475110866,-0.0019187661681324241
1772565954116354600,2.1283544921875,0.11756839480400084,0.0013125119372503831,-0.0032534305716864762
1772565954126383600,2.138383544921875,0.11248071627616882,-0.0012595168081112205,-0.004427250990876928
1772565954136411400,2.148411376953125,0.1014063645541668,0.0021510268543148414,0.001639730031043291
1772565954146440400,2.1584404296875,0.108289694327116,-0.0009933858183678239,-0.003820626867236569
1772565954156468500,2.168468505859375,0.10948679515719413,0.002072929249959998,0.0013823577364906667
1772565954166496500,2.17849658203125,0.1021551370948553,0.004122436525137163,0.0020420272216200826
1772565954176525600,2.188525634765625,0.09931260714530944,-0.001243300892249681,0.004000723541341722
1772565954186553600,2.1985537109375,0.11203355703055858,0.0021667176137911155,-0.005045492487074807
1772565954196582700,2.208582763671875,0.10529928033947944,-0.00014987506577745078,-0.0017690463659819214
1772565954206610400,2.2186103515625,0.11382628566622734,-0.005000041343574412,0.0015644545714370906
1772565954216638500,2.228638427734375,0.10664251164197922,0.004906198180816136,0.001989630314102396
1772565954226667500,2.23866748046875,0.10215279900729655,-0.00016899989135563373,-0.008044098914321512
1772565954236695600,2.248695556640625,0.09796060801446438,-0.0053853371670003975,-0.000333898996328935
1772565954246724600,2.258724609375,0.10933306590020656,0.00036380094424821435,0.00021437340304255483
1772565954256752400,2.26875244140625,0.10274959585666656,-0.004887484347191639,0.0011103358620777725
1772565954266780700,2.27878076171875,0.11337561928927897,0.0038901712723774834,-0.005194792164117098
1772565954276809500,2.2888095703125,0.10828794076144695,0.004214096863963641,0.00292296564145945
1772565954286837500,2.29883740234375,0.0978156465858221,0.007700240212981589,0.0021745584269519894
1772565954296866300,2.3088662109375,0.10260229634046554,-0.0023648933672811836,0.0014802925524767488
1772565954306894600,2.31889453125,0.1000596261203289,-0.008289018152677453,0.001455788298882544
1772565954316922400,2.32892236328125,0.11038695886731147,0.00037787513537332416,0.00048595688603818413
1772565954326951400,2.338951416015625,0.10634615904390811,-0.0014987643575062974,0.0052594000992365175
1772565954336979500,2.3489794921875,0.10978665488660334,-0.007420797650516032,0.0017926373041234909
1772565954347007500,2.359007568359375,0.09856266556084156,0.0063585935127921395,-0.00016756598609499632
1772565954357036500,2.36903662109375,0.10215162996351718,-0.0041481235222425306,0.003150691716419533
1772565954367064600,2.379064697265625,0.10170330167412757,-0.0008211938895052298,0.004359008060256019
1772565954377093600,2.38909375,0.10858429335951804,0.002510631114058196,-0.0014914624004624783
1772565954387121400,2.399121337890625,0.1109784950196743,-0.013150130516174249,0.0017681239173747598
1772565954397149400,2.4091494140625,0.10110124412775039,-0.0025575070296647026,0.003204093270935118
1772565954407178500,2.419178466796875,0.10918050568699836,0.007126828805776313,-0.007639673698740079
1772565954417206500,2.42920654296875,0.09855448225438594,-0.0011744506068527697,-0.005007909556198865
1772565954427235600,2.439235595703125,0.092569562625885,-0.0003048783978214487,-0.006904281229432672
1772565954437263600,2.449263671875,0.10229483782649039,-0.007785822437470779,-0.008046510067116468
1772565954447291600,2.459291748046875,0.09256897810399532,-0.0030439251400064676,-0.0014400701399426906
1772565954457320400,2.469320556640625,0.11366846475601196,-0.002374907871219329,0.004088009099150076
1772565954467348500,2.479348388671875,0.1105254905551672,-0.004603913598880171,0.0015950780385639517
1772565954477377500,2.48937744140625,0.10289631085097789,-0.00043179271311964836,0.0033884916608221826
1772565954487405600,2.499405517578125,0.10289747989475727,0.0022843252446269617,0.004490315422881395
1772565954497433300,2.509433349609375,0.10783376725316048,-0.003981507384218276,-0.006230555819487199
1772565954507462400,2.51946240234375,0.10543956559300421,-0.0030066344700753686,-0.001873027330264449
1772565954517490400,2.529490478515625,0.10110007508397102,0.0014151411946630105,0.0016027590215206145
1772565954527519500,2.53951953125,0.10933072781264781,-0.002660159119963646,-0.006264814282115548
1772565954537547500,2.549547607421875,0.10633914478123187,-0.0077480477103497826,-0.004120641860272735
1772565954547575600,2.559575439453125,0.10409516524672507,-0.004367739355983212,0.00008603431563824415
1772565954557604600,2.5696044921875,0.11008125391900539,-0.001082087015127763,-0.007965462453849614
1772565954567632400,2.57963232421875,0.10783493629693984,-0.0025798969579860567,0.003602280541975051
1772565954577660700,2.58966064453125,0.09855740486383438,-0.004133852968295104,-0.00818193648243323
1772565954587689500,2.599689453125,0.10963058754205703,-0.004288221546099521,-0.006235716051794588
1772565954597717500,2.609717529296875,0.10708499471247196,-0.0018463950516656041,-0.0074185600276570765
1772565954607746600,2.61974658203125,0.1078325982093811,-0.003798597698519006,-0.0038709140160586683
1772565954617774600,2.629774658203125,0.11097498788833618,0.0019786111631663514,0.0014812150010839104
1772565954627802600,2.639802734375,0.10678221237361431,-0.0007485076792072505,-0.0019797939066775144
1772565954637831400,2.64983154296875,0.11022387726008892,0.007268424666975625,-0.0015027327131479978
1772565954647860200,2.659860107421875,0.11426409256160258,-0.002482542097312398,0.00038415874568745493
1772565954657889300,2.66988916015625,0.10783084464371204,-0.006015812523686327,0.005357691108249128
1772565954667917300,2.679917236328125,0.10199497809708118,-0.0025752801483729854,-0.00031355946119874715
1772565954677945300,2.6899453125,0.11875322067439556,-0.0061475491445744405,0.0038003421310335394
1772565954687974400,2.699974365234375,0.11112111836075782,-0.0019282874817261471,0.0020209113683551548
1772565954698002400,2.71000244140625,0.10633154599666594,-0.0006301054639276117,-0.009340111807920038
1772565954708031500,2.720031494140625,0.10348901604712009,-0.0006056423095287754,-0.007409436006285249
1772565954718059300,2.730059326171875,0.1003513025432825,0.0038469394854269917,-0.006861620264640078
1772565954728087600,2.740087646484375,0.11860942828953265,-0.00043632732434198255,-0.0066026040022727096
1772565954738116400,2.750116455078125,0.11292436839044094,0.005918923453893512,0.0013801292467862367
1772565954748144400,2.760144287109375,0.11382277853488922,0.0064668670597020535,0.0041512561942450696
1772565954758173200,2.770173095703125,0.10065583844780922,-0.007715145521168597,-0.005056835864996537
1772565954768201500,2.780201416015625,0.10469663827121257,-0.00013800653147045522,-0.002460590560408309
1772565954778229200,2.790229248046875,0.10319850866794586,0.0009757725298637523,-0.004024478876264765
1772565954788258300,2.80025830078125,0.11337445024549961,0.0011298534133005887,-0.0028096688595600425
1772565954798286300,2.810286376953125,0.10798691198825836,0.004676307548233308,-0.0068704794245306395
1772565954808314400,2.820314453125,0.10649112047255038,-0.0038515334621537474,0.00917853717119433
1772565954818343400,2.830343505859375,0.11023147604465484,0.0032555905627319587,-0.0009898056217934935
1772565954828371200,2.84037109375,0.10978490132093428,0.0059867599591379985,-0.0026635749197565016
1772565954838400300,2.850400146484375,0.11008651461601257,-0.004839032962429337,-0.00673805781705305
1772565954848428300,2.86042822265625,0.10843933193087577,-0.0003852181916125118,-0.006029900414543226
1772565954858456300,2.870456298828125,0.11816811426281928,-0.006341825041081756,-0.003520228281710297
1772565954868485400,2.8804853515625,0.11248305436372756,0.004439434619015082,-0.004240861573303118
1772565954878513400,2.890513427734375,0.11158405969738959,0.0070631524524185805,-0.0009851477129850536
1772565954888542500,2.90054248046875,0.10410101046562194,-0.004748632998927496,0.0102350148210302
1772565954898570200,2.9105703125,0.11203355703055858,0.0034258873620303344,0.0012299801863729953
1772565954908598500,2.9205986328125,0.11652268514335155,0.0033183536006370557,-0.002070897123077884
1772565954918627300,2.93062744140625,0.1024555813461542,-0.006294401136203669,-0.005586385297589004
1772565954928655400,2.9406552734375,0.11158347517549991,0.0036137289511738342,-0.0012531601325608788
1772565954938684200,2.95068408203125,0.10814239481091499,0.0024229893632233142,-0.003903190584154799
1772565954948712400,2.96071240234375,0.10963818632662296,-0.005449904002924449,-0.010564703433122486
1772565954958740200,2.970740234375,0.10694061780571937,-0.0006546416835626587,-0.0025159648763015863
1772565954968769300,2.980769287109375,0.11217559584975242,-0.003433435914246365,-0.005031062102923169
1772565954978797300,2.99079736328125,0.10005319637954234,-0.0049856657583499326,0.004380973296891898
1772565954988826400,3.000826416015625,0.10349603030979633,0.007689038398955017,-0.004781188128236681
1772565954998854400,3.0108544921875,0.10394377407729626,-0.007157082380144856,-0.0101560313006863
1772565955008882200,3.020882080078125,0.10289689537286757,0.0021311257106019182,0.0006513035155832767
1772565955018911500,3.030911376953125,0.1150169567555189,-0.0017351851955754681,0.0060730545696802436
1772565955028939300,3.040939208984375,0.1011006596058607,-0.007616046227980405,-0.0029137137559242547
1772565955038967300,3.05096728515625,0.10035247158706187,0.002653665447095409,-0.00937165772365406
1772565955048996400,3.060996337890625,0.11172492947280406,-0.0026100226681912315,0.0011264102140441537
1772565955059024400,3.0710244140625,0.10633622217178344,0.0038031962418230247,-0.0072314308245666325
1772565955069053400,3.081053466796875,0.10528934346735477,0.00601233735838905,-0.003595010550972074
1772565955079081200,3.091081298828125,0.10603694696426391,-0.008607230956107378,-0.001532214535959065
1772565955089109500,3.101109619140625,0.11172492947280406,-0.003422069703438319,0.007357011699303985
1772565955099138300,3.11113818359375,0.10604045409560203,0.0008668413958279415,-0.0002148848596960306
1772565955109166300,3.121166259765625,0.10798574294447898,-0.006045531808515079,-0.00011365297492593526
1772565955119195100,3.131195068359375,0.10738719252943991,0.0018709221381461247,-0.0011498824211768806
1772565955129223400,3.141223388671875,0.10753683013319969,-0.000441980746993795,-0.005221972431987524
1772565955139251200,3.151251220703125,0.10334697722792625,-0.002722054508188739,-0.0034233985774219035
1772565955149280300,3.1612802734375,0.1022989294797182,-0.0029792395730735733,0.003131192431505769
1772565955159308500,3.17130859375,0.09721241999566554,-0.0016883184131234884,0.009156644999794662
1772565955169337300,3.18133740234375,0.10304945558607578,-0.001225395342800766,-0.009247921746131033
1772565955179365400,3.191365478515625,0.11023264508843421,-0.000934792065504007,-0.0059836044542491435
1772565955189393400,3.201393310546875,0.10723930849134922,-0.003687323910347186,0.0032061756301671263
1772565955199422500,3.21142236328125,0.1145727201193571,-0.001741135445749387,0.0008983370792120694
1772565955209450200,3.2214501953125,0.11412205374240875,0.004436936701252125,-0.0021510953529737887
1772565955219479300,3.231479248046875,0.10424597189426421,0.0076107307320460674,0.0009533186694607138
1772565955229507300,3.24150732421875,0.11487082628309726,-0.0005256130429916084,0.0002962612665258348
1772565955239535400,3.251535400390625,0.11143149948418139,0.0012351541184121742,0.003076393504347652
1772565955249564400,3.261564453125,0.1260965691745281,0.0018110634433804078,0.0011667056918144225
1772565955259592200,3.27159228515625,0.10783961247205734,-0.001904705676739104,0.00458493490377441
1772565955269620500,3.281620361328125,0.10215221448540687,0.0022522267730440944,-0.0036953656529076393
1772565955279649300,3.291649169921875,0.11038286721408366,0.009127149477251805,0.001213951500179246
1772565955289677300,3.30167724609375,0.10798808103203773,-0.012227567744581029,-0.007921477181650698
1772565955299706000,3.3117060546875,0.10035656324028969,-0.008289383478858508,0.00020261903316713868
1772565955309734400,3.321734375,0.11875848137140273,0.00039349739619065074,-0.001383892106451094
1772565955319762200,3.33176220703125,0.11067805076837539,-0.0034350296497112137,0.004046882504317909
1772565955329791200,3.341791259765625,0.10753507656753063,-0.002539249853766523,0.00594800341790542
1772565955339819500,3.351819580078125,0.10454173997044562,-0.006082644381932914,-0.003084321082476526
1772565955349848300,3.361848388671875,0.11486322749853134,-0.0037734449909534304,-0.006305694281775504
1772565955359876400,3.37187646484375,0.11860592115819453,-0.0010619392762426286,0.000833619546238333
1772565955369904400,3.381904296875,0.09990414329767226,-0.004425652688834816,0.00007059928448870777
1772565955379933400,3.391933349609375,0.10888415308892727,-0.00045715091666206713,0.012373999611102044
1772565955389961200,3.401961181640625,0.09960662165582179,0.00490666397169698,-0.0003356982277706265
1772565955399990300,3.411990234375,0.10289864893853663,0.002380985985556617,-0.0038792525861412286
1772565955410018600,3.4220185546875,0.1018500166684389,0.006021863238560035,-0.00008031696090474725
1772565955420046300,3.43204638671875,0.10469371566176414,0.0005942760987207293,0.000049994887877255675
1772565955430075400,3.442075439453125,0.11082885741591453,-0.007336028276779688,-0.000007050795294344425
1772565955440103200,3.452103271484375,0.11217442680597305,-0.0026252887359820305,-0.002156228185817599
1772565955450132500,3.462132568359375,0.11142390069961547,0.002924239716515876,-0.0010386953979730606
1772565955460160300,3.47216015625,0.1061854155242443,0.000023070348333567378,0.002351714225299656
1772565955470188300,3.482188232421875,0.10752981587052345,0.0036726880302187055,0.004396773654222488
1772565955480217300,3.49221728515625,0.10932605163753031,0.0012732439393643288,-0.005758380863629281
1772565955490245400,3.502245361328125,0.10902560738623142,-0.0003257476559141651,-0.0026205212293192743
1772565955500273200,3.512273193359375,0.10304302584528922,-0.0030986418687738476,0.004090922575443983
1772565955510302200,3.52230224609375,0.11232172632217406,0.004850431139278225,-0.007334288410842418
1772565955520330500,3.53233056640625,0.11067688172459601,0.0007674178756540641,-0.006723097709938884
1772565955530359300,3.542359375,0.10768588321506976,0.0013739643674809485,-0.0033885829923674463
1772565955540387300,3.55238720703125,0.10304711749851703,-0.003877279824763536,-0.001178469194844365
1772565955550415400,3.562415283203125,0.10768588321506976,0.003000565488892607,0.0018098441672511397
1772565955560444400,3.5724443359375,0.10888415308892727,0.00374047886969056,-0.009050682140979916
1772565955570472200,3.58247216796875,0.09496902498304843,-0.002578558950847946,-0.001930767133180052
1772565955580501200,3.592501220703125,0.11292612195610999,-0.00399400610618759,-0.008183324721921235
1772565955590529500,3.602529541015625,0.1090349597364664,-0.0044007237435551355,-0.008955368540342897
1772565955600557300,3.612557373046875,0.10679156472384929,-0.006764329336048104,0.005656290462333709
1772565955610586400,3.62258642578125,0.10888999830782413,-0.0031095605550101025,-0.0024098650201689453
1772565955620614400,3.632614501953125,0.10679448733329773,0.006159280681563541,-0.0013744210252072662
1772565955630643500,3.6426435546875,0.1162199028044939,0.004555243018409237,-0.001800217822380364
1772565955640671200,3.652671142578125,0.11068272694349288,0.0059835816213628275,0.0038699915674515065
1772565955650699300,3.66269921875,0.10425064806938171,0.0021046623953618108,0.005519384475983679
1772565955660728600,3.672728515625,0.10679624089896678,-0.0013600134739419445,-0.005351407497934997
1772565955670756400,3.68275634765625,0.10994038414359092,-0.001136849409667775,-0.002889063371857628
1772565955680785400,3.692785400390625,0.11038754338920116,0.0017078222646145149,-0.008371960895508528
1772565955690813200,3.702813232421875,0.10485329013764857,0.0033099830645136534,-0.001994005095120519
1772565955700841500,3.712841552734375,0.11173545086681842,0.0031821052014129234,-0.0013062146272044628
1772565955710870300,3.722870361328125,0.11802256831228733,0.00434240398532711,0.00044464762811549007
1772565955720898300,3.732898193359375,0.1123375084131956,-0.0006369324969360604,-0.004329096979182213
1772565955730927000,3.742927001953125,0.11174129608571529,0.0019663453366374596,0.009070555885229259
1772565955740955400,3.752955322265625,0.1121896243751049,0.005745361551851965,-0.004147849527606741
1772565955750983200,3.762983154296875,0.11473229459524154,0.004877145616267808,-0.0009644702511373907
1772565955761012200,3.77301220703125,0.11413374418020247,-0.0030510627002688123,0.0027342290031723677
1772565955771040500,3.78304052734375,0.11009352887868881,0.0033543427960481494,-0.002195875209616497
1772565955781068300,3.793068359375,0.11997019524872302,-0.003201088463095948,-0.007287015203014015
1772565955791097300,3.803097412109375,0.12086743634939193,-0.006302767105749808,-0.007473349821660667
1772565955801125400,3.81312548828125,0.10844517714977264,-0.005335232681268826,-0.004354962072800845
1772565955811154400,3.823154541015625,0.10934183372855186,0.0017139186452608554,0.012088625064771623
1772565955821182200,3.83318212890625,0.10530044938325882,0.0026396003891248254,-0.002688426233222708
1772565955831210500,3.84321044921875,0.10739537583589553,0.0009546612431760877,-0.004773909004079178
1772565955841239600,3.853239501953125,0.10649696569144725,0.000589376161317341,-0.003602518003992736
1772565955851267300,3.863267333984375,0.11128536901175975,0.010862238774704746,-0.003262819454539567
1772565955861296400,3.87329638671875,0.10530161842703818,0.0018327090196078642,-0.011377453721268102
1772565955871324400,3.883324462890625,0.11143968279063701,0.011322581728873774,-0.009428328947490081
1772565955881352400,3.8933525390625,0.10679857898652553,-0.00017785448466893286,-0.0057858899250626565
1772565955891381200,3.90338134765625,0.11158522874116897,0.0027074277612147853,-0.0048502987085375935
1772565955901409300,3.9134091796875,0.10619885952770709,0.003192083172732964,0.0033860257091000673
1772565955911438300,3.923438232421875,0.10365502026379107,-0.0013193024376407265,0.0037267563050147143
1772565955921466400,3.93346630859375,0.11009235983490943,-0.007774638889753259,-0.004934378529107198
1772565955931494100,3.943494140625,0.10620412022471427,-0.004360661161225289,-0.007315793772926554
1772565955941523200,3.953523193359375,0.1027653779476881,0.0006411383145954459,-0.0047439796566963194
1772565955951551500,3.963551513671875,0.11413900487720965,0.00602756232698448,0.006263097249064594
1772565955961579300,3.973579345703125,0.10366787974536418,0.004577066691149957,0.0021988160853739828
1772565955971608300,3.9836083984375,0.10680968490242958,0.006109208161872812,-0.0021212208045180885
1772565955981636400,3.99363623046875,0.11294599570035933,0.0013031824199017136,-0.004888877153256908
1772565955991665400,4.00366552734375,0.11204875459969044,0.0022552589803468436,-0.0024134178172796963
1772565956001693200,4.013693115234375,0.11354396159350871,-0.003026923772855662,-0.0060687254544347525
1772565956011721500,4.023721435546875,0.11070026260018348,0.006123679645219818,-0.001721307367272675
1772565956021750500,4.03375048828125,0.10291910720467567,0.004813396197673864,0.0015805197902489453
1772565956031778300,4.0437783203125,0.11009995861947536,-0.0010900374261429533,0.005525257094344124
1772565956041807400,4.053807373046875,0.10890227326750755,-0.005648093456146307,-0.007133112416090443
1772565956051835400,4.06383544921875,0.10366554165780544,-0.002707080701342784,-0.0029470589030999687
1772565956061863400,4.073863525390625,0.11473930885791778,0.0038145715857855972,0.0009334083925932645
1772565956071892200,4.083892333984375,0.11114859088957309,-0.00397621015459299,0.0023330825900658965
1772565956081920500,4.09392041015625,0.11309446426033973,0.005403745039948262,0.0011929635110776871
1772565956091949300,4.10394921875,0.11429273413419723,-0.0020831994822248815,0.0038126901559531684
1772565956101977300,4.113977294921875,0.1150432602405548,-0.006979374025948345,0.0015303422392811624
1772565956112005000,4.124005126953125,0.11130173562467098,-0.003497066601831466,-0.009878246405767276
1772565956122034400,4.134034423828125,0.1011269630908966,0.005287626113300211,-0.007139286428550258
1772565956132062500,4.1440625,0.1108516537696123,-0.007796097236312925,-0.004986218314198777
1772565956142091300,4.15409130859375,0.10770926409065723,-0.0013831112217390909,-0.007343430698523297
1772565956152119300,4.164119384765625,0.10396832399666309,-0.0007128746768226847,-0.009617458311421797
1772565956162147300,4.174147216796875,0.10412088420987128,0.005872371765272692,-0.0031768582041375336
1772565956172176400,4.18417626953125,0.10397124660611153,0.005134102352289483,0.00251983733382076
1772565956182204200,4.1942041015625,0.10711129819750785,-0.0011059747807914391,-0.010299175231577829
1772565956192232400,4.204232421875,0.10427169085741042,0.005947021603793836,0.0003341090588830411
1772565956202261500,4.214261474609375,0.11519640497565269,-0.002507671971991658,-0.004850371773773804
1772565956212289300,4.224289306640625,0.10726736554205417,-0.0019685372937237842,-0.002829999261535704
1772565956222318300,4.234318359375,0.10113105474412441,0.008437829205952584,0.007862632267037406
1772565956232346400,4.244346435546875,0.11130874988734721,0.003765910138469189,0.008430038625141606
1772565956242374400,4.25437451171875,0.10577274307012557,0.006191210189787671,0.0030776812791358677
1772565956252403200,4.2644033203125,0.10697101294398308,-0.006451007336867041,0.0013192841713316739
1772565956262431500,4.274431396484375,0.10502513957321644,-0.0019480698944302276,0.002015860733902082
1772565956272460300,4.284460205078125,0.11145955653488636,0.0052253471325850115,-0.003658604705939069
1772565956282488300,4.29448828125,0.10427753607630728,-0.00017484967682976273,0.0006498696103226393
1772565956292516400,4.304516357421875,0.12103753221929073,0.0008063296805135905,-0.004414683770248666
1772565956302545400,4.31454541015625,0.10068389549851417,-0.0017074432387016712,0.00202638212791644
1772565956312573400,4.324573486328125,0.10951309864223002,-0.003722915813536383,-0.006114811352174729
1772565956322602200,4.334602294921875,0.114599023604393,-0.000243882625317201,0.003919411066593602
1772565956332630300,4.34463037109375,0.11130641179978847,-0.005753585957502946,-0.00012223814018070696
1772565956342658300,4.354658203125,0.1053185695618391,0.0019207069634692743,-0.00307101407633163
1772565956352687400,4.364687255859375,0.10995908884406089,0.004776242525060661,0.00408229174441658
1772565956362715100,4.374715087890625,0.10487141031622886,0.00276064208606258,0.006686747754923999
1772565956372743400,4.384743408203125,0.10487257936000824,0.010613835237897001,-0.0036538463324308395
1772565956382772500,4.3947724609375,0.10666764608323573,-0.007187345087667927,-0.002222553153987974
1772565956392800300,4.40480029296875,0.10756605622768402,-0.0013738091038540004,0.002364646772108972
1772565956402829300,4.414829345703125,0.114599023604393,0.00332977461037226,-0.0005337141510564833
1772565956412857300,4.424857421875,0.1089133791834116,-0.003786144642322324,-0.010022257986338809
1772565956422885400,4.434885498046875,0.10756722527146338,-0.0040021757129114115,-0.003235547855123877
1772565956432914200,4.4449140625,0.1036760630518198,-0.00026713563674129543,0.003324733109073713
1772565956442942500,4.4549423828125,0.11100655207037925,-0.009249351084814407,-0.0009766356129664927
1772565956452971300,4.46497119140625,0.10262626173794269,0.0029898568652104583,0.00280934919915162
1772565956462999300,4.474999267578125,0.09918342780768871,-0.0034707585502183062,0.0025997433027718213
1772565956473027300,4.48502734375,0.11070669234097004,0.002236997237871401,0.0031027517883107066
1772565956483056400,4.495056396484375,0.09993220034837723,0.004772447699354961,-0.0032637053705286234
1772565956493084400,4.50508447265625,0.1093570312976837,-0.0031631950049661097,-0.004921966572105884
1772565956503113200,4.51511328125,0.11145195775032042,0.0006159810404526069,-0.008379413549602031
1772565956513141500,4.5251416015625,0.11519406688809394,-0.0004953366357367486,-0.0032110892673023043
1772565956523169300,4.535169189453125,0.10591478188931941,-0.004735718718427233,-0.004823821693565696
1772565956533198300,4.5451982421875,0.10486614961922168,0.012597976526129059,0.0010955218854360282
1772565956543226400,4.555226318359375,0.10770867956876753,-0.0024661252520512787,0.00010810001697391271
1772565956553254400,4.56525439453125,0.10546411551237106,0.0002135468525579199,-0.005133992754435167
1772565956563283500,4.575283447265625,0.10666296990811824,0.007367665524058975,-0.00023995536887086926
1772565956573311200,4.585311279296875,0.11040274095833301,-0.006420689830416813,0.002396165288379416
1772565956583340300,4.59534033203125,0.11833470300137997,0.0016385290212230755,0.011561879510618746
1772565956593368300,4.605368408203125,0.1114531267940998,-0.0062699151489185164,0.0057607646169606595
1772565956603396400,4.615396240234375,0.11025777952969074,-0.003283213788596913,0.001839590851543471
1772565956613425200,4.625425048828125,0.11833821013271809,0.005912795107206329,-0.0023259039306081832
1772565956623453400,4.635453369140625,0.1078629933476448,-0.005925188797898591,0.005214483245275914
1772565956633482500,4.645482421875,0.11175357104539871,0.0047282980303745715,0.007703998506069183
1772565956643510300,4.65551025390625,0.10307517454922199,-0.004192981010698713,-0.004458458979893476
1772565956653538800,4.665538818359375,0.11594576203823088,0.0011025270149577408,-0.004245976139837876
1772565956663568000,4.67556787109375,0.10561842929124832,0.006161778599326499,-0.006774307307368144
1772565956673595600,4.685595703125,0.1075625490963459,0.008337903362279757,0.0012163991855923086
1772565956683624700,4.695624755859375,0.1141460191398859,0.005938893096265383,0.0014712963952682912
1772565956693652700,4.70565283203125,0.10546703812181948,-0.002242582161864266,0.007961462132167071
1772565956703680800,4.7156806640625,0.10322130502164363,0.007002791434153914,0.0019075689206831156
1772565956713709800,4.725709716796875,0.10217384179532528,0.0073247670972486955,0.0035714196128305044
1772565956723737600,4.735737548828125,0.1157885256499052,0.005141281011747196,0.00225050973999314
1772565956733767000,4.745766845703125,0.11234569171965121,-0.009844503966369666,0.0009984821185935288
1772565956743794700,4.755794677734375,0.1113005665808916,0.006735349836735986,-0.0006652407093904912
1772565956753822700,4.76582275390625,0.1008265188395977,-0.0050903682418400415,-0.0049507451420184225
1772565956763851500,4.7758515625,0.10696166059374809,0.01086512028495781,-0.007302596364635974
1772565956773879800,4.7858798828125,0.10755962648689746,0.0035771095681004224,-0.0006561440874822438
1772565956783907600,4.795907470703125,0.10127776973843573,0.0035823702651076018,-0.0003702306850347668
1772565956793936600,4.8059365234375,0.11100538302659987,0.0064625927433837205,-0.001958376659313217
1772565956803964700,4.815964599609375,0.10023089103400706,-0.005209368678741157,-0.0020047822174616156
1772565956813993700,4.82599365234375,0.10786240882575511,0.005807078843563795,-0.0009738500008359551
1772565956824021800,4.836021728515625,0.10487141031622886,0.0030462495278334245,-0.005615300864819437
1772565956834049800,4.8460498046875,0.11010931096971034,-0.005516096540354192,0.0021630506522487846
1772565956844078800,4.856078857421875,0.10367723209559916,0.0008095308511750772,0.0004845229807775467
1772565956854106600,4.866106689453125,0.11385258915126323,0.0025866509257582945,-0.0029362361149862406
1772565956864135700,4.8761357421875,0.10397592278122901,0.004889393176487647,0.0015250358765013514
1772565956874163700,4.886163818359375,0.11145955653488636,0.0007370044710813089,0.00044575273981317876
1772565956884191700,4.896191650390625,0.11549977183640002,0.002055288561992347,0.008830938443075864
1772565956894220800,4.906220703125,0.10771803191900253,-0.007018130567180924,-0.011573907875129952
1772565956904248800,4.916248779296875,0.10412497586309909,-0.003377298979950137,0.007447439062269404
1772565956914278000,4.92627783203125,0.11160744057297706,0.009785298292152583,0.00013974639740772543
1772565956924305700,4.9363056640625,0.11175649365484713,-0.0025391037232941017,0.00041983284726738925
1772565956934333700,4.946333740234375,0.11295242544114589,0.004501978461211547,0.007680855092499404
1772565956944362800,4.95636279296875,0.11474807668626308,0.007880894009512848,-0.00532472955356352
1772565956954390800,4.966390869140625,0.10981120480597019,0.0039743652573786675,-0.004688742338120937
1772565956964418600,4.97641845703125,0.11415244888067244,0.007724589202948846,0.00822966634798795
1772565956974447600,4.986447509765625,0.11430208648443221,-0.0026170825966401025,-0.006717243357887491
1772565956984475600,4.9964755859375,0.11026128666102886,-0.0001643145830836147,-0.003359356897883117
1772565956994504700,5.006504638671875,0.1035275944918394,-0.0021204079537652434,0.0009828004922717809
1772565957004532700,5.01653271484375,0.11160685605108737,0.0021247325024334714,-0.0012940949311479925
1772565957014560800,5.026560791015625,0.10696692129075526,0.009134725428931414,-0.0032903833149001
1772565957024589800,5.03658984375,0.11010814192593096,0.004116417776304297,-0.0028933924871031194
1772565957034617600,5.04661767578125,0.10382511613368987,0.006162646249006502,0.002558817637339234
1772565957044646700,5.056646728515625,0.10113047022223472,0.0006183830600930378,-0.005285977578908205
1772565957054674700,5.0666748046875,0.10277765290737151,-0.002606816930952482,-0.00046199148856103416
1772565957064702700,5.07670263671875,0.11399871962368488,0.008698498569289222,-0.0015840908536687492
1772565957074731800,5.086731689453125,0.105022216963768,-0.000022937917592935263,-0.0075771937886253
1772565957084759800,5.096759765625,0.11040858617722987,-0.001822192192170769,0.0009217179547995328
1772565957094788900,5.106788818359375,0.11699556335210799,-0.001012359946896322,0.006590867898706347
1772565957104816600,5.116816650390625,0.10622107135951518,0.0038880021481774744,-0.001211184154357761
1772565957114844700,5.1268447265625,0.10382511613368987,-0.007295504470146261,-0.009491046319622547
1772565957124873700,5.136873779296875,0.10651742395758629,0.00027157434984110293,-0.00730473352279514
1772565957134901800,5.14690185546875,0.11160393344163894,-0.0016963647222612052,0.004667233759211376
1772565957144930600,5.1569306640625,0.0978372738957405,0.006189716919022612,-0.012904754620091989
1772565957154958800,5.166958740234375,0.11115502063035965,0.0006155746150761842,-0.010283986795600502
1772565957164986600,5.176986572265625,0.11938450431525706,-0.0035287906140787527,0.010148258986184372
1772565957175015700,5.187015625,0.11429741030931471,0.002766560370195657,0.0019607512794900684
1772565957185043700,5.197043701171875,0.11010638836026192,0.004160453280853107,0.0021996106698177753
1772565957195071700,5.20707177734375,0.10292495242357254,0.004835233570146374,0.002094332797592506
1772565957205100800,5.217100830078125,0.11759060663580893,-0.00045884055024944244,-0.012376666492223739
1772565957215128600,5.227128662109375,0.10726561197638511,-0.006546576665830798,-0.0023769582644104954
1772565957225157600,5.23715771484375,0.1027782374292612,0.009784033350250684,0.001029726640228182
1772565957235185700,5.247185546875,0.1024824693530798,0.004701332391635515,-0.003439929587114602
1772565957245213700,5.257213623046875,0.10741992575526237,-0.0019599247290054333,-0.003049140171241015
1772565957255242800,5.26724267578125,0.10442717368006706,0.0013169506503501907,-0.006637839712435379
1772565957265270800,5.277270751953125,0.11191022291183471,0.0029159970445558426,0.006330600394168868
1772565957275299800,5.2872998046875,0.1101157407104969,0.00931078524873592,-0.004052526793815196
1772565957285327600,5.29732763671875,0.10847206515669822,0.0021982909289887174,-0.009921327495668084
1772565957295356000,5.30735595703125,0.10368366183638572,-0.0077880554937524715,0.008328194819018244
1772565957305384700,5.317384765625,0.10757482405602932,0.002497059246432036,0.0071588131129276
1772565957315412700,5.327412841796875,0.09934417132735252,0.0004280846523819491,-0.0012351221523713319
1772565957325441500,5.337441650390625,0.10981705002486705,-0.0005615611392073333,0.007632266710419207
1772565957335469800,5.3474697265625,0.10308101976811886,0.006603316388325765,0.004411788560263813
1772565957345497600,5.35749755859375,0.11460428430140018,0.002297234958549961,0.0056050443322863425
1772565957355526700,5.367526611328125,0.11595043821334838,-0.0025254405241226774,-0.004302866559382528
1772565957365554700,5.3775546875,0.1063730470508337,0.0045356843679910525,-0.006381627328507602
1772565957375582700,5.387582763671875,0.10771686287522315,0.00004474789060186595,-0.010308025258313864
1772565957385611800,5.39761181640625,0.11430091744065284,-0.006002194990287535,-0.0010224109834525734
1772565957395639600,5.4076396484375,0.11325286969244479,-0.002190979838790372,0.008697411723900586
1772565957405668600,5.417668701171875,0.10861468849778175,-0.000599235401628539,-0.004469921088824049
1772565957415696600,5.427696533203125,0.10547288334071636,0.005476627613068558,-0.011634433290176093
1772565957425724700,5.437724609375,0.10816577568650244,0.0010911334046861156,-0.005093258885247633
1772565957435753700,5.447753662109375,0.11070903042852878,-0.002201309436559677,0.008359503272734582
1772565957445781800,5.45778173828125,0.11055880830287933,0.004256753262178972,0.0062140248097945
1772565957455810800,5.467810791015625,0.10068389549851417,0.0032555677298456427,-0.0036056963417679068
1772565957465838600,5.477838623046875,0.10532324573695659,0.008152883917884901,-0.004674047092488035
1772565957475867000,5.487866943359375,0.10427578251063824,0.0015743092451710253,-0.004236194531340152
1772565957485895700,5.497895751953125,0.10951309864223002,0.0032853829127969217,-0.003041952378628775
1772565957495923700,5.507923828125,0.1108610061198473,0.01007296526026912,-0.00883039958695881
1772565957505952500,5.517952392578125,0.11475099929571152,-0.004159603897482157,-0.007223658510064706
1772565957515980800,5.527980712890625,0.10951368316411972,0.006694867129297927,-0.00006981383319944142
1772565957526008600,5.538008544921875,0.09888473712205886,0.006945531121850945,-0.004222741394722834
1772565957536037600,5.54803759765625,0.1068172836869955,-0.008584000777569599,-0.002480729166138917
1772565957546066000,5.55806591796875,0.1105599773466587,0.0017140739088878035,-0.008338515283633023
1772565957556093700,5.56809375,0.10517302361130713,0.0019058244881685821,-0.007455585836106911
1772565957566122800,5.578122802734375,0.11280161879360676,0.006624993930594064,0.007478318257723003
1772565957576150500,5.588150634765625,0.10427227537930012,0.0031374897415516897,0.004277375925099477
1772565957586179800,5.598179931640625,0.10531915408372879,-0.002575088352127932,-0.006399601376615464
1772565957596207600,5.60820751953125,0.10292553694546222,0.0035495000419672575,-0.004822351255686953
1772565957606235600,5.618235595703125,0.10456979702115059,-0.0033407206960720938,0.00684496139078401
1772565957616264700,5.6282646484375,0.10636720183193683,-0.0015768482621293515,-0.0031253472126089032
1772565957626292700,5.638292724609375,0.11444763243496417,0.007387393137835897,-0.0048655602097511285
1772565957636321800,5.64832177734375,0.10023206007778644,-0.0004249108811840415,-0.0023191636625677346
1772565957646349600,5.658349609375,0.1069657522469759,0.0015627969038905574,0.0014666567527689038
1772565957656377300,5.66837744140625,0.10426993729174136,0.003985863898927346,-0.0008719148631673306
1772565957666406100,5.67840625,0.10292027624845504,-0.0013563236795132978,0.001084881760412827
1772565957676434200,5.68843408203125,0.10366787974536418,-0.002461905734660104,0.00811932870815508
1772565957686463200,5.698463134765625,0.11084873116016387,0.0018886769905453547,-0.00482078035310842
1772565957696491300,5.7084912109375,0.09842822552621364,-0.005281109607545659,-0.0004551050900481641
1772565957706519000,5.71851904296875,0.10411679255664348,0.004000043121329508,0.010096209138538688
1772565957716548000,5.728548095703125,0.11025251883268355,-0.00169040533893276,-0.0003484207120258361
1772565957726576400,5.738576416015625,0.1060638349711895,0.007099342577229254,-0.011219678476825356
1772565957736604200,5.748604248046875,0.10247428604662417,0.0023439053781796246,-0.0024599055738188324
1772565957746633200,5.75863330078125,0.1053185695618391,-0.0013471676921006292,-0.0020935747457668185
1772565957756661200,5.7686611328125,0.10427110633552074,0.012813678803155197,0.005050515722064301
1772565957766690300,5.778690185546875,0.10097791000902652,0.0037277883514761924,-0.008509506202675403
1772565957776718000,5.788718017578125,0.10845803663134575,0.0034663107039639724,-0.00025133527941070496
1772565957786746400,5.798746337890625,0.10336860453784465,0.0002284338944358751,0.008716536549478768
1772565957796775200,5.808775146484375,0.10920330204069614,0.0018726985367015004,0.005207761243544519
1772565957806803200,5.81880322265625,0.10740765079557894,0.012459572702436706,-0.003460323921171948
1772565957816832300,5.828832275390625,0.09438801022469998,0.004738568262639456,-0.006938914151396602
1772565957826860300,5.8388603515625,0.10994915197193622,0.005617785082850605,-0.0031085970072075725
1772565957836888300,5.848888427734375,0.1088999351799488,0.005983362425654195,0.0013118223840836434
1772565957846917000,5.858917236328125,0.10665478660166262,0.0004335508453659713,0.005629548585880547
1772565957856945200,5.868945068359375,0.10575813002288341,0.005803626511152834,-0.0034313261555507777
1772565957866974200,5.87897412109375,0.10755261222422122,0.0026139453580603,-0.0038736904950346794
1772565957877002200,5.889002197265625,0.11219137794077395,-0.0037668782528489826,0.005155610931199044
1772565957887030000,5.899030029296875,0.11503566145598888,0.0070900358927669,0.007193062442401424
1772565957897059300,5.909059326171875,0.09782733702361583,-0.0018590125046437605,-0.008938435671851038
1772565957907087400,5.91908740234375,0.10321312171518802,-0.000902903656475246,-0.004318995710276067
1772565957917115100,5.929115234375,0.10620996544361114,0.0057451058235252275,-0.0024561061815358697
1772565957927144200,5.939144287109375,0.11234627624154091,-0.0017685212095966561,-0.0036408772530034184
1772565957937172200,5.949172119140625,0.10471417392790316,-0.00020934560147579758,0.003073827087925747
1772565957947201300,5.959201171875,0.11414251200854778,-0.0008489130134927108,0.007624311732826754
1772565957957229000,5.96922900390625,0.1059106902360916,-0.0034564012313028796,-0.0017041370367631315
1772565957967257300,5.97925732421875,0.09677928927540778,-0.0032900088555645195,-0.004153831743821501
1772565957977286100,5.9892861328125,0.10546060838103294,-0.003207815031404607,0.0038633334978017955
1772565957987314200,5.999314208984375,0.1151870526254177,0.0007207017902517691,0.00819733498096466
1772565957997343200,6.00934326171875,0.10486205796599388,0.0047424498533131555,0.0037281810771208255
1772565958007371300,6.019371337890625,0.10755495031177997,-0.009648807864333503,0.0005686302008107304
1772565958017399300,6.0293994140625,0.09917524450123309,-0.006757269407599233,0.003514830587385222
1772565958027428000,6.039427978515625,0.10171791472136973,-0.0002926125712925568,0.003899427724489942
1772565958037456400,6.049456298828125,0.11369009206593036,0.0009917738165939225,-0.007382684996677562
1772565958047485200,6.059485107421875,0.10471417392790316,-0.00302522500611376,-0.008358562557818368
1772565958057513200,6.06951318359375,0.10531097077727317,-0.0006717343822587281,0.00007070888234302402
1772565958067541200,6.079541259765625,0.10979776080250739,0.002831446866528131,-0.0015221771991346031
1772565958077570300,6.0895703125,0.10815408524870872,0.007168914381833746,0.0013022143055219202
1772565958087598300,6.099598388671875,0.10635960304737091,0.002378698130347766,-0.006753017924167215
1772565958097626000,6.109626220703125,0.10815700785815716,-0.0009417926284484565,-0.0028167013885453344
1772565958107655200,6.1196552734375,0.10306991385221481,0.00016453377879224715,0.0006738350077997893
1772565958117683200,6.12968310546875,0.1065121632605791,0.001861177062266506,0.005622808317840099
1772565958127712300,6.139712158203125,0.10860592066943645,0.00022405911341775208,0.0029835549885872748
1772565958137740000,6.149739990234375,0.11040098739266395,-0.0041912594110704955,-0.007338681458169594
1772565958147768300,6.159768310546875,0.10621464161872864,0.0005347233646316454,-0.001154759525693953
1772565958157797000,6.169797119140625,0.10741174244880676,0.0010922978818882255,0.0022806674162391574
1772565958167825200,6.1798251953125,0.10815700785815716,0.0012380127957789227,-0.004030543290870264
1772565958177854200,6.189854248046875,0.10516367126107215,-0.0021437294638482853,-0.0022198588734027
1772565958187882200,6.19988232421875,0.10830489189624785,-0.002180782671761699,-0.0026982809069566425
1772565958197910300,6.20991015625,0.10890402683317661,0.0014498197823995724,0.0012740385238081216
1772565958207939000,6.21993896484375,0.10306640672087669,-0.00004840571898967027,-0.003157011859351769
1772565958217967400,6.22996728515625,0.09767945298552512,0.00027895393869839606,-0.002339548863470554
1772565958227996200,6.23999609375,0.10172142185270786,0.010863526549492962,0.0010127024401910603
1772565958238024200,6.250024169921875,0.10965279937386511,0.0023234014462679624,-0.001027890876168385
1772565958248052200,6.26005224609375,0.10306757576465606,-0.00348209279498551,0.005906785491527989
1772565958258081300,6.270081298828125,0.12206979787647723,-0.0030457106717163697,-0.011113176761893554
1772565958268109300,6.280109375,0.10351356596648692,-0.006140708411834202,-0.0010301741647999734
1772565958278137000,6.29013720703125,0.10037117628753185,0.006276180492923594,0.0017658132292795925
1772565958288166400,6.30016650390625,0.09738017777800559,0.006616034306003712,-0.0023372747079934923
1772565958298194200,6.310194091796875,0.10740414366424084,-0.005486030195653438,-0.005585124922264367
1772565958308223200,6.32022314453125,0.10276362438201904,-0.002699897475307807,-0.0038708957497496158
1772565958318251000,6.3302509765625,0.10381401021778583,-0.002721456286567263,-0.00009714023154228926
1772565958328279300,6.340279296875,0.10276771603524684,0.0015482706216163932,0.004277065397845581
1772565958338308000,6.35030810546875,0.10890402683317661,0.0013166172902099788,-0.004629943089280277
1772565958348336000,6.360336181640625,0.1008218426644802,-0.004220832565426826,0.0004877835169434547
1772565958358365200,6.370365234375,0.10725392153859138,0.004824264651560224,0.0012106726977042853
1772565958368393200,6.380393310546875,0.10815174716114997,0.004995479332888499,0.0049927028539124875
1772565958378421200,6.390421142578125,0.10156652355194092,0.0029894184737931937,0.001150567407766357
1772565958388450000,6.400449951171875,0.10949614750742911,-0.00011317348431330174,0.0022460892932023853
1772565958398478300,6.410478271484375,0.11099252354502677,-0.006085366061981767,0.0041909123511984945
1772565958408507100,6.420507080078125,0.10755261222422122,0.00008041742560453713,-0.002001759143313393
1772565958418535200,6.43053515625,0.1042600004196167,0.004494749569403939,-0.005903123096562921
1772565958428563200,6.440563232421875,0.1150344924122095,0.0008311124953208491,0.002924801405519247
1772565958438592300,6.45059228515625,0.12431436193287372,0.0006830640604486689,-0.0047548207111191
1772565958448620300,6.460620361328125,0.11010054314136504,-0.0038086989674251523,0.003967889850819483
1772565958458648300,6.4706484375,0.10845394497811793,0.0031744927171152085,-0.001273947192262858
1772565958468677400,6.480677490234375,0.10306991385221481,-0.005632005404448136,0.00281275586578995
1772565958478705200,6.490705078125,0.10800912382006644,-0.0011166240389691665,-0.001935973031260073
1772565958488734200,6.500734130859375,0.10830956807136535,0.0032411921446211635,-0.00027920966702513396
1772565958498762200,6.51076220703125,0.1101022967070341,0.0004985743390163406,-0.0067237826965283595
1772565958508790300,6.520790283203125,0.10127367808520793,0.00489491873497609,0.0037275143568404018
1772565958518819300,6.5308193359375,0.10845745210945605,0.0035409377095988017,0.0006623454994056373
1772565958528847000,6.54084716796875,0.10845803663134575,-0.003739145429129712,0.0006178396373987198
1772565958538876400,6.55087646484375,0.11115209802091121,0.001253552858205512,0.004815547055564821
1772565958548904200,6.560904296875,0.10487024127244948,0.000551226974860765,0.0006379965094383805
1772565958558932200,6.57093212890625,0.10591828902065753,-0.0016224638024112208,0.0006644552581012248
1772565958568961000,6.5809609375,0.11280161879360676,0.0031984626811696216,-0.001002372842421755
1772565958578989300,6.5909892578125,0.10995908884406089,0.0021249151655239984,-0.007123833131091669
1772565958589018000,6.60101806640625,0.10741583410203456,0.006472520482353866,-0.007244016311503947
1772565958599046100,6.611046142578125,0.11414894174933433,0.004145155247021466,-0.005227744585648179
1772565958609074200,6.62107421875,0.1030745900273323,-0.0019781910380581393,-0.007841269818600267
1772565958619103200,6.631103271484375,0.1014274073421955,0.007209209859604016,-0.000549934633495286
1772565958629131300,6.64113134765625,0.11070435425341128,-0.002708697269693948,0.0031585279630031433
1772565958639159300,6.6511591796875,0.10920680917203426,-0.0030322255690582093,0.005478056951751932
1772565958649188400,6.661188232421875,0.1029220298141241,0.0015096921768970786,-0.004952827501250431
1772565958659216400,6.67121630859375,0.1072615203231573,-0.0006620486718835308,-0.002208451563399285
1772565958669245400,6.681245361328125,0.10756079553067684,0.012089364850288256,0.003311015110975131
1772565958679273500,6.6912734375,0.11788520566821098,-0.0012228974250378087,0.007495954379113391
1772565958689301500,6.701301513671875,0.10561375311613082,0.0014496051532682031,-0.00002658661282621324
1772565958699330300,6.711330322265625,0.10306932933032512,0.004525418702303431,0.0017656853651162236
1772565958709358300,6.7213583984375,0.11638766058683395,0.0004474743394413963,-0.0027053408354055135
1772565958719387400,6.731387451171875,0.11444003365039825,0.002918147902446799,-0.007578901688521727
1772565958729415400,6.74141552734375,0.10396598590910434,0.01006645332109183,-0.018782615411235017
1772565958739443200,6.751443115234375,0.11129764397144316,0.0016662116125924513,-0.000843455953663215
1772565958749472300,6.76147216796875,0.11458908673226832,0.007286563111864961,-0.002487798227742314
1772565958759500300,6.771500244140625,0.098878891903162,0.008582347676600328,-0.004652730309823528
1772565958769529300,6.781529296875,0.10681202298998832,0.0003480371195357293,-0.00922265944071114
1772565958779557400,6.791557373046875,0.11923135958015918,0.0004919710682937875,-0.007013404159713536
1772565958789585400,6.80158544921875,0.10501695626676082,0.00684990699396003,-0.0014307543223258108
1772565958799614500,6.811614501953125,0.10262041651904583,0.013127644689730367,-0.011527374452818184
1772565958809642200,6.821642333984375,0.104865565097332,0.004264173950231633,-0.0053375251030549405
1772565958819670500,6.83167041015625,0.10785773265063762,-0.0046208190679084505,0.0070705411744303994
1772565958829699300,6.84169921875,0.10187632015347481,-0.0006660672598751262,-0.0024544530805666
1772565958839727400,6.851727294921875,0.10367255592048168,0.001979579277546145,-0.0025764994245022536
1772565958849756400,6.86175634765625,0.11579495539069175,0.01274783789217472,-0.0059137814878951755
1772565958859784400,6.871784423828125,0.10472294175624847,0.0059216177344787865,0.0010287037269212304
1772565958869812500,6.8818125,0.09200432995855808,-0.0015231179140508175,-0.007411326569272205
1772565958879841300,6.89184130859375,0.11265607284307479,0.001068364450451918,0.003293095861794427
1772565958889869600,6.90186962890625,0.1107119530379772,0.004947297376184724,0.013475841639470309
1772565958899898400,6.9118984375,0.08767068466842173,-0.0011666874255053699,-0.0014565463507082313
1772565958909926400,6.921926513671875,0.09575111527144908,0.003718002176401205,-0.006726193849323317
1772565958919954200,6.9319541015625,0.1199929916024208,0.0032521701963618395,-0.00040359409851953385
1772565958929983500,6.9419833984375,0.10742109479904174,0.002943072281149216,0.009243501299340278
1772565958940011300,6.95201123046875,0.10218319414556026,0.003950463791983202,0.001006099169468507
1772565958950040300,6.962040283203125,0.10338204854130745,-0.00418705359341111,0.0018620401453692465
1772565958960068400,6.972068359375,0.10652502274215221,0.00363044262395706,-0.007306505354773253
1772565958970096400,6.982096435546875,0.1074228483647108,0.00029394601185340433,0.010961694260919466
1772565958980125400,6.99212548828125,0.09425415471196175,-0.005496789051685482,0.0007871865886263548
1772565958990153200,7.0021533203125,0.10233224722743034,0.002528221569675952,-0.003667427333211526
1772565959000181500,7.012181396484375,0.10936638364791869,0.0049785921301692725,-0.007952109781932086
1772565959010210300,7.022210205078125,0.11370528963506221,0.0028427491452544928,0.008003903901251032
1772565959020238300,7.03223828125,0.0988917513847351,0.005285822315281257,0.0020464659347198904
1772565959030267400,7.042267333984375,0.1081681137740612,0.0010836259516654536,0.002121586130699143
1772565959040295400,7.05229541015625,0.11160919413864612,-0.0007686143188970163,0.001661887063924223
1772565959050323500,7.062323486328125,0.10637246252894401,0.008250467107421718,-0.0028093309328425676
1772565959060352300,7.072352294921875,0.10487725553512572,-0.004437023466220125,0.0035364578973036257
1772565959070380500,7.082380615234375,0.10472761793136597,0.006325467561325058,0.0024988310784101486
1772565959080409300,7.092409423828125,0.11699673239588737,0.0005402123905019834,-0.004337289418792352
1772565959090437400,7.102437255859375,0.10652151561081409,-0.001250260355998762,0.00059144482081756
1772565959100465400,7.11246533203125,0.10382511613368987,0.007115426062350161,0.009734271357813849
1772565959110494500,7.122494384765625,0.10397358469367027,-0.0009268051218707114,0.005440638417657464
1772565959120522500,7.1325224609375,0.11699205622076987,0.0015134596031391992,0.006923195992456749
1772565959130550300,7.14255029296875,0.09799041863083839,0.005454278783942572,0.00047297867345623667
1772565959140579600,7.15257958984375,0.10906243226528167,-0.0008424193406244739,0.009080739352526143
1772565959150607400,7.162607421875,0.11534487353563308,0.003210851805284619,0.008780779158417134
1772565959160636400,7.172636474609375,0.09768822081387042,0.004189327748888172,0.0027956220678985117
1772565959170664200,7.182664306640625,0.10262684625983237,0.0044764238948468114,0.0027389599772170183
1772565959180692500,7.1926923828125,0.10636778635382652,0.0021270386239513753,0.0037635172519832846
1772565959190721300,7.20272119140625,0.1044207439392805,-0.0046078773879446085,-0.006522040446195751
1772565959200749300,7.212749267578125,0.10307166741788387,0.004738536296598613,-0.0011055683554150163
1772565959210778400,7.2227783203125,0.10606441949307918,0.010578206802089698,-0.019840508700022474
1772565959220806400,7.232806396484375,0.10681377655565738,-0.00526496675692033,-0.006741720212018117
1772565959230834400,7.24283447265625,0.11564239517748355,-0.0005107351342681795,0.0025355554927606132
1772565959240863200,7.25286328125,0.11280044974982738,0.0024826060293940827,-0.007110900584282353
1772565959250891500,7.2628916015625,0.11175123295783997,-0.00653893221549224,0.0007253459993284196
1772565959260919300,7.272919189453125,0.10831132163703441,0.011316978538571856,-0.003506674680393189
1772565959270948400,7.2829482421875,0.10292845955491066,0.0007967581345699727,-0.0003017685587052256
1772565959280976400,7.292976318359375,0.09619710547327995,0.003053067427687347,-0.0036034861183725296
1772565959291005400,7.30300537109375,0.11415537149012088,0.00211282743550837,-0.00278180360510014
1772565959301033500,7.313033447265625,0.11280921757817268,-0.010600847892160526,-0.007130345070268959
1772565959311061500,7.3230615234375,0.10248539196252822,0.0010621858714148402,-0.003628163901902735
1772565959321090600,7.333090576171875,0.10667582938969135,0.0026695982351666314,0.0032516313402447847
1772565959331118300,7.343118408203125,0.11311199991703033,-0.0010415495087625459,0.0014729038304649293
1772565959341147400,7.3531474609375,0.10458441006839275,0.0022643647354096174,-0.0032177382037974892
1772565959351175400,7.363175537109375,0.1051835450053215,0.0006180633996846154,0.002962201673304662
1772565959361203500,7.373203369140625,0.10219079293012619,0.0028114543912699445,0.0018756302793044596
1772565959371232300,7.383232177734375,0.10398352156579493,0.0023094048869563267,-0.0005266998883802443
1772565959381260300,7.39326025390625,0.1024865610063076,-0.007606524914386682,-0.006520944467652588
1772565959391289600,7.40328955078125,0.10742518645226955,0.009215768475621007,-0.0034688725538086144
1772565959401317400,7.4133173828125,0.09814648597538471,-0.0008527672047028318,-0.0009915317879989744
1772565959411345400,7.423345458984375,0.10383329944014548,-0.002832465213257819,0.0003679199969395995
1772565959421374200,7.433374267578125,0.10548048212528228,0.0027251415144186465,0.003803337805718183
1772565959431402500,7.443402587890625,0.11086743586063384,-0.010056000425736419,-0.01314786092727445
1772565959441431300,7.453431396484375,0.10921849960982799,0.009357419135747476,-0.008389368688035756
1772565959451459300,7.463459228515625,0.10443068081140518,-0.0009474277847912162,-0.004296363753359764
1772565959461487400,7.4734873046875,0.10772037000656128,-0.001527045170497149,-0.006097056499775499
1772565959471516400,7.483516357421875,0.1113093344092369,0.013905077069322577,-0.009787371518230064
1772565959481544400,7.49354443359375,0.109365799126029,0.0028935294844210147,-0.003444203903432935
1772565959491572500,7.503572509765625,0.10981763454675673,0.006056605758378282,0.00227913304627873
1772565959501601500,7.5136015625,0.10652852987349033,0.011524999832641332,0.001985447329329327
1772565959511629300,7.52362939453125,0.10593114850223063,0.002989587437151931,-0.004657123357150703
1772565959521658400,7.533658447265625,0.09979717579185962,0.005716628647712059,-0.00011738843512721359
1772565959531686400,7.543686279296875,0.10353928492963313,0.0056544957974692805,0.0017410075815860182
1772565959541714400,7.55371435546875,0.1123679035514593,-0.0031660308494465424,0.005091267857560888
1772565959551743200,7.5637431640625,0.10772855331301688,0.00038348289225250483,0.008618976192828268
1772565959561771500,7.573771484375,0.1071311719417572,-0.00077326309455093,0.0019033037375193087
1772565959571799300,7.58379931640625,0.10578092637658118,0.007194793175184167,0.00030530308950692416
1772565959581828400,7.593828369140625,0.11640636528730391,0.007125006741448305,0.01238983650105074
1772565959591856400,7.6038564453125,0.10892390057742594,0.00036405667257495225,0.0009770466049201787
1772565959601885400,7.613885498046875,0.10278992786705493,0.010221155259036458,-0.005824450103472918
1772565959611913500,7.62391357421875,0.09979659126996994,0.004857299271482042,-0.002928226338466629
1772565959621941200,7.633941162109375,0.10757423953413962,-0.0021202070243656634,-0.008817640570085496
1772565959631970300,7.64397021484375,0.10891980892419814,0.003737720657023601,-0.0012828337516169995
1772565959641998300,7.653998291015625,0.1051794533520937,-0.0032359862465411423,-0.0015695508716627954
1772565959652027400,7.66402734375,0.10637655418217182,-0.0008300028170458972,-0.008734318801341578
1772565959662054700,7.6740546875,0.11355915916264056,0.008604472743440419,-0.002310742894094437
1772565959672082400,7.68408251953125,0.10862111823856829,0.0024438631878932935,-0.0018391524601262062
1772565959682111500,7.694111572265625,0.10712474220097064,-0.0014302291659405455,7.123860530555248e-7
1772565959692139300,7.70413916015625,0.10548048212528228,0.0020896703222068025,-0.0041025947469286615
1772565959702168600,7.71416845703125,0.10308920307457446,-0.00025503877357114103,-0.003102715255692601
1772565959712196600,7.724196533203125,0.10698094981610774,0.007464613959356211,0.0038199601469561455
1772565959722224400,7.734224365234375,0.10369067609906196,0.0025227690764237196,0.0014394034196622669
1772565959732253400,7.74425341796875,0.11251929472088813,0.0037812538380734622,0.0038975736941210923
1772565959742281500,7.754281494140625,0.10503741453289984,0.008279889564728363,-0.0035908732319716364
1772565959752309500,7.7643095703125,0.09800620072185992,0.0025589135354617608,0.0012989446362014858
1772565959762338300,7.77433837890625,0.11072305895388125,0.002209511009324342,-0.003751954678352922
1772565959772366600,7.78436669921875,0.11057400587201117,0.006352606730000115,-0.0009017894116230309
1772565959782395600,7.794395751953125,0.11386954028606414,0.0022314488464966415,-0.006865876314649358
1772565959792423400,7.80442333984375,0.10474164645671843,0.0074180485710036,0.0005077759922016412
1772565959802451700,7.81445166015625,0.10668693530559539,-0.0052586511805653565,-0.0017548899764660744
1772565959812480500,7.82448046875,0.11102759485840796,0.0024316430271370333,-0.006898892668262124
1772565959822508500,7.834508544921875,0.10369710583984851,0.006430982895568013,0.0008164857483468949
1772565959832537300,7.844537353515625,0.10309913994669914,-0.003972492960700765,-0.003831513587431982
1772565959842565600,7.854565673828125,0.10848492463827132,0.008517931537725962,-0.0014811145363841205
1772565959852593400,7.864593505859375,0.10354629919230937,0.0007533665174152701,0.0029353136663790792
1772565959862622500,7.87462255859375,0.11207447356283665,0.001479808495286852,-0.0000649549949914217
1772565959872650500,7.884650390625,0.10264905809164046,0.013146838013967498,-0.0010214611353818327
1772565959882679600,7.894679443359375,0.09950842197835445,0.0006289638196118176,-0.0018293434521649032
1772565959892707600,7.90470751953125,0.1090875667065382,0.006583337612799368,-0.002290887416154146
1772565959902735400,7.9147353515625,0.10310206255614757,0.0016229935253737494,0.0041187056315131485
1772565959912764700,7.9247646484375,0.10983867733478546,-0.001842330797901377,0.0032110618678387252
1772565959922792400,7.93479248046875,0.09846680397093295,0.008932741150003858,-0.009607146979961543
1772565959932820500,7.944820556640625,0.10594926868081092,0.00012414240289945156,-0.0010346402773633598
1772565959942849300,7.954849365234375,0.10879179863035678,-0.0011759210447315127,0.0007927486797329038
1772565959952877600,7.964877685546875,0.10445172359943389,0.008754598970967344,0.00004135492369532585
1772565959962906600,7.97490673828125,0.09801789115965366,0.0012231074875919147,-0.0045451143500395115
1772565959972934400,7.984934326171875,0.09981588049232959,0.0003685821506427601,-0.0029091106460429725
1772565959982962700,7.994962646484375,0.11493044751584529,0.003623350729467347,-0.0060079169115982945
1772565959992991500,8.004991455078125,0.11089198578000067,0.005021412925166078,-0.0017803988770581781
1772565960003019500,8.01501953125,0.10400982505083084,0.008236831307713873,-0.0005380615326110274
1772565960013048300,8.02504833984375,0.11194237161576748,0.0064774752186844125,0.0019236889384221284
1772565960023076600,8.03507666015625,0.10386252553462981,0.005223118642880581,-0.002632111202413216
1772565960033104400,8.0451044921875,0.11344167026281356,0.008379651011619716,0.0015044314798898994
1772565960043133400,8.055133544921874,0.11060030935704708,0.003195782100316137,0.0034695301409345116
1772565960053161700,8.06516162109375,0.11538988172113895,-0.002854745543724857,0.0034888193632941693
1772565960063189500,8.075189453125,0.11164835710525511,0.004557060516159981,-0.0008553838534746318
1772565960073218600,8.085218505859375,0.10057342086136341,0.005246280322759412,-0.001695999396080151
1772565960083246600,8.09524658203125,0.11119710620641708,0.00448677175892517,-0.003009146087570116
1772565960093275600,8.105275634765626,0.09982231023311615,0.009017012766818516,0.008646512653725222
1772565960103303400,8.115303466796876,0.09623042322099208,0.0031940650672651824,-0.00427301027723588
1772565960113331500,8.12533154296875,0.10895020406246185,0.006705196727067232,-0.008065781023167073
1772565960123360500,8.135360595703125,0.1074538280248642,0.007676599042490124,0.005968964007543399
1772565960133388500,8.145388427734375,0.10894845049679279,0.0041496944248210635,0.006626048809941857
1772565960143417600,8.15541748046875,0.11568331170976161,0.006198270118236542,0.0019292692958377301
1772565960153445400,8.1654453125,0.11134499024450778,0.006258895997982471,0.0009373721816577017
1772565960163473700,8.1754736328125,0.109248310226202,0.00045737924552522596,0.002913238831888884
1772565960173502500,8.18550244140625,0.10475567498207092,0.0030931939420988782,0.012263205313542858
1772565960183530500,8.195530517578124,0.11298340510129928,0.00744940269049257,-0.008362645077891648
1772565960193559300,8.205559326171874,0.10086451276242732,0.002615520827216096,0.002927577884495258
1772565960203587600,8.215587646484375,0.10819792439043521,0.005537906513363122,-0.0019760949790943415
1772565960213615400,8.225615478515625,0.11283435201942921,0.001625290513737127,0.0070771261788439
1772565960223644400,8.23564453125,0.1066997947871685,-0.0010774108400102703,-0.003083279902860522
1772565960233672700,8.245672607421875,0.11687515184283256,0.0019116194747155531,-0.003760211050044745
1772565960243700500,8.255700439453125,0.10251111092567443,0.0008801803680136799,-0.0011302918047178536
1772565960253729500,8.2657294921875,0.117025373968482,0.001957737338496372,-0.0014538703364320098
1772565960263757600,8.275757568359374,0.10834639295041561,0.0016053528374060987,0.0015888857597950844
1772565960273786600,8.28578662109375,0.11253624585568904,0.0005363992984872311,0.004809820567676797
1772565960283814400,8.295814453125,0.10909516549110412,0.006655475833825766,0.00606857932396233
1772565960293842400,8.305842529296875,0.10206219811439514,0.003304128712462261,0.0061553716914262615
1772565960303871500,8.31587158203125,0.10520634135901927,0.0028501926661934703,-0.0063205630573444065
1772565960313899500,8.3258994140625,0.10550503204464912,0.0050452687247889115,-0.01070963746230118
1772565960323928600,8.335928466796876,0.1123895308613777,0.002451713134208694,0.0020812632534652946
1772565960333956600,8.34595654296875,0.10580606081783771,0.003694808530481532,0.002866906338976696
1772565960343984600,8.355984619140624,0.10730360589921474,0.010846452117105946,-0.005184462566347792
1772565960354013400,8.366013427734375,0.10580664533972739,0.003541951489751227,0.006028375177737325
1772565960364041500,8.37604150390625,0.11269172867834568,0.004669156288239174,-0.007641180669236928
1772565960374070500,8.386070556640625,0.11628127760291099,-0.0008020873302360996,-0.003903756839735433
1772565960384098600,8.3960986328125,0.10700491521358489,0.0047326225790427995,0.004543388183834031
1772565960394126300,8.406126220703126,0.10879939741492271,0.006737824921612627,-0.007284083460411057
1772565960404155400,8.4161552734375,0.11104513051509857,-0.004462189873517491,-0.0035917043490335345
1772565960414183700,8.42618359375,0.10760288110673427,-0.0016861812549643217,-0.001669412783253938
1772565960424211500,8.43621142578125,0.11718027226924896,-0.0003446350194746628,0.0022017660942859948
1772565960434240500,8.446240478515625,0.10925123283565044,0.004826940665836446,0.005250650537200272
1772565960444268500,8.4562685546875,0.09967267262935638,-0.0007786014233715832,0.003484773375838995
1772565960454297600,8.466297607421875,0.10939911687374114,-0.005061206079437397,0.007382127874251455
1772565960464325400,8.476325439453126,0.0989227310448885,0.007103589494084008,0.005245691234292462
1772565960474353700,8.486353759765626,0.10041793803870677,0.004519007227825932,-0.009706753163225949
1772565960484382500,8.496382568359374,0.10386077196896075,-0.004218120018532499,0.004901389574958011
1772565960494410500,8.506410400390624,0.11448621087968348,0.003749036635481752,0.007657592947920784
1772565960504438500,8.5164384765625,0.10790274083614348,0.0019785380979301407,0.005759778236271813
1772565960514467600,8.526467529296875,0.1150865148603916,0.0009551224674796685,0.0017706172685604542
1772565960524495600,8.53649560546875,0.10865268242061138,0.0016206965370103715,0.0064676342446822665
1772565960534524400,8.5465244140625,0.09967267262935638,0.0037004208539379757,-0.0005176763317082077
1772565960544552400,8.556552490234376,0.11164192736446857,0.004656045644916593,-0.0010894940034486354
1772565960554580500,8.56658056640625,0.10221709641516208,0.0022129907411988824,-0.00016930128545500337
1772565960564609500,8.576609619140624,0.10057049825191497,0.007057846089638769,-0.010962178318109363
1772565960574637300,8.58663720703125,0.10476210472285746,-0.00005005881995894014,-0.0035410884066484865
1772565960584666400,8.596666259765625,0.11359013882279395,0.0011492157008964568,0.008254243666818366
1772565960594694700,8.606694580078125,0.11419044280350207,0.009659854414733127,0.009861971124401316
1772565960604722400,8.616722412109375,0.10700608425736427,0.0007000836939085274,-0.010448630172247066
1772565960614751500,8.62675146484375,0.10610767411291598,0.0007389635327272117,-0.004807098887627944
1772565960624779500,8.636779541015626,0.11553484314978121,0.012830237212311475,0.007025633453624323
1772565960634808600,8.64680859375,0.10955167708694934,0.00015962470823433248,-0.00048635874483734365
1772565960644836400,8.65683642578125,0.10655834048986434,0.003146088606538251,-0.00681195417032577
1772565960654865400,8.666865478515625,0.10581015247106551,0.0012956293011084198,-0.0018330971786752342
1772565960664894500,8.67689453125,0.10880115098059177,-0.002330534439953044,0.010626580555038526
1772565960674922500,8.686922607421875,0.1074538280248642,0.0027503261880250647,0.01359551336322911
1772565960684950300,8.6969501953125,0.11418810471594333,0.00253391152494587,0.0029736546490807085
1772565960694979300,8.706979248046874,0.10236673401892185,-0.0022622184440959244,-0.006321421573869884
1772565960705007600,8.717007568359374,0.11343933217525481,0.005971324927988462,0.0017359386808238923
1772565960715036400,8.727036376953125,0.10670622452795504,-0.0032461468809517097,0.002058978356420994
1772565960725064400,8.737064453125,0.10625906528234481,0.001660485124704428,0.0010527513227891177
1772565960735092500,8.747092529296875,0.10536123965978622,0.005221602539229206,-0.006091631405986845
1772565960745121500,8.75712158203125,0.1071568909049034,0.005446593234408647,-0.010588422235427424
1772565960755149300,8.7671494140625,0.10311726012527941,0.009691596693289466,0.002761171809025109
1772565960765178400,8.777178466796874,0.11284487341344356,0.007266392540093511,0.007727653376292437
1772565960775206700,8.78720654296875,0.10521569370925427,-0.0012083163438364863,0.0008344963290728628
1772565960785234400,8.797234375,0.1161415768712759,0.007967079022200778,-0.0005378697363659739
1772565960795263500,8.807263427734375,0.10522095440626143,0.004827374490676447,0.011026557924365623
1772565960805291500,8.81729150390625,0.09040800067782402,0.00534294563026633,0.014866702342825009
1772565960815320600,8.827320556640625,0.11704349414706229,-0.0040508325936505565,0.006980059012537822
1772565960825348400,8.837348388671876,0.1161462530463934,-0.0046557305510854345,0.0006792327021248638
1772565960835376400,8.84737646484375,0.10387596953809261,0.008874599488289095,-0.0012866605433635412
1772565960845405700,8.85740576171875,0.10716682777702807,0.008600308024976402,0.003917566169379279
1772565960855433500,8.86743359375,0.10207973377108573,0.0037101111308904364,0.005899460701597854
1772565960865461200,8.877461181640625,0.10492401728630066,0.013176479666982776,-0.0013260153062175958
1772565960875490300,8.887490234375,0.10671791496574878,0.0068685477623483164,-0.00905280103283003
1772565960885518600,8.8975185546875,0.1004302129983902,0.0050237053469521925,0.0030268918068148193
1772565960895547400,8.90754736328125,0.09967734880447388,0.015269611454755068,-0.006488138176593929
1772565960905575400,8.917575439453126,0.10221943450272082,0.002698057144670747,0.0045258616602979595
1772565960915603500,8.927603515625,0.10985095229446887,0.009944151248829438,0.0016588639897760003
1772565960925632500,8.937632568359374,0.11822948906123637,-0.001446390282874927,-0.007696838112920522
1772565960935660300,8.947660400390625,0.10087094250321388,0.0038854128988692533,-0.0015697335347533226
1772565960945688600,8.9576884765625,0.11134674381017684,0.006357324004312977,0.005185165819246321
1772565960955717600,8.967717529296875,0.11284370436966419,0.0017411491454811766,0.0031288726102560757
1772565960965745400,8.977745361328125,0.11373977642655372,0.009019903410226106,-0.0001134520455263555
1772565960975774500,8.9877744140625,0.10954992352128028,0.006907464133785106,-0.007286585944751277
1772565960985802500,8.997802490234376,0.1076058037161827,0.001975957981776446,0.0007770305207930505
1772565960995830500,9.00783056640625,0.10880348906815052,0.005338232922530732,0.00008812580802477895
1772565961005859300,9.017859375,0.10610942767858504,-0.00016517309960909187,-0.0003906158859375864
1772565961015887600,9.0278876953125,0.09608370822668075,0.0026197997101116925,0.01026836910136044
1772565961025916700,9.037916748046875,0.10820260056555271,0.0029662522273370996,0.006660152008943259
1772565961035944400,9.0479443359375,0.11284078176021575,0.00547259075876791,0.006881156082171947
1772565961045972200,9.05797216796875,0.10206570524573326,-0.0000312079890165478,0.003121995344897732
1772565961056001500,9.06800146484375,0.10864975981116294,0.002682188288681209,-0.001968788455473259
1772565961066029600,9.078029541015624,0.11029518893063067,0.0031965310189872977,-0.003525123652536422
1772565961076057300,9.088057373046874,0.10221534284949302,0.007827369157411158,0.0020574987853877245
1772565961086086400,9.09808642578125,0.10236322688758373,0.0020500506978714836,-0.002660159119963646
1772565961096114400,9.108114501953125,0.11463584848344326,-0.0042014839775627475,-0.005741420595673844
1772565961106143500,9.1181435546875,0.10879939741492271,-0.0000869750305544585,0.0018405772322323173
1772565961116171300,9.128171142578125,0.11702888109982013,0.001993607802898623,0.0064472673100885
1772565961126199600,9.138199462890626,0.11224223134517669,0.017277576576569118,0.00160211970070377
1772565961136228600,9.148228515625,0.10685469308793544,0.009188547108555212,0.001630880004307255
1772565961146256400,9.15825634765625,0.1065560024023056,0.005943779333936981,0.0004342723645735532
1772565961156285400,9.168285400390625,0.10236556497514247,0.006012807715847157,-0.009343107482604682
1772565961166313500,9.1783134765625,0.10760346562862395,0.0007149250700138509,0.001282669354835525
1772565961176341500,9.188341552734375,0.10805120939612388,0.006195872665173374,-0.005046624998236075
1772565961186370300,9.198370361328125,0.10535597896277904,-0.004548402285668999,-0.007072906661452725
1772565961196398600,9.208398681640626,0.11223930873572825,-0.002102680500829592,0.0013067534833215177
1772565961206427600,9.218427734375,0.10939502522051334,0.005042455713194794,0.001974953334778547
1772565961216455400,9.228455322265624,0.0987701708316803,0.0073004683396313335,-0.001364429354155436
1772565961226483500,9.2384833984375,0.10460895998775958,-0.0013520584963494912,-0.008202540879044682
1772565961236512500,9.248512451171875,0.11119535264074802,0.002826432764693163,0.0002700125804170966
1772565961246540500,9.25854052734375,0.11448796444535254,0.0009127309307456016,-0.007849270461965352
1772565961256568300,9.268568359375,0.10251929423213005,0.00607432864473667,-0.0009405779188964515
1772565961266597600,9.27859765625,0.10940379304885864,0.00811547451694496,0.0032010701967868952
1772565961276625400,9.28862548828125,0.10566460652053355,0.006019073059852235,0.0006456774923950434
1772565961286654500,9.298654541015624,0.11030512580275535,0.007757276762998662,-0.0010900145932566374
1772565961296682200,9.30868212890625,0.10746142680943012,0.006494951509870588,-0.00021777093652635812
1772565961306710500,9.31871044921875,0.10117723197340965,0.0024590835899114608,-0.010325542648695408
1772565961316739600,9.328739501953125,0.10222586424350738,0.0011107148879906162,0.0005988609422929585
1772565961326767400,9.338767333984375,0.11299977171421051,0.007648601357289589,-0.0024136552792973815
1772565961336796400,9.34879638671875,0.11210077704787254,-0.000837555935839191,0.007110909717436879
1772565961346824400,9.358824462890626,0.09593699323236941,0.004723338727466762,0.0000887559956870973
1772565961356852500,9.3688525390625,0.10700959138870239,0.004679787280107848,-0.0006689944359008223
1772565961366881300,9.37888134765625,0.11658464446365832,0.005548204145091586,-0.010313614748883992
1772565961376909600,9.38890966796875,0.11239479155838489,0.0048014865641715,-0.005528727693064138
1772565961386937300,9.398937255859375,0.11927753680944442,0.00352642969363369,0.0005582366709597408
1772565961396966400,9.40896630859375,0.1059586210310459,0.005908694320823997,-0.002728822175692767
1772565961406994700,9.41899462890625,0.11553776575922965,0.012640395462326705,0.004325973440334201
1772565961417023500,9.4290234375,0.10985329038202762,0.002826921388460323,0.004858792542247101
1772565961427051500,9.439051513671876,0.11119769072830676,0.0004584249917184934,0.007455969428597018
1772565961437079600,9.44907958984375,0.10745733515620232,0.005937107564555481,-0.0023590024826116857
1772565961447108600,9.459108642578125,0.11209493182897567,0.001946763853332959,0.0017936967500485478
1772565961457136400,9.469136474609375,0.11030044962763785,0.000997787998849526,-0.005148112611332908
1772565961467165400,9.47916552734375,0.10356558841466904,0.007713633984094485,0.0038963407182600347
1772565961477193500,9.489193359375,0.1218190379858017,0.0023778350472450256,0.004547379372362047
1772565961487221500,9.499221435546875,0.1055062010884285,0.004066874979576095,-0.00550626013292931
1772565961497250600,9.50925048828125,0.1047562595039606,0.00026421302729286254,0.002715405571693554
1772565961507278300,9.5192783203125,0.10625205101966857,0.004181747230631299,0.00792004327639006
1772565961517306600,9.529306640625,0.10984393803179264,0.004083296391414478,0.00328494908795692
1772565961527335400,9.53933544921875,0.11418459758460521,0.0060855669913813465,0.0007622622099239379
1772565961537363500,9.549363525390625,0.10909691905677318,0.00785756336627528,-0.005731520256167277
1772565961547392300,9.559392333984375,0.10550444752275943,0.0032945115007460115,0.005670291588222608
1772565961557420500,9.569420654296875,0.10655249527096748,0.011404314328730106,0.005855119236372411
1772565961567448300,9.5794482421875,0.10834756199419497,0.003032088571740314,0.0037879941061139105
1772565961577477400,9.589477294921876,0.10909399644732475,0.00699844405259937,-0.007747033930197358
1772565961587505700,9.599505615234374,0.10475509046018124,0.004163220626674592,-0.0019172409313265232
1772565961597534500,9.609534423828125,0.103858433881402,0.003469269846030511,0.009930396718112751
1772565961607562500,9.6195625,0.10191256051063537,0.008803794707823545,0.00229688789867796
1772565961617590500,9.629590576171875,0.09966682741045951,0.007457933056820184,-0.004911783104809001
1772565961627619600,9.63961962890625,0.10475450593829154,0.004965417554765008,-0.013108232169784604
1772565961637647400,9.6496474609375,0.1071440314233303,0.009799176120455376,-0.0033301034039352087
1772565961647675400,9.65967529296875,0.10400164174437522,0.004259616506122984,-0.008416813817387446
1772565961657708000,9.6697080078125,0.11268120728433131,0.004944950155471451,-0.0065445171394851055
1772565961667736000,9.679736083984375,0.11223229447305202,0.004868441720004193,-0.006966806805320084
1772565961677764900,9.689764892578125,0.10340309132933616,-0.0011899632698157802,-0.0016441687441430986
1772565961687793000,9.69979296875,0.10400222626626492,0.010257710710028185,0.0043242655404377725
1772565961697821000,9.709821044921876,0.10071078350543976,-0.0037563340259483082,0.004635258585214614
1772565961707850000,9.71985009765625,0.10564940895140171,0.008826015672786161,-0.00197487113638781
1772565961717877800,9.729877685546874,0.10146130961179732,0.004655470256181434,-0.003973908599652349
1772565961727906800,9.73990673828125,0.10131167200803756,0.002709341157088056,0.00022020948878489433
1772565961737935000,9.74993505859375,0.11043898131549358,0.007192030395939946,0.0017496384126134215
1772565961747963000,9.759962890625,0.1053489647001028,0.0026692420421401035,-0.000024915245547890663
1772565961757992000,9.769991943359376,0.11028759014606475,0.0027128985207760703,-0.00044664778895676135
1772565961768020000,9.78002001953125,0.10160744008421897,0.004414263645140454,0.0025008586387149988
1772565961778048000,9.790048095703124,0.1004080011665821,-0.0007656095110578462,-0.0026187950631137934
1772565961788076800,9.800076904296875,0.10399638104736804,0.013245727244601584,0.0049413288597017525
1772565961798105000,9.81010498046875,0.1001034652620554,0.007547036112379282,0.002163443377893418
1772565961808134100,9.820134033203125,0.10953121882081031,0.0008524018785217776,-0.00587475551860407
1772565961818162000,9.830161865234375,0.11701368353068828,0.003741319119906984,-0.001389326333394274
1772565961828190000,9.84018994140625,0.10997603997886181,-0.0017785402801120652,-0.00817357051288709
1772565961838219000,9.850218994140626,0.2102051774471998,0.010912841017358005,-0.030037045541033147
1772565961848247000,9.8602470703125,0.12128653854429722,0.005460439096670598,0.014239994412381201
1772565961858275800,9.87027587890625,0.036274843952059745,-0.0016345332661177963,0.02114250380983576
1772565961868304100,9.88030419921875,0.05797112745344638,0.001735696652228944,-0.0034019356642849743
1772565961878332000,9.890331787109375,0.08087269509136677,-0.0016470000220462678,-0.03146932510016486
1772565961888361000,9.90036083984375,0.1019809495717287,0.004042251994973049,0.0007823277504183352
1772565961898388700,9.910388671875,0.10707622688412666,0.0018805484830169007,0.03513732782211154
1772565961908417000,9.9204169921875,0.11680910086929798,0.007764149461779743,0.023247239270433782
1772565961918446000,9.930446044921876,0.09601531916558742,0.004503677227953449,-0.030894137294404208
1772565961928473900,9.940473876953124,0.10290390963554381,-0.003239269615593366,-0.016422854876797646
1772565961938503000,9.9505029296875,0.11009060626924037,0.0015324702642858028,0.023907274081744253
1772565961948531000,9.960531005859375,0.10934767894744872,0.009168125375034288,0.02676571398647502
1772565961958559000,9.97055908203125,0.10426584563851356,0.002270671178610064,-0.017259470097720622
1772565961968587800,9.980587890625,0.09574351648688316,-0.005815189084783196,-0.03327153395023197
1772565961978616000,9.990615966796875,0.10757190144658088,0.011109943625191226,-0.00021448300089687108
1772565961988645000,10.00064501953125,0.11580547678470611,0.0048442708265502,0.03313784283427521
1772565961998673000,10.0106728515625,0.11206979738771915,0.007851211257302202,0.001134547854727134
