time,seconds_elapsed,z,y,x
1772565952070566100,0.082566162109375,-0.0013417573645710945,0.0015756497159600258,-0.0012417193502187729
1772565952080595200,0.09259521484375,-0.0018623145297169685,0.0022484343498945236,-0.0003884602338075638
1772565952090623200,0.102623291015625,0.0011537149548530579,-0.0018858565017580986,-0.002783440984785557
1772565952100651300,0.1126513671875,-0.0011143065057694912,0.000968477688729763,-0.0014995425008237362
1772565952110680000,0.12268017578125,-0.0018464094027876854,0.0006438381969928741,0.0001071426086127758
1772565952120708400,0.132708251953125,-0.0013616317883133888,-0.000761060044169426,0.0000947178341448307
1772565952130737400,0.1427373046875,0.0010466650128364563,-0.0009336331859230995,0.0009282869286835194
1772565952140765200,0.15276513671875,0.0004313848912715912,-0.0006243987008929253,0.001600632444024086
1772565952150793200,0.162793212890625,0.0007501654326915741,0.0027990946546196938,0.0006128661334514618
1772565952160822300,0.172822265625,0.0004979623481631279,0.0008822744712233543,-0.0013852696865797043
1772565952170850300,0.182850341796875,0.0003088777884840965,0.0020793648436665535,0.0011633755639195442
1772565952180879000,0.192879150390625,0.0002706805244088173,0.0007414640858769417,-0.0006830119527876377
1772565952190907100,0.2029072265625,-0.0008470476604998112,0.0009473264217376709,-0.0003194902092218399
1772565952200935200,0.21293505859375,0.002158817835152149,0.0005748337134718895,0.00020224647596478462
1772565952210964200,0.222964111328125,0.0017825132235884666,-0.002504313364624977,0.00045178504660725594
1772565952220992300,0.2329921875,-0.0018679434433579445,0.0008824439719319344,-0.0006142356432974339
1772565952231021000,0.24302099609375,0.0009731166064739227,0.0011548856273293495,0.0019069788977503777
1772565952241049300,0.25304931640625,0.0008296128362417221,-0.0008715000003576279,0.0007148757576942444
1772565952251077000,0.2630771484375,0.0008621038869023323,-0.0011119833216071129,0.001374540850520134
1772565952261106200,0.273106201171875,-0.0019995514303445816,0.001960836350917816,-0.00032730400562286377
1772565952271134200,0.28313427734375,-0.0007390771061182022,0.0020564431324601173,0.0005059987306594849
1772565952281163300,0.293163330078125,0.0006694253534078598,-0.002084961161017418,0.000978874508291483
1772565952291191000,0.30319091796875,0.0009144358336925507,0.0010399920865893364,0.00126196863129735
1772565952301219300,0.31321923828125,-0.0005233567208051682,-0.0009407820180058479,-0.0015365714207291603
1772565952311248400,0.323248291015625,-0.0004120366647839546,0.001078692264854908,-0.0013253828510642052
1772565952321276200,0.333276123046875,0.00022289343178272247,0.0003378409892320633,0.0013601593673229218
1772565952331304200,0.34330419921875,-0.0008828509598970413,0.000776197761297226,-0.00020737666636705399
1772565952341333200,0.353333251953125,-0.0024700495414435863,-0.0003150124102830887,-0.0015104562044143677
1772565952351361300,0.363361328125,0.0005901893600821495,0.001566510647535324,-0.0006933980621397495
1772565952361390000,0.37339013671875,0.0009629335254430771,0.00029206741601228714,-0.0015496369451284409
1772565952371418000,0.383418212890625,0.0001709097996354103,0.0011368226259946823,-0.002608509734272957
1772565952381446100,0.393446044921875,-0.001103428192436695,-0.002055821008980274,0.0013650255277752876
1772565952391475200,0.40347509765625,0.0005253609269857407,0.0023029744625091553,0.0011027045547962189
1772565952401503200,0.413503173828125,-0.0013670236803591251,-0.0006272224709391594,-0.0009475215338170528
1772565952411532300,0.4235322265625,0.0005017165094614029,-0.0008072517812252045,0.00099525460973382
1772565952421560300,0.433560302734375,-0.00035460712388157845,0.0008932510390877724,-0.0011986722238361835
1772565952431588000,0.443588134765625,-0.0006414297968149185,0.00034943316131830215,-0.003526807762682438
1772565952441617200,0.4536171875,0.0012670103460550308,0.0031428923830389977,0.0004787133075296879
1772565952451645200,0.463645263671875,-0.0011040023528039455,-0.000015350058674812317,-0.00013354746624827385
1772565952461674200,0.47367431640625,-0.0004653581418097019,0.0011489149183034897,-0.00006179977208375931
1772565952471702000,0.483701904296875,0.0004236055538058281,0.00006261095404624939,-0.0015821983106434345
1772565952481730300,0.493730224609375,0.00047324784100055695,-0.0001564091071486473,0.002294103614985943
1772565952491759400,0.50375927734375,0.0007592709735035896,0.0031709447503089905,-0.0013459050096571445
1772565952501787100,0.513787109375,0.0003642365336418152,-0.0002170167863368988,0.00005650985985994339
1772565952511816200,0.523816162109375,0.0015828991308808327,-0.0025936225429177284,-0.0006630760617554188
1772565952521844200,0.53384423828125,-0.0005740062333643436,0.0004258789122104645,0.00019449973478913307
1772565952531872300,0.543872314453125,0.0001290682703256607,-0.0024007996544241905,0.002020895481109619
1772565952541901000,0.553901123046875,0.0006090104579925537,-0.002052314579486847,0.0004574926570057869
1772565952551929300,0.563929443359375,-0.00024479907006025314,0.0014513395726680756,-0.00014145206660032272
1772565952561958400,0.57395849609375,0.0004618726670742035,0.0009954879060387611,-0.0008404161781072617
1772565952571986200,0.583986083984375,0.0006240587681531906,-0.0010655317455530167,-0.0024793255142867565
1772565952582014200,0.59401416015625,-0.0019498160108923912,-0.0011663073673844337,-0.00011767074465751648
1772565952592043300,0.604043212890625,-0.0023080110549926758,-0.0009631086140871048,0.00020723463967442513
1772565952602071300,0.6140712890625,-0.0019012372940778732,0.0015050740912556648,-0.0010281740687787533
1772565952612099000,0.62409912109375,0.000054321251809597015,-0.001040642149746418,0.003255787305533886
1772565952622128000,0.634128173828125,-0.0005793338641524315,0.0011951019987463951,0.0002687973901629448
1772565952632156200,0.64415625,0.00004863925278186798,0.00047258660197257996,0.0006693368777632713
1772565952642185200,0.654185302734375,0.0010935589671134949,0.0024204617366194725,-0.0019279238767921925
1772565952652214000,0.664214111328125,0.000017109327018260956,0.001429499126970768,-0.0012829066254198551
1772565952662242000,0.674241943359375,0.00021960679441690445,0.0010066712275147438,0.0018907655030488968
1772565952672271000,0.68427099609375,-0.0005194204859435558,-0.0011696647852659225,-0.0005662664771080017
1772565952682299000,0.694298828125,-0.000562798697501421,0.0010725632309913635,0.0016648820601403713
1772565952692328000,0.704327880859375,0.00045878998935222626,-0.0005671456456184387,-0.0017386372201144695
1772565952702356000,0.71435595703125,-0.001375006977468729,-0.0007478855550289154,0.000036154408007860184
1772565952712384000,0.724384033203125,-0.0004903050139546394,0.0017956998199224472,-0.0027226144447922707
1772565952722413000,0.7344130859375,0.00046945177018642426,-0.0009043868631124496,-0.001657981425523758
1772565952732440800,0.74444091796875,-0.002394511830061674,-0.002123582176864147,0.0010818792507052422
1772565952742470100,0.75447021484375,-0.000052381306886672974,0.0011742273345589638,-0.0013312031514942646
1772565952752498000,0.764497802734375,-0.0004214951768517494,-0.0019635092467069626,0.00020863628014922142
1772565952762526000,0.77452587890625,-0.0007811859250068665,0.0013891840353608131,-0.001510521862655878
1772565952772554800,0.7845546875,-0.002522360533475876,-0.0008073914796113968,-0.00014325464144349098
1772565952782583000,0.7945830078125,-0.0010052681900560856,-0.0018529761582612991,0.002228337340056896
1772565952792612000,0.804612060546875,-0.0016018166206777096,-0.00019515864551067352,-0.0014620046131312847
1772565952802640000,0.814639892578125,0.0011154040694236755,-0.0006075548008084297,0.00023614661768078804
1772565952812668000,0.82466796875,-0.001920066773891449,-0.0007348544895648956,0.0005791620351374149
1772565952822697000,0.834697021484375,0.00011386070400476456,-0.004020219668745995,0.000281626358628273
1772565952832725000,0.84472509765625,0.00008909311145544052,-0.00011149793863296509,0.004320043139159679
1772565952842753800,0.85475390625,0.00008750148117542267,-0.0006680842489004135,0.0012880717404186726
1772565952852782000,0.864781982421875,0.001949317753314972,0.00042833853513002396,-0.000042976345866918564
1772565952862809900,0.874809814453125,-0.00036071939393877983,0.00012902356684207916,-0.0010523642413318157
1772565952872839000,0.8848388671875,0.0009650019928812981,0.0006440794095396996,-0.000510411337018013
1772565952882867000,0.894866943359375,-0.0012554563581943512,0.0008025690913200378,0.00018067285418510437
1772565952892895000,0.90489501953125,0.002489747479557991,0.0008262712508440018,-0.00023904116824269295
1772565952902924000,0.914924072265625,-0.0006069759838283062,0.000005995854735374451,0.0015422659926116467
1772565952912952000,0.9249521484375,-0.0027063461020588875,0.002289390191435814,0.001153444405645132
1772565952922981000,0.934981201171875,0.000919572077691555,-0.0021697161719202995,-0.002325491514056921
1772565952933009000,0.9450087890625,-0.0007640779949724674,0.0007155518978834152,-0.0015976494178175926
1772565952943037000,0.955036865234375,0.00006416346877813339,-0.0006222212687134743,0.0006399154663085938
1772565952953066000,0.96506591796875,-0.00018058111891150475,0.0019226949661970139,0.0004500318318605423
1772565952963094000,0.975093994140625,-0.0008778008632361889,-0.003302064724266529,0.0005363454110920429
1772565952973123000,0.985123046875,0.0002045081928372383,0.0009360900148749352,-0.0004791179671883583
1772565952983150800,0.99515087890625,0.0007417565211653709,-0.0007721101865172386,0.001873323693871498
1772565952993179100,1.00517919921875,0.0010213879868388176,0.00014295242726802826,-0.0015706764534115791
1772565953003208000,1.0152080078125,-0.0005005910061299801,0.0004667537286877632,-0.0003087506629526615
1772565953013236000,1.025236083984375,0.0017055710777640343,0.0015796879306435585,0.0002728835679590702
1772565953023264800,1.0352646484375,-0.00021055014804005623,-0.0035084178671240807,-0.0004261150024831295
1772565953033293000,1.04529296875,-0.0010228143073618412,0.000797647051513195,-0.0012101493775844574
1772565953043320800,1.05532080078125,-0.0018991739489138126,-0.00041792914271354675,0.0010797870345413685
1772565953053350000,1.065349853515625,-0.0017218072898685932,-0.0002490850165486336,-0.0006920136511325836
1772565953063378000,1.0753779296875,0.00022660288959741592,0.001068216748535633,-0.00027219532057642937
1772565953073407000,1.085406982421875,0.0006665568798780441,0.0018687630072236061,-0.00045914947986602783
1772565953083435000,1.09543505859375,-0.0005279970355331898,-0.00020792055875062943,-0.000837413128465414
1772565953093463000,1.105463134765625,-0.0017226911149919033,0.0015076873824000359,0.0009714057669043541
1772565953103492000,1.1154921875,-0.0015806355513632298,0.0009306957945227623,0.0011971024796366692
1772565953113519900,1.125519775390625,0.000021521933376789093,0.0002537202090024948,0.00013290299102663994
1772565953123549000,1.135548828125,-0.00019844574853777885,0.0005245273932814598,0.00014169234782457352
1772565953133577000,1.145576904296875,0.00016187969595193863,-0.0013106567785143852,0.002462104894220829
1772565953143605000,1.15560498046875,-0.00079697510227561,-0.0009470954537391663,-0.00019647646695375443
1772565953153634000,1.165634033203125,0.00026722438633441925,0.00013761036098003387,-0.000588760245591402
1772565953163662000,1.175662109375,-0.0012833299115300179,0.00238188449293375,0.000470887403935194
1772565953173690000,1.185690185546875,-0.00019649416208267212,0.0006782608106732368,0.001023759599775076
1772565953183719000,1.195718994140625,-0.0007763588801026344,0.0008513536304235458,0.0017051785252988338
1772565953193747000,1.205746826171875,0.0010529663413763046,-0.0009843632578849792,-0.0009590480476617813
1772565953203776000,1.21577587890625,-0.0017709131352603436,0.0008022096008062363,0.003546067513525486
1772565953213804000,1.225803955078125,0.0012025060132145882,-0.001306215301156044,0.003106646239757538
1772565953223831800,1.235831787109375,0.0011432971805334091,0.002984464168548584,0.0007522548548877239
1772565953233860900,1.24586083984375,0.00013342592865228653,-0.0019005723297595978,0.0009075175039470196
1772565953243889000,1.255888916015625,-0.0007445961236953735,0.0003192266449332237,-0.0006275800988078117
1772565953253918000,1.26591796875,-0.00010517146438360214,-0.002657388336956501,-0.0038252377416938543
1772565953263946000,1.275946044921875,-0.000374604482203722,0.0029208073392510414,0.000344256404787302
1772565953273974000,1.28597412109375,0.0007375311106443405,-0.0007679369300603867,0.0005399989895522594
1772565953284003000,1.296003173828125,-0.0003887629136443138,0.000655091367661953,0.0013473909348249435
1772565953294030800,1.30603076171875,-0.00039808405563235283,0.003724385052919388,-0.00001827860251069069
1772565953304060000,1.316059814453125,-0.002446296624839306,0.0017338274046778679,0.0014605256728827953
1772565953314088000,1.326087890625,0.001475473865866661,-0.00028964225202798843,-0.0026793587021529675
1772565953324116000,1.336115966796875,-0.0018747048452496529,-0.000921773724257946,0.001139143481850624
1772565953334145000,1.34614501953125,0.0003487681970000267,-0.0020546820014715195,0.00222864281386137
1772565953344173000,1.356173095703125,0.0009484952315688133,-0.00041216984391212463,0.0008477037772536278
1772565953354202000,1.3662021484375,0.00034395791590213776,-0.000945068895816803,-0.000239664688706398
1772565953364230000,1.37622998046875,-0.00024250661954283714,0.0020834505558013916,0.0007804133929312229
1772565953374258000,1.3862578125,-0.0014933934435248375,-0.0016449745744466782,-0.0008201468735933304
1772565953384287000,1.396286865234375,-0.0009510749951004982,-0.001327071338891983,0.00183412479236722
1772565953394315000,1.40631494140625,-0.0003667776472866535,0.0008790912106633186,-0.0020338506437838078
1772565953404344000,1.416343994140625,0.0015282295644283295,-0.0009311540052294731,-0.0006849514320492744
1772565953414371800,1.426371826171875,0.000863504596054554,-0.00043367501348257065,-0.00023381179198622704
1772565953424400000,1.43639990234375,-0.00010774470865726471,-0.002578945830464363,0.00003979867324233055
1772565953434429000,1.446428955078125,-0.001113620586693287,0.0020107468590140343,-0.0014928504824638367
1772565953444457000,1.45645703125,-0.0014789067208766937,-0.001446564681828022,0.0022546998225152493
1772565953454486000,1.466486083984375,-0.0015454860404133797,0.0007542716339230537,0.0032746908254921436
1772565953464514000,1.47651416015625,-0.0009400574490427971,-0.00036784540861845016,-0.00037794187664985657
1772565953474541800,1.486541748046875,-0.0007821316830813885,-0.0013513509184122086,-0.0012440020218491554
1772565953484571000,1.49657080078125,0.0015691565349698067,-0.0016374196857213974,0.00124274380505085
1772565953494599000,1.506598876953125,-0.0011083856225013733,0.001102706417441368,-0.00008031493052840233
1772565953504627000,1.516626953125,0.0018156655132770538,0.0000814562663435936,0.0007117064669728279
1772565953514656000,1.526656005859375,-0.0016232742927968502,-0.0017127152532339096,0.0011015934869647026
1772565953524684000,1.53668408203125,0.0002768076956272125,0.0003079809248447418,-0.0016460251063108444
1772565953534713000,1.546713134765625,-0.00039297761395573616,0.00005684420466423035,0.0009958306327462196
1772565953544740900,1.556740966796875,-0.00015668710693717003,-0.001104678027331829,0.00008381204679608345
1772565953554769200,1.56676904296875,0.0005493173375725746,0.003121226094663143,-0.0008674692362546921
1772565953564798000,1.5767978515625,-0.0004641059786081314,-0.0017478317022323608,0.00031838705763220787
1772565953574826000,1.586825927734375,0.000981723889708519,-0.0008772443979978561,0.0011548856273293495
1772565953584855000,1.59685498046875,0.0009323833510279655,-0.00004131067544221878,0.0007358421571552753
1772565953594883000,1.606883056640625,-0.0012735133059322834,0.0015432704240083694,-0.00020904699340462685
1772565953604910800,1.616910888671875,0.0009398320689797401,-0.0008010100573301315,0.0008865059353411198
1772565953614940000,1.62693994140625,-0.0027161557227373123,-0.0006103282794356346,0.0013408414088189602
1772565953624968000,1.636968017578125,0.0006973268464207649,-0.00014273449778556824,0.0031476393342018127
1772565953634997000,1.6469970703125,0.0005231564864516258,-0.0003653746098279953,-0.001401305664330721
1772565953645025000,1.65702490234375,0.0021249018609523773,0.0005647968500852585,-0.0013310369104146957
1772565953655048700,1.667048583984375,-0.0000857883132994175,-0.0005625197663903236,-0.0014466182328760624
1772565953665077500,1.677077392578125,0.0007137395441532135,0.0006897393614053726,-0.001337586436420679
1772565953675105500,1.68710546875,-0.0007225028239190578,-0.0003401050344109535,-0.0005042832344770432
1772565953685134300,1.69713427734375,0.00009028520435094833,-0.0025578532367944717,0.0022141272202134132
1772565953695162600,1.70716259765625,-0.0011606011539697647,0.0006557833403348923,0.00026948656886816025
1772565953705190400,1.7171904296875,0.00021403376013040543,-0.0014574294909834862,0.0015401700511574745
1772565953715219500,1.727219482421875,-0.002373493742197752,0.00005311518907546997,-0.0010686623863875866
1772565953725247700,1.737247802734375,0.0017582196742296219,0.0010254336521029472,0.000614518765360117
1772565953735276500,1.747276611328125,0.00034035276621580124,0.0017327694222331047,-0.0017303945496678352
1772565953745304600,1.7573046875,-0.000020928215235471725,0.0028941910713911057,-0.000721293967217207
1772565953755332400,1.767332275390625,-0.0024625142104923725,-0.0019405120983719826,-0.0012051905505359173
1772565953765361700,1.777361572265625,0.0016777096316218376,-0.0010776100680232048,-0.0006584478542208672
1772565953775389400,1.787389404296875,0.000009772367775440216,0.00019378308206796646,-0.0013577938079833984
1772565953785417500,1.79741748046875,0.0019498737528920174,0.0007285792380571365,-0.0005601001903414726
1772565953795446300,1.8074462890625,0.001279822550714016,-0.00018808059394359589,-0.0015151100233197212
1772565953805474600,1.817474609375,0.0007247878238558769,0.0015181871131062508,0.0000460529699921608
1772565953815503600,1.827503662109375,0.0012089507654309273,-0.002738608978688717,0.001230892725288868
1772565953825531400,1.837531494140625,-0.00009209010750055313,0.0030821729451417923,-0.0005743745714426041
1772565953835559700,1.8475595703125,-0.0007584132254123688,-0.0008622352033853531,-0.0015352428890764713
1772565953845588500,1.85758837890625,0.002038720063865185,-0.0011605741456151009,-0.0013363463804125786
1772565953855616500,1.867616455078125,-0.0009935549460351467,0.001960383728146553,-0.0013102474622428417
1772565953865645300,1.877645263671875,-0.00022995425388216972,-0.0003691287711262703,-0.002322387881577015
1772565953875673600,1.887673583984375,0.001186048611998558,0.000361110083758831,-0.001235818024724722
1772565953885701400,1.897701416015625,0.0007104962132871151,-0.002209404483437538,0.0001119980588555336
1772565953895730400,1.90773046875,-0.0007694223895668983,-0.002262401394546032,-0.0014222487807273865
1772565953905758700,1.9177587890625,0.0007490538991987705,0.0008541299030184746,0.0007703257724642754
1772565953915787500,1.92778759765625,0.0004627644084393978,0.00021470524370670319,-0.0006027999334037304
1772565953925815600,1.937815673828125,-0.0018812422640621662,0.0010800817981362343,0.002068714238703251
1772565953935843600,1.947843505859375,0.002000581007450819,-0.00102141872048378,0.0011786865070462227
1772565953945872600,1.95787255859375,-0.0009361384436488152,0.001061631366610527,0.0021835886873304844
1772565953955900400,1.967900390625,0.00240239966660738,-0.0012127077206969261,-0.0007219202816486359
1772565953965929500,1.977929443359375,0.00046827830374240875,-0.00003153551369905472,0.000241168774664402
1772565953975957500,1.98795751953125,-0.00029311981052160263,0.0002100132405757904,-0.0010715033859014511
1772565953985985500,1.997985595703125,-0.00031687458977103233,-0.0008421177044510841,0.0013216021470725536
1772565953996014600,2.0080146484375,0.0004818076267838478,0.0006955908611416817,-0.0005548615008592606
1772565954006042400,2.01804248046875,0.00014923280104994774,0.0006974553689360619,-0.0010782801546156406
1772565954016071700,2.02807177734375,-0.0020020687952637672,-0.0005968408659100533,-0.001026615034788847
1772565954026099500,2.038099365234375,0.0032440153881907463,-0.000608246773481369,-0.00045425351709127426
1772565954036127500,2.04812744140625,0.000049287453293800354,0.0021856753155589104,0.0022315443493425846
1772565954046156300,2.05815625,0.001968628726899624,-0.0004017520695924759,0.00058787502348423
1772565954056184600,2.0681845703125,0.0008479710668325424,-0.00141934584826231,-0.001012418419122696
1772565954066212400,2.07821240234375,-0.0005789091810584068,0.0007587037980556488,0.0011234707199037075
1772565954076241400,2.088241455078125,0.00014999834820628166,-0.0008615627884864807,0.0004044170491397381
1772565954086269700,2.098269775390625,-0.0007202201522886753,-0.0009274473413825035,-0.0026384610682725906
1772565954096298500,2.108298583984375,0.000012681819498538971,0.0012065432965755463,0.0009232508018612862
1772565954106326500,2.118326416015625,0.002343576867133379,0.0009617200121283531,0.0002857903018593788
1772565954116354600,2.1283544921875,0.0018895077519118786,-0.0011658798903226852,0.001500723883509636
1772565954126383600,2.138383544921875,0.0001688087359070778,-0.0011567361652851105,-0.0011476553045213223
1772565954136411400,2.148411376953125,-0.0003808676265180111,0.0009484933689236641,0.002781306393444538
1772565954146440400,2.1584404296875,0.00131554389372468,0.0011880099773406982,-0.00006785290315747261
1772565954156468500,2.168468505859375,-0.000004052184522151947,-0.00020775292068719864,0.0008799661882221699
1772565954166496500,2.17849658203125,-0.00047314027324318886,-0.001209709793329239,0.0013959710486233234
1772565954176525600,2.188525634765625,-0.0005578286945819855,0.0005996422842144966,0.00038689980283379555
1772565954186553600,2.1985537109375,-0.0016010235995054245,-0.0005250861868262291,0.002874326892197132
1772565954196582700,2.208582763671875,0.0007271124050021172,0.0017492538318037987,0.000034065451472997665
1772565954206610400,2.2186103515625,-0.0006730998866260052,0.0008512865751981735,-0.002111064735800028
1772565954216638500,2.228638427734375,0.00021905917674303055,-0.00013221893459558487,0.0009979098103940487
1772565954226667500,2.23866748046875,0.0003070705570280552,-0.00016711745411157608,-0.001446523703634739
1772565954236695600,2.248695556640625,-0.0003019943833351135,0.00019400659948587418,-0.0007517049089074135
1772565954246724600,2.258724609375,0.0017438950017094612,-0.000897006131708622,-0.00030158553272485733
1772565954256752400,2.26875244140625,0.00010285526514053345,0.0005347095429897308,0.00142707210034132
1772565954266780700,2.27878076171875,-0.0011560488492250443,0.0009753452613949776,-0.00237067136913538
1772565954276809500,2.2888095703125,-0.0008766832761466503,-0.0004939213395118713,0.0009697312489151955
1772565954286837500,2.29883740234375,-0.0009899190627038479,-0.0009394437074661255,-0.0008103842847049236
1772565954296866300,2.3088662109375,0.0010564536787569523,0.0012443484738469124,0.0019385307095944881
1772565954306894600,2.31889453125,-0.0002692784182727337,-0.0020939726382493973,-0.00008231401443481445
1772565954316922400,2.32892236328125,0.000123538076877594,0.0007247170433402061,-0.0001885741949081421
1772565954326951400,2.338951416015625,-0.0004621320404112339,-0.0015461118891835213,-0.0019017020240426064
1772565954336979500,2.3489794921875,0.0009650564752519131,0.0032454468309879303,-0.000057995785027742386
1772565954347007500,2.359007568359375,-0.001603038515895605,-0.00023814011365175247,0.0003031771630048752
1772565954357036500,2.36903662109375,0.002185308374464512,0.0010606832802295685,-0.0005567576736211777
1772565954367064600,2.379064697265625,0.0021578585729002953,-0.00025506503880023956,0.000018561258912086487
1772565954377093600,2.38909375,0.0007668891921639442,0.00079395342618227,0.0010934127494692802
1772565954387121400,2.399121337890625,0.002377526368945837,0.0024537919089198112,-0.0011210227385163307
1772565954397149400,2.4091494140625,-0.0016398518346250057,-0.0007902048528194427,0.0005783406086266041
1772565954407178500,2.419178466796875,0.0012432849034667015,0.0003404412418603897,0.0006185020320117474
1772565954417206500,2.42920654296875,-0.00014848355203866959,0.0005604187026619911,0.0000986526720225811
1772565954427235600,2.439235595703125,0.0013390830717980862,-0.0018649306148290634,0.0025312332436442375
1772565954437263600,2.449263671875,-0.00185804208740592,-0.0007096519693732262,-0.0006626956164836884
1772565954447291600,2.459291748046875,0.0017149443738162518,0.000672241672873497,0.000708507839590311
1772565954457320400,2.469320556640625,-0.0007535400800406933,-0.000085427425801754,0.000379340723156929
1772565954467348500,2.479348388671875,0.0003862460143864155,-0.0015177065506577492,0.00019452814012765884
1772565954477377500,2.48937744140625,-0.0005993898957967758,-0.0014066528528928757,0.00041130930185317993
1772565954487405600,2.499405517578125,0.00029988354071974754,-0.0010099858045578003,0.001382289920002222
1772565954497433300,2.509433349609375,-0.0008090571500360966,0.0008550258353352547,0.00003686128184199333
1772565954507462400,2.51946240234375,-0.0011102608405053616,0.0004480993375182152,-0.001926157157868147
1772565954517490400,2.529490478515625,-0.0007296949625015259,-0.0005340743809938431,0.00014871172606945038
1772565954527519500,2.53951953125,0.0016609076410531998,-0.0015721861273050308,0.00019686389714479446
1772565954537547500,2.549547607421875,0.0011005783453583717,-0.0021974965929985046,-0.001084915827959776
1772565954547575600,2.559575439453125,-0.0005030734464526176,0.0025926753878593445,0.0029283249750733376
1772565954557604600,2.5696044921875,0.0029478506185114384,-0.0009455997496843338,-0.0006144782528281212
1772565954567632400,2.57963232421875,0.0011929059401154518,0.0018154475837945938,0.00236275652423501
1772565954577660700,2.58966064453125,-0.0018271184526383877,-0.0006317310035228729,0.0010780473239719868
1772565954587689500,2.599689453125,-0.001574121881276369,0.00020654499530792236,-0.001919181551784277
1772565954597717500,2.609717529296875,0.0008464250713586807,0.00007099006325006485,-0.0003085015341639519
1772565954607746600,2.61974658203125,0.0011230949312448502,0.0003545274958014488,0.000667219515889883
1772565954617774600,2.629774658203125,0.0014264294877648354,0.0006698453798890114,-0.0014393413439393044
1772565954627802600,2.639802734375,0.00012568244710564613,0.0012263581156730652,-0.0002255905419588089
1772565954637831400,2.64983154296875,0.001365917269140482,0.0005999822169542313,-0.0005121463909745216
1772565954647860200,2.659860107421875,0.002164609730243683,-0.00033783353865146637,-0.0010529495775699615
1772565954657889300,2.66988916015625,0.0019321152940392494,-0.0008771233260631561,0.00067091453820467
1772565954667917300,2.679917236328125,0.0015651071444153786,0.002576184459030628,0.0013466700911521912
1772565954677945300,2.6899453125,0.000880940817296505,0.0005026469007134438,-0.0015633665025234222
1772565954687974400,2.699974365234375,0.0011115027591586113,0.0005264887586236,-0.0016726301982998848
1772565954698002400,2.71000244140625,-0.0008147615008056164,0.0010399464517831802,0.0034715314395725727
1772565954708031500,2.720031494140625,-0.0006443588063120842,-0.0005641672760248184,0.000885598361492157
1772565954718059300,2.730059326171875,0.0010709837079048157,-0.0019436851143836975,0.0004336601123213768
1772565954728087600,2.740087646484375,0.0008567459881305695,0.00040751975029706955,0.0030366452410817146
1772565954738116400,2.750116455078125,0.00003915466368198395,-0.0016902526840567589,-0.0008955122902989388
1772565954748144400,2.760144287109375,-0.0024345465935766697,0.002113909460604191,0.0013646651059389114
1772565954758173200,2.770173095703125,0.0006222296506166458,-0.00024032499641180038,-0.0010148691944777966
1772565954768201500,2.780201416015625,-0.0011695134453475475,-0.0015051374211907387,-0.0015571280382573605
1772565954778229200,2.790229248046875,-0.0004299539141356945,-0.0008246991783380508,0.001301242969930172
1772565954788258300,2.80025830078125,-0.0006082612089812756,0.0003694109618663788,0.0007392535917460918
1772565954798286300,2.810286376953125,-0.0017140056006610394,-0.00008785352110862732,-0.001504726242274046
1772565954808314400,2.820314453125,-0.0016014911234378815,-0.0008719936013221741,-0.0011064750142395496
1772565954818343400,2.830343505859375,-0.00044354842975735664,-0.0011084824800491333,-0.0012095393612980843
1772565954828371200,2.84037109375,-0.00015094177797436714,-0.0018441509455442429,0.003362462855875492
1772565954838400300,2.850400146484375,-0.0011794548481702805,-0.00025956984609365463,-0.0016528023406863213
1772565954848428300,2.86042822265625,0.00029241666197776794,-0.0021686339750885963,0.00019261613488197327
1772565954858456300,2.870456298828125,0.00039121974259614944,0.0011834865435957909,0.002228070516139269
1772565954868485400,2.8804853515625,-0.0030146543867886066,-0.0014330781996250153,0.0014412892051041126
1772565954878513400,2.890513427734375,0.0007481258362531662,0.0033353110775351524,-0.000517731998115778
1772565954888542500,2.90054248046875,-0.00041304202750325203,-0.0018704431131482124,0.00017039477825164795
1772565954898570200,2.9105703125,0.0033675814047455788,-0.0012443335726857185,0.000052150338888168335
1772565954908598500,2.9205986328125,0.0009715864434838295,0.0011979416012763977,0.0013864226639270782
1772565954918627300,2.93062744140625,0.0005271043628454208,0.0009281635284423828,-0.00021333806216716766
1772565954928655400,2.9406552734375,0.000015712343156337738,0.0000052032992243766785,0.0025408556684851646
1772565954938684200,2.95068408203125,-0.0007936223410069942,0.0007287841290235519,0.0013584122061729431
1772565954948712400,2.96071240234375,-0.0005997223779559135,0.00283610075712204,-0.002714490983635187
1772565954958740200,2.970740234375,-0.0013877516612410545,0.002632368355989456,0.0005518761463463306
1772565954968769300,2.980769287109375,-0.0007744873873889446,0.0014691194519400597,-0.0002324017696082592
1772565954978797300,2.99079736328125,-0.000045313965529203415,-0.0008616792038083076,0.0012613655999302864
1772565954988826400,3.000826416015625,-0.00023005343973636627,0.0009804116562008858,0.002110371831804514
1772565954998854400,3.0108544921875,0.0009294869378209114,0.0001385863870382309,0.00042112870141863823
1772565955008882200,3.020882080078125,-0.0003606518730521202,-0.0010310476645827293,-0.0014930241741240025
1772565955018911500,3.030911376953125,-0.001508207991719246,0.000524505041539669,-0.0002511921338737011
1772565955028939300,3.040939208984375,-0.001545303501188755,0.0005853734910488129,0.0011154995299875736
1772565955038967300,3.05096728515625,-0.0006558075547218323,0.0009928373619914055,0.000357829499989748
1772565955048996400,3.060996337890625,0.00007343851029872894,-0.0009180130437016487,0.00040221773087978363
1772565955059024400,3.0710244140625,0.001072922721505165,-0.0005571544170379639,-0.0009999368339776993
1772565955069053400,3.081053466796875,-0.0014495928771793842,0.001096447929739952,0.0006108791567385197
1772565955079081200,3.091081298828125,0.0021057268604636192,0.0004921769723296165,0.0008870488964021206
1772565955089109500,3.101109619140625,-0.000650468748062849,-0.0010029179975390434,0.00042623747140169144
1772565955099138300,3.11113818359375,-0.0019221282564103603,-0.001066301017999649,0.0006605954840779305
1772565955109166300,3.121166259765625,-0.00036742445081472397,0.0009372131898999214,0.0006435774266719818
1772565955119195100,3.131195068359375,-0.001751735806465149,0.00013613421469926834,0.0006190761923789978
1772565955129223400,3.141223388671875,-0.003413153812289238,0.004190610721707344,0.00038707442581653595
1772565955139251200,3.151251220703125,0.0013232780620455742,0.0003695068880915642,0.0009013311937451363
1772565955149280300,3.1612802734375,0.000008176080882549286,0.0007212935015559196,0.0016552531160414219
1772565955159308500,3.17130859375,-0.0004344410263001919,-0.0010979119688272476,0.00005788961425423622
1772565955169337300,3.18133740234375,-0.0024514291435480118,0.001215304248034954,0.0016654441133141518
1772565955179365400,3.191365478515625,0.0007238583639264107,0.0011628400534391403,0.0008925944566726685
1772565955189393400,3.201393310546875,0.0012765834107995033,-0.00038155168294906616,0.0010557095520198345
1772565955199422500,3.21142236328125,0.0009407587349414825,-0.00048008840531110764,-0.0008332706056535244
1772565955209450200,3.2214501953125,0.0027792658656835556,0.002017959952354431,-0.0004165247082710266
1772565955219479300,3.231479248046875,0.0007816283032298088,-0.0015906235203146935,0.00038242340087890625
1772565955229507300,3.24150732421875,-0.0007951902225613594,0.0014122668653726578,0.0006548506207764149
1772565955239535400,3.251535400390625,0.0014602411538362503,-0.004172647371888161,-0.0025132461450994015
1772565955249564400,3.261564453125,-0.0013690311461687088,0.0007177647203207016,-0.0012363414280116558
1772565955259592200,3.27159228515625,0.0015460653230547905,0.002507409080862999,-0.0003849291242659092
1772565955269620500,3.281620361328125,-0.0022815056145191193,-0.00023778807371854782,-0.0009706337004899979
1772565955279649300,3.291649169921875,0.00008178316056728363,-0.0010013161227107048,-0.002303545828908682
1772565955289677300,3.30167724609375,0.0010327128693461418,0.0008790986612439156,-0.00008874433115124702
1772565955299706000,3.3117060546875,0.0006332388147711754,0.0009419498965144157,-0.0021180729381740093
1772565955309734400,3.321734375,-0.00047025643289089203,0.0021782470867037773,0.0034013078548014164
1772565955319762200,3.33176220703125,-0.0009613432921469212,-0.0009786644950509071,-0.0014139539562165737
1772565955329791200,3.341791259765625,-0.0022451309487223625,-0.0008711731061339378,0.0018136585131287575
1772565955339819500,3.351819580078125,-0.002318101469427347,0.0009847842156887054,-0.0011448473669588566
1772565955349848300,3.361848388671875,-0.0004059639759361744,0.0007835133001208305,0.002314468380063772
1772565955359876400,3.37187646484375,0.0003812666982412338,-0.002052753232419491,-0.0009465720504522324
1772565955369904400,3.381904296875,0.0007193386554718018,-0.00144126545637846,0.0018663960509002209
1772565955379933400,3.391933349609375,0.0016157589852809906,-0.0004215408116579056,0.0013398886658251286
1772565955389961200,3.401961181640625,0.0002959929406642914,-0.00162504892796278,-0.002649100963026285
1772565955399990300,3.411990234375,-0.0013458458706736565,0.0025715604424476624,-0.0008376189507544041
1772565955410018600,3.4220185546875,0.0008223354816436768,0.00007982831448316574,0.0017364504747092724
1772565955420046300,3.43204638671875,0.0004763910546898842,0.0019770637154579163,0.0025979834608733654
1772565955430075400,3.442075439453125,-0.0010776892304420471,-0.00027928687632083893,-0.0005654506385326385
1772565955440103200,3.452103271484375,0.0013686912134289742,0.0006195297464728355,-0.001268525142222643
1772565955450132500,3.462132568359375,0.0009168963879346848,-0.0005064262077212334,-0.0014889645390212536
1772565955460160300,3.47216015625,-0.000261552631855011,0.001487215980887413,-0.002641047816723585
1772565955470188300,3.482188232421875,-0.0005289171822369099,0.000948750413954258,0.00026961369439959526
1772565955480217300,3.49221728515625,-0.0007904395461082458,-0.00011731311678886414,-0.0015804842114448547
1772565955490245400,3.502245361328125,-0.0011493121273815632,-0.0011628977954387665,0.0013874461874365807
1772565955500273200,3.512273193359375,-0.0016742213629186153,0.00008532591164112091,0.0018212748691439629
1772565955510302200,3.52230224609375,-0.0007804487831890583,-0.002403375692665577,-0.0014486745931208134
1772565955520330500,3.53233056640625,-0.0017240066081285477,-0.000876319594681263,0.0013068984262645245
1772565955530359300,3.542359375,0.0011475197970867157,0.00003070477396249771,0.0027287518605589867
1772565955540387300,3.55238720703125,0.000824744813144207,0.0007217954844236374,0.001003289595246315
1772565955550415400,3.562415283203125,-0.00040115276351571083,-0.0007901545614004135,-0.00024942541494965553
1772565955560444400,3.5724443359375,-0.00046560121700167656,0.00034568365663290024,-0.0015818048268556595
1772565955570472200,3.58247216796875,-0.0006976891309022903,-0.00022487249225378036,0.0012604547664523125
1772565955580501200,3.592501220703125,-0.0006074081175029278,-0.0002749403938651085,0.0007398063316941261
1772565955590529500,3.602529541015625,0.001036456786096096,0.0004835985600948334,0.0011628768406808376
1772565955600557300,3.612557373046875,0.00037892255932092667,0.00022260937839746475,-0.0003117155283689499
1772565955610586400,3.62258642578125,0.0014966754242777824,0.0016785720363259315,0.0019934731535613537
1772565955620614400,3.632614501953125,-0.0007046936079859734,0.000520629808306694,-0.0003309338353574276
1772565955630643500,3.6426435546875,-0.00006537651643157005,0.00007498450577259064,0.0007685190066695213
1772565955640671200,3.652671142578125,-0.0008962829597294331,-0.00010211579501628876,0.00025639357045292854
1772565955650699300,3.66269921875,-0.0004036957398056984,-0.0020090723410248756,0.0003310353495180607
1772565955660728600,3.672728515625,0.0017292303964495659,0.0006583500653505325,0.0008980226702988148
1772565955670756400,3.68275634765625,0.000006459653377532959,0.0014697154983878136,0.0012811259366571903
1772565955680785400,3.692785400390625,0.0004890244454145432,-0.0012725414708256721,-0.0007743020541965961
1772565955690813200,3.702813232421875,-0.0010066959075629711,0.0024184156209230423,-0.00003962032496929169
1772565955700841500,3.712841552734375,-0.0003638085909187794,-0.0016125449910759926,0.0019018244929611683
1772565955710870300,3.722870361328125,0.0009074332192540169,0.00034819357097148895,-0.0015501701273024082
1772565955720898300,3.732898193359375,0.0013931943103671074,-0.0006337137892842293,0.0022357795387506485
1772565955730927000,3.742927001953125,-0.0014615128748118877,-0.0020646927878260612,0.00045272940769791603
1772565955740955400,3.752955322265625,0.0009816717356443405,0.0004650438204407692,-0.0007432964630424976
1772565955750983200,3.762983154296875,-0.0008213566616177559,0.0013485513627529144,-0.0007313783280551434
1772565955761012200,3.77301220703125,0.00039916951209306717,-0.000977720133960247,0.0036159660667181015
1772565955771040500,3.78304052734375,0.00030091218650341034,0.0009405277669429779,0.0001870766282081604
1772565955781068300,3.793068359375,-0.00012492714449763298,-0.00006534811109304428,0.001876053400337696
1772565955791097300,3.803097412109375,0.00038423575460910797,0.001172466203570366,0.0009780731052160263
1772565955801125400,3.81312548828125,-0.002694379072636366,0.001990056596696377,0.0008446481078863144
1772565955811154400,3.823154541015625,0.0012759538367390633,-0.0007749339565634727,-0.0008038673549890518
1772565955821182200,3.83318212890625,-0.0025467476807534695,-0.0007933089509606361,-0.00048455409705638885
1772565955831210500,3.84321044921875,-0.0034873676486313343,0.0008351178839802742,-0.0029464615508913994
1772565955841239600,3.853239501953125,-0.00009103817865252495,0.00014429446309804916,-0.00014534872025251389
1772565955851267300,3.863267333984375,-0.0006852974183857441,-0.0008339071646332741,-0.0008383290842175484
1772565955861296400,3.87329638671875,0.0013131387531757355,-0.0027923956513404846,0.0005579665303230286
1772565955871324400,3.883324462890625,-0.0018460797145962715,0.000714682973921299,0.0008005318231880665
1772565955881352400,3.8933525390625,0.00043252110481262207,-0.00034738611429929733,-0.0011784634552896023
1772565955891381200,3.90338134765625,0.001814405433833599,0.0009439270943403244,0.0014733090065419674
1772565955901409300,3.9134091796875,-0.0009811143390834332,-0.0006433166563510895,-0.00021753227338194847
1772565955911438300,3.923438232421875,-0.0016652317717671394,-0.0015436522662639618,0.0015054219402372837
1772565955921466400,3.93346630859375,-0.0003781258128583431,-0.0036547407507896423,-0.0011372328735888004
1772565955931494100,3.943494140625,-0.0007872162386775017,-0.0006465381011366844,-0.0003398992121219635
1772565955941523200,3.953523193359375,0.0021140314638614655,-0.0027285972610116005,0.0024878447875380516
1772565955951551500,3.963551513671875,-0.00037288572639226913,0.000870969146490097,0.0010066833347082138
1772565955961579300,3.973579345703125,-0.00041070301085710526,-0.0021053794771432877,0.0008389037102460861
1772565955971608300,3.9836083984375,-0.00010918732732534409,-0.0000010095536708831787,-0.0025705345906317234
1772565955981636400,3.99363623046875,-0.0005408856086432934,-0.0011807894334197044,-0.00054892897605896
1772565955991665400,4.00366552734375,0.0001744236797094345,-0.0005040932446718216,-0.002353778574615717
1772565956001693200,4.013693115234375,0.003046909347176552,0.0006988570094108582,-0.0007811817340552807
1772565956011721500,4.023721435546875,0.0033076750114560127,0.0007958253845572472,-0.0007380531169474125
1772565956021750500,4.03375048828125,0.0012591714039444923,-0.0006012693047523499,0.0009234934113919735
1772565956031778300,4.0437783203125,-0.0005102758295834064,0.0007701069116592407,-0.003728513140231371
1772565956041807400,4.053807373046875,-0.0008247951045632362,-0.00026692822575569153,0.00017701275646686554
1772565956051835400,4.06383544921875,-0.0005445233546197414,0.0018132654950022697,-0.00028871605172753334
1772565956061863400,4.073863525390625,0.0006794650107622147,-0.002735679969191551,0.002418387681245804
1772565956071892200,4.083892333984375,0.00032939203083515167,0.000316886231303215,-0.002371392212808132
1772565956081920500,4.09392041015625,-0.000796325970441103,-0.0027966154739260674,0.0013136239722371101
1772565956091949300,4.10394921875,0.0008739186450839043,-0.00016241520643234253,0.001126948744058609
1772565956101977300,4.113977294921875,-0.0006912206299602985,-0.00029903557151556015,0.0002829926088452339
1772565956112005000,4.124005126953125,0.0005898252129554749,0.00038643740117549896,0.0009601898491382599
1772565956122034400,4.134034423828125,0.0022199461236596107,0.0006415685638785362,0.000020360108464956284
1772565956132062500,4.1440625,0.000318353995680809,-0.0006835330277681351,0.00003671133890748024
1772565956142091300,4.15409130859375,0.00003392808139324188,0.0015157051384449005,0.001084931194782257
1772565956152119300,4.164119384765625,0.00005605630576610565,0.000005690380930900574,-0.0002160598523914814
1772565956162147300,4.174147216796875,-0.0005255779251456261,-0.0008987188339233398,-0.0007470939308404922
1772565956172176400,4.18417626953125,0.0030930740758776665,-0.00012062676250934601,-0.00013749953359365463
1772565956182204200,4.1942041015625,0.0006062136963009834,0.00009668711572885513,0.0002385387197136879
1772565956192232400,4.204232421875,-0.00043577468022704124,-0.0019273431971669197,0.0013195611536502838
1772565956202261500,4.214261474609375,-0.0018222164362668991,-0.0016066981479525566,0.0005536358803510666
1772565956212289300,4.224289306640625,0.0008966373279690742,0.00022381916642189026,-0.001087465789169073
1772565956222318300,4.234318359375,-0.00017342111095786095,-0.0006438381969928741,-0.001899729948490858
1772565956232346400,4.244346435546875,0.00004642549902200699,-0.0014478033408522606,0.0032021193765103817
1772565956242374400,4.25437451171875,-0.001522708684206009,-0.00007760711014270782,-0.0007625282742083073
1772565956252403200,4.2644033203125,0.0005511241033673286,-0.0002744905650615692,-0.0016424600034952164
1772565956262431500,4.274431396484375,0.0018432904034852982,0.0016456488519906998,0.001447339542210102
1772565956272460300,4.284460205078125,0.0006469013169407845,-0.0011177202686667442,0.0004072641022503376
1772565956282488300,4.29448828125,-0.0014980086125433445,-0.00022476259618997574,0.0003686477430164814
1772565956292516400,4.304516357421875,0.0011654486879706383,-0.0006065266206860542,-0.0015305927954614162
1772565956302545400,4.31454541015625,-0.0011195437982678413,0.00021106377243995667,0.002128324471414089
1772565956312573400,4.324573486328125,0.0008022589609026909,-0.002908342517912388,-0.0016958792693912983
1772565956322602200,4.334602294921875,0.00272559467703104,0.0011628316715359688,-0.002058868296444416
1772565956332630300,4.34463037109375,0.00006538070738315582,0.0011559249833226204,-0.0016786335036158562
1772565956342658300,4.354658203125,-0.00006697885692119598,-0.0003855125978589058,-0.00031695934012532234
1772565956352687400,4.364687255859375,0.0005973232910037041,-0.000425451435148716,0.002168206963688135
1772565956362715100,4.374715087890625,0.00045937206596136093,0.0007229037582874298,0.0020784582011401653
1772565956372743400,4.384743408203125,0.0010371264070272446,0.001403437927365303,0.0013089640997350216
1772565956382772500,4.3947724609375,-0.0005165613256394863,0.00225644838064909,0.0018953918479382992
1772565956392800300,4.40480029296875,0.0004972182214260101,0.0003914404660463333,0.0020529720932245255
1772565956402829300,4.414829345703125,0.0014082854613661766,-0.0019452162086963654,-0.0015329737216234207
1772565956412857300,4.424857421875,-0.0004232986830174923,-0.0007297340780496597,-0.0017966600134968758
1772565956422885400,4.434885498046875,0.0014925794675946236,-0.0018690340220928192,0.00010084221139550209
1772565956432914200,4.4449140625,0.0019744662567973137,0.0011845221742987633,0.0006607770919799805
1772565956442942500,4.4549423828125,-0.0028269472531974316,0.00007185433059930801,-0.0005594831891357899
1772565956452971300,4.46497119140625,0.0004040924832224846,-0.0020923493430018425,-0.003806154243648052
1772565956462999300,4.474999267578125,-0.001229756511747837,0.0014160992577672005,-0.0005206121131777763
1772565956473027300,4.48502734375,-0.00037027616053819656,-0.0010236958041787148,-0.0001380867324769497
1772565956483056400,4.495056396484375,0.001859588548541069,0.002068500965833664,-0.0002368902787566185
1772565956493084400,4.50508447265625,-0.0005595507100224495,0.0021649086847901344,0.0019311876967549324
1772565956503113200,4.51511328125,-0.00020055659115314484,-0.0024335719645023346,0.0013958923518657684
1772565956513141500,4.5251416015625,-0.0012429812923073769,0.0003244960680603981,-0.0014439276419579983
1772565956523169300,4.535169189453125,0.0007064519450068474,0.003213226795196533,0.0017912802286446095
1772565956533198300,4.5451982421875,0.00007840991020202637,0.000539485365152359,-0.0013214233331382275
1772565956543226400,4.555226318359375,-0.00048777833580970764,0.0018955664709210396,-0.0020202365703880787
1772565956553254400,4.56525439453125,0.002599145285785198,0.0002801818773150444,-0.00025852303951978683
1772565956563283500,4.575283447265625,0.000643586739897728,-0.00290522538125515,-0.0006324308924376965
1772565956573311200,4.585311279296875,0.0024703359231352806,0.0025959303602576256,0.002639340702444315
1772565956583340300,4.59534033203125,-0.0005816463381052017,-0.0005718991160392761,0.0008784583769738674
1772565956593368300,4.605368408203125,-0.0018613403663039207,-0.0008802609518170357,0.0007572537288069725
1772565956603396400,4.615396240234375,-0.00007142964750528336,-0.0015830686315894127,-0.00022571859881281853
1772565956613425200,4.625425048828125,-0.0018551945686340332,0.0000089230015873909,0.002144153695553541
1772565956623453400,4.635453369140625,0.00042127538472414017,0.0020387843251228333,0.0010671713389456272
1772565956633482500,4.645482421875,-0.00008475780487060547,0.0012800851836800575,0.002980355639010668
1772565956643510300,4.65551025390625,0.0033158324658870697,-0.0010368656367063522,-0.0004002610221505165
1772565956653538800,4.665538818359375,0.000044086016714572906,0.00005559064447879791,0.0010149814188480377
1772565956663568000,4.67556787109375,0.0022819405421614647,0.0005567977204918861,-0.0007088831625878811
1772565956673595600,4.685595703125,-0.00039472756907343864,0.0022463547065854073,-0.0011109313927590847
1772565956683624700,4.695624755859375,-0.00010151369497179985,-0.0007606204599142075,0.00014208583161234856
1772565956693652700,4.70565283203125,0.0021389713510870934,0.003024228848516941,0.0018008616752922535
1772565956703680800,4.7156806640625,0.004244467243552208,-0.0017851730808615685,-0.0006188866682350636
1772565956713709800,4.725709716796875,0.001446729525923729,0.0020107701420783997,-0.0008077807724475861
1772565956723737600,4.735737548828125,0.0006722817197442055,0.003012118861079216,-0.00039099622517824173
1772565956733767000,4.745766845703125,-0.0011426256969571114,-0.002989303320646286,0.0005812579765915871
1772565956743794700,4.755794677734375,-0.0017828494310379028,-0.0012467969208955765,-0.00007734214887022972
1772565956753822700,4.76582275390625,-0.0004077749326825142,-0.001309916377067566,-0.001455400139093399
1772565956763851500,4.7758515625,-0.00028526969254016876,0.0025498028844594955,-0.000682018231600523
1772565956773879800,4.7858798828125,-0.000636278185993433,-0.0009605316445231438,0.0008535794913768768
1772565956783907600,4.795907470703125,-0.00027302326634526253,-0.0005357582122087479,0.001316969282925129
1772565956793936600,4.8059365234375,-0.0014215684495866299,-0.0030589858070015907,0.00013691047206521034
1772565956803964700,4.815964599609375,-0.0011954661458730698,0.0044103823602199554,0.0006706076674163342
1772565956813993700,4.82599365234375,0.00032311491668224335,-0.0035336026921868324,-0.000499118585139513
1772565956824021800,4.836021728515625,-0.0009589311666786671,0.0033139167353510857,-0.0004562418907880783
1772565956834049800,4.8460498046875,0.0001540137454867363,0.0009518256410956383,0.0010102451778948307
1772565956844078800,4.856078857421875,0.0004006223753094673,0.000368594191968441,0.00045870477333664894
1772565956854106600,4.866106689453125,0.0002976004034280777,-0.0008199475705623627,-0.001590763684362173
1772565956864135700,4.8761357421875,0.001574852503836155,-0.0005227392539381981,0.00143725099042058
1772565956874163700,4.886163818359375,0.0002560829743742943,-0.0005715098232030869,-0.0012395982630550861
1772565956884191700,4.896191650390625,-0.00011223228648304939,0.0009004194289445877,0.0001271357759833336
1772565956894220800,4.906220703125,0.0002825288102030754,0.0009131394326686859,0.00005456479266285896
1772565956904248800,4.916248779296875,0.0012098411098122597,0.00099862739443779,0.000009290874004364014
1772565956914278000,4.92627783203125,0.00012779515236616135,-0.0027573062106966972,-0.0012698774226009846
1772565956924305700,4.9363056640625,-0.0009294799529016018,0.0019064219668507576,-0.0023788176476955414
1772565956934333700,4.946333740234375,-0.0005594585090875626,-0.00009868107736110687,0.0007368437945842743
1772565956944362800,4.95636279296875,-0.0011149938218295574,0.0006470037624239922,0.000265464186668396
1772565956954390800,4.966390869140625,-0.0023186090402305126,-0.001746957190334797,0.0011626877821981907
1772565956964418600,4.97641845703125,0.0018116878345608711,0.0012525618076324463,0.0008431081660091877
1772565956974447600,4.986447509765625,-0.0001486656256020069,0.00009665638208389282,0.002329507376998663
1772565956984475600,4.9964755859375,-0.0018016896210610867,0.0008386131376028061,-0.0009911879897117615
1772565956994504700,5.006504638671875,-0.0018790103495121002,0.0009043272584676743,0.0018603629432618618
1772565957004532700,5.01653271484375,-0.0009000319987535477,-0.0002517504617571831,-0.0022803200408816338
1772565957014560800,5.026560791015625,-0.0017042271792888641,-0.0013307034969329834,-0.0016337363049387932
1772565957024589800,5.03658984375,-0.002291454002261162,-0.00038048718124628067,-0.0003919042646884918
1772565957034617600,5.04661767578125,0.0006451001390814781,-0.00113610178232193,0.0023000366054475307
1772565957044646700,5.056646728515625,-0.0018646628595888615,-0.0005542011931538582,-0.0010653999634087086
1772565957054674700,5.0666748046875,-0.000724834855645895,0.0027829082682728767,-0.0005895951762795448
1772565957064702700,5.07670263671875,0.0008288528770208359,-0.0004967749118804932,0.003024048637598753
1772565957074731800,5.086731689453125,-0.0004174625501036644,0.0006324853748083115,-0.0015103546902537346
1772565957084759800,5.096759765625,-0.0029583843424916267,-0.00019868742674589157,-0.0002863658592104912
1772565957094788900,5.106788818359375,0.00011864956468343735,0.0007262183353304863,0.0009832847863435745
1772565957104816600,5.116816650390625,-0.0006685811094939709,0.000989072024822235,-0.0024703023955225945
1772565957114844700,5.1268447265625,0.0011416217312216759,0.004324602894484997,-0.0015470460057258606
1772565957124873700,5.136873779296875,-0.0011122114956378937,-0.00003712158650159836,-0.0004921676591038704
1772565957134901800,5.14690185546875,-0.0016206004656851292,0.00081675685942173,-0.0010407054796814919
1772565957144930600,5.1569306640625,-0.0026155575178563595,-0.0011111050844192505,-0.0027200947515666485
1772565957154958800,5.166958740234375,0.00020044390112161636,0.0016248766332864761,0.0001295679248869419
1772565957164986600,5.176986572265625,0.000909111462533474,0.0014674840494990349,0.0006262478418648243
1772565957175015700,5.187015625,-0.00013136770576238632,-0.00029847491532564163,-0.0014299368485808372
1772565957185043700,5.197043701171875,-0.002899723593145609,0.00039900653064250946,0.002676124684512615
1772565957195071700,5.20707177734375,-0.00019070366397500038,-0.00046722404658794403,-0.00048648612573742867
1772565957205100800,5.217100830078125,-0.0009901849552989006,0.000033183954656124115,0.0008895690552890301
1772565957215128600,5.227128662109375,0.00210390891879797,0.000978466123342514,0.0006586727686226368
1772565957225157600,5.23715771484375,-0.0009560631588101387,-0.0033627524971961975,-0.0024284636601805687
1772565957235185700,5.247185546875,-0.0007575149647891521,-0.002021762542426586,0.0024708458222448826
1772565957245213700,5.257213623046875,-0.0004893345758318901,0.0012485990300774574,0.0003632199950516224
1772565957255242800,5.26724267578125,-0.00013118470087647438,0.0006760749965906143,-0.00027710990980267525
1772565957265270800,5.277270751953125,0.000048578716814517975,-0.00035403575748205185,0.00027469685301184654
1772565957275299800,5.2872998046875,-0.0010536685585975647,0.00002826843410730362,0.002081281039863825
1772565957285327600,5.29732763671875,-0.0025138799101114273,-0.001690269447863102,0.000008276663720607758
1772565957295356000,5.30735595703125,0.0017506787553429604,0.0008776895701885223,0.00023648934438824654
1772565957305384700,5.317384765625,-0.0015921206213533878,-0.0006219362840056419,-0.00009347638115286827
1772565957315412700,5.327412841796875,-0.0004602652043104172,-0.00009646639227867126,-0.0019722459837794304
1772565957325441500,5.337441650390625,-0.0011612093076109886,0.002456972375512123,-0.0004571736790239811
1772565957335469800,5.3474697265625,-0.002792756538838148,-0.0016280049458146095,-0.0007415618747472763
1772565957345497600,5.35749755859375,-0.0040628183633089066,0.0013640569522976875,0.0005825613625347614
1772565957355526700,5.367526611328125,-0.0029412200674414635,-0.0007905475795269012,-0.001580902375280857
1772565957365554700,5.3775546875,-0.00016247807070612907,0.00008296966552734375,-0.001115382183343172
1772565957375582700,5.387582763671875,0.0013799900189042091,0.0008290717378258705,-0.00024485355243086815
1772565957385611800,5.39761181640625,-0.0008474779315292835,0.00021681096404790878,-0.0010081157088279724
1772565957395639600,5.4076396484375,-0.000772722065448761,-0.0005149189382791519,0.0008943923749029636
1772565957405668600,5.417668701171875,0.0009607290849089622,-0.0018907077610492706,-0.0004550311714410782
1772565957415696600,5.427696533203125,-0.003706688992679119,0.000774625688791275,0.0002757036127150059
1772565957425724700,5.437724609375,0.003923000767827034,-0.0004136767238378525,0.0008589359931647778
1772565957435753700,5.447753662109375,-0.00030260952189564705,-0.00006186217069625854,-0.003285011276602745
1772565957445781800,5.45778173828125,0.0005288291722536087,0.0008553303778171539,0.002320942934602499
1772565957455810800,5.467810791015625,0.002111859619617462,0.0006710346788167953,-0.00128216203302145
1772565957465838600,5.477838623046875,0.0003669559955596924,0.00017329026013612747,0.0005266573280096054
1772565957475867000,5.487866943359375,0.0000430084764957428,-0.00023741740733385086,0.0005184439942240715
1772565957485895700,5.497895751953125,-0.002565823495388031,-0.0008744457736611366,0.0012042075395584106
1772565957495923700,5.507923828125,0.0013906480744481087,-0.0012918952852487564,0.00013971514999866486
1772565957505952500,5.517952392578125,-0.0011388217099010944,0.0014514261856675148,-0.0017181062139570713
1772565957515980800,5.527980712890625,-0.0016687889583408833,0.0007007978856563568,0.002897178754210472
1772565957526008600,5.538008544921875,0.0011054258793592453,0.0014819027855992317,-0.0009617418982088566
1772565957536037600,5.54803759765625,-0.00041519617661833763,0.00047005992382764816,0.001882180105894804
1772565957546066000,5.55806591796875,0.002361682243645191,0.0008229287341237068,-0.0016973745077848434
1772565957556093700,5.56809375,0.0003286655992269516,0.001895691268146038,0.0026926384307444096
1772565957566122800,5.578122802734375,0.00019177887588739395,0.0013042036443948746,-0.000349490437656641
1772565957576150500,5.588150634765625,-0.00042001157999038696,-0.0018290486186742783,0.0007213130593299866
1772565957586179800,5.598179931640625,-0.002869853749871254,0.0015819286927580833,0.0001910775899887085
1772565957596207600,5.60820751953125,0.0027540349401533604,-0.0013762153685092926,0.002305340953171253
1772565957606235600,5.618235595703125,0.0001049884594976902,0.0016797622665762901,0.003290977329015732
1772565957616264700,5.6282646484375,-0.0005067982710897923,-0.0015436206012964249,-0.0012829741463065147
1772565957626292700,5.638292724609375,0.0008918936364352703,0.000645764172077179,-0.0013239867985248566
1772565957636321800,5.64832177734375,0.000026653055101633072,-0.0006468649953603745,-0.0009186309762299061
1772565957646349600,5.658349609375,0.00045808544382452965,-0.0020013488829135895,-0.0015399465337395668
1772565957656377300,5.66837744140625,0.0012790197506546974,0.0032253051176667213,0.00030552782118320465
1772565957666406100,5.67840625,-0.0009319363161921501,0.00008277501910924911,-0.001736051868647337
1772565957676434200,5.68843408203125,0.000440254807472229,0.0029835840687155724,-0.0006568059325218201
1772565957686463200,5.698463134765625,-0.002893224358558655,-0.000677197240293026,-0.0013431021943688393
1772565957696491300,5.7084912109375,-0.00032410677522420883,0.0009006569162011147,-0.002188359387218952
1772565957706519000,5.71851904296875,-0.00012996233999729156,-0.001760639250278473,0.0031355656683444977
1772565957716548000,5.728548095703125,-0.0017046285793185234,-0.00028684549033641815,-0.0011761081404983997
1772565957726576400,5.738576416015625,-0.0013331174850463867,-0.0029662521556019783,-0.00019872793927788734
1772565957736604200,5.748604248046875,0.001562789548188448,-0.0005286503583192825,0.0033315103501081467
1772565957746633200,5.75863330078125,0.00028900010511279106,-0.0015989746898412704,0.0015690308064222336
1772565957756661200,5.7686611328125,-0.0007294667884707451,0.00011597387492656708,0.0007780208252370358
1772565957766690300,5.778690185546875,-0.0005198759026825428,-0.00021425727754831314,-0.0014611654914915562
1772565957776718000,5.788718017578125,-0.0015276381745934486,0.0017772717401385307,-0.0001929677091538906
1772565957786746400,5.798746337890625,0.0011083590798079967,0.0011543584987521172,-0.0006451723165810108
1772565957796775200,5.808775146484375,0.0018142368644475937,0.0011661453172564507,-0.000275428406894207
1772565957806803200,5.81880322265625,0.0011258097365498543,-0.0002780864015221596,0.0007554809562861919
1772565957816832300,5.828832275390625,-0.0013122595846652985,0.0030368994921445847,-0.00081669632345438
1772565957826860300,5.8388603515625,-0.0015796408988535404,-0.0010981913655996323,0.0014206254854798317
1772565957836888300,5.848888427734375,-0.0012405188754200935,0.0006732726469635963,0.0015651853755116463
1772565957846917000,5.858917236328125,-0.00029083574190735817,-0.0005555097013711929,-0.001986139453947544
1772565957856945200,5.868945068359375,0.0010686269961297512,0.0009835697710514069,-0.0016105063259601593
1772565957866974200,5.87897412109375,0.0009692911989986897,0.0007193842902779579,0.0002803378738462925
1772565957877002200,5.889002197265625,-0.0031070224940776825,-0.0016590822488069534,-0.002261619083583355
1772565957887030000,5.899030029296875,0.0005622808821499348,-0.0014976942911744118,-0.00011724187061190605
1772565957897059300,5.909059326171875,0.0009808908216655254,0.0010509053245186806,-0.0019320468418300152
1772565957907087400,5.91908740234375,0.0008240309543907642,-0.003050629049539566,-0.0012156562879681587
1772565957917115100,5.929115234375,-0.0004762471653521061,-0.000036648474633693695,0.0012572132982313633
1772565957927144200,5.939144287109375,-0.0006647990085184574,-0.0014910008758306503,-0.0014088768512010574
1772565957937172200,5.949172119140625,-0.001975483261048794,0.0008569499477744102,0.0018116254359483719
1772565957947201300,5.959201171875,0.0016349637880921364,-0.0019345758482813835,-0.001427310984581709
1772565957957229000,5.96922900390625,-0.00032553868368268013,0.002141631208360195,0.00047565018758177757
1772565957967257300,5.97925732421875,-0.000008089933544397354,-0.0009987689554691315,0.00010653631761670113
1772565957977286100,5.9892861328125,-0.00011291913688182831,-0.00020382925868034363,0.0008908803574740887
1772565957987314200,5.999314208984375,-0.002568886149674654,0.0017946064472198486,-0.0015064976178109646
1772565957997343200,6.00934326171875,0.0007339701987802982,0.00008942186832427979,-0.00012264959514141083
1772565958007371300,6.019371337890625,0.0011800494976341724,-0.00021178089082241058,0.0002746940590441227
1772565958017399300,6.0293994140625,0.0006691804155707359,-0.0001964932307600975,0.0011110282503068447
1772565958027428000,6.039427978515625,-0.0002160542644560337,-0.0005032895132899284,-0.0022062049247324467
1772565958037456400,6.049456298828125,0.0005032634362578392,0.000004673376679420471,0.00003772415220737457
1772565958047485200,6.059485107421875,0.0007048649713397026,-0.00011996272951364517,0.001727765891700983
1772565958057513200,6.06951318359375,0.00019738078117370605,0.00023933220654726028,-0.00040994584560394287
1772565958067541200,6.079541259765625,-0.0005192756652832031,-0.0014112945646047592,0.00015837280079722404
1772565958077570300,6.0895703125,0.0031001572497189045,-0.0007291268557310104,0.0014243465848267078
1772565958087598300,6.099598388671875,0.0016031949780881405,0.0012903474271297455,0.0017961240373551846
1772565958097626000,6.109626220703125,-0.00004323618486523628,-0.0018195314332842827,0.0007987841963768005
1772565958107655200,6.1196552734375,0.0010305503383278847,0.0010068807750940323,0.0018736356869339943
1772565958117683200,6.12968310546875,0.0011512706987559795,-0.0018030749633908272,0.0009288839064538479
1772565958127712300,6.139712158203125,0.00006150547415018082,0.0028217704966664314,-0.0005214735865592957
1772565958137740000,6.149739990234375,-0.00024216016754508018,-0.0038681505247950554,-0.0003387792967259884
1772565958147768300,6.159768310546875,-0.0025740237906575203,-0.001628166064620018,-0.000718546099960804
1772565958157797000,6.169797119140625,-0.00037284567952156067,-0.00011222343891859055,0.0005324720405042171
1772565958167825200,6.1798251953125,-0.0005028080195188522,0.0012124329805374146,-0.001629482489079237
1772565958177854200,6.189854248046875,0.00047538476064801216,0.0014593405649065971,-0.0016902359202504158
1772565958187882200,6.19988232421875,-0.0013430221006274223,0.0003959406167268753,-0.0010854322463274002
1772565958197910300,6.20991015625,-0.0003811074420809746,-0.0028258617967367172,-0.0010371538810431957
1772565958207939000,6.21993896484375,-0.0007046819664537907,0.00023863743990659714,-0.0015522092580795288
1772565958217967400,6.22996728515625,-0.0019507803954184055,-0.001977265812456608,0.002529290970414877
1772565958227996200,6.23999609375,0.0012921509332954884,0.0008936226367950439,-0.000440133735537529
1772565958238024200,6.250024169921875,-0.0008687074296176434,-0.0019504688680171967,-0.0017635570839047432
1772565958248052200,6.26005224609375,-0.00003034435212612152,0.003223254345357418,0.00035791704431176186
1772565958258081300,6.270081298828125,-0.002442128024995327,0.001987929455935955,0.0001619267277419567
1772565958268109300,6.280109375,0.00012089777737855911,-0.0009527336806058884,0.000050873029977083206
1772565958278137000,6.29013720703125,-0.0010574501939117908,-0.0005577914416790009,0.0014284532517194748
1772565958288166400,6.30016650390625,0.0008424487896263599,0.000880315899848938,0.000018042512238025665
1772565958298194200,6.310194091796875,-0.0005823299288749695,0.0013379696756601334,-0.0006815167143940926
1772565958308223200,6.32022314453125,0.0006509805098176003,0.00041518453508615494,0.00036217644810676575
1772565958318251000,6.3302509765625,0.00014926167204976082,-0.0020224228501319885,0.001160124782472849
1772565958328279300,6.340279296875,-0.0006310446187853813,-0.0015587667003273964,0.000035738106817007065
1772565958338308000,6.35030810546875,0.00015832064673304558,0.0013652089983224869,0.00018136203289031982
1772565958348336000,6.360336181640625,-0.0007159952074289322,0.0014608167111873627,-0.0013121385127305984
1772565958358365200,6.370365234375,0.0014958088286221027,0.0009623551741242409,-0.00033972226083278656
1772565958368393200,6.380393310546875,-0.0017306110821664333,0.0009879209101200104,0.0006259400397539139
1772565958378421200,6.390421142578125,-0.0007976368069648743,0.0019588638097047806,0.0008664191700518131
1772565958388450000,6.400449951171875,0.0008894759230315685,0.0019056005403399467,0.0005676127038896084
1772565958398478300,6.410478271484375,0.0010963687673211098,-0.00015989504754543304,0.0005508814938366413
1772565958408507100,6.420507080078125,0.0008284542709589005,-0.002582838758826256,-0.0005077244713902473
1772565958418535200,6.43053515625,-0.0015733782202005386,0.0019084550440311432,-0.000013060402125120163
1772565958428563200,6.440563232421875,0.00029296474531292915,-0.0014047836884856224,0.0030306666158139706
1772565958438592300,6.45059228515625,-0.00024543795734643936,-0.0008999835699796677,0.000355537049472332
1772565958448620300,6.460620361328125,0.0008267504163086414,-0.0012081107124686241,0.0009257197380065918
1772565958458648300,6.4706484375,0.00004030950367450714,-0.00036031100898981094,0.0002312040887773037
1772565958468677400,6.480677490234375,0.0004925141111016273,-0.0008466038852930069,-0.00043591810390353203
1772565958478705200,6.490705078125,-0.0012562666088342667,0.00008784141391515732,0.002246118150651455
1772565958488734200,6.500734130859375,0.002372823189944029,-0.0003830054774880409,0.0005994858220219612
1772565958498762200,6.51076220703125,-0.0000809868797659874,0.001359761692583561,-0.001835834700614214
1772565958508790300,6.520790283203125,0.0004047737456858158,-0.0006685014814138412,0.0008347835391759872
1772565958518819300,6.5308193359375,0.0006089820526540279,0.0005185231566429138,0.0013372264802455902
1772565958528847000,6.54084716796875,0.0005495934747159481,-0.001820264384150505,0.00005464768037199974
1772565958538876400,6.55087646484375,0.0003689718432724476,-0.0018400968983769417,0.0006541893817484379
1772565958548904200,6.560904296875,-0.0007756552658975124,-0.0013428851962089539,0.001874449197202921
1772565958558932200,6.57093212890625,0.0000026547349989414215,0.001802884042263031,0.000898012425750494
1772565958568961000,6.5809609375,-0.00016618985682725906,-0.0010251272469758987,0.0027238759212195873
1772565958578989300,6.5909892578125,-0.0006635300815105438,0.0016817990690469742,0.0014416291378438473
1772565958589018000,6.60101806640625,-0.0006797756068408489,0.0001454213634133339,-0.00007078005000948906
1772565958599046100,6.611046142578125,-0.00001899292692542076,0.0014396728947758675,0.0026600281707942486
1772565958609074200,6.62107421875,0.000654787290841341,-0.0005566319450736046,-0.0008896994404494762
1772565958619103200,6.631103271484375,-0.0015123574994504452,-0.0004706699401140213,0.000285422895103693
1772565958629131300,6.64113134765625,-0.0008313874714076519,0.0017477432265877724,0.00019753864035010338
1772565958639159300,6.6511591796875,-0.00025475770235061646,0.00040603429079055786,-0.0013793474063277245
1772565958649188400,6.661188232421875,0.0005188910290598869,-0.001229679211974144,-0.0024368888698518276
1772565958659216400,6.67121630859375,0.00016915006563067436,-0.0004488574340939522,0.0010258136317133904
1772565958669245400,6.681245361328125,0.00009191827848553658,0.00048218388110399246,-0.0022053993307054043
1772565958679273500,6.6912734375,-0.0005268440581858158,-0.00047869235277175903,0.0000019050203263759613
1772565958689301500,6.701301513671875,0.0011602682061493397,0.001158619299530983,-0.000311282929033041
1772565958699330300,6.711330322265625,-0.00008851941674947739,-0.0026591531932353973,0.00025839125737547874
1772565958709358300,6.7213583984375,0.0012236195616424084,0.0021664947271347046,-0.0025573689490556717
1772565958719387400,6.731387451171875,-0.00033680396154522896,-0.0009421519935131073,0.000520661473274231
1772565958729415400,6.74141552734375,-0.0012715733610093594,-0.00015678629279136658,-0.00043141888454556465
1772565958739443200,6.751443115234375,0.00020027486607432365,-0.0009273160248994827,-0.0007588122971355915
1772565958749472300,6.76147216796875,0.00046792300418019295,0.00010865367949008942,-0.0000887610949575901
1772565958759500300,6.771500244140625,-0.0017541740089654922,-0.0010359231382608414,-0.0007454999722540379
1772565958769529300,6.781529296875,0.0022765202447772026,0.0016767727211117744,0.0014012744650244713
1772565958779557400,6.791557373046875,0.00009263353422284126,-0.0021602120250463486,0.0007178117521107197
1772565958789585400,6.80158544921875,0.0011198143474757671,0.00011972058564424515,-0.0024572089314460754
1772565958799614500,6.811614501953125,0.00024050986394286156,-0.001646081916987896,0.0013488996773958206
1772565958809642200,6.821642333984375,0.0022687739692628384,-0.00005484279245138168,0.0010008253157138824
1772565958819670500,6.83167041015625,0.0006860597059130669,-0.00044827908277511597,0.0012714159674942493
1772565958829699300,6.84169921875,-0.0003858623094856739,0.0020977025851607323,0.00020322157070040703
1772565958839727400,6.851727294921875,0.00040360307320952415,-0.0036292430013418198,0.0017212196253240108
1772565958849756400,6.86175634765625,-0.000952478963881731,0.000498124398291111,-0.0008519263938069344
1772565958859784400,6.871784423828125,-0.00008815713226795197,-0.0007169470191001892,0.0004818132147192955
1772565958869812500,6.8818125,-0.0004191882908344269,-0.0010136235505342484,-0.00011553382501006126
1772565958879841300,6.89184130859375,0.00010320823639631271,-0.0012396182864904404,0.0002848268486559391
1772565958889869600,6.90186962890625,-0.0008821613155305386,-0.00093814916908741,0.0003255731426179409
1772565958899898400,6.9118984375,0.0003280872479081154,-0.0026406999677419662,-0.0005527650937438011
1772565958909926400,6.921926513671875,0.000018361955881118774,-0.00008513033390045166,0.0025154631584882736
1772565958919954200,6.9319541015625,-0.00013421988114714622,-0.0013884911313652992,0.00007548322901129723
1772565958929983500,6.9419833984375,-0.00009134318679571152,0.0005665356293320656,-0.0015125595964491367
1772565958940011300,6.95201123046875,-0.000680253840982914,0.00029873382300138474,-0.000880061648786068
1772565958950040300,6.962040283203125,-0.0017745466902852058,-0.0005870340391993523,-0.0016244151629507542
1772565958960068400,6.972068359375,-0.0005488693714141846,-0.0016382690519094467,-0.0009972844272851944
1772565958970096400,6.982096435546875,0.000618926715105772,-0.00004170462489128113,-0.0016753249801695347
1772565958980125400,6.99212548828125,0.0023981742560863495,0.00015972089022397995,-0.0019321795552968979
1772565958990153200,7.0021533203125,-0.0013289195485413074,0.0008204514160752296,0.0017331289127469063
1772565959000181500,7.012181396484375,-0.0009243837557733059,0.0010737590491771698,-0.0037710771430283785
1772565959010210300,7.022210205078125,-0.0007435553707182407,-0.00163307785987854,0.0008162176236510277
1772565959020238300,7.03223828125,0.0022228648886084557,0.0005171233788132668,-0.0015329658053815365
1772565959030267400,7.042267333984375,0.001221783459186554,0.0002619922161102295,0.0008148765191435814
1772565959040295400,7.05229541015625,-0.00334509601816535,0.0011021988466382027,0.002526488620787859
1772565959050323500,7.062323486328125,0.0008786777034401894,-0.0014517726376652718,-0.0005113789811730385
1772565959060352300,7.072352294921875,0.0000914204865694046,-0.0013363659381866455,0.0012590829282999039
1772565959070380500,7.082380615234375,0.00029062479734420776,-0.0001398073509335518,-0.0005691768601536751
1772565959080409300,7.092409423828125,0.00043736863881349564,0.0008518947288393974,0.003154075238853693
1772565959090437400,7.102437255859375,0.0008312501013278961,0.0005368432030081749,-0.0036071580834686756
1772565959100465400,7.11246533203125,0.0009452938102185726,0.0014390749856829643,0.00031756656244397163
1772565959110494500,7.122494384765625,-0.0015591434203088284,0.001990349031984806,0.0008856188505887985
1772565959120522500,7.1325224609375,-0.0011785472743213177,0.00035023409873247147,0.0020506568253040314
1772565959130550300,7.14255029296875,0.0024185841903090477,-0.001921975053846836,0.0015920605510473251
1772565959140579600,7.15257958984375,-0.0009835101664066315,0.002896936610341072,0.0008559208363294601
1772565959150607400,7.162607421875,-0.0005424907431006432,-0.0010786307975649834,0.00010384386405348778
1772565959160636400,7.172636474609375,0.00011028116568922997,0.0012629879638552666,0.0035087442956864834
1772565959170664200,7.182664306640625,0.0011473163031041622,0.0018784450367093086,0.0033777165226638317
1772565959180692500,7.1926923828125,0.0010385424830019474,-0.0005502915009856224,-0.002814534120261669
1772565959190721300,7.20272119140625,0.002456675749272108,0.003436461091041565,0.0019141747616231441
1772565959200749300,7.212749267578125,-0.0015585203655064106,-0.0003512594848871231,-0.0017190007492899895
1772565959210778400,7.2227783203125,-0.001976103987544775,-0.0015683239325881004,-0.0001645134761929512
1772565959220806400,7.232806396484375,0.0010247309692203999,-0.002641337923705578,-0.00006629107519984245
1772565959230834400,7.24283447265625,0.0004204590804874897,0.0001358063891530037,0.0017491858452558517
1772565959240863200,7.25286328125,-0.00023025693371891975,0.0011377530172467232,-0.0002774745225906372
1772565959250891500,7.2628916015625,0.0005007805302739143,-0.0011962410062551498,0.00020695477724075317
1772565959260919300,7.272919189453125,0.0011164569295942783,-0.0020220670849084854,0.002533936407417059
1772565959270948400,7.2829482421875,-0.0016947765834629536,-0.004342745989561081,0.00018076738342642784
1772565959280976400,7.292976318359375,-0.0018876278772950172,-0.00014985166490077972,0.0024926569312810898
1772565959291005400,7.30300537109375,0.0011928505264222622,0.00150397140532732,0.0006406949833035469
1772565959301033500,7.313033447265625,-0.0008830106817185879,-0.0010951543226838112,0.0026315576396882534
1772565959311061500,7.3230615234375,0.0012256796471774578,0.00010566506534814835,0.00036547472700476646
1772565959321090600,7.333090576171875,0.0009317486546933651,0.000053388066589832306,-0.00015227356925606728
1772565959331118300,7.343118408203125,0.0015011322684586048,-0.0026840753853321075,-0.00257681543007493
1772565959341147400,7.3531474609375,-0.0038602170534431934,0.0003440137952566147,-0.0001239418052136898
1772565959351175400,7.363175537109375,-0.0013800151646137238,0.0005490770563483238,0.0013735536485910416
1772565959361203500,7.373203369140625,0.0017709429375827312,-0.00030178390443325043,0.0003298502415418625
1772565959371232300,7.383232177734375,0.0011072834022343159,0.0005472311750054359,-0.001104528084397316
1772565959381260300,7.39326025390625,0.0003181961365044117,-0.000911833718419075,0.0018752152100205421
1772565959391289600,7.40328955078125,-0.00013986695557832718,0.000012283213436603546,-0.0015536043792963028
1772565959401317400,7.4133173828125,-0.0007302914746105671,-0.0006761569529771805,0.0016147103160619736
1772565959411345400,7.423345458984375,-0.0002642381004989147,0.00018457602709531784,0.0018546609207987785
1772565959421374200,7.433374267578125,0.0008109109476208687,-0.0018132952973246574,0.00031538214534521103
1772565959431402500,7.443402587890625,-0.00006446987390518188,0.002822468988597393,-0.00020180363208055496
1772565959441431300,7.453431396484375,-0.00001903204247355461,-0.0005398597568273544,0.0014957841485738754
1772565959451459300,7.463459228515625,-0.00020438805222511292,0.002508394420146942,0.0005239974707365036
1772565959461487400,7.4734873046875,-0.00039507169276475906,0.0008515827357769012,0.000944863073527813
1772565959471516400,7.483516357421875,0.0013202703557908535,0.002012188546359539,-0.0010562362149357796
1772565959481544400,7.49354443359375,-0.0006600022315979004,-0.0017359908670186996,-0.0013027749955654144
1772565959491572500,7.503572509765625,0.0024202102795243263,0.00016976706683635712,0.003029921557754278
1772565959501601500,7.5136015625,-0.00040348852053284645,-0.0024303989484906197,-0.002006907481700182
1772565959511629300,7.52362939453125,-0.00153666315600276,0.0005182530730962753,0.000700994860380888
1772565959521658400,7.533658447265625,0.0006378199905157089,-0.0017438139766454697,0.0017563640139997005
1772565959531686400,7.543686279296875,0.0002937391400337219,0.001821625977754593,-0.001566462218761444
1772565959541714400,7.55371435546875,-0.0001536356285214424,0.00021461118012666702,0.0016603539697825909
1772565959551743200,7.5637431640625,-0.00041063036769628525,-0.0012559862807393074,0.00011039432138204575
1772565959561771500,7.573771484375,0.0019990187138319016,0.0020604096353054047,0.0032433150336146355
1772565959571799300,7.58379931640625,-0.0004026200622320175,-0.00030740629881620407,-0.001957572065293789
1772565959581828400,7.593828369140625,-0.0018472443334758282,-0.0008542835712432861,-0.00009324541315436363
1772565959591856400,7.6038564453125,-0.0005505513399839401,-0.00006092805415391922,-0.0016764947213232517
1772565959601885400,7.613885498046875,0.0006286641582846642,0.001736571080982685,0.0014802133664488792
1772565959611913500,7.62391357421875,0.0002188039943575859,-0.00035427697002887726,0.0008650226518511772
1772565959621941200,7.633941162109375,0.001321542076766491,0.0017703566700220108,-0.00006794044747948647
1772565959631970300,7.64397021484375,-0.0007400107569992542,-0.001556730829179287,0.0014671050012111664
1772565959641998300,7.653998291015625,-0.0005742022767663002,0.001195923425257206,-0.00014275126159191132
1772565959652027400,7.66402734375,-0.0007339920848608017,-0.0007836036384105682,0.001089759636670351
1772565959662054700,7.6740546875,0.0008505955338478088,-0.002113531343638897,0.0009714681655168533
1772565959672082400,7.68408251953125,-0.0012634219601750374,0.0004793228581547737,0.0002971561625599861
1772565959682111500,7.694111572265625,0.0024151895195245743,-0.0015988070517778397,-0.00006889086216688156
1772565959692139300,7.70413916015625,-0.0008807391859591007,-0.0007870756089687347,0.000645369291305542
1772565959702168600,7.71416845703125,-0.0005533546209335327,0.001026161015033722,0.001819757279008627
1772565959712196600,7.724196533203125,-0.0001509510912001133,0.00009298883378505707,-0.00017867842689156532
1772565959722224400,7.734224365234375,-0.001699493732303381,-0.0007293811067938805,-0.0010192249901592731
1772565959732253400,7.74425341796875,0.0005628615617752075,-0.0014979690313339233,-0.0013390704989433289
1772565959742281500,7.754281494140625,-0.0015034051612019539,-0.0006324034184217453,-0.00046039046719670296
1772565959752309500,7.7643095703125,0.0034948159009218216,-0.0004888586699962616,-0.001242294441908598
1772565959762338300,7.77433837890625,0.0004462068900465965,0.001627407968044281,0.001999406609684229
1772565959772366600,7.78436669921875,0.0007386216893792152,-0.0015966147184371948,0.0007048440165817738
1772565959782395600,7.794395751953125,-0.001293577253818512,0.0003541400656104088,0.0015817307867109776
1772565959792423400,7.80442333984375,-0.0011790613643825054,-0.0012722527608275414,0.0006586792878806591
1772565959802451700,7.81445166015625,0.0005058925598859787,-0.0007254686206579208,0.000538581982254982
1772565959812480500,7.82448046875,0.0019527878612279892,-0.000560087151825428,0.001344454474747181
1772565959822508500,7.834508544921875,0.0020822640508413315,0.0007505910471081734,0.000990292988717556
1772565959832537300,7.844537353515625,-0.00024054478853940964,0.0007303515449166298,-0.0015873806551098824
1772565959842565600,7.854565673828125,-0.002729151863604784,0.00017118453979492188,0.0011535566300153732
1772565959852593400,7.864593505859375,0.0012983465567231178,0.0010417718440294266,0.001360483467578888
1772565959862622500,7.87462255859375,0.0021965419873595238,0.00031024031341075897,-0.0005217245779931545
1772565959872650500,7.884650390625,0.00028918590396642685,-0.0025217654183506966,0.002473265863955021
1772565959882679600,7.894679443359375,-0.0017048167064785957,-0.0017618844285607338,-0.0008049784228205681
1772565959892707600,7.90470751953125,-0.00138443848118186,-0.000989035703241825,-0.00017647258937358856
1772565959902735400,7.9147353515625,0.0006410479545593262,-0.0008700191974639893,0.0016137110069394112
1772565959912764700,7.9247646484375,-0.002476714551448822,-0.003956357017159462,-0.0006350623443722725
1772565959922792400,7.93479248046875,-0.00136500783264637,0.0002987300977110863,0.0006774147041141987
1772565959932820500,7.944820556640625,0.001510673202574253,0.002160279080271721,0.002471053507179022
1772565959942849300,7.954849365234375,-0.002110521774739027,0.0009119194000959396,-0.00022483943030238152
1772565959952877600,7.964877685546875,-0.0014798850752413273,-0.0013312604278326035,-0.0015180702321231365
1772565959962906600,7.97490673828125,-0.001848483458161354,0.0008610840886831284,0.0024829255416989326
1772565959972934400,7.984934326171875,-0.00044206809252500534,-0.0022138021886348724,0.0007534688338637352
1772565959982962700,7.994962646484375,0.0011838451027870178,0.00025138724595308304,0.0008609378710389137
1772565959992991500,8.004991455078125,0.0006610667333006859,0.0008324887603521347,0.0039035994559526443
1772565960003019500,8.01501953125,0.0020470833405852318,-0.0006951084360480309,-0.0011300169862806797
1772565960013048300,8.02504833984375,0.001164511777460575,-0.00008950568735599518,-0.0006871335208415985
1772565960023076600,8.03507666015625,0.0003029918298125267,-0.0023896172642707825,0.002261545043438673
1772565960033104400,8.0451044921875,0.0011738454923033714,0.0004429202526807785,-0.00006019929423928261
1772565960043133400,8.055133544921874,0.0007347539067268372,-0.0012206370010972023,-0.0002748500555753708
1772565960053161700,8.06516162109375,0.001207730732858181,-0.0011987993493676186,-0.0014562285505235195
1772565960063189500,8.075189453125,-0.00007159868255257607,0.0006014443933963776,-0.0026430091820657253
1772565960073218600,8.085218505859375,-0.0004801275208592415,0.0009607048705220222,0.0009197676554322243
1772565960083246600,8.09524658203125,-0.00013438891619443893,0.0018904339522123337,0.0026320950128138065
1772565960093275600,8.105275634765626,0.0010472554713487625,0.0008475398644804955,0.00010608648881316185
1772565960103303400,8.115303466796876,0.0011263685300946236,-0.00006716139614582062,0.0009589511901140213
1772565960113331500,8.12533154296875,-0.0002843081019818783,0.00012005958706140518,0.001515817828476429
1772565960123360500,8.135360595703125,0.000028497539460659027,-0.0002501467242836952,-0.00007121264934539795
1772565960133388500,8.145388427734375,-0.0015425006859004498,-0.0011252611875534058,-0.00039984704926609993
1772565960143417600,8.15541748046875,0.0013089291751384735,-0.0013627782464027405,0.0013566710986196995
1772565960153445400,8.1654453125,0.00007908139377832413,0.0011776108294725418,0.00004399847239255905
1772565960163473700,8.1754736328125,-0.002754685003310442,0.0030291564762592316,0.0005980976857244968
1772565960173502500,8.18550244140625,-0.00017940858379006386,0.002284802496433258,0.00047612516209483147
1772565960183530500,8.195530517578124,0.0002652732655405998,0.00006371643394231796,-0.0009123068302869797
1772565960193559300,8.205559326171874,0.002114039845764637,-0.001161070540547371,0.002077091485261917
1772565960203587600,8.215587646484375,0.0018662186339497566,0.0020031221210956573,-0.000246245414018631
1772565960213615400,8.225615478515625,0.00012051593512296677,-0.000040055252611637115,-0.001263040117919445
1772565960223644400,8.23564453125,0.0020201560109853745,-0.0006300853565335274,0.0001990864984691143
1772565960233672700,8.245672607421875,0.0030832896009087563,0.0009853886440396309,-0.00006030546501278877
1772565960243700500,8.255700439453125,0.00042309798300266266,-0.0021332595497369766,0.0009167841635644436
1772565960253729500,8.2657294921875,0.0009346911683678627,-0.0012256540358066559,-0.0016294638626277447
1772565960263757600,8.275757568359374,0.0007126498967409134,-0.0008198628202080727,0.0017784396186470985
1772565960273786600,8.28578662109375,-0.0007052170112729073,-0.00048803258687257767,0.000829555094242096
1772565960283814400,8.295814453125,0.0006241323426365852,-0.0000912398099899292,-0.0005549667403101921
1772565960293842400,8.305842529296875,-0.0025189309380948544,-0.0007381215691566467,-0.0023158486001193523
1772565960303871500,8.31587158203125,-0.00001989956945180893,-0.0018386710435152054,0.000039803795516490936
1772565960313899500,8.3258994140625,-0.0002904771827161312,-0.00010228995233774185,-0.0011066868901252747
1772565960323928600,8.335928466796876,0.002093138173222542,-0.0015581389889121056,-0.0005783825181424618
1772565960333956600,8.34595654296875,0.0007013706490397453,0.00023177172988653183,0.0014171237125992775
1772565960343984600,8.355984619140624,-0.0008276347070932388,-0.0005325730890035629,-0.0006244266405701637
1772565960354013400,8.366013427734375,-0.0006824922747910023,-0.0008761212229728699,-0.00009525660425424576
1772565960364041500,8.37604150390625,-0.0005962527357041836,-0.00009109638631343842,0.00021172873675823212
1772565960374070500,8.386070556640625,-0.0010553817264735699,0.00043887272477149963,-0.00142611563205719
1772565960384098600,8.3960986328125,-0.00277452589944005,0.00015422794967889786,-0.002163889817893505
1772565960394126300,8.406126220703126,-0.0009720982052385807,-0.000829809345304966,-0.0018285978585481644
1772565960404155400,8.4161552734375,-0.0013599470257759094,-0.00043455418199300766,-0.0036770931910723448
1772565960414183700,8.42618359375,-0.0018486371263861656,0.00008635967969894409,-0.000056259334087371826
1772565960424211500,8.43621142578125,-0.0003730454482138157,-0.0006288979202508926,-0.002019783016294241
1772565960434240500,8.446240478515625,-0.0017083543352782726,-0.0004906794056296349,0.0033467523753643036
1772565960444268500,8.4562685546875,-0.0012879250571131706,-0.0005191145464777946,-0.0015605692751705647
1772565960454297600,8.466297607421875,-0.0015052389353513718,0.001933390274643898,-0.0026631182990968227
1772565960464325400,8.476325439453126,0.0007340284064412117,0.002194739878177643,0.0009030485525727272
1772565960474353700,8.486353759765626,-0.0009424318559467793,-0.0005874643102288246,-0.000078592449426651
1772565960484382500,8.496382568359374,0.00009680632501840591,-0.0018773358315229416,-0.0016731824725866318
1772565960494410500,8.506410400390624,0.0004328973591327667,-0.00032391399145126343,-0.0004177684895694256
1772565960504438500,8.5164384765625,-0.00002568960189819336,0.00044744275510311127,0.0012579555623233318
1772565960514467600,8.526467529296875,-0.00029946211725473404,-0.0005483133718371391,0.0008084145374596119
1772565960524495600,8.53649560546875,-0.0007627974264323711,0.0003015715628862381,-0.0016146828420460224
1772565960534524400,8.5465244140625,0.00015945546329021454,0.0005260761827230453,-0.0006170626729726791
1772565960544552400,8.556552490234376,0.003311595879495144,0.0007427483797073364,0.002366560511291027
1772565960554580500,8.56658056640625,-0.0008285548537969589,-0.001521470956504345,-0.001310998573899269
1772565960564609500,8.576609619140624,0.0003061629831790924,0.00021892134100198746,-0.0027379957027733326
1772565960574637300,8.58663720703125,0.000978345051407814,-0.0019848449155688286,0.001843706239014864
1772565960584666400,8.596666259765625,-0.0009307917207479477,0.0016063684597611427,-0.0006504198536276817
1772565960594694700,8.606694580078125,0.001516120508313179,-0.001025899313390255,-0.002208369318395853
1772565960604722400,8.616722412109375,0.0006855959072709084,0.0004020780324935913,0.0006067361682653427
1772565960614751500,8.62675146484375,0.003132241778075695,-0.0005936771631240845,0.001755623146891594
1772565960624779500,8.636779541015626,0.00010458938777446747,-0.0005053989589214325,0.002035177778452635
1772565960634808600,8.64680859375,0.000529097393155098,-0.0010366998612880707,-0.00013796193525195122
1772565960644836400,8.65683642578125,0.0007297517731785774,0.0010634763166308403,-0.0001106620766222477
1772565960654865400,8.666865478515625,-0.00040821731090545654,-0.0007541319355368614,-0.0008169324137270451
1772565960664894500,8.67689453125,0.0014767413958907127,0.00042289309203624725,0.0008332743309438229
1772565960674922500,8.686922607421875,0.0012048324570059776,-0.0016581006348133087,0.0017765662632882595
1772565960684950300,8.6969501953125,0.0005951300263404846,-0.00045999884605407715,0.00004620477557182312
1772565960694979300,8.706979248046874,-0.0007750666700303555,0.00020978599786758423,0.0008078683167695999
1772565960705007600,8.717007568359374,-0.00004016933962702751,0.0006326325237751007,-0.0012414921075105667
1772565960715036400,8.727036376953125,0.001002192497253418,-0.0006158575415611267,0.0000304332934319973
1772565960725064400,8.737064453125,-0.00006935419514775276,-0.0008368482813239098,0.001008021179586649
1772565960735092500,8.747092529296875,0.001351974904537201,0.0017163241282105446,-0.0013656537048518658
1772565960745121500,8.75712158203125,-0.0022842083126306534,-0.00047127529978752136,0.0004899441264569759
1772565960755149300,8.7671494140625,0.0012127887457609177,-0.0017306841909885406,0.0013775755651295185
1772565960765178400,8.777178466796874,0.0010926900431513786,0.00000635441392660141,0.0018033613450825214
1772565960775206700,8.78720654296875,0.0001707039773464203,-0.0006850026547908783,0.001349558588117361
1772565960785234400,8.797234375,0.0002558566629886627,-0.0006504785269498825,0.001548683736473322
1772565960795263500,8.807263427734375,0.00007635913789272308,-0.0015431707724928856,0.001513530034571886
1772565960805291500,8.81729150390625,-0.0006500002928078175,-0.0017270399257540703,-0.0024349363520741463
1772565960815320600,8.827320556640625,-0.001816730946302414,0.0005148090422153473,0.0015965565107762814
1772565960825348400,8.837348388671876,-0.0005007474683225155,-0.0018669646233320236,0.001924960408359766
1772565960835376400,8.84737646484375,0.001158135011792183,0.001828969456255436,-0.0017371526919305325
1772565960845405700,8.85740576171875,-0.0019201780669391155,-0.0020820992067456245,-0.0026008114218711853
1772565960855433500,8.86743359375,-0.001312178559601307,-0.0003417236730456352,-0.002403204794973135
1772565960865461200,8.877461181640625,0.00029515475034713745,-0.0018831407651305199,-0.0005284990184009075
1772565960875490300,8.887490234375,-0.0012998119927942753,0.0009645773097872734,0.00039774831384420395
1772565960885518600,8.8975185546875,0.0010365471243858337,0.003281114622950554,-0.0013046087697148323
1772565960895547400,8.90754736328125,0.0016565313562750816,0.0030760513618588448,-0.0033560413867235184
1772565960905575400,8.917575439453126,-0.0007187118753790855,-0.0008143642917275429,0.001147521659731865
1772565960915603500,8.927603515625,-0.0009032692760229111,0.0012506507337093353,0.002364053390920162
1772565960925632500,8.937632568359374,0.00028978195041418076,-0.0001661321148276329,-0.0021761595271527767
1772565960935660300,8.947660400390625,0.0009209504351019859,0.0013944804668426514,0.0003647622652351856
1772565960945688600,8.9576884765625,-0.00012892065569758415,0.00003038812428712845,-0.0005335281603038311
1772565960955717600,8.967717529296875,-0.0007302621379494667,0.0005307961255311966,-0.001086400356143713
1772565960965745400,8.977745361328125,0.0012024976313114166,0.0007715392857789993,-0.000605809036642313
1772565960975774500,8.9877744140625,-0.000734951812773943,-0.00247352197766304,-0.0010380400344729424
1772565960985802500,8.997802490234376,-0.0008891299366950989,-0.0018276385962963104,-0.0016405973583459854
1772565960995830500,9.00783056640625,0.00013139285147190094,0.000528194010257721,0.000815901905298233
1772565961005859300,9.017859375,-0.0004250062629580498,0.00001252349466085434,-0.00011887401342391968
1772565961015887600,9.0278876953125,0.0016991309821605682,-0.0007912181317806244,0.0009812782518565655
1772565961025916700,9.037916748046875,0.00047408975660800934,0.00047351792454719543,0.0031228926964104176
1772565961035944400,9.0479443359375,-0.0015906589105725288,-0.0003371480852365494,-0.0017325826920568943
1772565961045972200,9.05797216796875,-0.00078598503023386,-0.0003550909459590912,-0.0014970209449529648
1772565961056001500,9.06800146484375,-0.001616625115275383,0.0010009901598095894,-0.0012807720340788364
1772565961066029600,9.078029541015624,0.0009669363498687744,-0.00028815027326345444,-0.0024861027486622334
1772565961076057300,9.088057373046874,-0.0014634644612669945,-0.0005531348288059235,0.0015515154227614403
1772565961086086400,9.09808642578125,-0.0007794522680342197,-0.0014024293050169945,0.00040252460166811943
1772565961096114400,9.108114501953125,0.0009542657062411308,-0.0006306450814008713,0.0005221008323132992
1772565961106143500,9.1181435546875,-0.0012689926661550999,0.0009692786261439323,0.0010483451187610626
1772565961116171300,9.128171142578125,0.002772354520857334,-0.0000962521880865097,-0.0004885653033852577
1772565961126199600,9.138199462890626,-0.000681005883961916,0.0012255636975169182,-0.0020242403261363506
1772565961136228600,9.148228515625,-0.0008192239329218864,-0.0003760606050491333,-0.0009848084300756454
1772565961146256400,9.15825634765625,-0.00028534606099128723,0.000724542886018753,0.0006898767314851284
1772565961156285400,9.168285400390625,0.0010960353538393974,-0.0015636449679732323,0.0006488640792667866
1772565961166313500,9.1783134765625,-0.003785670269280672,0.00031980033963918686,-0.0003615408204495907
1772565961176341500,9.188341552734375,-0.0019337083213031292,0.0008271327242255211,-0.0016190852038562298
1772565961186370300,9.198370361328125,0.0009258994832634926,0.0016733231022953987,-0.0016165999695658684
1772565961196398600,9.208398681640626,0.0008228356018662453,-0.001230853609740734,0.00036532431840896606
1772565961206427600,9.218427734375,2.766028046607971e-7,0.0013662353157997131,0.0007098368369042873
1772565961216455400,9.228455322265624,0.000042887404561042786,-0.0008247466757893562,-0.00011041667312383652
1772565961226483500,9.2384833984375,0.00020745489746332169,-0.0018498720601201057,-0.0006501274183392525
1772565961236512500,9.248512451171875,0.0008753761649131775,0.000880400650203228,0.0028239665552973747
1772565961246540500,9.25854052734375,-0.00027520861476659775,-0.0018487963825464249,0.0016352804377675056
1772565961256568300,9.268568359375,-0.002068314701318741,0.0004825349897146225,-0.0007138936780393124
1772565961266597600,9.27859765625,-0.0017666877247393131,-0.0009409710764884949,0.0014263000339269638
1772565961276625400,9.28862548828125,0.0020490894094109535,-0.0026648351922631264,-0.002308516763150692
1772565961286654500,9.298654541015624,0.0002801502123475075,0.001007530838251114,0.0019040117040276527
1772565961296682200,9.30868212890625,-0.0005725943483412266,-0.0018007727339863777,0.00018360977992415428
1772565961306710500,9.31871044921875,0.000514681451022625,0.0008046384900808334,0.00040725572034716606
1772565961316739600,9.328739501953125,0.0004185410216450691,0.001001446507871151,0.0018477593548595905
1772565961326767400,9.338767333984375,0.0009573511779308319,0.0007397439330816269,-0.0005373251624405384
1772565961336796400,9.34879638671875,0.001419941894710064,0.002280648797750473,-0.0011908644810318947
1772565961346824400,9.358824462890626,-0.0024013924412429333,-0.000023686327040195465,-0.0012922403402626514
1772565961356852500,9.3688525390625,0.0007107770070433617,0.0015835314989089966,0.0010188505984842777
1772565961366881300,9.37888134765625,-0.0002432442270219326,0.0009540589526295662,-0.0013866457156836987
1772565961376909600,9.38890966796875,-0.0012645665556192398,0.001104261726140976,-0.0006657280027866364
1772565961386937300,9.398937255859375,0.0008147228509187698,-0.00037470925599336624,0.0009839236736297607
1772565961396966400,9.40896630859375,0.00002829078584909439,-0.00030946172773838043,-0.00031117117032408714
1772565961406994700,9.41899462890625,-0.00024765683338046074,-0.002140667289495468,0.001164272427558899
1772565961417023500,9.4290234375,0.001751578412950039,0.00023061130195856094,-0.0003987369127571583
1772565961427051500,9.439051513671876,-0.0016275281086564064,0.0016059204936027527,-0.001610991545021534
1772565961437079600,9.44907958984375,-0.0011577466502785683,-0.0005994439125061035,0.0024471329525113106
1772565961447108600,9.459108642578125,-0.0005735186859965324,0.00047484319657087326,-0.0015322142280638218
1772565961457136400,9.469136474609375,-0.00037191761657595634,-0.0010783122852444649,-0.000959102064371109
1772565961467165400,9.47916552734375,0.000724361278116703,0.0009285788983106613,0.0006873197853565216
1772565961477193500,9.489193359375,-0.0003025536425411701,0.0018007643520832062,-0.0027668005786836147
1772565961487221500,9.499221435546875,-0.0035255025140941143,0.0017334464937448502,0.001142345368862152
1772565961497250600,9.50925048828125,-0.0008554174564778805,0.0008849641308188438,0.00122117530554533
1772565961507278300,9.5192783203125,-0.0006245984695851803,0.0013382090255618095,0.0010719457641243935
1772565961517306600,9.529306640625,0.000558643601834774,0.0001483093947172165,0.0011851303279399872
1772565961527335400,9.53933544921875,0.00284566730260849,-0.0007800683379173279,0.0029950570315122604
1772565961537363500,9.549363525390625,-0.00018074922263622284,0.0004090331494808197,-0.0005498765967786312
1772565961547392300,9.559392333984375,-0.0016431831754744053,-0.0022270726040005684,0.0020032809115946293
1772565961557420500,9.569420654296875,0.0006324881687760353,0.0006411513313651085,-0.0015586968511343002
1772565961567448300,9.5794482421875,0.0009388551115989685,-0.001054038293659687,-0.0016689440235495567
1772565961577477400,9.589477294921876,0.00006879959255456924,0.001871710643172264,0.0033758818171918392
1772565961587505700,9.599505615234374,-0.0005907458253204823,-0.001884755678474903,0.0011168606579303741
1772565961597534500,9.609534423828125,0.0020945193246006966,0.001852191984653473,-0.0002397536300122738
1772565961607562500,9.6195625,-0.00026762625202536583,0.0010688314214348793,-0.001011624000966549
1772565961617590500,9.629590576171875,-0.0004274160601198673,0.00039824750274419785,-0.0011485107243061066
1772565961627619600,9.63961962890625,-0.00026423996314406395,0.0015735030174255371,-0.0017856280319392681
1772565961637647400,9.6496474609375,-0.0011026030406355858,0.0017559295520186424,0.0007161456160247326
1772565961647675400,9.65967529296875,0.0005250358954071999,-0.0007577799260616302,0.00015697628259658813
1772565961657708000,9.6697080078125,-0.0018718093633651733,-0.00045311450958251953,-0.0013053654693067074
1772565961667736000,9.679736083984375,0.0015706028789281845,0.0009331433102488518,0.0008810828439891338
1772565961677764900,9.689764892578125,0.0007562078535556793,-0.00047114118933677673,0.0003071720711886883
1772565961687793000,9.69979296875,-0.0001554274931550026,-0.0001621972769498825,0.0009279418736696243
1772565961697821000,9.709821044921876,0.001262972131371498,-0.0006650015711784363,-0.0006244145333766937
1772565961707850000,9.71985009765625,0.0014517828822135925,-0.0016872258856892586,0.00024014245718717575
1772565961717877800,9.729877685546874,0.000947113148868084,-0.0018978817388415337,0.0005634501576423645
1772565961727906800,9.73990673828125,-0.0017729722894728184,0.0001119198277592659,0.0009794216603040695
1772565961737935000,9.74993505859375,-0.0003732149489223957,0.0016941037029027939,0.0010366803035140038
1772565961747963000,9.759962890625,0.001022355630993843,-0.0003684312105178833,0.0004385039210319519
1772565961757992000,9.769991943359376,0.0015461994335055351,-0.00008160900324583054,0.0018885945901274681
1772565961768020000,9.78002001953125,0.0018932251259684563,0.0019938433542847633,-0.000047298613935709
1772565961778048000,9.790048095703124,-0.0007164063863456249,0.0006143255159258842,0.000497317872941494
1772565961788076800,9.800076904296875,-0.0010770871303975582,0.0028554443269968033,-0.0011983131989836693
1772565961798105000,9.81010498046875,-0.00025683362036943436,-0.00028415676206350327,0.0004959902726113796
1772565961808134100,9.820134033203125,0.0017162095755338669,0.001018407754600048,-0.0009357812814414501
1772565961818162000,9.830161865234375,-0.0013328436762094498,-0.0010649831965565681,0.0006514624692499638
1772565961828190000,9.84018994140625,0.0008659223094582558,0.008505964651703835,0.004105830565094948
1772565961838219000,9.850218994140626,0.0011910945177078247,0.02958488278090954,0.014846892096102238
1772565961848247000,9.8602470703125,-0.00040462054312229156,0.022064849734306335,0.015094648115336895
1772565961858275800,9.87027587890625,-0.0001769200898706913,0.008678737096488476,0.006789847277104855
1772565961868304100,9.88030419921875,0.00044670235365629196,-0.006067767273634672,-0.0010284739546477795
1772565961878332000,9.890331787109375,-0.0000885925255715847,-0.0040562814101576805,-0.002768849488347769
1772565961888361000,9.90036083984375,-0.0012484011240303516,-0.008601938374340534,-0.005552450194954872
1772565961898388700,9.910388671875,-0.0009426702745258808,-0.006927609443664551,-0.005338331684470177
1772565961908417000,9.9204169921875,-0.0016656178049743176,-0.004205483011901379,-0.0017346590757369995
1772565961918446000,9.930446044921876,0.00007742084562778473,-0.004676063545048237,-0.0020318678580224514
1772565961928473900,9.940473876953124,0.0005475832149386406,-0.00617041252553463,-0.002401595003902912
1772565961938503000,9.9505029296875,0.0007622344419360161,-0.002372211776673794,-0.0031310347840189934
1772565961948531000,9.960531005859375,-0.001412220299243927,-0.006079862359911203,-0.00402156263589859
1772565961958559000,9.97055908203125,0.00011563580483198166,-0.003197256475687027,-0.0018311128951609135
1772565961968587800,9.980587890625,0.0014314809814095497,-0.004924430977553129,0.0007846490480005741
1772565961978616000,9.990615966796875,0.0004823300987482071,-0.0032879188656806946,-0.0009264321997761726
1772565961988645000,10.00064501953125,-0.0001983093097805977,-0.0047869374975562096,-0.0006950185634195805
1772565961998673000,10.0106728515625,-0.00021322304382920265,-0.002031897194683552,0.0008663930930197239
