time,seconds_elapsed,z,y,x
1772566886895860500,0.081860595703125,-0.09665595515668392,-0.13435221021398902,0.07843231620192527
1772566886905889500,0.0918896484375,-0.09684709381461143,-0.1489873231574893,0.09943579513356089
1772566886915918300,0.10191845703125,-0.020244331127405167,-0.16119944673776626,0.06497676843181252
1772566886925947400,0.111947509765625,0.12976970472931862,-0.1411084064759314,0.012497370262444019
1772566886935976400,0.1219765625,0.1455383517473936,-0.07861497929245233,0.005704056860506534
1772566886946005200,0.132005126953125,0.1458130770355463,-0.04969269006028771,0.044980859107524154
1772566886956034300,0.142034423828125,0.12497487166821956,-0.03214811941087246,0.05896671436205506
1772566886966063600,0.152063720703125,0.10166998392641544,0.01461392402499914,0.016079758793860675
1772566886976092400,0.162092529296875,0.046588732695579525,0.04825505847260356,-0.012419482720643282
1772566886986121500,0.17212158203125,0.007298340314626693,0.04444412188231945,-0.03516702884063124
1772566886996150500,0.182150634765625,0.026259645894169806,0.011969035539403558,-0.08872662346214055
1772566887006179300,0.192179443359375,0.10568564930856228,0.024125264213979244,-0.1195332651361823
1772566887016208400,0.20220849609375,0.14772271004915236,0.050625367800518864,-0.10070625346079468
1772566887026237400,0.212237548828125,0.1995622028797865,0.02182845851369202,-0.05456921005547046
1772566887036266200,0.222266357421875,0.24639117407202718,0.01802344020754099,0.02776128262877464
1772566887046295300,0.23229541015625,0.21109949593842028,0.047589434170722957,0.05889861756190657
1772566887056324600,0.24232470703125,0.18515140021145343,0.0371400094140321,0.04844108256399631
1772566887066353400,0.252353515625,0.14491700497865675,0.030005919750407336,0.03046089697629213
1772566887076382500,0.262382568359375,0.07533668827414512,0.0028659108251333234,0.025249592068791387
1772566887086411500,0.27241162109375,0.13051321657299994,-0.01938610686287284,0.01091375433281064
1772566887096440600,0.282440673828125,0.14941314735412597,-0.008262582236900925,0.00890387581512332
1772566887106469400,0.292469482421875,0.04661211357116699,-0.022674773144721983,0.02689472892731428
1772566887116498400,0.30249853515625,0.03806581902205944,-0.020118147464469074,0.003250526228547096
1772566887126527500,0.312527587890625,0.06202595580220222,0.02249693235978484,-0.04408902483433485
1772566887136556300,0.322556396484375,0.0818862560480833,0.012052695234864949,-0.08909092672988772
1772566887146585300,0.33258544921875,0.07044833171069621,-0.022024784803390502,-0.05634703338295221
1772566887156614700,0.34261474609375,0.08595511292219161,-0.020774346350878475,0.003205518043041229
1772566887166643500,0.3526435546875,0.08108779914677143,0.024426585248112677,0.04148308011963963
1772566887176672500,0.362672607421875,0.06185527541041374,0.08704510011598467,0.043741964962333436
1772566887186701600,0.37270166015625,0.08761749317646027,0.05533471453525125,0.009942278952151537
1772566887196730400,0.38273046875,0.14335282440185546,0.005428235593810677,-0.036355215711891646
1772566887206759400,0.392759521484375,0.14846505284905434,-0.022251360100880264,-0.04157587296962738
1772566887216788500,0.40278857421875,0.13773673808574677,-0.035164179296419025,-0.00889072407260537
1772566887226817300,0.4128173828125,0.17471534639298913,-0.039992622366175054,0.0023364801235496997
1772566887236846300,0.422846435546875,0.20355039573311803,-0.013283698334544897,-0.0072153382062911985
1772566887246875600,0.432875732421875,0.2092155818879604,0.005904255607724189,0.001455605635792017
1772566887256905500,0.442905517578125,0.10714987664222717,0.005847264723479747,0.0654559302508831
1772566887266934300,0.452934326171875,0.05337503183484077,-0.0039023412007838485,0.06222162450477481
1772566887276963600,0.462963623046875,0.016748305705189703,-0.00918612682260573,-0.0010746434941887855
1772566887286992600,0.47299267578125,0.052609308159351345,0.031047172431647774,-0.06417948057428002
1772566887297021400,0.483021484375,0.040352468654513356,0.05745302186347544,-0.09578764788955449
1772566887307050500,0.493050537109375,0.04441314222216606,-0.0030273119319230318,-0.08841054325029253
1772566887317079600,0.50307958984375,0.07729074495136737,-0.014677783041447401,-0.06071107381135225
1772566887327108400,0.5131083984375,0.1479822377681732,0.02839139722585678,-0.03913023338317871
1772566887337137400,0.523137451171875,0.15703881992697716,0.0405998675443232,0.02460705638155341
1772566887347166500,0.53316650390625,0.07234802785217762,0.0017482319068163631,0.06554404692575336
1772566887357195300,0.5431953125,0.11898995203971863,-0.02830101552866399,0.04827566286921501
1772566887367224600,0.553224609375,0.09373100762069225,0.036372312977164985,-0.007931523651629685
1772566887377253600,0.563253662109375,0.0454395626604557,0.11448065792173147,-0.04076557950004935
1772566887387282400,0.573282470703125,0.041860535129904744,0.09808328454606234,-0.02774696184247732
1772566887397311500,0.5833115234375,0.05569967539012432,0.040480990405008195,-0.011279665035754442
1772566887407340500,0.593340576171875,0.09475158284008503,0.02239149922393262,-0.00788388511762023
1772566887417369300,0.603369384765625,0.15111293700933456,0.007480784209445118,-0.02594488085657358
1772566887427398400,0.6133984375,0.1492810454070568,-0.020845146564766763,-0.03852306127026677
1772566887437427500,0.623427490234375,0.11547054574191569,-0.005798749406635761,-0.04332680829018354
1772566887447456300,0.633456298828125,0.1013011506140232,0.02585683724693954,-0.04621975325271487
1772566887457485300,0.6434853515625,0.11703531084060668,0.019418547827750442,-0.027514906652271746
1772566887467514600,0.6535146484375,0.129125561606884,-0.01483750364780426,0.0079167644739151
1772566887477543400,0.66354345703125,0.1566974591434002,-0.023193317126110193,0.047897331076115365
1772566887487572500,0.673572509765625,0.17710720996558665,-0.006540142358466982,0.05122296836748719
1772566887497602600,0.6836025390625,0.13927052352428435,0.01752294333949685,0.0349229909516871
1772566887507631600,0.693631591796875,0.150295190885663,0.0006081950262188911,0.0051135436214506625
1772566887517660700,0.70366064453125,0.14175298798978328,0.015866627499833703,-0.04122209109589457
1772566887527689500,0.713689453125,0.11145429583787918,0.029126579632610082,-0.05433218642920255
1772566887537718500,0.723718505859375,0.09577332710325717,-0.00802775056771934,-0.04554740694910288
1772566887547747600,0.73374755859375,0.0958417161643505,-0.022235578009858727,-0.024441344425827263
1772566887557776400,0.7437763671875,0.1503928060412407,-0.03129062579870224,-0.008146335446089505
1772566887567805400,0.753805419921875,0.17220774748623371,-0.03139547441266477,0.00431610963344574
1772566887577834500,0.76383447265625,0.16875497668385506,0.0008928571864962577,0.018848785115778446
1772566887587863600,0.773863525390625,0.17761749757528303,0.0065680532786995165,0.0010214520022273064
1772566887597892600,0.783892578125,0.14775252066552638,-0.006187675658985972,-0.022847207102179527
1772566887607921700,0.793921630859375,0.11216039828062056,-0.059077262064442033,-0.022103549128025767
1772566887617950500,0.803950439453125,0.07457739433944224,-0.07508110607787967,-0.018037322602421045
1772566887627979500,0.8139794921875,0.07856850980222224,-0.08830576770156622,-0.01511719737201929
1772566887638008600,0.824008544921875,0.10222294163405894,-0.05454202978760004,0.004580898049473763
1772566887648037400,0.834037353515625,0.09684709381461143,-0.022822657182812688,0.030071605397760867
1772566887658066400,0.84406640625,0.047826165536046024,0.022664470946416257,0.07126330135539173
1772566887668095500,0.854095458984375,0.031709727993607516,0.0441454311966896,0.030787498582154512
1772566887678124500,0.86412451171875,0.060469374009966846,0.06405147028043866,-0.03667100366279483
1772566887688153600,0.874153564453125,0.06717325556278228,0.03908800167664885,-0.0678895871385932
1772566887698182700,0.8841826171875,0.07471943315863609,0.001039791376516223,-0.0496649252705276
1772566887708211500,0.89421142578125,0.06384907957613468,-0.017873875669017433,-0.014008359347283839
1772566887718240500,0.904240478515625,0.030699089646339415,-0.028852804192528128,0.005072042567282915
1772566887728269600,0.91426953125,0.04192950871288776,-0.04615604036673903,0.0017743161961436271
1772566887738298400,0.92429833984375,0.08917641305625439,-0.05915770688951015,-0.014862199697643517
1772566887748327400,0.934327392578125,0.1283890640258789,-0.06394559875316917,-0.021406945165991783
1772566887758356500,0.9443564453125,0.17440087361633777,-0.06808459825403988,-0.01850640141889453
1772566887768385500,0.954385498046875,0.2489396895110607,-0.09473017472587525,-0.029277240149676798
1772566887778414600,0.96441455078125,0.2808750429540872,-0.05896686049252748,-0.008072685687988995
1772566887788443600,0.974443603515625,0.2683253579825163,-0.014489055536314844,0.009301058439165353
1772566887798472400,0.984472412109375,0.24702011962532996,-0.03187675512358546,0.025069851587712765
1772566887808501500,0.99450146484375,0.1390291159838438,-0.024454423103109,0.05311608863770961
1772566887818530600,1.004530517578125,0.033795302096009255,-0.061602469693124294,0.058167526808381075
1772566887828559600,1.0145595703125,0.01867956602871418,-0.11961349076554179,0.013939385764300823
1772566887838588400,1.02458837890625,0.016804419806599614,-0.129568483068794,-0.02735723187252879
1772566887848617500,1.034617431640625,0.03454349011480808,-0.1354194741193205,-0.03215834854394197
1772566887858646500,1.044646484375,0.044507250246405596,-0.12139328685440122,0.022339988232403993
1772566887868675600,1.054675537109375,0.08713409357368945,-0.08872026678659022,0.03248991858586669
1772566887878704600,1.06470458984375,0.1587403631478548,-0.039723157775029536,-0.006615034225583076
1772566887888733700,1.074733642578125,0.22274784815609452,0.004097571511939168,-0.0169663323700428
1772566887898762500,1.084762451171875,0.22036767502129076,0.013980521492287516,0.017040566650032996
1772566887908791600,1.09479150390625,0.14031097248792648,0.06399455246143043,0.05106324776113033
1772566887918820600,1.104820556640625,0.07254384268522263,0.07970730457380414,0.04717836915180087
1772566887928849400,1.114849365234375,0.06984861225187779,0.033289836791902776,-0.005461626406759023
1772566887938878500,1.12487841796875,0.04816635727584362,-0.02210522962845862,-0.04731514727398753
1772566887948907500,1.134907470703125,0.02982698298692703,-0.0236686064876616,-0.055619449760764834
1772566887958936600,1.1449365234375,0.04287701869606971,-0.011692045228928328,-0.06381298534944653
1772566887968965600,1.154965576171875,0.04995090260505676,-0.003902122005075216,-0.07827478755265474
1772566887978994700,1.16499462890625,0.04840542672872543,-0.002051817963272333,-0.04539937678053975
1772566887989023500,1.1750234375,0.03416121279895305,-0.0016617957323789595,0.002342617603391409
1772566887999052500,1.185052490234375,0.015644143855571745,-0.03374116075597703,0.024175825357437133
1772566888009081600,1.19508154296875,0.06063888535797596,-0.02735978915579617,0.010903817460685968
1772566888019110400,1.2051103515625,0.1047609356790781,0.02331175587400794,-0.00994344799593091
1772566888029139500,1.215139404296875,0.1503916369974613,0.021558190204948185,-0.02816255690604448
1772566888039168500,1.22516845703125,0.1814227350771427,0.005781506010890006,-0.04059767558723688
1772566888049197300,1.235197265625,0.18204700445532798,0.00015825930163264275,-0.033696371766179796
1772566888059226600,1.2452265625,0.15402502506375312,-0.010085121488943695,-0.01948416040986776
1772566888069255700,1.255255615234375,0.08938216476142406,-0.008870046610757708,-0.004410656049102545
1772566888079284500,1.265284423828125,0.04808803134262561,0.0065041211970150465,0.0046573242865502835
1772566888089313500,1.2753134765625,0.008299041789770126,-0.004497969006374478,-0.004703355385363102
1772566888099342600,1.285342529296875,0.03931552682220935,0.0006089987438172101,-0.038313510172814126
1772566888109371400,1.295371337890625,0.07434183201789855,0.0049503158837556835,-0.06384542631432413
1772566888119400400,1.305400390625,0.09519055877923965,-0.03327339711375534,-0.04822890111804008
1772566888129429500,1.315429443359375,0.1544786140501499,-0.04407017400339246,-0.05398512655720114
1772566888139458300,1.325458251953125,0.20781156030893325,-0.002287161089107394,-0.062147974746674294
1772566888149487600,1.335487548828125,0.2134638869822025,0.016088891948387026,-0.047470045574754476
1772566888159517400,1.345517333984375,0.19084172080755232,-0.02082702638618648,-0.020470833359658717
1772566888169545500,1.35554541015625,0.13560206414461135,-0.05291435552053153,0.0037833179309964176
1772566888179575600,1.365575439453125,0.10440028567314147,-0.07100976498574019,0.015565817922353743
1772566888189604600,1.3756044921875,0.06192015734016895,-0.08395086042769252,0.0229334240809083
1772566888199633700,1.385633544921875,0.05010638542771339,-0.08581446234248578,0.012842238177359104
1772566888209662500,1.395662353515625,0.06233984405696392,-0.07007730644121765,0.0017282850973308085
1772566888219691500,1.40569140625,0.05997428396940231,-0.03041282005086541,-0.01285875092074275
1772566888229720600,1.415720458984375,0.09809738613665103,-0.008691182912513614,-0.023845716620236632
1772566888239749400,1.425749267578125,0.13936989224553106,-0.024318814024701714,-0.01524053149074316
1772566888249778400,1.4357783203125,0.15506430498361587,-0.05112235753722488,-0.01723535856977105
1772566888259807500,1.445807373046875,0.162649061024189,-0.06210245510451495,-0.011710311537981032
1772566888269836500,1.45583642578125,0.162649061024189,-0.04754639874659478,-0.008567921859025955
1772566888279865600,1.465865478515625,0.12760054399669168,-0.015779825999215243,0.01106383032798767
1772566888289894700,1.475894775390625,0.03304419146776199,0.026459625445678828,0.026792291466146707
1772566888299923500,1.48592333984375,-0.026695699223875997,0.007933496413007378,0.012751783414930105
1772566888309952500,1.495952392578125,-0.07498071444332599,-0.03903787892460823,-0.021763357388228176
1772566888319981600,1.505981689453125,-0.07985387343764305,-0.0797347771026194,-0.04122062979117035
1772566888330010400,1.51601025390625,-0.03372983564436435,-0.07446604291945695,0.009474953701347112
1772566888340039400,1.526039306640625,0.02185878058671951,-0.06427307714186609,0.03315861162766814
1772566888350068500,1.536068359375,0.08330839780569076,-0.09088080582134425,0.055799044111371036
1772566888360097500,1.54609765625,0.12100246090590953,-0.09665135204680264,0.04917041975185275
1772566888370126600,1.556126708984375,0.1635509782999754,-0.06677315032929182,0.054836774950474496
1772566888380155600,1.56615576171875,0.18274667715728282,-0.06337568991072476,0.058144730454683304
1772566888390184400,1.576184326171875,0.19217969141304492,-0.0753068045925349,0.07474266790375113
1772566888400213500,1.586213623046875,0.1774883182376623,-0.04383103148527443,0.0787187319278717
1772566888410242600,1.59624267578125,0.21695991240441798,-0.03135981857739389,0.023891017066687344
1772566888420271600,1.606271728515625,0.21109598880708216,-0.026541896901652217,0.01926759504973888
1772566888430300400,1.616300537109375,0.17473288204967974,-0.06238821324333548,-0.034760347735881804
1772566888440329500,1.62632958984375,0.15394962173998356,-0.10007833082079887,-0.04591317152157426
1772566888450358500,1.636358642578125,0.09159165750443934,-0.05939706860333681,-0.004584551311284303
1772566888460387600,1.6463876953125,0.04983516727089882,0.02549034202210605,0.055951458194106816
1772566888470416600,1.656416748046875,0.04276946666836738,0.016916209618002175,0.06502703731432556
1772566888480445700,1.66644580078125,0.017145196068286895,-0.03393368765339255,0.04043298654481768
1772566888490473000,1.676472900390625,-0.005291092145442962,-0.03531498594395816,0.01640241487696767
1772566888500502000,1.686501953125,0.041000118908286094,-0.034704964286834,0.0037289573952555654
1772566888510531000,1.696531005859375,0.053368017572164535,-0.010545505542308091,0.000053483752906322475
1772566888520560400,1.706560302734375,0.10967618024945258,0.017619024125114083,0.0035595921777188777
1772566888530589200,1.716589111328125,0.15968319695591926,0.030189824949949977,0.013882394880056381
1772566888540618200,1.7266181640625,0.19838322222828864,0.018357056076079604,0.00022051088288426398
1772566888550647300,1.736647216796875,0.20576924082636833,-0.00943652138710022,-0.007156447625905275
1772566888560676000,1.746676025390625,0.18189210615456103,0.006383855818212032,0.005501373895257711
1772566888570705200,1.756705078125,0.1159627131730318,0.03852737211920321,0.026271920853853225
1772566888580734200,1.766734130859375,0.0932628055870533,0.039946518202126025,0.01885696842223406
1772566888590763000,1.776762939453125,0.05351122543513775,0.05097169702015817,0.04033069521412253
1772566888600792000,1.7867919921875,0.06284253288209438,0.06769559893645345,0.04437061825469136
1772566888610821000,1.796821044921875,0.09206921188831328,0.07714607578366994,0.026043811186403035
1772566888620850200,1.80685009765625,0.1108165824562311,0.08899608805328607,-0.013124562250077723
1772566888630879200,1.816879150390625,0.11737608710229396,0.11318206947855651,-0.021739976512640712
1772566888640908300,1.826908203125,0.13564473424255846,0.11719240109845995,-0.04481909267455339
1772566888650937000,1.83693701171875,0.10941139183342456,0.07768712385781108,-0.037285043907910584
1772566888660966100,1.846966064453125,0.1054793130815029,0.050318932199850674,-0.04533551776409149
1772566888670995200,1.8569951171875,0.1245370647728443,0.027934666434302924,-0.03613762743845582
1772566888681024000,1.86702392578125,0.10542612158954143,0.011697013664990662,-0.020822569406777618
1772566888691053000,1.877052978515625,0.08752046254277229,0.028746859600022434,0.023684388578683137
1772566888701082000,1.88708203125,0.08660568578541278,0.04793576339036226,0.03869242648780346
1772566888711111200,1.897111083984375,0.10749123742580413,0.06300218042321502,0.032900983604788776
1772566888721140200,1.90714013671875,0.09696575175821781,0.05764708313085139,0.02700315773785114
1772566888731169300,1.917169189453125,0.09585165303647518,0.018771920487284658,0.024041969844698904
1772566888741198000,1.927197998046875,0.11955986088216304,-0.004601721641793847,-0.0075832947358489035
1772566888751227100,1.93722705078125,0.12769932819604873,-0.011552709823474287,-0.0011547229930758476
1772566888761256200,1.947256103515625,0.09573124152719974,-0.019760566198453306,0.009333353273570537
1772566888771285000,1.957284912109375,0.07589373763501643,-0.017332389203459024,0.010233516983687877
1772566888781314000,1.96731396484375,0.05721300256252288,-0.007087912434339523,0.023716975674033164
1772566888791343000,1.977343017578125,0.016164952859282492,-0.010233663114160298,0.04911109078004956
1772566888801372200,1.9873720703125,0.04942892455756664,0.012132993929460644,0.06856207957267761
1772566888811401200,1.997401123046875,0.061112932610511775,0.05360365295894444,0.057232730176299804
1772566888821430300,2.00743017578125,0.08872457763552666,0.021714476745203135,-0.0192744631819427
1772566888831459000,2.017458984375,0.06672551179528236,-0.07168123450651764,0.07480696531161665
1772566888841488100,2.027488037109375,0.18224807998538017,-0.044152153198421,0.04976707047075033
1772566888851517200,2.03751708984375,0.31506314375996586,0.11400653760395943,-0.020413842475414275
1772566888861546000,2.0475458984375,0.12676643126010895,0.056741658723726864,0.026192133615911006
1772566888871575000,2.057574951171875,0.14595453133285044,-0.0788112325169146,0.027963381072133777
1772566888881605000,2.067605224609375,0.11009294435679912,0.08639058173000812,0.02378331890851259
1772566888891634200,2.07763427734375,0.06590425854027271,0.08191065983697772,-0.007826748102903366
1772566888901663000,2.0876630859375,-0.009562193593382834,0.015089140321314334,0.014757570279389618
1772566888911692000,2.097692138671875,0.007799860095977783,0.0029732436571270225,0.012758213155716657
1772566888921721300,2.107721435546875,0.0280506209641695,-0.00561309064142406,-0.009713438632339238
1772566888931750100,2.117750244140625,0.06115034201145172,-0.00512574551589787,-0.019265841484069825
1772566888941779200,2.127779296875,0.09198913238942623,0.024000030399113893,-0.00025879706665873524
1772566888951808300,2.137808349609375,0.09776128605008125,0.035715894895046944,0.0013867781832814215
1772566888961837000,2.147837158203125,0.09010521833896637,0.051353828205540776,0.018458909015357492
1772566888971866000,2.1578662109375,0.07366086401641368,0.04032404627762735,0.02490910806804895
1772566888981895200,2.167895263671875,0.062332245272397994,0.04571019629538059,0.015690905606746672
1772566888991924000,2.177924072265625,0.0900251388400793,0.04545885188281536,-0.012289280469715594
1772566889001953000,2.187953125,0.12671850046515465,0.048808235375955696,-0.0275267432205379
1772566889011982000,2.197982177734375,0.14672902283668518,0.04677862924449146,-0.040587738715112204
1772566889022011100,2.20801123046875,0.18426058885157107,0.053784708614274854,-0.021123013658076523
1772566889032040200,2.218040283203125,0.21130758573114872,0.06069171152375638,-0.017298779194802046
1772566889042069200,2.2280693359375,0.181284203389287,0.06968370401374996,0.005679799202084541
1772566889052098000,2.23809814453125,0.1633323671132326,0.06809972275793552,-0.0053119888029992575
1772566889062127000,2.248127197265625,0.1785422112047672,0.053166576715931294,-0.02251914419159293
1772566889072156200,2.25815625,0.18184183727204797,0.046345863850414754,-0.027517390870302912
1772566889082185000,2.26818505859375,0.18427403285503385,0.043515316599607466,-0.040536008527874944
1772566889092214000,2.278214111328125,0.1585527316212654,0.00467391009517014,-0.03211903944686055
1772566889102243000,2.2882431640625,0.09129530490636825,-0.005002630592882633,-0.002778524802625179
1772566889112272400,2.2982724609375,0.0837771843612194,-0.016266367407143115,-0.011847528051584958
1772566889122301200,2.30830126953125,0.052796355164051054,-0.019003098894655703,0.003567629353702068
1772566889132330200,2.318330322265625,0.06013853462040424,-0.03002586655989289,0.008970657441020012
1772566889142359300,2.328359375,0.05467442399561405,-0.03415017994828522,0.017582564572244882
1772566889152388000,2.33838818359375,0.04166764290630817,-0.008987097119167446,0.019261311439424753
1772566889162417200,2.348417236328125,0.048258711734414095,-0.009039631024003028,-0.00691635525971651
1772566889172446200,2.3584462890625,0.019075871869921684,0.00024769115075469017,-0.023515607883036135
1772566889182475000,2.36847509765625,0.026675825479626655,-0.017523747057095168,-0.024349136097729204
1772566889192504000,2.378504150390625,0.07584872944951057,-0.03484261919185519,-0.021546792028099296
1772566889202533000,2.388533203125,0.11766074926257133,-0.03652757660411298,-0.025920330937206745
1772566889212562200,2.398562255859375,0.1498778422564268,-0.005197933969274163,-0.02667991713285446
1772566889222591200,2.40859130859375,0.19814707538485526,-0.0010306582219898701,-0.006724778210371732
1772566889232620300,2.418620361328125,0.21419395482242107,-0.011136895564198493,0.003941138841211796
1772566889242649000,2.428649169921875,0.2121884602189064,-0.02946640604622662,-0.00754398563876748
1772566889252678100,2.43867822265625,0.23368191462457177,-0.05677928732037544,-0.00887552650347352
1772566889262707200,2.448707275390625,0.21967501658201216,-0.05718721053414046,-0.011043664322793483
1772566889272736000,2.458736083984375,0.1641243942737579,-0.057411666939780115,0.02384367079362273
1772566889282765000,2.46876513671875,0.1101940666437149,-0.05823328552097082,0.015816285552084444
1772566889292794000,2.478794189453125,0.06069733754694461,-0.032258374852314586,0.001557166314125061
1772566889302823200,2.4888232421875,-0.01859890200793743,-0.023888825109601018,-0.0035340193450450895
1772566889312852200,2.498852294921875,-0.06247253052592277,-0.05040229963436722,-0.012208470318466424
1772566889322881300,2.50888134765625,-0.034789573830366134,-0.09467895599529147,-0.02283858540430665
1772566889332910000,2.51891015625,0.0046259062349796294,-0.10416187380738556,-0.01254997723251581
1772566889342939100,2.528939208984375,0.0715992553114891,-0.10096008209139108,0.00273863118365407
1772566889352968200,2.53896826171875,0.11661153247058391,-0.08121770913675427,-0.006562427255511283
1772566889362997000,2.5489970703125,0.14991232904791832,-0.04289586952701211,-0.034592882214486594
1772566889373026000,2.559026123046875,0.15915186655819416,-0.035087972255051135,-0.016556144133955238
1772566889383056100,2.56905615234375,0.10713643263876438,-0.029413068423792717,0.030439708057790994
1772566889393085200,2.579085205078125,0.10968494807779788,-0.042611499627679586,0.036888591936230654
1772566889403114000,2.589114013671875,0.13621230499744413,-0.03230813227817416,0.005834989763796329
1772566889413143000,2.59914306640625,0.140854577845335,-0.02243365786522627,-0.00434372829273343
1772566889423172400,2.60917236328125,0.13805822512507437,-0.02015760269202292,-0.0175502697378397
1772566889433201200,2.619201171875,0.1323410165220499,-0.03521985500641167,-0.035706104153394695
1772566889443230200,2.629230224609375,0.098761403003335,-0.033239933235570784,-0.04142725827917457
1772566889453259300,2.63925927734375,0.05391279197335243,-0.027820392404869197,-0.006579670651257038
1772566889463288000,2.6492880859375,0.0558919830918312,-0.0652304509319365,0.02348667404949665
1772566889473317000,2.659317138671875,0.03839782745540142,-0.09051387220509349,0.02400061492100358
1772566889483346200,2.66934619140625,0.04025134636759758,-0.08076338949799537,0.005533522599190473
1772566889493378800,2.67937890625,0.053791795942187304,-0.04246032765395939,-0.0054265550933778285
1772566889503407900,2.689407958984375,0.07248597501814365,-0.03021569004356861,-0.0089253569945693
1772566889513437000,2.69943701171875,0.07609422864317894,-0.015037044807896017,-0.006066168171167373
1772566889523466000,2.709466064453125,0.0893365720540285,-0.017150529830530285,-0.005951163489371538
1772566889533495000,2.7194951171875,0.14427169281244276,-0.017697788449749348,-0.031030367427319287
1772566889543524000,2.729524169921875,0.22276070763766764,-0.014611585937440394,-0.04151464430168271
1772566889553553000,2.739552978515625,0.2978565728932619,0.003554550676420331,-0.04362769093289971
1772566889563582000,2.74958203125,0.30091771402955053,-0.012217676538228988,-0.005725391909480094
1772566889573611000,2.759611083984375,0.22738252221941946,-0.023097309405729172,0.03632408992126584
1772566889583639800,2.769639892578125,0.14297463873922825,0.026478257080912587,0.07981850986331701
1772566889593668900,2.7796689453125,0.1312432844132185,0.07944821524620056,0.036239334247261286
1772566889603698000,2.789697998046875,0.07900105600059032,0.05823416230380535,-0.028820728553831575
1772566889613727000,2.79972705078125,0.04450198954939842,0.0025937428202480075,-0.03740150989443063
1772566889623756000,2.809756103515625,0.04296235889196395,-0.009428191950172185,-0.036684009274840355
1772566889633785000,2.81978515625,0.09440905301272869,-0.001265197630226612,-0.037902299023419614
1772566889643814000,2.82981396484375,0.09756605573892593,-0.026291721532866356,-0.04207783114239573
1772566889653843000,2.839843017578125,0.09439151735603808,-0.01705525276251137,-0.02385594575330615
1772566889663872000,2.8498720703125,0.0924479820728302,0.03417326856292784,0.011942512858659028
1772566889673900800,2.85990087890625,0.10471475844979286,0.02872260194160044,0.023569676157832144
1772566889683929900,2.869929931640625,0.07163783375620841,0.005001388483867049,0.055016661562025546
1772566889693959000,2.879958984375,0.034765608432888985,-0.047066798536106944,0.0665833268456161
1772566889703987700,2.88998779296875,0.05753273603618145,-0.10051036556251347,0.05208747624233365
1772566889714017000,2.90001708984375,0.07446575065851212,-0.11284808828383683,0.05291705893427133
1772566889724046000,2.910046142578125,0.07281915249526501,-0.1041316978648305,0.055580140663683414
1772566889734075000,2.920074951171875,0.037788755646347996,-0.0960172919269651,0.08330722876191139
1772566889744104000,2.93010400390625,0.029048984351754188,-0.06606609803847968,0.04538724795132875
1772566889754133000,2.940133056640625,0.07063420967161654,-0.031048122279718517,0.004197597820311785
1772566889764161800,2.950161865234375,0.08674246390759945,-0.05351875115446746,-0.04279021719545126
1772566889774190800,2.96019091796875,0.1384013394743204,-0.0649834173683077,-0.03876753755062818
1772566889784220000,2.970219970703125,0.17812252448797225,-0.02492744744233787,-0.01541018896922469
1772566889794248700,2.980248779296875,0.14795418071746824,0.024365794971585274,0.00767798728197813
1772566889804278000,2.990278076171875,0.1444791980832815,0.02362871286869049,0.007790946137160062
1772566889814307800,3.000307861328125,0.1273790102005005,0.03418159799985587,0.028490473686158656
1772566889824337000,3.0103369140625,0.08471651103794574,0.02328808273747563,0.04060249789282679
1772566889834366000,3.020365966796875,0.09655015669465064,-0.0030418519139289854,0.020754910998046397
1772566889844395000,3.03039501953125,0.13867840285003186,-0.010180325491726398,-0.007651245405524969
1772566889854424000,3.040424072265625,0.16639467729330062,-0.020144012558087704,-0.04281374420151114
1772566889864452900,3.050452880859375,0.1634720678448677,-0.022129998743534086,-0.039531069269031285
1772566889874482000,3.06048193359375,0.11553484314978121,0.001087283780053258,-0.0008953414045274257
1772566889884511000,3.070510986328125,0.08925532351136208,0.005075988090038299,0.0329369317010045
1772566889894539800,3.080539794921875,0.06031389118731022,0.008686652867868542,0.024262042336165905
1772566889904568800,3.09056884765625,0.013878303226828575,-0.01688822563253343,0.0011309037260711192
1772566889914598000,3.100597900390625,0.032361469900608064,-0.01019742275699973,-0.005347206246852874
1772566889924627000,3.110626953125,0.06756780783832073,0.010806202305108308,-0.0056100949667394154
1772566889934656000,3.120656005859375,0.10083996284306049,0.007324862995371222,0.0011497545570135115
1772566889944685000,3.13068505859375,0.11895020455121993,-0.009783435128629206,-0.016181319472193718
1772566889954713900,3.1407138671875,0.14350596913695335,-0.030243600963801145,-0.012876871099323034
1772566889964743000,3.150742919921875,0.16016601203680036,-0.025929391026496884,-0.0457480440877378
1772566889974772000,3.16077197265625,0.15816285552084444,-0.014362287351489067,-0.04872779055088758
1772566889984801000,3.170801025390625,0.11737141092717647,0.0023208441630005834,-0.01466711551696062
1772566889994829800,3.180829833984375,0.12795008808672428,0.01597206063568592,-0.009283815043419599
1772566890004859000,3.19085888671875,0.10621931779384612,0.02934497162364423,0.002351531562209129
1772566890014888000,3.200887939453125,0.11057400587201117,0.03088694036863744,0.03254837077483535
1772566890024917000,3.2109169921875,0.12237900995612144,0.002172010276839137,0.03997705947086215
1772566890034946000,3.220946044921875,0.08214519924521446,-0.028431363910064098,0.04739011220633983
1772566890044975000,3.23097509765625,0.04525952991843223,-0.014156097254902123,0.026451661334931847
1772566890055004000,3.24100390625,0.06169628545641899,0.038029286403954025,0.0031042496256530284
1772566890065033000,3.251032958984375,0.046885085293650625,0.04640161262564361,-0.02363748069703579
1772566890075062000,3.26106201171875,0.05612696089148521,0.023881883912160992,-0.04610942474603653
1772566890085090800,3.2710908203125,0.07805529958307743,0.032415245914459226,-0.05818038628995418
1772566890095120000,3.281119873046875,0.10058218868970871,0.035439635236933824,-0.039339930611103774
1772566890105149000,3.29114892578125,0.08544833244383335,0.018632731212303043,0.012008563832193613
1772566890115178000,3.301177978515625,0.07993804458975791,-0.017420359747856853,0.04758753447458148
1772566890125207000,3.31120703125,0.10118249267041683,-0.04073438064418733,0.02327259290739894
1772566890135236000,3.321236083984375,0.127364981675148,-0.022299583156779407,-0.006452244879305362
1772566890145265000,3.331264892578125,0.15421557919979095,0.0012009732875972986,0.008385989420861006
1772566890155294000,3.3412939453125,0.1643482661575079,0.009549991698935627,0.001507189692556858
1772566890165323000,3.351322998046875,0.1699029776751995,-0.010842223466560243,0.0020049100816249845
1772566890175351800,3.361351806640625,0.14852467408180237,0.01911532709747553,-0.006904080300033092
1772566890185382000,3.3713818359375,0.13184125030636787,0.05794665059931576,-0.007056055991351604
1772566890195411000,3.381410888671875,0.09427402845621108,0.02932349044419825,0.018357786728441714
1772566890205440000,3.39143994140625,0.06327624812424182,-0.006167436588555574,0.02690174318999052
1772566890215468800,3.40146875,0.03412088078856468,-0.038447365685552355,0.023665683878213165
1772566890225497900,3.411497802734375,0.06045125383138656,-0.04147292405180633,-0.010268734427541493
1772566890235527000,3.42152685546875,0.08302373564541339,-0.027184432588890195,-0.02685381239503622
1772566890245556000,3.431555908203125,0.09798691149950027,-0.0038177316572517153,-0.00505202269256115
1772566890255585000,3.4415849609375,0.10345452925562858,0.011732523369789123,0.006077127956598997
1772566890265614000,3.451614013671875,0.09765314950048923,0.009182619691267609,0.009044453329592942
1772566890275643000,3.461642822265625,0.10496084216535091,0.0026095979765057564,-0.007188011807948351
1772566890285672000,3.471671875,0.1260322717666626,-0.02613316997028887,-0.0017250702269375323
1772566890295701000,3.481700927734375,0.11039163504242896,-0.051663551741838454,0.019098083701729773
1772566890305729800,3.491729736328125,0.10328092625439167,-0.04618088254705071,0.021092472389340398
1772566890315758800,3.5017587890625,0.14069208076000214,-0.024405907786265016,-0.0068497197642922395
1772566890325788000,3.511787841796875,0.12707155168652534,0.017595935510471464,0.0065590662546455855
1772566890335817000,3.52181689453125,0.13088204988539218,0.01454538883343339,0.015162643948942421
1772566890345846000,3.531845947265625,0.11419570350050925,0.00032733225822448726,0.016985475461930036
1772566890355875000,3.541875,0.13381868785917758,-0.01668320457972586,0.009114742086827754
1772566890365904000,3.55190380859375,0.13685118742287158,-0.007522212198376655,0.007587386389076709
1772566890375933000,3.561932861328125,0.1667915676563978,-0.021579232992976902,-0.004239391135424375
1772566890385962000,3.5719619140625,0.18151976571083067,-0.013598755633085966,-0.015070289490371942
1772566890395990800,3.58199072265625,0.17765899862945078,0.027900837229937313,-0.005287000492215156
1772566890406019800,3.592019775390625,0.16617957323789595,0.049527635691687465,0.027781156373023985
1772566890416049000,3.602048828125,0.17128186481297014,0.048351212323457,0.02062748522609472
1772566890426078000,3.612077880859375,0.14144962112903595,0.056024158104136586,0.012450316250324249
1772566890436107000,3.62210693359375,0.1250865153491497,0.009967121132463216,-0.010072627333551645
1772566890446136000,3.632135986328125,0.10424947902560233,-0.058667146893590684,-0.03646788230612874
1772566890456164900,3.642164794921875,0.04846855509281158,-0.09664762571975588,0.0009482406355440616
1772566890466194000,3.65219384765625,0.02207797629535198,-0.08690715295001863,0.04803922376483678
1772566890476223000,3.662222900390625,0.05828735379576683,-0.10359802937954664,0.05761982979774475
1772566890486251800,3.672251708984375,0.0874807150542736,-0.10986688051596283,0.05376724602282047
1772566890496278000,3.682278076171875,0.1352992818057537,-0.1211358780272305,0.04500438611358404
1772566890506306800,3.692306884765625,0.16817162383794784,-0.14483108026087282,0.01736760664731264
1772566890516337000,3.7023369140625,0.15430150391757488,-0.13524638257473706,0.028618191719055174
1772566890526366000,3.712365966796875,0.19084990411400793,-0.20098595207259057,0.06221563315540552
1772566890536394800,3.722394775390625,0.1780722556054592,-0.1600040994733572,0.07433014158010483
1772566890546423800,3.732423828125,0.1487146436959505,0.44754371488317846,-0.07427709621861577
1772566890556452900,3.742452880859375,0.23640227949917314,0.21500775542333722,-0.15101415280997751
1772566890566482000,3.75248193359375,0.1654454137444496,-0.11916150921434163,-0.09395853276625275
1772566890576511000,3.762510986328125,-0.07281973701715469,-0.14136866484731436,0.005349836595356464
1772566890586540000,3.7725400390625,-0.046046296381950375,-0.07863426851481199,0.05814312301948666
1772566890596568800,3.78256884765625,0.031057401564717292,0.006409136389940976,0.09906652342975139
1772566890606598000,3.792597900390625,0.001202361527085304,0.03399403953850269,0.11827113624587654
1772566890616627000,3.802626953125,-0.0340676892966032,-0.031776217358559365,0.10272022363170981
1772566890626656000,3.812656005859375,-0.03010404636263847,-0.08137684522122145,0.06388005923628806
1772566890636684800,3.822684814453125,0.028191490739583967,-0.04511223040223122,-0.007839023062586783
1772566890646713900,3.8327138671875,0.1563660352319479,-0.008555793029814959,-0.049756110685318704
1772566890656743200,3.8427431640625,0.18638474139869213,-0.054743397578597065,-0.09027458355650306
1772566890666772000,3.85277197265625,0.1300660573273897,-0.05604352039173245,0.06492284628748893
1772566890676801000,3.862801025390625,0.254672095683217,-0.053472354729473585,0.04741977669224143
1772566890686830000,3.872830078125,0.10622808562219142,-0.11117051046043634,0.00658873074054718
1772566890696859000,3.88285888671875,-0.023157588225603102,-0.11461246760785579,0.03638195758834481
1772566890706888000,3.892887939453125,0.06778641902506351,-0.09075389150604606,-0.03601151684075594
1772566890716917000,3.9029169921875,0.1086427455484867,0.0023624913476407525,-0.061685471801459786
1772566890726945800,3.91294580078125,0.1353992350488901,-0.017880524605512618,-0.07542933499366045
1772566890736974800,3.922974853515625,0.13141045767366885,-0.09720964351668954,-0.04682561019137502
1772566890747004200,3.933004150390625,0.0762350984185934,-0.13333558051735162,-0.02034399210959673
1772566890757033000,3.943032958984375,0.024098083946108816,-0.12912439256310462,-0.028059681053459642
1772566890767062000,3.95306201171875,-0.0413438177794218,-0.1196136368960142,-0.017571458656340837
1772566890777091000,3.963091064453125,0.042778819018602365,-0.11619988292977214,0.026044687969237566
1772566890787119900,3.973119873046875,-0.032031799554824825,-0.10864669107124209,0.010398059895634651
1772566890797149000,3.98314892578125,-0.024104513686895368,-0.11820274718478321,0.032239450956135986
1772566890807178000,3.993177978515625,-0.03299976780414581,-0.12000263621360063,0.0713940881282091
1772566890817206000,4.0032060546875,0.004468669846653938,-0.09571794365420937,0.06479454373270273
1772566890827235000,4.013235107421875,0.04015080860257148,-0.07770897036343813,0.029656740986555814
1772566890837264000,4.023263916015625,0.11370879676640033,-0.08262801432609558,-0.006665303108096122
1772566890847293000,4.03329296875,0.14062895239591597,-0.03711509416848421,-0.0027123276986181733
1772566890857322000,4.043322021484375,0.14875965188145637,-0.01792509439960122,0.017554361391067502
1772566890867351000,4.05335107421875,0.14115677566230297,-0.006956979531049728,0.02792962493300438
1772566890877379800,4.0633798828125,0.10644552776515483,-0.0008344049975275993,0.039449528465420006
1772566890887409000,4.073408935546875,0.1237701720535755,-0.019692834724485873,0.03775441498532891
1772566890897438000,4.08343798828125,0.11839549327790737,-0.07005918626263738,0.04226034810245037
1772566890907467000,4.093467041015625,0.1247989305794239,-0.10517316974177957,0.03245382435917854
1772566890917496000,4.10349609375,0.11807634432613849,-0.05608136818408966,0.0452053155131638
1772566890927525000,4.113525146484375,0.0942255131393671,0.002105886238068342,0.03989741836339235
1772566890937554000,4.123553955078125,0.08610007435083389,0.06065656714513898,0.046681233284622425
1772566890947583000,4.1335830078125,0.05589607474505901,0.09577741875648497,0.02297609417885542
1772566890957612000,4.143612060546875,0.05638239695727825,0.061330082492530344,0.00013663199171423912
1772566890967640800,4.153640869140625,0.08806172981262206,0.07031082293614745,-0.03676920334026217
1772566890977670000,4.163669921875,0.12262217106223106,0.07652005283981561,-0.03843436007350683
1772566890987699000,4.173698974609375,0.1551975759744644,0.0477739969573915,-0.029505349817126988
1772566890997727700,4.183727783203125,0.1692541583776474,0.044900779608637094,0.00015329086557030677
1772566891007757000,4.193757080078125,0.16695523378551005,0.04553805459886789,0.0026478841602802275
1772566891017786000,4.2037861328125,0.1668576186299324,0.05394932459145784,0.007040127769857645
1772566891027815000,4.21381494140625,0.16077625288963318,0.06398980322107672,-0.02793430110812187
1772566891037844000,4.223843994140625,0.11128712257742882,0.03493628882467747,-0.03259133313372731
1772566891047873000,4.233873046875,0.056868719169497484,0.04656505955904722,-0.007445639830827713
1772566891057901800,4.24390185546875,0.036384734067320824,0.043581805964559316,0.014334522561728954
1772566891067931000,4.253930908203125,0.0522626866787672,0.047007688760012385,0.028481705857813358
1772566891077960000,4.2639599609375,0.04940145202875137,0.028167963733524082,0.042891047221422195
1772566891087988700,4.27398876953125,0.09056289897859096,-0.017367898908257483,0.02443666825070977
1772566891098018000,4.28401806640625,0.14655717340111732,-0.017129121716320514,-0.004985387197136879
1772566891108047000,4.294047119140625,0.16897241882681846,0.012487871781736612,-0.010736790330708026
1772566891118076000,4.304075927734375,0.20444646779000758,0.02722936770915985,-0.015572393793612718
1772566891128106000,4.31410595703125,0.2129939313828945,0.022594109123945234,-0.022208032415807245
1772566891138135000,4.324135009765625,0.2068371623188257,0.03552709432467818,-0.040122313160449265
1772566891148164000,4.3341640625,0.16004969218075274,0.012133213125169276,-0.03960442676618695
1772566891158193000,4.34419287109375,0.14172259285151959,-0.018110095577687023,-0.011757511680573225
1772566891168222000,4.354221923828125,0.10726035127937793,-0.02267024310007691,0.016407675573974847
1772566891178251000,4.3642509765625,0.04792553425729274,-0.00910991978123784,0.023065233767032622
1772566891188279800,4.37427978515625,0.036112346866726874,0.022093758386373518,0.008428367257863282
1772566891198308900,4.384308837890625,0.07817629561424255,0.0372048182785511,-0.010469663827121257
1772566891208338000,4.394337890625,0.0858382085442543,0.022224252898246047,-0.026075667629390953
1772566891218367000,4.404366943359375,0.07502455358505249,-0.015046324092894792,-0.00470496282055974
1772566891228396000,4.41439599609375,0.051072600111365316,-0.03208718300387263,0.04478738236203789
1772566891238425000,4.424425048828125,0.047701662373542786,-0.03741963007301092,0.059389469818770885
1772566891248454000,4.434453857421875,0.033173370805382726,-0.027552754444628954,0.05231763173639774
1772566891258483000,4.44448291015625,0.04871346976459026,-0.02182853157892823,0.02018237180709839
1772566891268512000,4.454511962890625,0.09238952988386154,-0.013629004640877245,0.011329933918267488
1772566891278540800,4.464540771484375,0.09633797524869442,0.014314356556534766,0.016301730981469153
1772566891288569900,4.47456982421875,0.09237725492417811,0.024173195008933543,-0.0016495207726955413
1772566891298599000,4.484598876953125,0.11328092674314975,0.045137072582542896,0.00056903205960989
1772566891308628000,4.4946279296875,0.11234276911020279,0.03268076498284936,-0.022489187444746494
1772566891318657000,4.504656982421875,0.13181143968999384,0.02337912202179432,-0.015166589471697807
1772566891328686000,4.51468603515625,0.13697101441025733,0.02154620750620961,-0.0020376433074474334
1772566891338715000,4.52471484375,0.14885492894947527,0.036496670009195806,0.03429726026877761
1772566891348744000,4.534743896484375,0.13027005546689033,0.023400310940295457,0.03657514207288623
1772566891358773000,4.54477294921875,0.10651859300136565,0.002681932560354471,0.03412628761604428
1772566891368801800,4.5548017578125,0.10143792873620987,0.0018733926564455032,0.028586773667484522
1772566891378830800,4.564830810546875,0.12530688010156155,-0.015076280839741229,0.005327917024493217
1772566891388860000,4.57485986328125,0.12261457227766513,-0.0333487273722887,0.008779957174509764
1772566891398888700,4.584888671875,0.13980711461901663,-0.029804186633229254,0.009326631271839142
1772566891408918000,4.59491796875,0.12435527846515178,-0.02458484454974532,0.022940146082639692
1772566891418947000,4.604947021484375,0.08374035948216915,-0.01512508841753006,0.03500190140679479
1772566891428975900,4.614975830078125,0.07717968579232692,0.0060134150706231595,0.02762377385422587
1772566891439007000,4.625007080078125,0.0870668735563755,0.01037307158485055,0.016579963400959966
1772566891449035800,4.635035888671875,0.10019698876440525,0.010604542253166437,0.013545125749707222
1772566891459065000,4.645065185546875,0.14597031342387198,0.005147445891052484,0.0017930208966135978
1772566891469094100,4.65509423828125,0.16161095014810561,0.008797054439783096,0.009981295788288116
1772566891479123000,4.665123046875,0.13933540545403958,-0.01711976936608553,0.02849880312308669
1772566891489152000,4.675152099609375,0.11884674417674541,-0.017238573440164325,0.03363689666390419
1772566891499180500,4.6851806640625,0.11789221993088722,-0.016106792931258676,0.027615152156352994
1772566891509209600,4.695209716796875,0.08428513388335704,-0.038205958145111796,0.014009674521535634
1772566891519238700,4.70523876953125,0.0862561416953802,-0.05372238396778702,0.018178338508307933
1772566891529267500,4.715267333984375,0.06871288622021675,-0.05192687885314226,0.027086159846186637
1772566891539296500,4.725296630859375,0.050554713717103,-0.02045592805147171,0.013759791413694619
1772566891549325800,4.735325927734375,0.04379413354098797,0.0051743338979780675,0.02213131391778588
1772566891559354600,4.745354736328125,0.02151683528125286,-0.025966654296964407,0.012489186955988406
1772566891569383700,4.7553837890625,0.07798515695631504,-0.06059387717247009,0.006140694712102413
1772566891579412700,4.765412841796875,0.1130652381658554,-0.049379970849305385,0.019199498249590396
1772566891589441500,4.775441650390625,0.1875882719695568,-0.05039850024208426,0.03448094627261162
1772566891599470600,4.785470703125,0.21237141557037828,-0.03781491300091147,0.037564883762598034
1772566891609499600,4.795499755859375,0.1937497172087431,-0.050079351290315384,0.022294833916425703
1772566891619528400,4.805528564453125,0.1367798757523298,-0.06225771873146295,0.013367431095242499
1772566891629557500,4.8155576171875,0.07254092007577419,-0.04282148911654949,0.0056936815969645975
1772566891639586600,4.825586669921875,0.03466507066786289,-0.06059504621624946,-0.010033025975525378
1772566891649616600,4.83561669921875,0.0189618901014328,-0.08033741917088627,0.02091229351684451
1772566891659645400,4.8456455078125,0.01290682784616947,-0.08411226153448223,0.04820011341497302
1772566891669674800,4.8556748046875,0.06585340513586997,-0.05020224701762199,0.020233371341973543
1772566891679703800,4.865703857421875,0.11890461184382438,-0.009319324748218059,-0.008372691547870636
1772566891689732600,4.875732666015625,0.12642448595464229,-0.04026011419594288,-0.015133417854458093
1772566891699761700,4.88576171875,0.10365735835134983,-0.05790288452282548,-0.01385740656927228
1772566891709790700,4.895790771484375,0.09512392328381537,-0.04354088943228125,0.012558160538971424
1772566891719819500,4.905819580078125,0.08425064709186554,-0.028091975887864825,0.014536182613670826
1772566891729848600,4.9158486328125,0.1011006596058607,-0.008361293371021747,0.01855798547565937
1772566891739877600,4.925877685546875,0.12782149327099324,-0.001638122595846653,0.0236652454867959
1772566891749906400,4.935906494140625,0.1346019471913576,-0.01145531386360526,0.014295651856064795
1772566891759935700,4.945935791015625,0.14939736526310443,-0.01349982530325651,0.013295242641866207
1772566891769964800,4.95596484375,0.13999006997048855,0.0015584814883768557,0.01341097797602415
1772566891779993600,4.96599365234375,0.11302256806790828,0.0009393266767263412,0.008848346235603094
1772566891790022700,4.976022705078125,0.09128127638101577,0.002731178529560566,0.01755406913012266
1772566891800051700,4.9860517578125,0.07802724253237248,-0.002199263609945774,0.013398118494451045
1772566891810080500,4.99608056640625,0.06753799722194671,-0.01720423277914524,0.024844810660183427
1772566891820109600,5.006109619140625,0.07239829673469066,-0.03435615084916353,0.028441373847424983
1772566891830138600,5.016138671875,0.08112111689448356,0.008521160107851028,0.02343406707942486
1772566891840167700,5.026167724609375,0.08784779480099678,0.06311769656166434,-0.0007503799758851528
1772566891850196500,5.036196533203125,0.08276537697017192,0.060445993134379386,-0.021193302415311335
1772566891860225800,5.046225830078125,0.059066521474719046,0.05537701930701732,-0.012300094124674796
1772566891870254800,5.0562548828125,0.07145370936095714,0.04611205509454012,0.0028412147752940654
1772566891880283600,5.06628369140625,0.11086860490441322,0.028071225360780952,0.01076557803377509
1772566891890312700,5.076312744140625,0.10902385382056236,0.012690408616513013,0.045000294460356235
1772566891900341800,5.086341796875,0.11113280879855156,-0.013699001137167214,0.05399988573491573
1772566891910370600,5.09637060546875,0.1473293268173933,0.010381839413195848,0.04109992602095008
1772566891920399600,5.106399658203125,0.1445797358483076,0.044265258184075354,0.009402326856553555
1772566891930428700,5.1164287109375,0.13420856395959854,0.01722542169764638,-0.018198942904919385
1772566891940457500,5.12645751953125,0.12568915741741657,0.030448914277553557,-0.036764965556561946
1772566891950487600,5.136487548828125,0.08630991770923137,0.017691139513254163,-0.045766456527262925
1772566891960516600,5.1465166015625,0.12065642394721507,0.02180544296428561,-0.03458528342992067
1772566891970545400,5.15654541015625,0.1549579219996929,0.028640695811808108,0.0032711306251585483
1772566891980574700,5.16657470703125,0.16821487845778466,0.045211891384422775,0.043913668267428874
1772566891990603800,5.176603759765625,0.1740115820378065,0.029745880574733017,0.07212780923023819
1772566892000632800,5.1866328125,0.12711013013124464,-0.0065301324211061,0.03512625843882561
1772566892010661600,5.19666162109375,0.0822042359560728,-0.0263568226583302,0.0064331017874181265
1772566892020690700,5.206690673828125,0.012453823381662368,-0.07094692888259888,0.009863514627516268
1772566892030719700,5.2167197265625,-0.03939385275542736,-0.10470496770814061,-0.003189151430130005
1772566892040748500,5.22674853515625,-0.017432196316123007,-0.08061740515604615,0.00990077789798379
1772566892050777600,5.236777587890625,0.009977788656949996,-0.0724039958231151,0.041090865931659934
1772566892060806700,5.246806640625,0.08340776652693747,-0.07137158403545618,0.06825272136256098
1772566892070835700,5.256835693359375,0.13282266255915165,-0.03535699845477938,0.07179916179776191
1772566892080864800,5.26686474609375,0.18449264404177665,0.009435206212848424,0.036622342215478415
1772566892090893800,5.276893798828125,0.16751754384338854,0.010285101040452719,0.004974427411705255
1772566892100922600,5.286922607421875,0.1706564263910055,-0.0199812962770462,-0.01991100751981139
1772566892110951700,5.29695166015625,0.18006898238062857,0.0037719197541475295,-0.006241086346656084
1772566892120980700,5.306980712890625,0.16628770978748797,0.0019919044695794583,0.011681231573969124
1772566892131009500,5.317009521484375,0.17242285154163836,-0.00100581604167819,0.026649229733645915
1772566892141038600,5.32703857421875,0.1431687000066042,0.018025047642737626,0.018841770853102208
1772566892151067600,5.337067626953125,0.14598083481788635,0.002692307823896408,-0.023778204341977832
1772566892161096400,5.347096435546875,0.12242343361973762,-0.03733604344278574,-0.02441986324638128
1772566892171125800,5.357125732421875,0.0951665933817625,-0.08170227778330445,-0.009041676850616931
1772566892181154800,5.36715478515625,0.12443944961726665,-0.08839081563651562,0.005635813929885626
1772566892191183600,5.37718359375,0.10500058965384959,-0.08172302831038832,0.033023294810205696
1772566892201212700,5.387212646484375,0.05162964947223663,-0.07920300831347704,0.06258695068582892
1772566892211241700,5.39724169921875,0.010007599273324012,-0.07415595405697822,0.06315934374630451
1772566892221271800,5.407271728515625,0.02434182957410812,-0.05932765662893653,0.035395869160443544
1772566892231300600,5.417300537109375,0.008996960926055907,-0.0546646332539618,0.026247224804013966
1772566892241329700,5.42732958984375,0.009365794238448142,-0.08191708957776427,-0.006175473764538765
1772566892251358700,5.437358642578125,0.06587503244578838,-0.021883915027976035,-0.023940701427310702
1772566892261387500,5.447387451171875,0.11571721397936344,0.010961246736347675,-0.019533260248601435
1772566892271416600,5.45741650390625,0.15068974316120146,0.02636924374848604,0.0015193185217678546
1772566892281445600,5.467445556640625,0.17586510095000266,0.04185921995565295,0.006138356624543666
1772566892291474700,5.477474609375,0.1880161419928074,0.0240628665022552,0.017195611081272363
1772566892301503700,5.487503662109375,0.16375731452703474,0.003287789499014616,0.032804683623462914
1772566892311532800,5.49753271484375,0.11839198614656925,-0.01825081922262907,0.03377294413372874
1772566892321561600,5.5075615234375,0.0707972912788391,-0.020096593219786883,0.05669570069015026
1772566892331590700,5.517590576171875,0.042748423880338664,-0.016125205370783807,0.03090381843820214
1772566892341619700,5.52761962890625,0.036653029614686965,-0.011085311507433653,0.01379617790132761
1772566892351648500,5.5376484375,0.052310032951831814,0.02042582517415285,0.01199950374290347
1772566892361677600,5.547677490234375,0.04754559502899647,0.021981530183553696,-0.005489829587936401
1772566892371706600,5.55770654296875,0.07830664399564266,0.00792918556407094,-0.01942337013334036
1772566892381735700,5.567735595703125,0.08642799113094807,-0.015269173063337802,-0.011681523834913969
1772566892391764700,5.5777646484375,0.08371054886579513,-0.04079071394130587,0.006143032799661159
1772566892401793800,5.587793701171875,0.10418225900828838,-0.03600464870855212,0.025422464417666196
1772566892411822600,5.597822509765625,0.12358663218021392,-0.038756431634724135,0.024127310040593146
1772566892421851600,5.6078515625,0.13163257599174977,-0.007579933734983205,0.0032506723590195177
1772566892431880700,5.617880615234375,0.14083996479809283,0.021581278819590807,-0.012052841365337371
1772566892441909500,5.627909423828125,0.15116203684806823,0.03086027155742049,-0.02944441341012716
1772566892451938600,5.6379384765625,0.14875965188145637,0.0037846331052482124,-0.006244593477994203
1772566892461967600,5.647967529296875,0.11077741948962211,-0.013678542871028184,0.04279518563151359
1772566892471996700,5.65799658203125,0.09111644120812415,-0.00955298737362027,0.04144143293499946
1772566892482025700,5.668025634765625,0.08170680782794952,0.025898411366343497,0.026422873631864786
1772566892492055600,5.6780556640625,0.06633037499785423,0.054787675111740826,0.015913170055299998
1772566892502083800,5.688083740234375,0.06292553499042987,0.036863749755918974,0.004057312566787004
1772566892512113000,5.69811279296875,0.0639835196107626,0.023306787437945602,-0.008664660231769084
1772566892522141700,5.7081416015625,0.11502864719331264,0.007833908496052026,-0.014071195450425147
1772566892532170800,5.718170654296875,0.1499479848831892,-0.020862755286693572,-0.0017798691540956495
1772566892542199800,5.72819970703125,0.16778116321563719,-0.05716463337615132,0.01631897437721491
1772566892552228900,5.738228759765625,0.19105974747240542,-0.07244798109531402,0.02186915585026145
1772566892562257700,5.748257568359375,0.1904857469767332,-0.07209390696063638,0.04592296226322651
1772566892572286700,5.75828662109375,0.1464654034644365,-0.0928396117389202,0.038015111748129125
1772566892582316000,5.76831591796875,0.11050970846414565,-0.06445975882038474,0.022329759099334476
1772566892592344800,5.7783447265625,0.07003156760334968,-0.041515082693099975,-0.0020478724405169485
1772566892602374000,5.788373779296875,0.051149757000803944,-0.02841740844994783,0.004826543373614549
1772566892612403000,5.79840283203125,0.1075450134396553,-0.02162877122312784,0.01460851719751954
1772566892622431700,5.808431640625,0.09904957229495048,-0.035114860261976716,0.017382511955499648
1772566892632460800,5.818460693359375,0.13058569728732108,-0.04701265719607472,0.01599412633702159
1772566892642489900,5.82848974609375,0.11773264545500278,-0.04195245119705796,0.032550562731921674
1772566892652518700,5.8385185546875,0.06380524043440819,-0.07342486330345273,0.021608166826516388
1772566892662547700,5.848547607421875,0.03774550102651119,-0.10354542240947484,0.011429741030931473
1772566892672577000,5.858576904296875,0.030028643038868902,-0.10448094969391822,0.008397387597709893
1772566892682605800,5.868605712890625,0.056011225557327265,-0.07866378687024116,0.029489859987050292
1772566892692635000,5.878634765625,0.09060381551086902,-0.032061025649309155,0.03624605624899268
1772566892702664000,5.888663818359375,0.15357494320869444,-0.009768091429024935,0.025655104129761457
1772566892712692700,5.898692626953125,0.14661270298063755,-0.00810775700137019,0.009801263046264648
1772566892722721800,5.9087216796875,0.1781301232725382,-0.021383272029459475,-0.010941665253043175
1772566892732750800,5.918750732421875,0.1798942103356123,-0.024809885477274654,-0.013905775755643843
1772566892742779600,5.928779541015625,0.147369074305892,-0.014407295536994933,-0.005278817185759544
1772566892752809700,5.938809814453125,0.1151478896588087,-0.01943666800633073,0.03470788689628243
1772566892762838800,5.9488388671875,0.07963175511956215,-0.015772738671302796,0.040000586476922034
1772566892772867800,5.958867919921875,0.07174830839335918,0.014320640166848897,0.03689049163237214
1772566892782896600,5.968896728515625,0.02916121255457401,0.017012071207910776,0.010155775572359561
1772566892792926000,5.978926025390625,0.03953063087761402,-0.0125134446144104,-0.022964403741061686
1772566892802955000,5.988955078125,0.06403203492760658,-0.02118146584704518,-0.04528261853307485
1772566892812983800,5.99898388671875,0.06939560778737068,-0.014188245958834885,-0.029015228212624786
1772566892823012900,6.009012939453125,0.06388941158652305,0.0010208674803376197,-0.022126053220778704
1772566892833042000,6.0190419921875,0.10940379304885864,0.020107553005218503,-0.019392244342714547
1772566892843070700,6.02907080078125,0.129595517206192,0.01172434006333351,-0.011116291167587042
1772566892853099800,6.039099853515625,0.11115151349902153,0.015390315224975347,0.013747516454011201
1772566892863128800,6.04912890625,0.10932195998430251,0.027802637552469967,0.014998393297940492
1772566892873157600,6.05915771484375,0.1304331370741129,0.04281608228906989,-0.007971271140128374
1772566892883187000,6.06918701171875,0.12839666281044482,0.010289631085097789,-0.019533990900963544
1772566892893216000,6.079216064453125,0.1173264027416706,-0.011219459281116723,0.007838146279752253
1772566892903244800,6.089244873046875,0.07256722356081008,0.01582373820617795,0.007754267388582229
1772566892913273900,6.09927392578125,0.09803951846957207,0.02331526300534606,-0.05232070047631859
1772566892923303000,6.109302978515625,0.16072423044145107,0.003272007407993078,-0.040668256605416536
1772566892933331700,6.119331787109375,0.2077478474229574,-0.026789368856698272,-0.007039104856550693
1772566892943360800,6.12936083984375,0.20383856502473352,-0.02284413836225867,0.052487873736768956
1772566892953389800,6.139389892578125,0.14657704714536665,-0.012431903810799122,0.04033785560727119
1772566892963418600,6.149418701171875,0.07481237213909625,-0.02673398540765047,-0.011298808127641677
1772566892973447700,6.15944775390625,0.019306173494458196,-0.0506971909277141,-0.053865007308870554
1772566892983477000,6.16947705078125,-0.031461890712380404,-0.04766103810220956,-0.02708484467193484
1772566892993505800,6.179505859375,-0.03701601770818233,-0.056660044854879375,0.029370471391081808
1772566893003536000,6.189535888671875,0.026588147196173667,-0.03639101767763495,0.03259863965734839
1772566893013565000,6.19956494140625,0.1219838731586933,-0.006613719051331281,0.010425678554922341
1772566893023594000,6.209593994140625,0.14424129767417906,-0.01520253756791353,0.027762597803026437
1772566893033622800,6.219622802734375,0.13686521594822407,-0.017139789240807293,0.033236937560886144
1772566893043651800,6.22965185546875,0.1084206272304058,0.00701309363245964,0.020447452484071253
1772566893053681000,6.239680908203125,0.08347732463181018,-0.03348404418975114,0.005715893428772687
1772566893063709700,6.249709716796875,0.060112231135368344,-0.08069587721973658,0.02467895257398486
1772566893073738800,6.25973876953125,0.07602467053830624,-0.09738836108446121,0.04372165282666683
1772566893083767800,6.269767822265625,0.08219897525906562,-0.09121624832078815,0.04214811989963054
1772566893093796600,6.279796630859375,0.07002279977500438,-0.05075841959565878,0.02478475103601813
1772566893103826000,6.289825927734375,0.06225567290484905,-0.004833849897235632,-0.016662234856933356
1772566893113855000,6.29985498046875,0.062086161556839936,0.006994535062462091,-0.04037146561592817
1772566893123883800,6.3098837890625,0.08542085991501808,0.007632832965999841,-0.026154285823553797
1772566893133912800,6.319912841796875,0.09857552504241467,-0.023013357449322938,-0.011042056887596845
1772566893143942000,6.32994189453125,0.09395721759200096,-0.034224048902094364,0.0048385260723531245
1772566893153970700,6.339970703125,0.11319909367859363,-0.05225041171908378,0.0077358549490571015
1772566893163999700,6.349999755859375,0.14375789807140826,-0.03504354859143495,0.024729221456497905
1772566893174028800,6.36002880859375,0.13979834679067135,-0.02780205303058028,0.02980462502464652
1772566893184057600,6.3700576171875,0.16291092683076858,-0.010827245093137025,0.0368213719189167
1772566893194087000,6.3800869140625,0.18855740926265716,-0.0008577858731150627,0.008227291727811097
1772566893204116000,6.390115966796875,0.20521979025006293,0.0282848681114614,-0.001988689599186182
1772566893214144800,6.400144775390625,0.16493746422231195,0.03533580953627825,0.0066049512229859825
1772566893224173800,6.410173828125,0.15225801539123057,0.03681567283049226,-0.004990647894144058
1772566893234203000,6.420202880859375,0.13745090688169,0.04144610911011696,-0.013760814327001571
1772566893244231700,6.430231689453125,0.133830962818861,0.016100070929527283,-0.020048224033415316
1772566893254261800,6.44026171875,0.1351595810741186,-0.0019306758016347885,-0.02446311786621809
1772566893264290800,6.450290771484375,0.11709902372658253,0.023200112193077802,0.002893675614893436
1772566893274320000,6.46031982421875,0.09796119253635406,0.03777823425233364,0.018526859685033557
1772566893284348700,6.4703486328125,0.07801204496324061,0.03607143033444881,0.02843158310577273
1772566893294377700,6.480377685546875,0.056174307164549825,0.03298676219210028,0.035193770717084405
1772566893304406800,6.49040673828125,0.07407061386108398,0.03265285406261682,0.010181494535505771
1772566893314435800,6.500435791015625,0.1091875199496746,0.03469488128423691,-0.016419804403185842
1772566893324465000,6.51046484375,0.1449801333427429,0.0161265205450356,-0.02569353644400835
1772566893334494000,6.520493896484375,0.15860767667889594,-0.00945887934938073,-0.009345043711364269
1772566893344522800,6.530522705078125,0.16117606586217878,-0.011667056918144226,0.0023651216961443422
1772566893354551800,6.5405517578125,0.15945581794083116,-0.00903188610896468,0.01545198228433728
1772566893364580900,6.550580810546875,0.14018705384731292,-0.020768793392926452,0.0415314493060112
1772566893374609700,6.560609619140625,0.09788228208124637,-0.0333379137173295,0.03797945591285824
1772566893384638700,6.570638671875,0.08150573229789733,-0.016749913140386343,0.019136516015976667
1772566893394667800,6.580667724609375,0.07521335415542126,-0.02204407402575016,0.009827858792245387
1772566893404696600,6.590696533203125,0.04984802675247192,-0.03314867475554347,0.012377104883641004
1772566893414726000,6.600725830078125,0.051553077104687685,-0.039056291364133355,0.012255816591531037
1772566893424755000,6.6107548828125,0.04986556240916252,-0.02409647651091218,0.03695756551921368
1772566893434783700,6.62078369140625,0.05880640923380851,-0.011970569909363984,0.04500643194019794
1772566893444812800,6.630812744140625,0.05848842932581901,-0.021944266913086173,0.027959435549378395
1772566893454841900,6.640841796875,0.09278583572506904,-0.016966040109097958,0.003824526724219322
1772566893464871000,6.650870849609375,0.1256219374001026,-0.0092750472150743,-0.01903568599000573
1772566893474899700,6.660899658203125,0.12549334258437156,0.0002928454667329788,-0.0005013736508786679
1772566893484929800,6.6709296875,0.10451076031029224,0.034906916599720714,0.03421133555099368
1772566893494958800,6.680958740234375,0.1261626201480627,0.05523045044317841,0.010163812748342752
1772566893504991700,6.69099169921875,0.1797504179507494,0.045805181102454656,-0.016657997073233125
1772566893515020500,6.7010205078125,0.16225333970487116,-0.0006600713439285754,0.007535656201839446
1772566893525049600,6.711049560546875,0.1368687230795622,-0.03714651222005486,0.03139642426073551
1772566893535078700,6.72107861328125,0.11410977878272532,-0.037827187960594894,0.025704788490384815
1772566893545107700,6.731107666015625,0.07102759290337562,-0.04619827207326889,-0.00181274851039052
1772566893555136800,6.74113671875,0.08048574160039425,-0.06575359802320599,0.0021184534586966034
1772566893565165800,6.751165771484375,0.06120528706908226,-0.08233283077180385,0.04543941652998328
1772566893575194600,6.761194580078125,0.07787585136294364,-0.058954585532844064,0.041659313469380135
1772566893585223700,6.7712236328125,0.09278057502806186,-0.01566153338178992,0.019865560942888258
1772566893595252700,6.781252685546875,0.0760913060337305,-0.018444295968115327,0.021240940949320792
1772566893605281500,6.791281494140625,0.049854456493258474,-0.004467354672402143,0.041701545175909994
1772566893615310600,6.801310546875,0.029392683222889897,0.011505290485173464,0.030752427268773315
1772566893625339600,6.811339599609375,0.08482990828454494,0.023961890345811844,0.00018500117808580398
1772566893635368700,6.82136865234375,0.13714520193338392,-0.020443506961315867,-0.0004376607649028301
1772566893645397800,6.831397705078125,0.14633856221437452,-0.04831321840062737,0.027808482771366834
1772566893655426800,6.8414267578125,0.16848317400515078,-0.007662643582373857,0.009560440027713776
1772566893665455600,6.85145556640625,0.13392974701821803,0.001898234836757183,0.0032123861752450466
1772566893675484700,6.861484619140625,0.08449673080742359,-0.012879939839243888,0.004532236602157354
1772566893685513700,6.871513671875,0.042948914888501166,-0.022067601031810043,0.02504471714645624
1772566893695542500,6.88154248046875,0.016208792001008988,-0.04293371731936931,0.037326106570661065
1772566893705571600,6.891571533203125,0.05275836124122142,-0.0491626748368144,0.010861147362738847
1772566893715601700,6.9016015625,0.13201777591705322,-0.027877894745767115,-0.011418781245499849
1772566893725630700,6.911630615234375,0.1883288612037897,-0.003629150282591581,-0.01759045561775565
1772566893735659500,6.921659423828125,0.2062012025028467,0.02162424117848277,-0.007859335198253393
1772566893745688600,6.9316884765625,0.16577391504645347,0.05109525033459067,0.03308817673996091
1772566893755717600,6.941717529296875,0.14206453815698622,0.03527721121683717,0.035176965712755914
1772566893765746700,6.95174658203125,0.08448211776018143,0.002139350116252899,0.0237502934217453
1772566893775775700,6.961775634765625,0.06930442237257957,-0.03971797014325857,0.022925240774452686
1772566893785804800,6.9718046875,0.07624269720315932,-0.03382730466946959,0.018284429231286047
1772566893795833600,6.98183349609375,0.07369009011089801,-0.034656010578572746,0.009304127179086208
1772566893805862700,6.991862548828125,0.06352934610247611,-0.035261136864870785,0.0026242110237479207
1772566893815891700,7.0018916015625,0.08094692937135696,-0.012500000610947607,-0.015732260530441997
1772566893825920500,7.01192041015625,0.08124912718832493,0.011764525943249463,-0.03206044112741947
1772566893835949600,7.021949462890625,0.0651028790295124,0.023731296460330484,-0.020378625031560658
1772566893845978600,7.031978515625,0.061984454748034476,0.019831512542814015,0.009619038347154855
1772566893856007700,7.042007568359375,0.06140986973047256,0.008823357924818993,0.01931990975886583
1772566893866036700,7.05203662109375,0.07205693595111369,0.0085506784632802,0.005637275234609842
1772566893876065800,7.062065673828125,0.12268646847009658,0.039377778403460975,-0.018137714236974717
1772566893886094600,7.072094482421875,0.19161679683327673,0.07197524901703,-0.0263568226583302
1772566893896123600,7.08212353515625,0.219093417301774,0.0752386347271502,0.00006926584392786026
1772566893906152700,7.092152587890625,0.1782248158186674,0.055027329086512325,0.010281593909114598
1772566893916181800,7.102181640625,0.13084990118145942,0.035121143872290844,0.004684066163003445
1772566893926210600,7.11221044921875,0.09487959313392638,0.006819324626028537,0.008560761465877293
1772566893936239600,7.122239501953125,0.05361760841906071,-0.018057196346670388,0.021753274385631082
1772566893946268700,7.1322685546875,0.016381810480356217,-0.011247370201349258,0.026736908017098902
1772566893956298500,7.142298583984375,0.04827449382543564,0.017299071455746887,0.014845833084732293
1772566893966327600,7.15232763671875,0.05596797093749046,0.03290288330093026,0.009429653254896402
1772566893976356900,7.16235693359375,0.021498715102672577,-0.003283113323897123,0.03949629021659493
1772566893986385700,7.1723857421875,0.059061845299601554,-0.02265577618330717,0.05067117970362305
1772566893996414700,7.182414794921875,0.11870061370432376,-0.017114800930023193,0.04610869409367442
1772566894006443800,7.19244384765625,0.17410393649637698,-0.04121624587699771,0.03302314867973327
1772566894016472600,7.20247265625,0.21993746691048144,-0.07046542897596955,0.04097483833655715
1772566894026501600,7.212501708984375,0.23097499375343322,-0.07203545477166771,0.044630145973712204
1772566894036530700,7.22253076171875,0.24695874482691285,-0.030871377473324534,0.04347659202441573
1772566894046559500,7.2325595703125,0.18333879783153534,-0.007182312719523906,0.053598757588118315
1772566894056588500,7.242588623046875,0.06532850447893142,-0.0297957110658288,0.05905161616653204
1772566894066617600,7.25261767578125,-0.04738485150933265,-0.0215434310272336,0.06435732135921717
1772566894076647000,7.26264697265625,-0.08285656238496303,-0.05051394331529736,0.0311006561845541
1772566894086675700,7.27267578125,-0.10164484948515891,-0.14809329692721365,0.045796559404581785
1772566894096704800,7.282704833984375,-0.049637014350295064,-0.191234957908839,0.07568520945087075
1772566894106733800,7.29273388671875,0.025267127725481984,-0.1606920817375183,0.08943681755810975
1772566894116762600,7.3027626953125,0.08953180236518382,-0.10060893056616187,0.07371040224656462
1772566894126791700,7.312791748046875,0.1344412036716938,-0.06637158379107713,0.06885536343082785
1772566894136820700,7.32282080078125,0.17901625845730304,-0.04391030726656318,0.06087926998510956
1772566894146849500,7.332849609375,0.2176999171167612,-0.04426248170509934,0.06402516679540277
1772566894156878600,7.342878662109375,0.19550854357481,-0.047489627058058974,0.08213204750269651
1772566894166908000,7.352907958984375,0.19613807365000246,-0.049943303820490836,0.06228139186799526
1772566894176937500,7.3629375,0.23645371742546556,-0.0016549276001751423,0.024953823992609977
1772566894186966800,7.372966796875,0.18346797716915605,0.030430355707556006,0.0293359845995903
1772566894196995800,7.382995849609375,0.13061726146936417,0.025755203503370284,-0.003692424777150154
1772566894207024600,7.393024658203125,0.06748246764242649,0.07058291787579656,-0.025263474463671446
1772566894217053700,7.4030537109375,0.01395604463815689,0.045412528523057695,-0.036166999663412566
1772566894227082800,7.413082763671875,-0.006976853275299072,0.00941620925143361,-0.04995207164883613
1772566894237111600,7.423111572265625,0.02492752050757408,0.004752455224096775,-0.06183963944986462
1772566894247140600,7.433140625,0.04660626835227012,-0.01748115002438426,-0.05998378245010972
1772566894257169700,7.443169677734375,0.03882102130353451,-0.01532221842482686,-0.030319004287570714
1772566894267198700,7.45319873046875,0.04822948563992977,0.012572335194796324,-0.021573387774080036
1772566894277227500,7.4632275390625,0.09889876564741135,0.01915551297739148,-0.0014300328031182287
1772566894287256800,7.4732568359375,0.1495867503553629,0.019719284339994193,0.004510463161766529
1772566894297286000,7.483285888671875,0.16759119360148905,0.01114551726207137,0.004662292722612619
1772566894307314700,7.493314697265625,0.17702186976969242,0.028046675441414117,-0.011390139672905206
1772566894317343700,7.50334375,0.14730769950747488,0.03598579787760973,-0.015855010127276182
1772566894327372800,7.513372802734375,0.12694061878323554,0.01806801000162959,-0.012234919933974742
1772566894337401600,7.523401611328125,0.0962426981806755,-0.019304273798316715,0.011765548856556415
1772566894347430700,7.5334306640625,0.06510229450762271,-0.034531361285597084,0.027936639195680617
1772566894357459700,7.543459716796875,0.06514554912745953,-0.057419923311471936,0.026900135754793882
1772566894367488500,7.553488525390625,0.06706044283807278,-0.07114478954225778,0.033599195002019404
1772566894377518600,7.5635185546875,0.11489479168057441,-0.07323796242922544,0.0044812370672822
1772566894387547600,7.573547607421875,0.1156055702984333,-0.05718772199079394,-0.002382218961417675
1772566894397576400,7.583576416015625,0.11434300301671027,-0.01866875237375498,0.0051950844250619405
1772566894407605800,7.593605712890625,0.1215530805259943,-0.01022138815447688,0.011932575986534357
1772566894417634800,7.603634765625,0.0865220991551876,0.012057079149037598,0.01783186315819621
1772566894427664000,7.613663818359375,0.1117237604290247,0.03614887948483229,-0.005692366422712802
1772566894437692700,7.623692626953125,0.11893792959153651,0.028708938742429017,-0.0038102059379220006
1772566894447721700,7.6337216796875,0.13469196356236934,-0.00587239916473627,-0.007423720259964466
1772566894457750800,7.643750732421875,0.1247504152625799,-0.009773644386976957,-0.0039747488498687745
1772566894467779600,7.653779541015625,0.1444967337399721,0.002261515191197395,-0.023159195660799742
1772566894477808600,7.66380859375,0.10875438922941684,0.021781623697280882,0.014927812279760836
1772566894487837700,7.673837646484375,0.09803367325067519,-0.00039411388412117956,0.02605754745081067
1772566894497863200,7.68386328125,0.09392331532239913,-0.0016973054371774196,0.029749533836543558
1772566894507892000,7.69389208984375,0.08086042013168335,-0.021212153246253727,0.012668050654232502
1772566894517921000,7.703921142578125,0.08871113363206386,-0.04663417927250266,0.013858137221634387
1772566894527950000,7.7139501953125,0.07627659947276115,-0.06026888300180435,0.029937019232660532
1772566894537979000,7.723978759765625,0.08076923471689224,-0.07447115748599172,0.023769144252687693
1772566894548008000,7.734008056640625,0.09172434397339821,-0.0676141311980784,0.031418343831598756
1772566894558037000,7.744037109375,0.11233517032563686,-0.056175183947384355,0.03531242866069078
1772566894568065800,7.754065673828125,0.13716098402440546,-0.02686170344054699,0.04181947246715426
1772566894578095900,7.764095947265625,0.13030278869271278,-0.0021884499549865723,0.040894904968142506
1772566894588124200,7.774124267578125,0.14849369442164898,0.016247078184783457,0.017336042465269565
1772566894598153700,7.78415380859375,0.12613923927247522,0.02991203092187643,0.001382540399581194
1772566894608182800,7.794182861328125,0.10121581041812897,0.016409283009171483,-0.00010623685345053673
1772566894618212000,7.804212158203125,0.10139993481338024,-0.020499036540836093,0.001407236449420452
1772566894628241000,7.814240966796875,0.1109130285680294,-0.043993747766315934,0.007441548177599906
1772566894638270000,7.82427001953125,0.10094166965186595,-0.05744637292698025,0.028528613739460706
1772566894648299000,7.834299072265625,0.1219102234005928,-0.04842369303777814,0.03134849346578121
1772566894658328000,7.844328125,0.11093699396550655,-0.052318070127815,0.032360885378718375
1772566894668356900,7.85435693359375,0.08000351104140281,-0.011079466288536786,0.044336423724144695
1772566894678386000,7.864385986328125,0.10449205560982226,0.009733458507061005,0.028323592686653135
1772566894688415000,7.8744150390625,0.10256137980818748,0.013669628912210463,0.030148762287199496
1772566894698443800,7.88444384765625,0.09276946911215782,-0.009202712631225586,0.03760623868629336
1772566894708473000,7.89447314453125,0.07919687083363533,-0.028527590826153755,0.04512757410183549
1772566894718502100,7.904502197265625,0.0653378568291664,-0.028014672867953776,0.07191694295853376
1772566894728531000,7.914531005859375,0.04229600393772125,-0.025810440821945665,0.07982640090882778
1772566894738560000,7.92456005859375,0.07602408601641654,-0.005064005391299724,0.04121507683321833
1772566894748589000,7.934589111328125,0.13114566925764082,0.002102232976257801,0.019918460173904893
1772566894758617900,7.944617919921875,0.17565759567916392,0.028713322656601665,0.010212035804241895
1772566894768647000,7.95464697265625,0.1923468646734953,0.06285597688555718,0.028493980817496774
1772566894778676000,7.964676025390625,0.19625088637471197,0.07897884416878223,0.02848462846726179
1772566894788705800,7.974705810546875,0.18983049793839454,0.08081468129381537,0.00011032850667834281
1772566894798734800,7.98473486328125,0.15143500857055187,0.0685350454352796,-0.011152823785692453
1772566894808764000,7.994763916015625,0.13624620726704598,0.035158845534175635,-0.015030249740928411
1772566894818791000,8.004791015625,0.08314473167657851,-0.015501374384015798,-0.03882452843487263
1772566894828820000,8.014820068359375,0.04906184481084346,-0.06013049744442105,-0.045046763950586315
1772566894838848800,8.024848876953126,0.01556990957558155,-0.08304390165060758,-0.03237783651351928
1772566894848878800,8.03487890625,0.02863397381007671,-0.06702054921910167,-0.009809154091775418
1772566894858908000,8.044907958984375,0.05458733023405075,-0.08870499615222215,-0.00025777415335178375
1772566894868937000,8.05493701171875,0.09106851041316985,-0.14087386706769467,-0.008103080826252699
1772566894878965800,8.0649658203125,0.1188210252135992,-0.18057517833709716,0.007510375630110502
1772566894888994800,8.074994873046874,0.11007774678766727,-0.1840932694606483,0.024791911429166792
1772566894899024100,8.085024169921875,0.08662146787643432,-0.17136369787752628,0.02963058363199234
1772566894909053000,8.095052978515625,0.08211188149750233,-0.12397723893299697,0.02058452286720276
1772566894919082000,8.10508203125,0.06118833593428134,-0.10147051583155989,0.025390461844205854
1772566894929111000,8.115111083984376,0.057204234734177586,-0.07678659482151269,-0.0030253391705453393
1772566894939139800,8.125139892578124,0.11464520083367824,-0.06402735875248909,-0.045539223642647265
1772566894949169000,8.1351689453125,0.12717092040777206,-0.06816036690399051,-0.06781506059765816
1772566894959198000,8.145197998046875,0.15363631800711153,-0.06644786389768123,-0.06721475661695003
1772566894969226800,8.155226806640625,0.1703419536143541,-0.07171192190572619,-0.04448167741373181
1772566894979255800,8.165255859375,0.1739034454882145,-0.08759118969142436,-0.006205284380912781
1772566894989285000,8.17528515625,0.1789139671266079,-0.11317819702103733,0.028508301603794098
1772566894999314000,8.18531396484375,0.1580430285334587,-0.07810615298748017,0.03959565893784165
1772566895009343000,8.195343017578125,0.12577274404764174,-0.034250936909019945,0.03510360821560025
1772566895019372000,8.2053720703125,0.08931143761277198,0.0039610125854611395,0.006442892529070377
1772566895029400800,8.21540087890625,0.0058937342137098305,0.06256736920252443,0.0036553076371550557
1772566895039430000,8.225429931640624,-0.049990065571665764,0.06549962326213717,-0.02457242345958948
1772566895049460000,8.2354599609375,-0.013836802172660827,0.06463657669201493,-0.056062663483619685
1772566895059489000,8.245489013671875,0.057141106370091434,0.053217064794152974,-0.038837095655500885
1772566895069517800,8.255517822265626,0.09849310745596886,0.03989712610244751,-0.025290800862014292
1772566895079547000,8.265546875,0.15697861417233944,0.05700169789940118,-0.019997662889957427
1772566895089576000,8.275575927734375,0.1842109044909477,0.07652151414453982,-0.02575301154628396
1772566895099604700,8.285604736328125,0.12592471973896027,0.09121844027787447,-0.01424991301819682
1772566895109634000,8.295634033203125,0.0736819068044424,0.050090749467164276,-0.03113368167132139
1772566895119663000,8.3056630859375,0.053047699576616286,0.030504297726601362,-0.0383821914948523
1772566895129692000,8.31569189453125,0.042488896161317825,0.0107717155136168,-0.02007788851931691
1772566895139721000,8.325720947265625,0.08094283771812916,-0.027582126669585705,-0.013785510376840828
1772566895149750000,8.33575,0.11495265934765338,-0.0016769933015108108,-0.0013043605968356131
1772566895159778800,8.34577880859375,0.14778466936945914,-0.008880056548118591,0.003515606905519962
1772566895169808000,8.355807861328126,0.1649842259734869,-0.016310937201231716,-0.006514642591029405
1772566895179837000,8.3658369140625,0.16196224780380725,0.0008083937734365463,0.026992344082891938
1772566895189865700,8.37586572265625,0.1294441260367632,0.02345131047517061,0.0656888622239232
1772566895199894800,8.385894775390625,0.12804770324230194,0.035576340293884276,0.03401698202267289
1772566895209924000,8.395924072265625,0.12669687315523623,0.06347893108949065,-0.015434154366701841
1772566895219953000,8.405952880859376,0.11566402248740196,0.08553162681311369,-0.027351386653631925
1772566895229982000,8.41598193359375,0.07639759550392627,0.07684899253323674,-0.025763240679353473
1772566895240012000,8.426011962890625,0.10037059176564216,0.08372355447784066,-0.041014585825055835
1772566895250041000,8.436041015625,0.13226444415450095,0.06483356056883931,-0.021955226698517797
1772566895260070000,8.44606982421875,0.11189385629892348,0.033455548747628926,0.028012919302284715
1772566895270099000,8.456098876953124,0.10127250904142857,0.04942644033953547,0.029546850871294734
1772566895280128000,8.4661279296875,0.08736497972011566,0.07950213739052414,-0.0037704584494233128
1772566895290156800,8.47615673828125,0.10505319662392139,0.025699527793377638,-0.020690175198763608
1772566895300185900,8.486185791015625,0.10812778176367283,-0.024601065032184122,-0.004225947131961584
1772566895310215000,8.49621484375,0.1143242983162403,-0.043856385122239584,0.01289864453971386
1772566895320243700,8.50624365234375,0.0978022025823593,-0.028615415240079163,0.02334025131613016
1772566895330273000,8.51627294921875,0.04441723387539386,-0.016879823130369186,0.02510243868306279
1772566895340302000,8.526302001953125,0.054123804375529286,-0.023576690420508382,0.014386545009911059
1772566895350331000,8.536330810546875,-0.005793780970573425,-0.017974632629752157,0.03441460303813219
1772566895360360000,8.54635986328125,-0.0027899229794740676,-0.005389876344799995,0.027415976322442293
1772566895370389000,8.556388916015624,0.025445406901836394,0.02878098106533289,0.003965688760578632
1772566895380417800,8.566417724609375,0.07342647073864936,0.002351239301264286,0.018705284991860388
1772566895390446800,8.57644677734375,0.12854805397987365,-0.0489959399677813,0.017780132970958946
1772566895400476000,8.586475830078125,0.16449322758615015,-0.07139350360631942,0.022740239596366882
1772566895410505000,8.5965048828125,0.18365736226141452,-0.015511018995195627,0.047454994136095045
1772566895420534000,8.606533935546874,0.21632453711032867,0.019463117621839044,0.07672507389262319
1772566895430564900,8.61656494140625,0.1856459057301283,0.04624342638924717,0.08464914489015936
1772566895440594000,8.626593994140626,0.1619692620664835,0.06366685487702489,0.06783668790757656
1772566895450623000,8.636623046875,0.12510463552773,0.012586948242038487,0.022446809607744214
1772566895460651800,8.64665185546875,0.09418225851953028,-0.020165274541825054,-0.008191197501122951
1772566895470680800,8.656680908203125,0.0583539892911911,-0.002985153290629387,-0.01752221268713474
1772566895480710100,8.666710205078125,0.07693944729566574,-0.0004873451255261898,-0.005221826301515102
1772566895490739000,8.676739013671876,0.10234802931845187,-0.02230418626666069,0.02985533229857683
1772566895500772000,8.686772216796875,0.13227321198284625,-0.008262363041192293,0.09025821694359183
1772566895510801000,8.69680078125,0.12828794173896313,0.005869330424815416,0.11683014365732669
1772566895520830000,8.706829833984376,0.0902472571581602,0.013397241711616515,0.09745835758075118
1772566895530859000,8.71685888671875,0.06126198569238186,-0.0026614742942154407,0.06328954599723219
1772566895540887800,8.7268876953125,0.040888475227355954,-0.024314795436710116,0.032119185577332975
1772566895550916900,8.736916748046875,0.026159108129143713,-0.04661050613597035,0.020080080476403236
1772566895560946000,8.74694580078125,0.06491466298103332,-0.0723377987191081,0.0159827281601727
1772566895570974700,8.756974609375,0.13111059794425964,-0.0858436153717339,0.023670213922858237
1772566895581004800,8.7670048828125,0.1998182234674692,-0.07827201107367873,0.04826850247606635
1772566895591033900,8.777033935546875,0.21338906818032263,-0.057065995307266706,0.08633855928182602
1772566895601063000,8.78706298828125,0.20442133334875107,-0.028244828362017867,0.0965647697418928
1772566895611092000,8.797092041015626,0.15617080492079258,0.03083703681230545,0.0856701585009694
1772566895621121000,8.80712109375,0.04929857617616653,0.0521627334356308,0.06193082486465573
1772566895631150000,8.817150146484375,0.022746669337153434,0.02520180740430951,0.010248568422347306
1772566895641179000,8.827178955078125,0.027203064224123955,-0.013435820156335829,-0.006165829153358936
1772566895651208000,8.8372080078125,0.04031447473168373,-0.04283040307536721,0.03189516756311059
1772566895661237000,8.847237060546876,0.07719955953657627,-0.04958396898880601,0.0560566721342504
1772566895671265800,8.857265869140624,0.11485913584530352,-0.04620017176941037,0.0587219458207488
1772566895681294800,8.867294921875,0.1483130771577358,-0.024514117401093244,0.05462152476459741
1772566895691324000,8.877323974609375,0.1799029781639576,-0.017599515707045793,0.03333075332418084
1772566895701353000,8.88735302734375,0.1963449943989515,0.0029245091445744037,0.025673370438814163
1772566895711382000,8.897382080078126,0.17032675604522227,0.03363485083729029,0.03508607255890965
1772566895721411000,8.9074111328125,0.11675415581166744,0.06265899300873279,0.0503022002607584
1772566895731439900,8.91743994140625,0.05640928496420383,0.07668430349081755,0.02957739214003086
1772566895741469000,8.927468994140625,0.05057049580812454,0.0816850343875587,0.005433277095109224
1772566895751498000,8.937498046875,0.03643967912495136,0.05770414708033204,-0.011755465853959321
1772566895761526800,8.94752685546875,0.07578793917298317,0.02781198990270495,-0.02659282337129116
1772566895771556900,8.957556884765625,0.1110568209528923,0.019872429075092075,-0.04617635250240564
1772566895781586000,8.9675859375,0.13164718903899192,0.01475683962702751,-0.024273586643487215
1772566895791615000,8.977614990234375,0.1717933214664459,-0.0015011983431875704,0.010550473978370428
1772566895801643800,8.987643798828126,0.1649398023098707,-0.012456307599693536,0.057322746547311544
1772566895811672800,8.9976728515625,0.1185293487906456,-0.041924394146353,0.09747311675846576
1772566895821702000,9.007701904296875,0.054926352930068964,-0.0481736637994647,0.08971212736815214
1772566895831731000,9.01773095703125,-0.014856792870163917,-0.03254033359885215,0.05593509158119559
1772566895841760000,9.027760009765625,-0.08015665577650069,-0.022013386626541613,0.015759440798312426
1772566895851789000,9.0377890625,-0.08470657416582107,-0.01437865396440029,0.007305208446830511
1772566895861817900,9.04781787109375,-0.04330313515365124,-0.014424246671795845,-0.016328618988394737
1772566895871847000,9.057846923828125,0.06785773069560527,-0.0035724516592919825,-0.025833675567060708
1772566895881876000,9.0678759765625,0.1916699883252382,-0.0009219371505081653,-0.02042290256470442
1772566895891904800,9.07790478515625,0.27551263913810253,0.025262889941781757,-0.00017433365359902382
1772566895901933800,9.087933837890626,0.2982873655259609,0.03351107832714915,0.02828574489429593
1772566895911963000,9.097962890625,0.27821605287790296,0.04450739637687802,0.04191942571029067
1772566895921992000,9.107991943359375,0.21165420721173286,0.0449035560876131,0.019705401945114134
1772566895932021000,9.11802099609375,0.1384802499294281,0.05967953880652785,-0.0055998658336699
1772566895942050000,9.128050048828126,0.0950572877883911,0.052880526316165924,-0.020407558865100144
1772566895952078800,9.138078857421876,0.05026420633792877,0.026144056690484283,-0.02758636445328593
1772566895962109000,9.14810888671875,0.027863573959469794,0.0185338739477098,-0.030785306625068187
1772566895972138000,9.158137939453125,0.028366262784600256,0.013537088573724031,-0.03798296304419636
1772566895982167000,9.1681669921875,0.05465513477325439,0.007665127800405025,-0.020136632969230413
1772566895992195800,9.17819580078125,0.016369535520672798,0.023498072226345538,0.016032850912213324
1772566896002225000,9.188224853515624,-0.022092004820704458,0.03600917875319719,0.04082008616626263
1772566896012254000,9.19825390625,-0.045264206093549725,0.025590076069533823,0.02768748674020171
1772566896022282800,9.20828271484375,-0.037732641544938085,0.004184446077793836,0.007542378203570842
1772566896032311800,9.218311767578125,-0.005999532675743103,-0.03298793123587966,-0.006757949827611446
1772566896042341000,9.228341064453126,0.08156827614009379,-0.04221227117702365,-0.013506401174515485
1772566896052370000,9.238369873046874,0.18355331736505032,-0.032006957374513145,-0.021621172438561913
1772566896062399000,9.24839892578125,0.2304617835342884,-0.027365561309456825,-0.006925269218534231
1772566896072428000,9.258427978515625,0.26512334707081314,-0.0267206875346601,0.02921265048086643
1772566896082456800,9.268456787109375,0.24433599510788917,-0.01690335013642907,0.06201572666913271
1772566896092486000,9.27848583984375,0.1575204659640789,0.0021948796957731247,0.07514058118015528
1772566896102515000,9.288514892578124,0.11878127772510051,-0.018572014001011848,0.05364171994701027
1772566896112543700,9.298543701171875,0.09515724103152752,-0.05943243217766284,0.024777152251452206
1772566896122572800,9.30857275390625,0.07069792255759239,-0.07222454760298133,-0.01341799223870039
1772566896132601900,9.318601806640626,0.0711287151902914,-0.045912733130156994,-0.04187427139431238
1772566896142632000,9.3286318359375,0.08313830193579197,-0.04016410647556185,-0.04578691479340195
1772566896152660700,9.33866064453125,0.09563479541540146,-0.05028539525642991,-0.01405102944523096
1772566896162690000,9.34868994140625,0.10705518409609795,-0.037867958362400526,0.0336876039378345
1772566896172719000,9.358718994140625,0.15173662186563014,-0.01241845980733633,0.03786518188342452
1772566896182748000,9.368747802734376,0.17606676100194454,-0.017850129467248916,0.024292437474429607
1772566896192777000,9.37877685546875,0.159167064127326,-0.05362696076929569,0.037612083905190226
1772566896202806000,9.388805908203125,0.12800854027569294,-0.06426730498820543,0.019334522806107996
1772566896212834800,9.398834716796875,0.09666180037558078,-0.04051686543598771,0.00490472317636013
1772566896222864000,9.40886376953125,0.05396715250909328,-0.02509089437574148,0.010460895998775959
1772566896232893000,9.418892822265626,0.01298573830127716,-0.03975640245750546,0.0075146134138107295
1772566896242921700,9.428921630859374,0.012905074280500412,-0.02068257641419768,0.011545914756506681
1772566896252950800,9.43895068359375,0.026505729609727857,-0.01371010705307126,0.026090280676633118
1772566896262980000,9.44897998046875,0.057256257182359695,-0.015033172350376843,0.04320420482382178
1772566896273009000,9.4590087890625,0.09319909270107746,-0.029869799215346573,0.03303337781280279
1772566896283038000,9.469037841796874,0.14743980145454405,-0.01336655431240797,0.03577127834409475
1772566896293067000,9.47906689453125,0.1502308934777975,-0.009336860404908656,0.03690905020236969
1772566896303096000,9.489095947265625,0.15319266589283942,-0.017110855407267807,0.030270635101199147
1772566896313124900,9.499124755859375,0.1683171697884798,-0.0021780746914446354,0.032999037151783706
1772566896323154000,9.50915380859375,0.1972913353383541,0.01851283115968108,0.029346213732659814
1772566896333184000,9.51918408203125,0.18300152870118616,0.004530775297433138,0.034505057800561185
1772566896343212800,9.529212890625,0.15047697719335554,0.010217442631721496,0.0413714364387095
1772566896353241900,9.539241943359375,0.08827508030235767,0.02617854348197579,0.045866994292289014
1772566896363271000,9.54927099609375,0.0770627814143896,0.018817805455625055,0.023293489564955232
1772566896373299700,9.5592998046875,0.06581424216926098,0.0029370763652026653,0.029150252769142387
1772566896383329000,9.5693291015625,0.10529811129570006,-0.02640285375714302,0.009367109412699937
1772566896393358000,9.579358154296875,0.1373340025037527,-0.02501359135583043,0.01225333237349987
1772566896403387000,9.589386962890625,0.13300094173550606,-0.024916414591670034,0.010681845273077487
1772566896413416000,9.599416015625,0.12397066306173801,0.0049319034442305565,0.036121553086489434
1772566896423445000,9.609445068359374,0.06367430753111838,0.018918781612068412,0.04498568141311407
1772566896433473800,9.619473876953125,0.045348377245664595,0.017058540698140858,0.03200885707065463
1772566896443502800,9.6295029296875,0.05362053102850914,0.014455518592894076,0.03298544701784849
1772566896453532000,9.639531982421875,0.03918167130947113,-0.014723229618370533,0.02156242798864841
1772566896463560700,9.649560791015626,0.06491174037158488,-0.029096622885763642,0.007596592608839273
1772566896473590000,9.659590087890624,0.09782616797983645,-0.03643164194896817,0.00021028174981474874
1772566896483619000,9.669619140625,0.14680501068234442,-0.025809417908638714,0.013360124571621418
1772566896493648100,9.679648193359375,0.15586393092870712,0.007478665317595005,0.020903964079916477
1772566896503675000,9.6896748046875,0.12670038028657435,0.017063655264675615,0.04857113868445158
1772566896513704000,9.699703857421875,0.10772855331301688,-0.0030595337010920045,0.032233313476294274
1772566896523733000,9.70973291015625,0.09167173700332641,-0.017104425666481255,0.023911767593771217
1772566896533762000,9.719761962890624,0.07624445076882838,-0.031174305942654607,0.028224223965406418
1772566896543790800,9.729790771484375,0.12310966231822967,-0.023475422003120184,0.03273044934347272
1772566896553820000,9.73981982421875,0.15465864679217337,-0.03081044106632471,0.01972293760180473
1772566896563849000,9.749848876953125,0.16952245392501353,-0.004313625415414571,0.013672697652131319
1772566896573877800,9.759877685546876,0.14300094222426413,0.02925517444834113,0.0014979834727942942
1772566896583906800,9.76990673828125,0.1276870532363653,0.03443637647852301,-0.018017156597226858
1772566896593936000,9.779935791015625,0.10412263777554034,0.01743424214273691,-0.03562397882789373
1772566896603965000,9.78996484375,0.08579378488063812,-0.008288520395755767,-0.04262202102169394
1772566896613994000,9.799993896484375,0.10498539208471774,-0.022199410717934367,-0.01926452630981803
1772566896624023000,9.81002294921875,0.12498773114979267,-0.03423077090382576,0.014492343471944332
1772566896634051800,9.8200517578125,0.10911854636669158,-0.041793168982118364,0.054650312467664476
1772566896644081000,9.830080810546875,0.05750467898547649,-0.03505918455198407,0.06359086703136563
1772566896654110000,9.84010986328125,0.01869651716351509,0.006593406915664672,0.009380845677107572
1772566896664138800,9.850138671875,0.12524842791259289,0.06266615340188145,-0.017040712780505417
1772566896674168800,9.8601689453125,0.4833826516360044,0.18485928539708255,0.045759734525531524
1772566896684198000,9.870197998046875,0.5010083246976137,0.21672055069059132,-0.0208973882086575
1772566896694227000,9.88022705078125,0.5285393057018518,-0.04643368826434016,-0.0075746730379760265
1772566896704255700,9.890255859375,-0.5761836849302053,-0.0947898690238595,-0.224498198954761
1772566896714284800,9.900284912109376,-0.5078706116825342,-0.02873845709785819,-0.17217340682521462
1772566896724313900,9.91031396484375,-0.4550397697269916,-0.020663287191838024,0.023372838411480187
1772566896734343000,9.920343017578125,-0.542328761601448,-0.1598399949528277,0.17001754396557808
1772566896744372000,9.9303720703125,-0.2897282114952803,-0.07193214052766561,0.15240779912546276
1772566896754401000,9.940401123046875,0.15115209997594356,0.14989420886933802,0.02217822179943323
1772566896764429800,9.950429931640626,0.5383493365764618,0.3374852573178708,-0.01989770964682102
1772566896774459000,9.960458984375,0.760215725722909,0.22326354259327053,-0.05407485066726803
1772566896784488000,9.970488037109375,1.0482517463475465,-0.01255699149519205,0.017533903124928474
1772566896794516700,9.980516845703125,0.9896458281219005,0.10658157523497938,-0.05323562336415052
