time,seconds_elapsed,z,y,x
1772566886895860500,0.081860595703125,0.014417527243494987,-0.04294145852327347,0.026848474517464638
1772566886905889500,0.0918896484375,0.03518219292163849,-0.04216195270419121,0.06747473031282425
1772566886915918300,0.10191845703125,0.04615631699562073,-0.03375694528222084,0.08464767038822174
1772566886925947400,0.111947509765625,0.042890485376119614,-0.03533460199832916,0.07063598185777664
1772566886935976400,0.1219765625,0.04258103668689728,-0.04651883617043495,0.035923078656196594
1772566886946005200,0.132005126953125,0.04483114182949066,-0.044127851724624634,0.02073507383465767
1772566886956034300,0.142034423828125,0.05255027860403061,-0.03957057744264603,0.02870381996035576
1772566886966063600,0.152063720703125,0.05502435564994812,-0.0394081249833107,0.04831613600254059
1772566886976092400,0.162092529296875,0.050787195563316345,-0.03947639837861061,0.06916788965463638
1772566886986121500,0.17212158203125,0.04638019576668739,-0.040107302367687225,0.08573461323976517
1772566886996150500,0.182150634765625,0.03683188557624817,-0.038281768560409546,0.09752035140991211
1772566887006179300,0.192179443359375,0.018737569451332092,-0.03970283269882202,0.08616410195827484
1772566887016208400,0.20220849609375,0.01157301478087902,-0.04049031063914299,0.06315276026725769
1772566887026237400,0.212237548828125,0.005730838514864445,-0.035324577242136,0.041216835379600525
1772566887036266200,0.222266357421875,0.005924956873059273,-0.03548761457204819,0.026006076484918594
1772566887046295300,0.23229541015625,0.011963674798607826,-0.034377872943878174,0.014846631325781345
1772566887056324600,0.24232470703125,0.019261371344327927,-0.03507346287369728,0.009748242795467377
1772566887066353400,0.252353515625,0.026126468554139137,-0.03803729638457298,0.011421507224440575
1772566887076382500,0.262382568359375,0.02891692705452442,-0.01856868341565132,0.018039075657725334
1772566887086411500,0.27241162109375,0.024789558723568916,-0.0042251646518707275,0.025098584592342377
1772566887096440600,0.282440673828125,0.019200146198272705,-0.0010281158611178398,0.019379938021302223
1772566887106469400,0.292469482421875,0.02000921592116356,-0.0070018526166677475,0.017114920541644096
1772566887116498400,0.30249853515625,0.012047022581100464,-0.0061573972925543785,0.021504458039999008
1772566887126527500,0.312527587890625,0.007408861070871353,-0.008123076520860195,0.02217903546988964
1772566887136556300,0.322556396484375,-0.001033073291182518,-0.013978351838886738,0.023716896772384644
1772566887146585300,0.33258544921875,-0.008613495156168938,-0.014910724014043808,0.027819763869047165
1772566887156614700,0.34261474609375,-0.013503171503543854,-0.019509200006723404,0.030595004558563232
1772566887166643500,0.3526435546875,-0.018023088574409485,-0.024761218577623367,0.03675888851284981
1772566887176672500,0.362672607421875,-0.01564323715865612,-0.024736307561397552,0.04571521654725075
1772566887186701600,0.37270166015625,-0.008635926991701126,-0.02545962482690811,0.04881433770060539
1772566887196730400,0.38273046875,-0.005993733182549477,-0.023369215428829193,0.04742363467812538
1772566887206759400,0.392759521484375,-0.006650468800216913,-0.02406536415219307,0.030424412339925766
1772566887216788500,0.40278857421875,-0.0009477497078478336,-0.015138395130634308,0.020355157554149628
1772566887226817300,0.4128173828125,0.006886204704642296,-0.004564314614981413,0.01573510654270649
1772566887236846300,0.422846435546875,0.011412370018661022,0.009236522018909454,0.018877362832427025
1772566887246875600,0.432875732421875,0.011491465382277966,0.00602235272526741,0.0074595920741558075
1772566887256905500,0.442905517578125,0.021770786494016647,0.0016746195033192635,0.006454365327954292
1772566887266934300,0.452934326171875,0.0335875004529953,-0.001263379119336605,0.013186835683882236
1772566887276963600,0.462963623046875,0.035176217555999756,-0.00018397066742181778,0.023197274655103683
1772566887286992600,0.47299267578125,0.020549338310956955,-0.015151468105614185,0.017868023365736008
1772566887297021400,0.483021484375,0.014065942727029324,-0.027109235525131226,0.014883153140544891
1772566887307050500,0.493050537109375,0.015604452230036259,-0.033251550048589706,0.01854792982339859
1772566887317079600,0.50307958984375,0.015485121868550777,-0.03430557996034622,0.016800742596387863
1772566887327108400,0.5131083984375,0.015180722810328007,-0.03681188076734543,0.009290097281336784
1772566887337137400,0.523137451171875,0.022143321111798286,-0.048712555319070816,-0.006102478131651878
1772566887347166500,0.53316650390625,0.0423700287938118,-0.04444670304656029,0.008290044032037258
1772566887357195300,0.5431953125,0.04451734572649002,-0.040101513266563416,0.018424510955810547
1772566887367224600,0.553224609375,0.027282966300845146,-0.04321608319878578,0.01909749209880829
1772566887377253600,0.563253662109375,0.010218801908195019,-0.04771851748228073,0.014849524013698101
1772566887387282400,0.573282470703125,-0.0029148426838219166,-0.046430349349975586,0.017056751996278763
1772566887397311500,0.5833115234375,-0.007443321868777275,-0.0448901429772377,0.019861020147800446
1772566887407340500,0.593340576171875,-0.011515827849507332,-0.04356469213962555,0.024307966232299805
1772566887417369300,0.603369384765625,-0.016005150973796844,-0.04560193419456482,0.01306387223303318
1772566887427398400,0.6133984375,-0.022969316691160202,-0.04814392328262329,0.0012823138386011124
1772566887437427500,0.623427490234375,-0.029938338324427605,-0.04597249999642372,0.00042431894689798355
1772566887447456300,0.633456298828125,-0.033791929483413696,-0.04312983900308609,0.007159985601902008
1772566887457485300,0.6434853515625,-0.02567807026207447,-0.04218071326613426,0.016122132539749146
1772566887467514600,0.6535146484375,-0.01405869796872139,-0.037095408886671066,0.014705861918628216
1772566887477543400,0.66354345703125,-0.004597693681716919,-0.02852138876914978,0.006665630266070366
1772566887487572500,0.673572509765625,-0.0003978889435529709,-0.026567161083221436,0.0010258536785840988
1772566887497602600,0.6836025390625,0.0009044669568538666,-0.014306028373539448,0.009262096136808395
1772566887507631600,0.693631591796875,-0.0045193275436758995,-0.007317893672734499,0.011846162378787994
1772566887517660700,0.70366064453125,-0.014179491437971592,-0.004942536819726229,0.0059265270829200745
1772566887527689500,0.713689453125,-0.020250964909791946,-0.004846396390348673,0.0037669697776436806
1772566887537718500,0.723718505859375,-0.018270976841449738,0.002509426325559616,0.010308222845196724
1772566887547747600,0.73374755859375,-0.015129778534173965,0.016299273818731308,0.027760185301303864
1772566887557776400,0.7437763671875,-0.015174848958849907,0.025661498308181763,0.02810540609061718
1772566887567805400,0.753805419921875,-0.01808115653693676,0.028934791684150696,0.017792314291000366
1772566887577834500,0.76383447265625,-0.016421370208263397,0.03391305357217789,0.0035070814192295074
1772566887587863600,0.773863525390625,-0.016236811876296997,0.035547174513339996,-0.006588962394744158
1772566887597892600,0.783892578125,-0.01739204302430153,0.033120378851890564,-0.007412827108055353
1772566887607921700,0.793921630859375,-0.00984863843768835,0.03146975114941597,-0.005573914386332035
1772566887617950500,0.803950439453125,-0.001964637078344822,0.03834288567304611,0.0030303392559289932
1772566887627979500,0.8139794921875,0.007664820179343224,0.050330836325883865,0.0055281175300478935
1772566887638008600,0.824008544921875,0.02009349688887596,0.057549938559532166,0.010531701147556305
1772566887648037400,0.834037353515625,0.025907443836331367,0.0511583536863327,0.0030085379257798195
1772566887658066400,0.84406640625,0.033065225929021835,0.0393390879034996,-0.00312182679772377
1772566887668095500,0.854095458984375,0.034759797155857086,0.03403034061193466,-0.007289407309144735
1772566887678124500,0.86412451171875,0.031621940433979034,0.02367560565471649,-0.009444442577660084
1772566887688153600,0.874153564453125,0.0238332599401474,0.01162746548652649,-0.01571405678987503
1772566887698182700,0.8841826171875,0.01679937168955803,0.005173968151211739,-0.017676159739494324
1772566887708211500,0.89421142578125,0.009695655666291714,-0.010244935750961304,-0.020216282457113266
1772566887718240500,0.904240478515625,0.005122167058289051,-0.012941019609570503,-0.013334978371858597
1772566887728269600,0.91426953125,0.0015167798846960068,-0.012786023318767548,-0.004177432507276535
1772566887738298400,0.92429833984375,-0.0038800439797341824,-0.012983539141714573,0.003914848901331425
1772566887748327400,0.934327392578125,-0.011536631733179092,-0.009469764307141304,0.004028831608593464
1772566887758356500,0.9443564453125,-0.014839342795312405,0.0038625886663794518,-0.0019314358942210674
1772566887768385500,0.954385498046875,-0.01586119830608368,0.022916972637176514,-0.0027948329225182533
1772566887778414600,0.96441455078125,-0.018786977976560593,0.036248836666345596,-0.006468624342232943
1772566887788443600,0.974443603515625,-0.018633047118782997,0.058091551065444946,-0.013536653481423855
1772566887798472400,0.984472412109375,-0.019153498113155365,0.055617526173591614,-0.02727631852030754
1772566887808501500,0.99450146484375,-0.011268677189946175,0.05266594886779785,-0.03839155659079552
1772566887818530600,1.004530517578125,0.0009322576224803925,0.053044289350509644,-0.03279998525977135
1772566887828559600,1.0145595703125,0.015610269270837307,0.04585108906030655,-0.017389869317412376
1772566887838588400,1.02458837890625,0.02442970499396324,0.037339359521865845,-0.004748601000756025
1772566887848617500,1.034617431640625,0.02802737057209015,0.029869724065065384,0.007585830055177212
1772566887858646500,1.044646484375,0.03738363832235336,0.02674902230501175,0.014269296079874039
1772566887868675600,1.054675537109375,0.04367242753505707,0.03077705204486847,0.012004809454083443
1772566887878704600,1.06470458984375,0.0485382080078125,0.04405565559864044,0.0011274339631199837
1772566887888733700,1.074733642578125,0.05274040997028351,0.05289814993739128,-0.012870673090219498
1772566887898762500,1.084762451171875,0.052672483026981354,0.053488992154598236,-0.02273654192686081
1772566887908791600,1.09479150390625,0.045991409569978714,0.05628930777311325,-0.018358305096626282
1772566887918820600,1.104820556640625,0.04299461469054222,0.06251739710569382,-0.0044356039725244045
1772566887928849400,1.114849365234375,0.03955354169011116,0.054242417216300964,0.002868381328880787
1772566887938878500,1.12487841796875,0.032908424735069275,0.04465077817440033,0.00024330336600542068
1772566887948907500,1.134907470703125,0.024909354746341705,0.03230143338441849,-0.0078894579783082
1772566887958936600,1.1449365234375,0.01727290078997612,0.022477008402347565,-0.007110182195901871
1772566887968965600,1.154965576171875,0.007351295091211796,0.012243013828992844,-0.012249283492565155
1772566887978994700,1.16499462890625,-0.00045453431084752083,0.0004902034997940063,-0.01634465530514717
1772566887989023500,1.1750234375,0.005723467096686363,-0.005505105014890432,-0.004966565407812595
1772566887999052500,1.185052490234375,0.01126791164278984,-0.002514401450753212,0.019985198974609375
1772566888009081600,1.19508154296875,0.015345478430390358,-0.0008581811562180519,0.02730463445186615
1772566888019110400,1.2051103515625,0.014528872445225716,-0.0026301611214876175,0.02355254627764225
1772566888029139500,1.215139404296875,0.015475094318389893,0.000015422701835632324,0.003460060805082321
1772566888039168500,1.22516845703125,0.015108744613826275,-0.0008576987311244011,-0.01709463819861412
1772566888049197300,1.235197265625,0.018385764211416245,0.0005628308281302452,-0.02863890863955021
1772566888059226600,1.2452265625,0.01826818659901619,-0.0009882505983114243,-0.024748370051383972
1772566888069255700,1.255255615234375,0.020869828760623932,-0.007351608015596867,-0.016339972615242004
1772566888079284500,1.265284423828125,0.026198670268058777,-0.01598692499101162,-0.008652370423078537
1772566888089313500,1.2753134765625,0.02953081950545311,-0.02170819416642189,0.007207818329334259
1772566888099342600,1.285342529296875,0.022393178194761276,-0.02852458506822586,0.011066769249737263
1772566888109371400,1.295371337890625,0.017317458987236023,-0.025838254019618034,0.011809791438281536
1772566888119400400,1.305400390625,0.013974955305457115,-0.01889440044760704,0.0066805072128772736
1772566888129429500,1.315429443359375,0.0051620230078697205,-0.006516294553875923,0.0018668435513973236
1772566888139458300,1.325458251953125,0.0006645070388913155,-0.000002273358404636383,-0.007395665626972914
1772566888149487600,1.335487548828125,-0.010907193645834923,0.0018920330330729485,-0.02231176570057869
1772566888159517400,1.345517333984375,-0.008598439395427704,-0.002890249714255333,-0.03591485321521759
1772566888169545500,1.35554541015625,-0.0051320684142410755,-0.004130749963223934,-0.03592737019062042
1772566888179575600,1.365575439453125,0.0008410746231675148,-0.011563055217266083,-0.035213179886341095
1772566888189604600,1.3756044921875,0.005932772532105446,-0.013492515310645103,-0.02689453214406967
1772566888199633700,1.385633544921875,0.004587477073073387,-0.013904193416237831,-0.014567488804459572
1772566888209662500,1.395662353515625,-0.0014198157005012035,-0.01684432290494442,-0.0038051228038966656
1772566888219691500,1.40569140625,-0.009604325518012047,-0.0155066829174757,0.002632460556924343
1772566888229720600,1.415720458984375,-0.0077566239051520824,-0.009457046166062355,0.002879335545003414
1772566888239749400,1.425749267578125,-0.008396890014410019,-0.004728235770016909,-0.009435957297682762
1772566888249778400,1.4357783203125,-0.019182424992322922,0.00331078190356493,-0.018164467066526413
1772566888259807500,1.445807373046875,-0.023877762258052826,0.02005831152200699,-0.02226926013827324
1772566888269836500,1.45583642578125,-0.027725230902433395,0.024549998342990875,-0.020455382764339447
1772566888279865600,1.465865478515625,-0.034208644181489944,0.01727900095283985,-0.018906768411397934
1772566888289894700,1.475894775390625,-0.0378558449447155,0.006539804860949516,-0.016318973153829575
1772566888299923500,1.48592333984375,-0.03593149408698082,-0.012759467586874962,-0.011920877732336521
1772566888309952500,1.495952392578125,-0.028273308649659157,-0.034009095281362534,0.0015632389113307
1772566888319981600,1.505981689453125,-0.025143377482891083,-0.05184951424598694,0.021116744726896286
1772566888330010400,1.51601025390625,-0.025568151846528053,-0.06253917515277863,0.030275356024503708
1772566888340039400,1.526039306640625,-0.015675101429224014,-0.06763578951358795,0.025980817154049873
1772566888350068500,1.536068359375,-0.0096614183858037,-0.06894154101610184,0.021769292652606964
1772566888360097500,1.54609765625,0.0005427086725831032,-0.06071200966835022,0.02014472335577011
1772566888370126600,1.556126708984375,0.0055880676954984665,-0.05085485056042671,0.03240485116839409
1772566888380155600,1.56615576171875,0.015327399596571922,-0.038462985306978226,0.03863859921693802
1772566888390184400,1.576184326171875,0.02404845505952835,-0.03482137992978096,0.03207311034202576
1772566888400213500,1.586213623046875,0.028760723769664764,-0.012119343504309654,0.020958013832569122
1772566888410242600,1.59624267578125,0.02795325219631195,-0.007551489397883415,0.002972622402012348
1772566888420271600,1.606271728515625,0.02050081640481949,0.010617300868034363,-0.015567156486213207
1772566888430300400,1.616300537109375,0.02344866842031479,0.013781402260065079,-0.02018854022026062
1772566888440329500,1.62632958984375,0.01748237945139408,0.015636052936315536,-0.021353216841816902
1772566888450358500,1.636358642578125,0.010484924539923668,0.006787433288991451,-0.017402950674295425
1772566888460387600,1.6463876953125,0.016074633225798607,-0.005866577383130789,-0.01597549580037594
1772566888470416600,1.656416748046875,0.02132798358798027,-0.016553577035665512,-0.01929272897541523
1772566888480445700,1.66644580078125,0.021511774510145187,-0.025058984756469727,-0.013503585010766983
1772566888490473000,1.676472900390625,0.023227382451295853,-0.033053524792194366,-0.0027670511044561863
1772566888500502000,1.686501953125,0.022815430536866188,-0.037132252007722855,0.0038674576207995415
1772566888510531000,1.696531005859375,0.023697203025221825,-0.038095783442258835,0.01288438867777586
1772566888520560400,1.706560302734375,0.02943241223692894,-0.03056262992322445,0.012320091016590595
1772566888530589200,1.716589111328125,0.02739030122756958,-0.021681521087884903,0.007697642780840397
1772566888540618200,1.7266181640625,0.03070918470621109,-0.010875332169234753,-0.0031453026458621025
1772566888550647300,1.736647216796875,0.027118712663650513,0.0020378027111291885,-0.007146169431507587
1772566888560676000,1.746676025390625,0.029591139405965805,0.00010952912271022797,-0.010516515001654625
1772566888570705200,1.756705078125,0.03202633187174797,0.0008938303217291832,-0.006580363027751446
1772566888580734200,1.766734130859375,0.04018624871969223,-0.007588846143335104,-0.002769723068922758
1772566888590763000,1.776762939453125,0.048997052013874054,-0.014795892871916294,0.0006921198219060898
1772566888600792000,1.7867919921875,0.053373247385025024,-0.01840176247060299,0.0037099048495292664
1772566888610821000,1.796821044921875,0.05112767219543457,-0.016131684184074402,0.0006928099319338799
1772566888620850200,1.80685009765625,0.04294905066490173,-0.012770655564963818,-0.0033931289799511433
1772566888630879200,1.816879150390625,0.030873745679855347,-0.0018556900322437286,-0.006293844431638718
1772566888640908300,1.826908203125,0.017925580963492393,0.0016443142667412758,-0.017312409356236458
1772566888650937000,1.83693701171875,0.0047333454713225365,0.0030406098812818527,-0.019335346296429634
1772566888660966100,1.846966064453125,-0.007700104266405106,0.003213772550225258,-0.018292473629117012
1772566888670995200,1.8569951171875,-0.01729067973792553,0.00686336774379015,-0.010856661945581436
1772566888681024000,1.86702392578125,-0.022527936846017838,0.008499164134263992,-0.001415845938026905
1772566888691053000,1.877052978515625,-0.02965189330279827,0.0117396991699934,0.011325514875352383
1772566888701082000,1.88708203125,-0.0314783938229084,0.013453686609864235,0.014359157532453537
1772566888711111200,1.897111083984375,-0.03573119267821312,0.011594001203775406,0.005822926759719849
1772566888721140200,1.90714013671875,-0.031986817717552185,0.011553595773875713,0.006661328487098217
1772566888731169300,1.917169189453125,-0.028372645378112793,0.009320800192654133,0.0017701666802167892
1772566888741198000,1.927197998046875,-0.024825017899274826,0.011368431150913239,0.0006697103381156921
1772566888751227100,1.93722705078125,-0.02363511547446251,0.006353167816996574,-0.004824390634894371
1772566888761256200,1.947256103515625,-0.020347002893686295,0.010046562179923058,-0.0024424889124929905
1772566888771285000,1.957284912109375,-0.01647024042904377,0.0054049380123615265,-0.000725282821804285
1772566888781314000,1.96731396484375,-0.012547731399536133,-0.0042494116351008415,0.003699098713696003
1772566888791343000,1.977343017578125,-0.0006671040318906307,-0.012571790255606174,0.013730427250266075
1772566888801372200,1.9873720703125,0.005823327228426933,-0.02075284905731678,0.019002728164196014
1772566888811401200,1.997401123046875,0.026047104969620705,-0.027702368795871735,0.020146822556853294
1772566888821430300,2.00743017578125,0.033715810626745224,-0.036914195865392685,0.007448406890034676
1772566888831459000,2.017458984375,0.04195536673069,-0.025922531262040138,0.009318212047219276
1772566888841488100,2.027488037109375,0.035363633185625076,0.00783354602754116,0.03459759056568146
1772566888851517200,2.03751708984375,0.030286315828561783,0.003822825849056244,0.010286126285791397
1772566888861546000,2.0475458984375,0.04065251350402832,-0.0003149164840579033,-0.01877051219344139
1772566888871575000,2.057574951171875,0.03438236564397812,0.001973271369934082,-0.024258753284811974
1772566888881605000,2.067605224609375,0.02963486686348915,0.004606422036886215,-0.0036837938241660595
1772566888891634200,2.07763427734375,0.0315675213932991,-0.0035162195563316345,0.016553565859794617
1772566888901663000,2.0876630859375,0.03399660810828209,-0.009463371708989143,0.024341335520148277
1772566888911692000,2.097692138671875,0.03224664553999901,-0.016830474138259888,0.032921239733695984
1772566888921721300,2.107721435546875,0.029888387769460678,-0.027889179065823555,0.029478346928954124
1772566888931750100,2.117750244140625,0.02387576922774315,-0.0376022607088089,0.02102973312139511
1772566888941779200,2.127779296875,0.019915085285902023,-0.042877908796072006,0.015846457332372665
1772566888951808300,2.137808349609375,0.018232766538858414,-0.05681929364800453,0.005972789600491524
1772566888961837000,2.147837158203125,0.01844322867691517,-0.055792540311813354,0.009006398729979992
1772566888971866000,2.1578662109375,0.01802564412355423,-0.05694010108709335,0.02070460096001625
1772566888981895200,2.167895263671875,0.015513136982917786,-0.049860160797834396,0.03128153085708618
1772566888991924000,2.177924072265625,0.00795375369489193,-0.050331804901361465,0.029539823532104492
1772566889001953000,2.187953125,0.0033697066828608513,-0.052074432373046875,0.018475569784641266
1772566889011982000,2.197982177734375,-0.001143020112067461,-0.04673559218645096,0.009596058167517185
1772566889022011100,2.20801123046875,-0.0036073182709515095,-0.03518856689333916,0.001478876918554306
1772566889032040200,2.218040283203125,-0.008466788567602634,-0.026092806831002235,0.0020471950992941856
1772566889042069200,2.2280693359375,-0.0064995018765330315,-0.008314099162817001,0.0007037073373794556
1772566889052098000,2.23809814453125,-0.006640383042395115,0.003086361102759838,0.002361525781452656
1772566889062127000,2.248127197265625,-0.0076367212459445,0.006737933494150639,0.0007059844210743904
1772566889072156200,2.25815625,-0.012652518227696419,0.018763970583677292,-0.0077652642503380775
1772566889082185000,2.26818505859375,-0.018229711800813675,0.02254486083984375,-0.013150176033377647
1772566889092214000,2.278214111328125,-0.021700873970985413,0.024450350552797318,-0.015429575927555561
1772566889102243000,2.2882431640625,-0.022622378543019295,0.026103222742676735,-0.010316958650946617
1772566889112272400,2.2982724609375,-0.020890258252620697,0.024109048768877983,-0.005418074317276478
1772566889122301200,2.30830126953125,-0.014883745461702347,0.01760183647274971,-0.0013992097228765488
1772566889132330200,2.318330322265625,-0.010613632388412952,0.007031216286122799,-0.004897271748632193
1772566889142359300,2.328359375,-0.007504001725465059,-0.002194177359342575,-0.007511974312365055
1772566889152388000,2.33838818359375,-0.0074051981791853905,-0.008455801755189896,0.001562214456498623
1772566889162417200,2.348417236328125,-0.008189714513719082,-0.016166305169463158,0.012207784689962864
1772566889172446200,2.3584462890625,-0.008707699365913868,-0.024340346455574036,0.018267277628183365
1772566889182475000,2.36847509765625,-0.013628290966153145,-0.02708503231406212,0.021656084805727005
1772566889192504000,2.378504150390625,-0.021138139069080353,-0.02385195717215538,0.01812499761581421
1772566889202533000,2.388533203125,-0.03513258695602417,-0.02285710535943508,0.010678526945412159
1772566889212562200,2.398562255859375,-0.03927993029356003,-0.009681382216513157,0.016105782240629196
1772566889222591200,2.40859130859375,-0.04210630804300308,-0.000028024427592754364,0.012170393951237202
1772566889232620300,2.418620361328125,-0.041295379400253296,0.009099959395825863,0.00313615333288908
1772566889242649000,2.428649169921875,-0.037318114191293716,0.02376576140522957,-0.007049931213259697
1772566889252678100,2.43867822265625,-0.03404295817017555,0.04628758504986763,-0.01694197580218315
1772566889262707200,2.448707275390625,-0.034622758626937866,0.045282308012247086,-0.022878926247358322
1772566889272736000,2.458736083984375,-0.030586738139390945,0.04507564753293991,-0.03122926875948906
1772566889282765000,2.46876513671875,-0.02713506668806076,0.04081336781382561,-0.025981098413467407
1772566889292794000,2.478794189453125,-0.025465797632932663,0.031962886452674866,-0.019308015704154968
1772566889302823200,2.4888232421875,-0.02113395743072033,0.016301771625876427,-0.012373073026537895
1772566889312852200,2.498852294921875,-0.015746915712952614,0.0023723747581243515,0.006807279773056507
1772566889322881300,2.50888134765625,-0.005979843903332949,-0.006853184197098017,0.019820012152194977
1772566889332910000,2.51891015625,-0.0044051166623830795,-0.014737206511199474,0.023100493475794792
1772566889342939100,2.528939208984375,-0.00020882859826087952,-0.020061612129211426,0.014530994929373264
1772566889352968200,2.53896826171875,-0.0020211096853017807,-0.019827254116535187,0.007898124866187572
1772566889362997000,2.5489970703125,-0.0002697957679629326,-0.015581421554088593,0.0019378606230020523
1772566889373026000,2.559026123046875,-0.007483233697712421,-0.020655542612075806,-0.008511052466928959
1772566889383056100,2.56905615234375,0.003994523547589779,-0.015060851350426674,-0.004538360051810741
1772566889393085200,2.579085205078125,0.009426574222743511,-0.007889756932854652,0.006800580769777298
1772566889403114000,2.589114013671875,0.008767923340201378,-0.0034016789868474007,0.011592555791139603
1772566889413143000,2.59914306640625,0.010316550731658936,-0.004073861055076122,-0.0008561247959733009
1772566889423172400,2.60917236328125,0.012069575488567352,-0.000965191051363945,-0.011947458609938622
1772566889433201200,2.619201171875,0.009065795689821243,-0.0012078052386641502,-0.016542475670576096
1772566889443230200,2.629230224609375,0.0027529271319508553,-0.0019058296456933022,-0.011950967833399773
1772566889453259300,2.63925927734375,0.006581754423677921,-0.0033468659967184067,-0.0028450870886445045
1772566889463288000,2.6492880859375,0.012153947725892067,-0.0129876509308815,0.0020121801644563675
1772566889473317000,2.659317138671875,0.011968325823545456,-0.024562280625104904,-0.0014422056265175343
1772566889483346200,2.66934619140625,0.007350362837314606,-0.03578847646713257,-0.005026328377425671
1772566889493378800,2.67937890625,0.00587097741663456,-0.0407712496817112,-0.0035400185734033585
1772566889503407900,2.689407958984375,0.0015965737402439117,-0.047743603587150574,-0.0035612881183624268
1772566889513437000,2.69943701171875,-0.005663469433784485,-0.04820726066827774,-0.0017604585736989975
1772566889523466000,2.709466064453125,-0.01135657075792551,-0.04423234611749649,-0.004657904617488384
1772566889533495000,2.7194951171875,-0.017303142696619034,-0.021576035767793655,-0.003997706808149815
1772566889543524000,2.729524169921875,-0.025246471166610718,0.010961742140352726,-0.00019143708050251007
1772566889553553000,2.739552978515625,-0.03442825376987457,0.04031510278582573,-0.0061681028455495834
1772566889563582000,2.74958203125,-0.03864661976695061,0.056068047881126404,-0.020532844588160515
1772566889573611000,2.759611083984375,-0.04352233558893204,0.060026563704013824,-0.026142794638872147
1772566889583639800,2.769639892578125,-0.05260320007801056,0.08007170259952545,-0.013251915574073792
1772566889593668900,2.7796689453125,-0.06392855942249298,0.08687207102775574,0.003572870045900345
1772566889603698000,2.789697998046875,-0.07918930053710938,0.08065180480480194,0.01079326868057251
1772566889613727000,2.79972705078125,-0.08909625560045242,0.0785103589296341,0.009374868124723434
1772566889623756000,2.809756103515625,-0.10200783610343933,0.07663977146148682,0.003242854028940201
1772566889633785000,2.81978515625,-0.10522733628749847,0.07149188220500946,-0.006761576980352402
1772566889643814000,2.82981396484375,-0.10959270596504211,0.06431587785482407,-0.01956060156226158
1772566889653843000,2.839843017578125,-0.11230780184268951,0.05833308771252632,-0.018782692030072212
1772566889663872000,2.8498720703125,-0.10932493954896927,0.05934508144855499,-0.010028754360973835
1772566889673900800,2.85990087890625,-0.09960892796516418,0.05222592502832413,-0.009270818904042244
1772566889683929900,2.869929931640625,-0.08846147358417511,0.039211586117744446,-0.011324381455779076
1772566889693959000,2.879958984375,-0.06781185418367386,0.03161385655403137,-0.015006202273070812
1772566889703987700,2.88998779296875,-0.05399005487561226,0.0288175567984581,-0.01397643517702818
1772566889714017000,2.90001708984375,-0.04372143745422363,0.028660964220762253,-0.0071989563293755054
1772566889724046000,2.910046142578125,-0.03512369841337204,0.01750899851322174,-0.004940939135849476
1772566889734075000,2.920074951171875,-0.024334702640771866,0.017604075372219086,0.007157535292208195
1772566889744104000,2.93010400390625,-0.015112314373254776,0.017182815819978714,0.016235969960689545
1772566889754133000,2.940133056640625,-0.012055005878210068,0.018930383026599884,0.016403216868638992
1772566889764161800,2.950161865234375,-0.007616797927767038,0.014321930706501007,0.0069062365218997
1772566889774190800,2.96019091796875,-0.010160649195313454,0.015757907181978226,-0.00924929790198803
1772566889784220000,2.970219970703125,-0.013555973768234253,0.014241643249988556,-0.021747708320617676
1772566889794248700,2.980248779296875,-0.013670755550265312,0.023846067488193512,-0.01827148348093033
1772566889804278000,2.990278076171875,-0.012359926477074623,0.03059067577123642,-0.00891568511724472
1772566889814307800,3.000307861328125,-0.007923899218440056,0.025549575686454773,0.004699725657701492
1772566889824337000,3.0103369140625,0.002156847156584263,0.021455492824316025,0.006617067381739616
1772566889834366000,3.020365966796875,0.004408283159136772,0.027956001460552216,0.008955324068665504
1772566889844395000,3.03039501953125,0.004632391966879368,0.03564377874135971,0.0006692260503768921
1772566889854424000,3.040424072265625,-0.004307573661208153,0.03978153318166733,-0.015392565168440342
1772566889864452900,3.050452880859375,-0.015632249414920807,0.03821765258908272,-0.024968933314085007
1772566889874482000,3.06048193359375,-0.01572386361658573,0.04079825431108475,-0.027131419628858566
1772566889884511000,3.070510986328125,-0.012730966322124004,0.04382892698049545,-0.019317347556352615
1772566889894539800,3.080539794921875,-0.01450995821505785,0.03532279282808304,-0.012314299121499062
1772566889904568800,3.09056884765625,-0.016140837222337723,0.025779787451028824,0.0005634576082229614
1772566889914598000,3.100597900390625,-0.017662035301327705,0.021114464849233627,0.004251136444509029
1772566889924627000,3.110626953125,-0.022948555648326874,0.016798269003629684,0.0042270272970199585
1772566889934656000,3.120656005859375,-0.028435999527573586,0.01235132198780775,-0.0018716119229793549
1772566889944685000,3.13068505859375,-0.034101638942956924,0.01783750206232071,-0.01162300817668438
1772566889954713900,3.1407138671875,-0.039878565818071365,0.027968164533376694,-0.0104802455753088
1772566889964743000,3.150742919921875,-0.045384518802165985,0.033120885491371155,-0.007487053982913494
1772566889974772000,3.16077197265625,-0.04975449666380882,0.033308111131191254,-0.011233322322368622
1772566889984801000,3.170801025390625,-0.046858906745910645,0.03520727902650833,-0.008604306727647781
1772566889994829800,3.180829833984375,-0.049691978842020035,0.03520062193274498,-0.008887134492397308
1772566890004859000,3.19085888671875,-0.0459054559469223,0.03799179196357727,-0.011150777339935303
1772566890014888000,3.200887939453125,-0.03901239484548569,0.042763642966747284,-0.011760108172893524
1772566890024917000,3.2109169921875,-0.03095274604856968,0.0400209054350853,-0.01666220650076866
1772566890034946000,3.220946044921875,-0.027002746239304543,0.035419762134552,-0.01815757155418396
1772566890044975000,3.23097509765625,-0.027639389038085938,0.036571573466062546,-0.005045370198786259
1772566890055004000,3.24100390625,-0.0348200686275959,0.029569588601589203,-0.0024245530366897583
1772566890065033000,3.251032958984375,-0.03364744782447815,0.020887887105345726,-0.002296488732099533
1772566890075062000,3.26106201171875,-0.03484826907515526,0.010495167225599289,-0.007394045125693083
1772566890085090800,3.2710908203125,-0.036967840045690536,0.005474220961332321,-0.013557886704802513
1772566890095120000,3.281119873046875,-0.035272739827632904,-0.0029341774061322212,-0.021748438477516174
1772566890105149000,3.29114892578125,-0.0271390900015831,-0.007520806044340134,-0.022612694650888443
1772566890115178000,3.301177978515625,-0.020900635048747063,-0.008596722967922688,-0.012411456555128098
1772566890125207000,3.31120703125,-0.013626002706587315,-0.0019677793607115746,0.0001725396141409874
1772566890135236000,3.321236083984375,-0.014957848936319351,0.004371343180537224,-0.0006447844207286835
1772566890145265000,3.331264892578125,-0.0165547002106905,0.01272092666476965,-0.0013584005646407604
1772566890155294000,3.3412939453125,-0.014953074976801872,0.01762540638446808,-0.012519442476332188
1772566890165323000,3.351322998046875,-0.017867855727672577,0.024165023118257523,-0.022906940430402756
1772566890175351800,3.361351806640625,-0.02614549547433853,0.02492588758468628,-0.024941062554717064
1772566890185382000,3.3713818359375,-0.027264710515737534,0.02400817722082138,-0.025313856080174446
1772566890195411000,3.381410888671875,-0.02254372462630272,0.02479381114244461,-0.02100779116153717
1772566890205440000,3.39143994140625,-0.017394978553056717,0.020204251632094383,-0.016193395480513573
1772566890215468800,3.40146875,-0.013605564832687378,0.02067083679139614,-0.0014027319848537445
1772566890225497900,3.411497802734375,-0.012609356082975864,0.01863156631588936,0.005787716247141361
1772566890235527000,3.42152685546875,-0.020703766494989395,0.011178710497915745,0.00896832812577486
1772566890245556000,3.431555908203125,-0.02301819622516632,0.008329184725880623,0.0002730954438447952
1772566890255585000,3.4415849609375,-0.02590532787144184,0.009963566437363625,-0.0043312436901032925
1772566890265614000,3.451614013671875,-0.03600439801812172,0.010902472771704197,-0.005726761184632778
1772566890275643000,3.461642822265625,-0.04033895581960678,0.014245006255805492,-0.004754440858960152
1772566890285672000,3.471671875,-0.04266240820288658,0.012898965738713741,-0.00637666042894125
1772566890295701000,3.481700927734375,-0.04645315185189247,0.007991558872163296,-0.0070120906457304955
1772566890305729800,3.491729736328125,-0.043864402920007706,0.013290686532855034,-0.0048134420067071915
1772566890315758800,3.5017587890625,-0.04582288861274719,0.019197577610611916,-0.002343093976378441
1772566890325788000,3.511787841796875,-0.04528024047613144,0.023461472243070602,0.004011468030512333
1772566890335817000,3.52181689453125,-0.040256187319755554,0.027618933469057083,-0.0034978478215634823
1772566890345846000,3.531845947265625,-0.04231734201312065,0.031309038400650024,-0.003281624522060156
1772566890355875000,3.541875,-0.04361722990870476,0.033056337386369705,-0.01156245730817318
1772566890365904000,3.55190380859375,-0.04614216089248657,0.041232217103242874,-0.01799418032169342
1772566890375933000,3.561932861328125,-0.05494071543216705,0.041179489344358444,-0.04133918508887291
1772566890385962000,3.5719619140625,-0.06763136386871338,0.03824477270245552,-0.0782339945435524
1772566890395990800,3.58199072265625,-0.07699637115001678,0.028947144746780396,-0.12655732035636902
1772566890406019800,3.592019775390625,-0.0805579423904419,0.025968600064516068,-0.15768158435821533
1772566890416049000,3.602048828125,-0.08162453770637512,0.02587059512734413,-0.17754796147346497
1772566890426078000,3.612077880859375,-0.08185764402151108,0.03687284514307976,-0.17664745450019836
1772566890436107000,3.62210693359375,-0.07424606382846832,0.05552376061677933,-0.15550781786441803
1772566890446136000,3.632135986328125,-0.0699576586484909,0.060099780559539795,-0.13122279942035675
1772566890456164900,3.642164794921875,-0.062181759625673294,0.05602461099624634,-0.11617327481508255
1772566890466194000,3.65219384765625,-0.050434406846761703,0.04708751291036606,-0.1021239385008812
1772566890476223000,3.662222900390625,-0.043759461492300034,0.035944581031799316,-0.11479765176773071
1772566890486251800,3.672251708984375,-0.041631050407886505,0.02197127416729927,-0.15664556622505188
1772566890496278000,3.682278076171875,-0.03980012238025665,0.009732183068990707,-0.2142348289489746
1772566890506306800,3.692306884765625,-0.0352274551987648,0.000042416155338287354,-0.2813242971897125
1772566890516337000,3.7023369140625,-0.023292765021324158,-0.0017424337565898895,-0.3364887237548828
1772566890526366000,3.712365966796875,-0.00355006055906415,-0.013630278408527374,-0.3875357210636139
1772566890536394800,3.722394775390625,-0.050493866205215454,-0.0014604311436414719,-0.4205293655395508
1772566890546423800,3.732423828125,-0.08549946546554565,0.0316433310508728,-0.3820158541202545
1772566890556452900,3.742452880859375,-0.07765272259712219,0.06803808361291885,-0.3240111470222473
1772566890566482000,3.75248193359375,-0.05747551470994949,0.05485881492495537,-0.26695844531059265
1772566890576511000,3.762510986328125,-0.04773393273353577,0.05665245279669762,-0.2053920477628708
1772566890586540000,3.7725400390625,-0.032142240554094315,0.05924221873283386,-0.12855836749076843
1772566890596568800,3.78256884765625,-0.00994426105171442,0.06394030153751373,-0.07380697131156921
1772566890606598000,3.792597900390625,0.023636383935809135,0.055310484021902084,-0.043540023267269135
1772566890616627000,3.802626953125,0.052771635353565216,0.037622302770614624,-0.03248656913638115
1772566890626656000,3.812656005859375,0.06838299334049225,0.034457866102457047,-0.01859435625374317
1772566890636684800,3.822684814453125,0.07899409532546997,0.05181821435689926,-0.004960036836564541
1772566890646713900,3.8327138671875,0.0928117111325264,0.058763641864061356,0.007248027250170708
1772566890656743200,3.8427431640625,0.08444006741046906,0.06499996781349182,-0.00907262321561575
1772566890666772000,3.85277197265625,0.09162630140781403,0.07320062071084976,-0.009193642996251583
1772566890676801000,3.862801025390625,0.09618589282035828,0.07327225804328918,-0.01660069264471531
1772566890686830000,3.872830078125,0.09146210551261902,0.05101119354367256,-0.029006339609622955
1772566890696859000,3.88285888671875,0.08380445092916489,0.0546802319586277,-0.03130065277218819
1772566890706888000,3.892887939453125,0.05726853013038635,0.05196502059698105,-0.022937938570976257
1772566890716917000,3.9029169921875,0.033091820776462555,0.06023360788822174,-0.02686423808336258
1772566890726945800,3.91294580078125,0.013305566273629665,0.05438318848609924,-0.03763219341635704
1772566890736974800,3.922974853515625,-0.003917895257472992,0.04744698852300644,-0.051606595516204834
1772566890747004200,3.933004150390625,-0.02232557348906994,0.04393918439745903,-0.053108423948287964
1772566890757033000,3.943032958984375,-0.037101589143276215,0.03471079841256142,-0.05808374285697937
1772566890767062000,3.95306201171875,-0.05183173343539238,0.029732398688793182,-0.03201857581734657
1772566890777091000,3.963091064453125,-0.06126278266310692,0.02117326855659485,-0.00825625378638506
1772566890787119900,3.973119873046875,-0.06425651907920837,0.014919541776180267,0.01887674257159233
1772566890797149000,3.98314892578125,-0.06263118982315063,0.0020242491737008095,0.03976497799158096
1772566890807178000,3.993177978515625,-0.0566277951002121,-0.0031334450468420982,0.05809842795133591
1772566890817206000,4.0032060546875,-0.05264610797166824,-0.015978403389453888,0.054599300026893616
1772566890827235000,4.013235107421875,-0.04487396776676178,-0.014996432699263096,0.03730502724647522
1772566890837264000,4.023263916015625,-0.04698026180267334,-0.022771531715989113,0.021680526435375214
1772566890847293000,4.03329296875,-0.04278077185153961,-0.019509583711624146,0.011028559878468513
1772566890857322000,4.043322021484375,-0.03399340435862541,-0.018557237461209297,0.008080707862973213
1772566890867351000,4.05335107421875,-0.025475669652223587,-0.024437546730041504,0.00834606122225523
1772566890877379800,4.0633798828125,-0.014494391158223152,-0.025336898863315582,0.010626259259879589
1772566890887409000,4.073408935546875,0.0005372008308768272,-0.028562597930431366,0.009139780886471272
1772566890897438000,4.08343798828125,0.015666086226701736,-0.027088802307844162,0.002046450972557068
1772566890907467000,4.093467041015625,0.022899694740772247,-0.02749265357851982,0.0010280469432473183
1772566890917496000,4.10349609375,0.021606463938951492,-0.02512963116168976,0.008791427128016949
1772566890927525000,4.113525146484375,0.025651276111602783,-0.02260362170636654,0.02080361545085907
1772566890937554000,4.123553955078125,0.029326967895030975,-0.027388788759708405,0.030945200473070145
1772566890947583000,4.1335830078125,0.02827761322259903,-0.028691720217466354,0.036984704434871674
1772566890957612000,4.143612060546875,0.02466024085879326,-0.030437685549259186,0.03792240470647812
1772566890967640800,4.153640869140625,0.016565149649977684,-0.026263445615768433,0.038234125822782516
1772566890977670000,4.163669921875,0.009724287316203117,-0.019730977714061737,0.03554992750287056
1772566890987699000,4.173698974609375,0.0050751687958836555,-0.007457181811332703,0.031568460166454315
1772566890997727700,4.183727783203125,0.003026665188372135,0.0014425702393054962,0.027413392439484596
1772566891007757000,4.193757080078125,0.0014646509662270546,0.007164261303842068,0.017929866909980774
1772566891017786000,4.2037861328125,0.00006382819265127182,0.005930417217314243,0.01911204308271408
1772566891027815000,4.21381494140625,-0.0036355527117848396,0.001998976804316044,0.019826162606477737
1772566891037844000,4.223843994140625,-0.004150341730564833,-0.012543214485049248,0.02002110704779625
1772566891047873000,4.233873046875,-0.0009151613339781761,-0.014675546437501907,0.03383389115333557
1772566891057901800,4.24390185546875,0.00396428257226944,-0.012678442522883415,0.05903724581003189
1772566891067931000,4.253930908203125,0.007748744450509548,-0.011362772434949875,0.08118044584989548
1772566891077960000,4.2639599609375,0.010695532895624638,-0.006467882543802261,0.09338198602199554
1772566891087988700,4.27398876953125,0.012225164100527763,-0.001554151065647602,0.08932236582040787
1772566891098018000,4.28401806640625,0.000542675144970417,-0.0009810393676161766,0.07188132405281067
1772566891108047000,4.294047119140625,-0.008150198496878147,0.0041371360421180725,0.04726960510015488
1772566891118076000,4.304075927734375,-0.015086667612195015,0.007824813947081566,0.027586178854107857
1772566891128106000,4.31410595703125,-0.022985436022281647,0.01612098515033722,0.015995021909475327
1772566891138135000,4.324135009765625,-0.029714442789554596,0.02033783495426178,0.007892622612416744
1772566891148164000,4.3341640625,-0.03197867423295975,0.02448120340704918,0.00036218948662281036
1772566891158193000,4.34419287109375,-0.0322876013815403,0.02641358971595764,0.006943659856915474
1772566891168222000,4.354221923828125,-0.026616444811224937,0.026766786351799965,0.01710568368434906
1772566891178251000,4.3642509765625,-0.02325526997447014,0.021535539999604225,0.028927989304065704
1772566891188279800,4.37427978515625,-0.021762236952781677,0.016102055087685585,0.03738294541835785
1772566891198308900,4.384308837890625,-0.017580540850758553,0.012012505903840065,0.037836216390132904
1772566891208338000,4.394337890625,-0.015052687376737595,0.0029327664524316788,0.03358432278037071
1772566891218367000,4.404366943359375,-0.006824319250881672,-0.007178456988185644,0.027330689132213593
1772566891228396000,4.41439599609375,0.003658614121377468,-0.013786405324935913,0.030498243868350983
1772566891238425000,4.424425048828125,0.007383843883872032,-0.013100908137857914,0.04516027867794037
1772566891248454000,4.434453857421875,0.008352477103471756,-0.012796638533473015,0.059234652668237686
1772566891258483000,4.44448291015625,0.008523983880877495,-0.009113220497965813,0.07356378436088562
1772566891268512000,4.454511962890625,0.004487418569624424,-0.014847474172711372,0.08106285333633423
1772566891278540800,4.464540771484375,0.009894434362649918,-0.016189441084861755,0.08279470354318619
1772566891288569900,4.47456982421875,0.0115872947499156,-0.015047282911837101,0.08435256779193878
1772566891298599000,4.484598876953125,0.012752960436046124,-0.015808681026101112,0.08390755206346512
1772566891308628000,4.4946279296875,0.011874602176249027,-0.011869496665894985,0.08078008145093918
1772566891318657000,4.504656982421875,0.011256481520831585,-0.005617992486804724,0.08331434428691864
1772566891328686000,4.51468603515625,0.012933150865137577,0.000720457173883915,0.07758194953203201
1772566891338715000,4.52471484375,0.01750180497765541,0.0026986533775925636,0.07194989919662476
1772566891348744000,4.534743896484375,0.020105473697185516,0.0016783112660050392,0.06308823078870773
1772566891358773000,4.54477294921875,0.024481844156980515,-0.005945519544184208,0.046005915850400925
1772566891368801800,4.5548017578125,0.02067115157842636,-0.006207049358636141,0.03160984814167023
1772566891378830800,4.564830810546875,0.021646935492753983,-0.008908294141292572,0.014516347087919712
1772566891388860000,4.57485986328125,0.016237705945968628,-0.012292508967220783,0.0035192370414733887
1772566891398888700,4.584888671875,0.017014283686876297,-0.012511420994997025,-0.0017399732023477554
1772566891408918000,4.59491796875,0.020482832565903664,-0.018166478723287582,0.006650974042713642
1772566891418947000,4.604947021484375,0.020472446456551552,-0.013086233288049698,0.01683756336569786
1772566891428975900,4.614975830078125,0.01704462617635727,-0.011712964624166489,0.02860552817583084
1772566891439007000,4.625007080078125,0.015109040774405003,-0.007810634560883045,0.03379363194108009
1772566891449035800,4.635035888671875,0.013079007156193256,-0.0015414897352457047,0.03084416314959526
1772566891459065000,4.645065185546875,0.008400899358093739,0.008193961344659328,0.023340974003076553
1772566891469094100,4.65509423828125,0.00041931960731744766,0.007152581587433815,0.01097281463444233
1772566891479123000,4.665123046875,-0.0031658275984227657,0.011176085099577904,0.0018285848200321198
1772566891489152000,4.675152099609375,-0.007399692200124264,0.01500112283974886,-0.0022277068346738815
1772566891499180500,4.6851806640625,-0.011644238606095314,0.01791275665163994,0.000783529132604599
1772566891509209600,4.695209716796875,-0.012229736894369125,0.01570182479918003,0.0032152337953448296
1772566891519238700,4.70523876953125,-0.01174424309283495,0.009699326008558273,0.0027563711628317833
1772566891529267500,4.715267333984375,-0.011177197098731995,0.003010937012732029,0.004060190171003342
1772566891539296500,4.725296630859375,-0.009771048091351986,-0.00935385376214981,0.0014771902933716774
1772566891549325800,4.735325927734375,-0.008699420839548111,-0.017031151801347733,0.001959521323442459
1772566891559354600,4.745354736328125,-0.005152090452611446,-0.019649304449558258,0.015874003991484642
1772566891569383700,4.7553837890625,-0.00782877579331398,-0.012103364802896976,0.01997813954949379
1772566891579412700,4.765412841796875,-0.007329699583351612,0.000861169770359993,0.02311720699071884
1772566891589441500,4.775441650390625,-0.007912841625511646,0.004640049301087856,0.01334466878324747
1772566891599470600,4.785470703125,-0.006455559749156237,0.009210833348333836,-0.0001799291931092739
1772566891609499600,4.795499755859375,-0.006287386640906334,0.0069050537422299385,-0.022108186036348343
1772566891619528400,4.805528564453125,-0.009125251322984695,0.0053409794345498085,-0.028615886345505714
1772566891629557500,4.8155576171875,-0.005191190633922815,0.00610495638102293,-0.010823528282344341
1772566891639586600,4.825586669921875,-0.0024444060400128365,0.0038212956860661507,0.014438151381909847
1772566891649616600,4.83561669921875,0.0025280816480517387,-0.003994450904428959,0.027708426117897034
1772566891659645400,4.8456455078125,0.005268207751214504,-0.007875742390751839,0.03840714320540428
1772566891669674800,4.8556748046875,0.0061224596574902534,-0.008989064022898674,0.03301138058304787
1772566891679703800,4.865703857421875,0.010749168694019318,-0.014562261290848255,0.02171771600842476
1772566891689732600,4.875732666015625,0.011578608304262161,-0.019147660583257675,0.01811816170811653
1772566891699761700,4.88576171875,0.013354936614632607,-0.019086940214037895,0.014223288744688034
1772566891709790700,4.895790771484375,0.021495535969734192,-0.017731647938489914,0.02067945897579193
1772566891719819500,4.905819580078125,0.02781042456626892,-0.018622741103172302,0.022628095000982285
1772566891729848600,4.9158486328125,0.033381808549165726,-0.018888892605900764,0.023732630535960197
1772566891739877600,4.925877685546875,0.03955341503024101,-0.01633465476334095,0.021809294819831848
1772566891749906400,4.935906494140625,0.04883291572332382,-0.014479989185929298,0.01514351274818182
1772566891759935700,4.945935791015625,0.04840308055281639,-0.012182213366031647,0.006098619662225246
1772566891769964800,4.95596484375,0.05146738886833191,-0.007960466668009758,-0.0021019582636654377
1772566891779993600,4.96599365234375,0.05522484332323074,-0.014707053080201149,-0.0031493795104324818
1772566891790022700,4.976022705078125,0.05770719051361084,-0.019721239805221558,0.0035624224692583084
1772566891800051700,4.9860517578125,0.0636894479393959,-0.01864612102508545,0.020549660548567772
1772566891810080500,4.99608056640625,0.07019379734992981,-0.015847641974687576,0.03288388252258301
1772566891820109600,5.006109619140625,0.07064946740865707,-0.017587218433618546,0.03708847612142563
1772566891830138600,5.016138671875,0.06644763797521591,-0.021467959508299828,0.03295192867517471
1772566891840167700,5.026167724609375,0.06097617745399475,-0.03642427176237106,0.017611589282751083
1772566891850196500,5.036196533203125,0.05505470186471939,-0.04951726272702217,-0.0011062100529670715
1772566891860225800,5.046225830078125,0.05203521251678467,-0.05707930773496628,-0.011215303093194962
1772566891870254800,5.0562548828125,0.0456489622592926,-0.04837052524089813,0.001645977608859539
1772566891880283600,5.06628369140625,0.03978867083787918,-0.0448671393096447,0.010016292333602905
1772566891890312700,5.076312744140625,0.038683149963617325,-0.044957634061574936,0.010647658258676529
1772566891900341800,5.086341796875,0.03225694224238396,-0.03710024058818817,0.005651302635669708
1772566891910370600,5.09637060546875,0.021489571779966354,-0.03209197521209717,-0.005221438594162464
1772566891920399600,5.106399658203125,0.014752306044101715,-0.02723117358982563,-0.009533362463116646
1772566891930428700,5.1164287109375,0.00307445228099823,-0.027859115973114967,-0.008812387473881245
1772566891940457500,5.12645751953125,-0.00483913067728281,-0.021929588168859482,-0.00008307816460728645
1772566891950487600,5.136487548828125,-0.012567682191729546,-0.010459759272634983,0.006774893030524254
1772566891960516600,5.1465166015625,-0.022540420293807983,0.00020620133727788925,0.0112937455996871
1772566891970545400,5.15654541015625,-0.029727652668952942,0.007896381430327892,0.0020196111872792244
1772566891980574700,5.16657470703125,-0.02846185490489006,0.013689556159079075,-0.010955842211842537
1772566891990603800,5.176603759765625,-0.023768778890371323,0.014321194030344486,-0.02406802773475647
1772566892000632800,5.1866328125,-0.024815402925014496,0.008555450476706028,-0.024571632966399193
1772566892010661600,5.19666162109375,-0.024148035794496536,-0.002978431060910225,-0.02283836528658867
1772566892020690700,5.206690673828125,-0.02241724729537964,-0.017588533461093903,-0.01628246158361435
1772566892030719700,5.2167197265625,-0.01937580667436123,-0.023574985563755035,0.0045091863721609116
1772566892040748500,5.22674853515625,-0.02088821679353714,-0.03407103568315506,0.02579982951283455
1772566892050777600,5.236777587890625,-0.019430503249168396,-0.037814997136592865,0.02567359060049057
1772566892060806700,5.246806640625,-0.01475851982831955,-0.033901479095220566,0.02055259793996811
1772566892070835700,5.256835693359375,-0.021620377898216248,-0.024583926424384117,0.019513234496116638
1772566892080864800,5.26686474609375,-0.03218114376068115,-0.01803627796471119,0.004990220069885254
1772566892090893800,5.276893798828125,-0.03901705518364906,-0.006276900414377451,0.008075672201812267
1772566892100922600,5.286922607421875,-0.055218394845724106,0.009404856711626053,0.009996877051889896
1772566892110951700,5.29695166015625,-0.06781596690416336,0.014742939732968807,0.0031854193657636642
1772566892120980700,5.306980712890625,-0.07119764387607574,0.01960906758904457,0.0014008348807692528
1772566892131009500,5.317009521484375,-0.07047738134860992,0.027500510215759277,-0.004079042002558708
1772566892141038600,5.32703857421875,-0.06941238790750504,0.03312377259135246,-0.005405828356742859
1772566892151067600,5.337067626953125,-0.0692894458770752,0.03704734519124031,-0.010143578052520752
1772566892161096400,5.347096435546875,-0.06483744084835052,0.040323298424482346,-0.00947033055126667
1772566892171125800,5.357125732421875,-0.061723776161670685,0.042807191610336304,-0.010988657362759113
1772566892181154800,5.36715478515625,-0.05115368962287903,0.03828141465783119,-0.011286664754152298
1772566892191183600,5.37718359375,-0.040714096277952194,0.0294633898884058,-0.009872198104858398
1772566892201212700,5.387212646484375,-0.022659197449684143,0.01611402817070484,-0.007883349433541298
1772566892211241700,5.39724169921875,-0.009169057942926884,0.008591344580054283,0.0009162016212940216
1772566892221271800,5.407271728515625,-0.0044664484448730946,-0.002360371872782707,0.008887309581041336
1772566892231300600,5.417300537109375,0.004873082973062992,-0.011060547083616257,0.018627747893333435
1772566892241329700,5.42732958984375,0.009532550349831581,-0.013809727504849434,0.03483600914478302
1772566892251358700,5.437358642578125,0.012012258172035217,-0.019383568316698074,0.03710167482495308
1772566892261387500,5.447387451171875,0.015375297516584396,-0.019560934975743294,0.023291852325201035
1772566892271416600,5.45741650390625,0.018695548176765442,-0.019060688093304634,0.009180929511785507
1772566892281445600,5.467445556640625,0.022801876068115234,-0.01533519197255373,-0.010111807845532894
1772566892291474700,5.477474609375,0.02727864682674408,-0.013647546991705894,-0.024727236479520798
1772566892301503700,5.487503662109375,0.03155462071299553,-0.011492250487208366,-0.02551659755408764
1772566892311532800,5.49753271484375,0.036872684955596924,-0.009434692561626434,-0.00903908722102642
1772566892321561600,5.5075615234375,0.0432986281812191,-0.01049463078379631,0.0026963986456394196
1772566892331590700,5.517590576171875,0.04250805452466011,-0.012963332235813141,0.008928092196583748
1772566892341619700,5.52761962890625,0.038993481546640396,-0.02409268170595169,0.010409874841570854
1772566892351648500,5.5376484375,0.03982550650835037,-0.03621523082256317,-0.0010250834748148918
1772566892361677600,5.547677490234375,0.04162207245826721,-0.0403580442070961,-0.005245395004749298
1772566892371706600,5.55770654296875,0.03879452496767044,-0.0440911129117012,-0.0050723012536764145
1772566892381735700,5.567735595703125,0.04070693999528885,-0.04479418694972992,-0.006520528346300125
1772566892391764700,5.5777646484375,0.03877401351928711,-0.041710540652275085,0.001315268687903881
1772566892401793800,5.587793701171875,0.03474012389779091,-0.039783209562301636,0.008518320508301258
1772566892411822600,5.597822509765625,0.03363785892724991,-0.03159984573721886,0.009535214863717556
1772566892421851600,5.6078515625,0.02029462158679962,-0.029612593352794647,-0.0009437911212444305
1772566892431880700,5.617880615234375,0.005801929160952568,-0.023446541279554367,0.0007686307653784752
1772566892441909500,5.627909423828125,-0.007461411412805319,-0.018854986876249313,-0.0010835975408554077
1772566892451938600,5.6379384765625,-0.01565682329237461,-0.017857758328318596,-0.0018266350962221622
1772566892461967600,5.647967529296875,-0.01716417260468006,-0.014743723906576633,-0.005015237722545862
1772566892471996700,5.65799658203125,-0.024527214467525482,-0.011116638779640198,-0.000008212868124246597
1772566892482025700,5.668025634765625,-0.029303859919309616,-0.016860544681549072,0.0050565870478749275
1772566892492055600,5.6780556640625,-0.03213459253311157,-0.01739785075187683,0.009171499870717525
1772566892502083800,5.688083740234375,-0.0347607359290123,-0.020566746592521667,0.016061630100011826
1772566892512113000,5.69811279296875,-0.036325350403785706,-0.02160855382680893,0.015967540442943573
1772566892522141700,5.7081416015625,-0.0387624092400074,-0.01195379626005888,0.010583962313830853
1772566892532170800,5.718170654296875,-0.03644223511219025,-0.007118088658899069,-0.001063404604792595
1772566892542199800,5.72819970703125,-0.034799329936504364,0.0008689975365996361,-0.0088241221383214
1772566892552228900,5.738228759765625,-0.03153034672141075,0.012136134319007397,-0.012800347059965134
1772566892562257700,5.748257568359375,-0.027518294751644135,0.0179133303463459,-0.013098888099193573
1772566892572286700,5.75828662109375,-0.023853585124015808,0.021667731925845146,-0.007176297716796398
1772566892582316000,5.76831591796875,-0.023888476192951202,0.01899072341620922,-0.0004289126954972744
1772566892592344800,5.7783447265625,-0.02098744362592697,0.011864266358315945,0.005200335755944252
1772566892602374000,5.788373779296875,-0.022050311788916588,0.013231267221271992,0.009620117954909801
1772566892612403000,5.79840283203125,-0.020711274817585945,0.013540993444621563,0.0029052235186100006
1772566892622431700,5.808431640625,-0.014361233450472355,0.01496951188892126,-0.004495967645198107
1772566892632460800,5.818460693359375,-0.015730662271380424,0.019476955756545067,-0.023166757076978683
1772566892642489900,5.82848974609375,-0.00863333698362112,0.016323240473866463,-0.016019897535443306
1772566892652518700,5.8385185546875,-0.0037690242752432823,0.014855488203465939,-0.009053812362253666
1772566892662547700,5.848547607421875,0.0005173329263925552,0.003775407560169697,0.006192252039909363
1772566892672577000,5.858576904296875,0.0052683549001812935,0.0037598181515932083,0.014718960970640182
1772566892682605800,5.868605712890625,0.009079338051378727,0.00166337750852108,0.014427343383431435
1772566892692635000,5.878634765625,0.015431900508701801,0.0021075932309031487,0.00916462205350399
1772566892702664000,5.888663818359375,0.016591176390647888,0.0022058645263314247,0.0006859172135591507
1772566892712692700,5.898692626953125,0.019920412451028824,0.01041501760482788,-0.004804299678653479
1772566892722721800,5.9087216796875,0.02386482059955597,0.018218079581856728,-0.011162330396473408
1772566892732750800,5.918750732421875,0.02189077064394951,0.01858344115316868,-0.015091964974999428
1772566892742779600,5.928779541015625,0.026692450046539307,0.021027691662311554,-0.01589490845799446
1772566892752809700,5.938809814453125,0.032252512872219086,0.014628002420067787,-0.010692263953387737
1772566892762838800,5.9488388671875,0.03461979329586029,0.011070553213357925,-0.005987789947539568
1772566892772867800,5.958867919921875,0.03403478488326073,0.004779212176799774,-0.004614822566509247
1772566892782896600,5.968896728515625,0.026206422597169876,-0.003710678778588772,-0.008659631945192814
1772566892792926000,5.978926025390625,0.02248406410217285,-0.0025145262479782104,0.002425840124487877
1772566892802955000,5.988955078125,0.011633014306426048,-0.007230984512716532,0.005538010038435459
1772566892812983800,5.99898388671875,0.009304814040660858,-0.008124103769659996,0.007338353432714939
1772566892823012900,6.009012939453125,0.00044128112494945526,-0.0035043181851506233,0.009094174951314926
1772566892833042000,6.0190419921875,-0.001432681456208229,-0.004793744068592787,0.003256259486079216
1772566892843070700,6.02907080078125,-0.004421813413500786,-0.012145133689045906,-0.008707725442945957
1772566892853099800,6.039099853515625,-0.0033717392943799496,-0.013724122196435928,-0.008831039071083069
1772566892863128800,6.04912890625,-0.0019791722297668457,-0.009396752342581749,0.0047417618334293365
1772566892873157600,6.05915771484375,-0.006085660774260759,-0.006494642700999975,0.009915743954479694
1772566892883187000,6.06918701171875,-0.011614915914833546,-0.009286700747907162,-0.005624334327876568
1772566892893216000,6.079216064453125,-0.014893705025315285,-0.00834760069847107,-0.011304070241749287
1772566892903244800,6.089244873046875,-0.018922533839941025,0.003916257061064243,0.00007295329123735428
1772566892913273900,6.09927392578125,-0.026032669469714165,0.01693624258041382,0.01351475715637207
1772566892923303000,6.109302978515625,-0.0294356569647789,0.02535982057452202,0.008244892582297325
1772566892933331700,6.119331787109375,-0.030300550162792206,0.026611849665641785,-0.012675302103161812
1772566892943360800,6.12936083984375,-0.022894296795129776,0.02073984593153,-0.03650713339447975
1772566892953389800,6.139389892578125,-0.01733475923538208,0.021240651607513428,-0.03806883841753006
1772566892963418600,6.149418701171875,-0.014258274808526039,0.012589639984071255,-0.023404143750667572
1772566892973447700,6.15944775390625,-0.013555476441979408,-0.0055914754047989845,-0.008278531953692436
1772566892983477000,6.16947705078125,-0.011862771585583687,-0.019727535545825958,0.0029498878866434097
1772566892993505800,6.179505859375,-0.003936489578336477,-0.0203689131885767,0.018068477511405945
1772566893003536000,6.189535888671875,-0.004778581205755472,-0.020948950201272964,0.024686433374881744
1772566893013565000,6.19956494140625,-0.008507795631885529,-0.02426993101835251,0.011456461623311043
1772566893023594000,6.209593994140625,-0.002459223847836256,-0.02866867557168007,-0.0037437970750033855
1772566893033622800,6.219622802734375,-0.002272376324981451,-0.025920068845152855,-0.009437431581318378
1772566893043651800,6.22965185546875,-0.0015943353064358234,-0.026023399084806442,-0.004669574089348316
1772566893053681000,6.239680908203125,-0.0000074142590165138245,-0.031351760029792786,0.0036119194701313972
1772566893063709700,6.249709716796875,0.010782383382320404,-0.029046526178717613,0.011225630529224873
1772566893073738800,6.25973876953125,0.015975849702954292,-0.03259206563234329,0.013714935630559921
1772566893083767800,6.269767822265625,0.01969601958990097,-0.03445574641227722,0.01707557961344719
1772566893093796600,6.279796630859375,0.020531121641397476,-0.0336364284157753,0.02443201094865799
1772566893103826000,6.289825927734375,0.01779312640428543,-0.03731371834874153,0.02803926169872284
1772566893113855000,6.29985498046875,0.010898229666054249,-0.04276923090219498,0.03101472184062004
1772566893123883800,6.3098837890625,0.006473919376730919,-0.045348234474658966,0.018525823950767517
1772566893133912800,6.319912841796875,0.005998651497066021,-0.05076852813363075,0.010783009231090546
1772566893143942000,6.32994189453125,0.005876945331692696,-0.049940552562475204,0.012522319331765175
1772566893153970700,6.339970703125,0.007579399272799492,-0.0441458523273468,0.02398749813437462
1772566893163999700,6.349999755859375,0.007977807894349098,-0.03498963639140129,0.028950035572052002
1772566893174028800,6.36002880859375,0.008645405992865562,-0.029242152348160744,0.022301778197288513
1772566893184057600,6.3700576171875,0.010996444150805473,-0.0226052887737751,0.019367240369319916
1772566893194087000,6.3800869140625,0.011555297300219536,-0.015254411846399307,0.0106589300557971
1772566893204116000,6.390115966796875,0.009729700163006783,-0.009769365191459656,0.0020111138001084328
1772566893214144800,6.400144775390625,0.009839263744652271,0.0042977770790457726,0.0030702445656061172
1772566893224173800,6.410173828125,0.010378287173807621,0.015407686121761799,0.0035256454721093178
1772566893234203000,6.420202880859375,0.009311014786362648,0.01993003860116005,0.0029628118500113487
1772566893244231700,6.430231689453125,0.011975239962339401,0.017973151057958603,-0.008618743158876896
1772566893254261800,6.44026171875,0.014446378685534,0.01770922541618347,-0.013434283435344696
1772566893264290800,6.450290771484375,0.02079588919878006,0.014644191600382328,-0.012185527011752129
1772566893274320000,6.46031982421875,0.024137670174241066,0.007033866830170155,-0.0044164955615997314
1772566893284348700,6.4703486328125,0.028580887243151665,0.00019726529717445374,-0.00021003279834985733
1772566893294377700,6.480377685546875,0.028992878273129463,0.002558141015470028,0.003854021430015564
1772566893304406800,6.49040673828125,0.026728125289082527,0.005341942422091961,0.00527508370578289
1772566893314435800,6.500435791015625,0.022136438637971878,0.007080988958477974,0.00037110038101673126
1772566893324465000,6.51046484375,0.014561341144144535,0.009728703647851944,-0.009730535559356213
1772566893334494000,6.520493896484375,0.009489702992141247,0.01829272136092186,-0.01303427666425705
1772566893344522800,6.530522705078125,0.008110986091196537,0.027597274631261826,-0.008974287658929825
1772566893354551800,6.5405517578125,0.008225549012422562,0.032818857580423355,-0.004938208963721991
1772566893364580900,6.550580810546875,0.01578919216990471,0.02857910469174385,-0.007681264542043209
1772566893374609700,6.560609619140625,0.017088893800973892,0.025776498019695282,-0.015063720755279064
1772566893384638700,6.570638671875,0.017283301800489426,0.02076336368918419,-0.018645672127604485
1772566893394667800,6.580667724609375,0.016299083828926086,0.017702147364616394,-0.016726424917578697
1772566893404696600,6.590696533203125,0.01601971872150898,0.015656307339668274,-0.002326712477952242
1772566893414726000,6.600725830078125,0.016481148079037666,0.010628190822899342,0.009806930087506771
1772566893424755000,6.6107548828125,0.015044905245304108,0.0061090728268027306,0.012247449718415737
1772566893434783700,6.62078369140625,0.01782458834350109,-0.0048807542771101,0.00764668732881546
1772566893444812800,6.630812744140625,0.01620245724916458,-0.005100997630506754,0.0052602291107177734
1772566893454841900,6.640841796875,0.00845777615904808,-0.0013662762939929962,0.009939274750649929
1772566893464871000,6.650870849609375,-0.00022572651505470276,-0.001684524118900299,0.0045780641958117485
1772566893474899700,6.660899658203125,-0.009484624490141869,0.003094807267189026,0.0003368547186255455
1772566893484929800,6.6709296875,-0.013556597754359245,0.012040630914270878,0.006706336513161659
1772566893494958800,6.680958740234375,-0.015105407685041428,0.026402084156870842,0.010055703110992908
1772566893504991700,6.69099169921875,-0.02305121347308159,0.023478468880057335,0.0034968703985214233
1772566893515020500,6.7010205078125,-0.02206413261592388,0.02856834977865219,-0.015237327665090561
1772566893525049600,6.711049560546875,-0.013277033343911171,0.030759599059820175,-0.016645073890686035
1772566893535078700,6.72107861328125,-0.009471462108194828,0.031988274306058884,-0.007361132185906172
1772566893545107700,6.731107666015625,-0.010463755577802658,0.03189745917916298,0.01080828346312046
1772566893555136800,6.74113671875,-0.007226882036775351,0.020325109362602234,0.004507457837462425
1772566893565165800,6.751165771484375,-0.0012318403460085392,0.018867027014493942,0.001089024357497692
1772566893575194600,6.761194580078125,0.000814647413790226,0.01392289437353611,0.000143478624522686
1772566893585223700,6.7712236328125,-0.002912446390837431,0.007853817194700241,-0.006346911657601595
1772566893595252700,6.781252685546875,-0.003735953476279974,-0.0008508721366524696,-0.0075652459636330605
1772566893605281500,6.791281494140625,-0.00237374659627676,-0.0006514014676213264,0.002659694291651249
1772566893615310600,6.801310546875,-0.003866365645080805,0.005221797153353691,0.018436908721923828
1772566893625339600,6.811339599609375,-0.0058719925582408905,0.006242319941520691,0.020458780229091644
1772566893635368700,6.82136865234375,-0.007084080018103123,0.003509521484375,0.0014737891033291817
1772566893645397800,6.831397705078125,-0.00835946761071682,0.007731696590781212,-0.009026522748172283
1772566893655426800,6.8414267578125,-0.010089095681905746,0.010666037909686565,-0.013410364277660847
1772566893665455600,6.85145556640625,-0.010404413565993309,0.010625823400914669,-0.0070733726024627686
1772566893675484700,6.861484619140625,-0.008577322587370872,0.003884781152009964,0.003530203364789486
1772566893685513700,6.871513671875,-0.004930390045046806,0.0022831568494439125,0.01905776560306549
1772566893695542500,6.88154248046875,0.003262708894908428,-0.0012027006596326828,0.031603045761585236
1772566893705571600,6.891571533203125,0.006303772330284119,-0.0024027209728956223,0.025328371673822403
1772566893715601700,6.9016015625,0.0002811206504702568,-0.0005053794011473656,0.016329387202858925
1772566893725630700,6.911630615234375,-0.0030955015681684017,0.01008814200758934,-0.0003020544536411762
1772566893735659500,6.921659423828125,-0.005313876550644636,0.01277386024594307,-0.013421004638075829
1772566893745688600,6.9316884765625,0.004029558040201664,0.018597394227981567,-0.016047947108745575
1772566893755717600,6.941717529296875,0.01317179948091507,0.01657949388027191,-0.008712153881788254
1772566893765746700,6.95174658203125,0.02111733891069889,0.013501410372555256,-0.002524565439671278
1772566893775775700,6.961775634765625,0.02852836437523365,0.014102524146437645,0.006639746017754078
1772566893785804800,6.9718046875,0.0357508584856987,0.006478959694504738,0.00358456838876009
1772566893795833600,6.98183349609375,0.040704891085624695,0.0007083835080265999,0.0047799525782465935
1772566893805862700,6.991862548828125,0.04021007567644119,-0.004186772741377354,0.0019450178369879723
1772566893815891700,7.0018916015625,0.036764126271009445,-0.011516951024532318,0.004458065144717693
1772566893825920500,7.01192041015625,0.0308295376598835,-0.02001163549721241,0.004694820381700993
1772566893835949600,7.021949462890625,0.03136110678315163,-0.024923302233219147,0.0022198446094989777
1772566893845978600,7.031978515625,0.032164316624403,-0.028168363496661186,0.008415155112743378
1772566893856007700,7.042007568359375,0.03392899036407471,-0.0304564218968153,0.01457303762435913
1772566893866036700,7.05203662109375,0.02858668752014637,-0.021518852561712265,0.01812596060335636
1772566893876065800,7.062065673828125,0.019518662244081497,-0.008447335101664066,0.018917500972747803
1772566893886094600,7.072094482421875,0.011203741654753685,-0.0004559876397252083,0.004613930359482765
1772566893896123600,7.08212353515625,0.005544687621295452,0.005683606490492821,-0.01611299067735672
1772566893906152700,7.092152587890625,0.0003635082393884659,0.007262861356139183,-0.021325327455997467
1772566893916181800,7.102181640625,-0.0013807322829961777,0.012372669763863087,-0.014416515827178955
1772566893926210600,7.11221044921875,-0.007416520267724991,0.007572588510811329,-0.010912062600255013
1772566893936239600,7.122239501953125,-0.011689655482769012,-0.0018481556326150894,-0.009679808281362057
1772566893946268700,7.1322685546875,-0.013524573296308517,-0.004680960439145565,0.003195510245859623
1772566893956298500,7.142298583984375,-0.019386401399970055,-0.011502495035529137,0.013388698920607567
1772566893966327600,7.15232763671875,-0.02458968572318554,-0.020219020545482635,0.009218722581863403
1772566893976356900,7.16235693359375,-0.024743378162384033,-0.0235455185174942,0.008286112919449806
1772566893986385700,7.1723857421875,-0.026095198467373848,-0.014416202902793884,0.014809790998697281
1772566893996414700,7.182414794921875,-0.023831583559513092,0.004494789056479931,0.03223039209842682
1772566894006443800,7.19244384765625,-0.023790571838617325,0.018146950751543045,0.03868136927485466
1772566894016472600,7.20247265625,-0.022869577631354332,0.0307395588606596,0.027779387310147285
1772566894026501600,7.212501708984375,-0.024395568296313286,0.04505564272403717,0.0032822992652654648
1772566894036530700,7.22253076171875,-0.026835687458515167,0.05331571400165558,-0.02426627278327942
1772566894046559500,7.2325595703125,-0.025513961911201477,0.039640914648771286,-0.03302248194813728
1772566894056588500,7.242588623046875,-0.020511232316493988,0.02177993208169937,-0.039246976375579834
1772566894066617600,7.25261767578125,-0.012168347835540771,0.003244331106543541,-0.014839638955891132
1772566894076647000,7.26264697265625,-0.0022671916522085667,-0.018336715176701546,0.005032007582485676
1772566894086675700,7.27267578125,0.012869683094322681,-0.03876902163028717,0.02090604603290558
1772566894096704800,7.282704833984375,0.028102897107601166,-0.05382106453180313,0.023530572652816772
1772566894106733800,7.29273388671875,0.03812250867486,-0.05977535992860794,0.020119065418839455
1772566894116762600,7.3027626953125,0.04586414620280266,-0.054598644375801086,0.023222167044878006
1772566894126791700,7.312791748046875,0.05549680069088936,-0.04012249782681465,0.03417681157588959
1772566894136820700,7.32282080078125,0.058959297835826874,-0.019407611340284348,0.04372021183371544
1772566894146849500,7.332849609375,0.06398122012615204,-0.009032735601067543,0.043027523905038834
1772566894156878600,7.342878662109375,0.07029469311237335,0.00036333315074443817,0.027351180091500282
1772566894166908000,7.352907958984375,0.07256637513637543,0.012418930418789387,0.008355384692549706
1772566894176937500,7.3629375,0.06332863867282867,0.01731201261281967,-0.007285330444574356
1772566894186966800,7.372966796875,0.05633118003606796,0.02602241560816765,-0.01869111694395542
1772566894196995800,7.382995849609375,0.043143078684806824,0.034094974398612976,-0.006671353243291378
1772566894207024600,7.393024658203125,0.03496131673455238,0.03224248066544533,0.006452704779803753
1772566894217053700,7.4030537109375,0.022550368681550026,0.02141849510371685,0.010659521445631981
1772566894227082800,7.413082763671875,0.010345634073019028,0.010514181107282639,0.003271380439400673
1772566894237111600,7.423111572265625,0.001216207630932331,0.0012380797415971756,-0.006420913618057966
1772566894247140600,7.433140625,-0.00829420704394579,-0.008932266384363174,-0.00448586093261838
1772566894257169700,7.443169677734375,-0.016554534435272217,-0.01786077953875065,0.012165820226073265
1772566894267198700,7.45319873046875,-0.021727724000811577,-0.017829621210694313,0.024490395560860634
1772566894277227500,7.4632275390625,-0.02089078351855278,-0.02110219933092594,0.025468582287430763
1772566894287256800,7.4732568359375,-0.01861751079559326,-0.013871450908482075,0.011502431705594063
1772566894297286000,7.483285888671875,-0.021188579499721527,-0.006597181316465139,-0.003346229437738657
1772566894307314700,7.493314697265625,-0.023098865523934364,-0.0025260066613554955,-0.008215020410716534
1772566894317343700,7.50334375,-0.02239835262298584,0.0036946693435311317,-0.009633615612983704
1772566894327372800,7.513372802734375,-0.01824834942817688,0.007096591405570507,-0.0076303863897919655
1772566894337401600,7.523401611328125,-0.013404352590441704,0.0033343983814120293,-0.003467836417257786
1772566894347430700,7.5334306640625,-0.0026670205406844616,0.0002374080941081047,-0.0057413773611187935
1772566894357459700,7.543459716796875,0.0031137634068727493,-0.006755505222827196,-0.005216054618358612
1772566894367488500,7.553488525390625,0.007085335440933704,-0.0058486987836658955,-0.0026130806654691696
1772566894377518600,7.5635185546875,0.012069478631019592,-0.00957081001251936,-0.009273065254092216
1772566894387547600,7.573547607421875,0.007942112162709236,-0.011802006512880325,-0.013558890670537949
1772566894397576400,7.583576416015625,0.004095607437193394,-0.013914489187300205,-0.007910233922302723
1772566894407605800,7.593605712890625,0.002701709046959877,-0.02036280184984207,-0.010911881923675537
1772566894417634800,7.603634765625,-0.004244512878358364,-0.01803486794233322,-0.00440507335588336
1772566894427664000,7.613663818359375,-0.00912129320204258,-0.010642466135323048,-0.0012641414068639278
1772566894437692700,7.623692626953125,-0.017588119953870773,-0.007863773964345455,-0.005903167184442282
1772566894447721700,7.6337216796875,-0.0256258063018322,0.000277775339782238,-0.009021462872624397
1772566894457750800,7.643750732421875,-0.03223332762718201,0.015748778358101845,-0.0004736543633043766
1772566894467779600,7.653779541015625,-0.04321247711777687,0.01807558164000511,0.0037679625675082207
1772566894477808600,7.66380859375,-0.045500174164772034,0.021695222705602646,0.0034594694152474403
1772566894487837700,7.673837646484375,-0.05108721926808357,0.02128935605287552,0.0018932642415165901
1772566894497863200,7.68386328125,-0.04998445510864258,0.016920771449804306,-0.00352722080424428
1772566894507892000,7.69389208984375,-0.04869015887379646,0.011596045456826687,-0.009831189177930355
1772566894517921000,7.703921142578125,-0.04966459795832634,0.0019510984420776367,-0.011222990229725838
1772566894527950000,7.7139501953125,-0.04093688353896141,-0.0051965597085654736,-0.009141996502876282
1772566894537979000,7.723978759765625,-0.035272277891635895,-0.0011103246361017227,-0.006378306075930595
1772566894548008000,7.734008056640625,-0.030745703727006912,-0.004437411203980446,-0.0004897904582321644
1772566894558037000,7.744037109375,-0.02275322563946247,-0.0015184562653303146,0.0007227649912238121
1772566894568065800,7.754065673828125,-0.014777325093746185,0.0029447348788380623,-0.0033832965418696404
1772566894578095900,7.764095947265625,-0.012908400036394596,0.006488502025604248,-0.004442185163497925
1772566894588124200,7.774124267578125,-0.013179243542253971,0.01341591589152813,-0.00829577911645174
1772566894598153700,7.78415380859375,-0.016335446387529373,0.011710341088473797,-0.009588737972080708
1772566894608182800,7.794182861328125,-0.017732806503772736,0.01239557284861803,-0.01270010881125927
1772566894618212000,7.804212158203125,-0.015374956652522087,0.008069495670497417,-0.013149267062544823
1772566894628241000,7.814240966796875,-0.010155693627893925,0.00591712910681963,-0.0168105810880661
1772566894638270000,7.82427001953125,-0.006648474372923374,0.007406958378851414,-0.01445947214961052
1772566894648299000,7.834299072265625,-0.00047899503260850906,0.011868019588291645,-0.008144850842654705
1772566894658328000,7.844328125,0.010123325511813164,0.013945532031357288,-0.002874908968806267
1772566894668356900,7.85435693359375,0.014314340427517891,0.018053725361824036,-0.0011329352855682373
1772566894678386000,7.864385986328125,0.020504169166088104,0.020996037870645523,-0.00025713536888360977
1772566894688415000,7.8744150390625,0.02991977520287037,0.017019405961036682,-0.010914573445916176
1772566894698443800,7.88444384765625,0.038258664309978485,0.013334655202925205,-0.010439732111990452
1772566894708473000,7.89447314453125,0.047593846917152405,0.007479696534574032,-0.003950407262891531
1772566894718502100,7.904502197265625,0.059403106570243835,-0.00034867972135543823,-0.0017906664870679379
1772566894728531000,7.914531005859375,0.06433475017547607,-0.0019388534128665924,0.0024677282199263573
1772566894738560000,7.92456005859375,0.0652240589261055,-0.0034698117524385452,0.0038735205307602882
1772566894748589000,7.934589111328125,0.05800982564687729,0.0034307055175304413,-0.006170590873807669
1772566894758617900,7.944617919921875,0.04899473115801811,0.010043657384812832,-0.015488428995013237
1772566894768647000,7.95464697265625,0.03616921231150627,0.01993890106678009,-0.026739219203591347
1772566894778676000,7.964676025390625,0.02303398959338665,0.03379182517528534,-0.028942562639713287
1772566894788705800,7.974705810546875,0.007336518727242947,0.0405847504734993,-0.029566805809736252
1772566894798734800,7.98473486328125,-0.008350108750164509,0.04475221782922745,-0.030382096767425537
1772566894808764000,7.994763916015625,-0.017513778060674667,0.047811925411224365,-0.03305590897798538
1772566894818791000,8.004791015625,-0.030873794108629227,0.04752323776483536,-0.03642188012599945
1772566894828820000,8.014820068359375,-0.04153990000486374,0.042311184108257294,-0.02652108669281006
1772566894838848800,8.024848876953126,-0.0491289421916008,0.04207144305109978,-0.013101587072014809
1772566894848878800,8.03487890625,-0.049104440957307816,0.03576214984059334,0.003915479406714439
1772566894858908000,8.044907958984375,-0.04285045713186264,0.029758941382169724,0.005974913015961647
1772566894868937000,8.05493701171875,-0.03311127796769142,0.0223444364964962,-0.001380471047013998
1772566894878965800,8.0649658203125,-0.02238619513809681,0.01908712461590767,-0.008072994649410248
1772566894888994800,8.074994873046874,-0.013562344014644623,0.01346758846193552,-0.009545989334583282
1772566894899024100,8.085024169921875,-0.0020462563261389732,0.01420093048363924,-0.008538919501006603
1772566894909053000,8.095052978515625,0.0051786331459879875,0.013488800264894962,0.00015576835721731186
1772566894919082000,8.10508203125,0.01453677099198103,0.012746734544634819,0.006064733490347862
1772566894929111000,8.115111083984376,0.01979784294962883,0.018427258357405663,0.01372185442596674
1772566894939139800,8.125139892578124,0.023926375433802605,0.01758657395839691,0.010778072290122509
1772566894949169000,8.1351689453125,0.028205810114741325,0.02172406017780304,0.007550586946308613
1772566894959198000,8.145197998046875,0.03800198808312416,0.02438053861260414,0.0017064576968550682
1772566894969226800,8.155226806640625,0.05100433900952339,0.02690601348876953,0.0012995265424251556
1772566894979255800,8.165255859375,0.06845559924840927,0.03345400467514992,-0.005204721353948116
1772566894989285000,8.17528515625,0.08421032875776291,0.033275306224823,-0.011820279061794281
1772566894999314000,8.18531396484375,0.09249171614646912,0.0324358269572258,-0.024483107030391693
1772566895009343000,8.195343017578125,0.09670403599739075,0.027756117284297943,-0.03012820892035961
1772566895019372000,8.2053720703125,0.09270088374614716,0.013521043583750725,-0.02232808619737625
1772566895029400800,8.21540087890625,0.09092455357313156,0.009238947182893753,-0.012346825562417507
1772566895039430000,8.225429931640624,0.08308607339859009,0.005065508186817169,0.006417008116841316
1772566895049460000,8.2354599609375,0.068354532122612,0.006297219544649124,0.014941520057618618
1772566895059489000,8.245489013671875,0.053709715604782104,-0.002750145271420479,0.005912162363529205
1772566895069517800,8.255517822265626,0.041604578495025635,-0.00504658930003643,-0.011464697308838367
1772566895079547000,8.265546875,0.031045852228999138,-0.002709212712943554,-0.028684156015515327
1772566895089576000,8.275575927734375,0.02316316030919552,-0.005988363176584244,-0.026844710111618042
1772566895099604700,8.285604736328125,0.015432251617312431,-0.005416012369096279,-0.01590966433286667
1772566895109634000,8.295634033203125,0.012312360107898712,-0.009415015578269958,0.0024600233882665634
1772566895119663000,8.3056630859375,0.00452373456209898,-0.009170116856694221,0.012360267341136932
1772566895129692000,8.31569189453125,-0.001993553712964058,-0.009816199541091919,0.012860141694545746
1772566895139721000,8.325720947265625,-0.0026847911067306995,-0.009297385811805725,0.003840778023004532
1772566895149750000,8.33575,-0.0036576436832547188,-0.009709110483527184,0.000006625428795814514
1772566895159778800,8.34577880859375,0.0007194364443421364,-0.010001878254115582,-0.011626589111983776
1772566895169808000,8.355807861328126,0.010189104825258255,-0.008062297478318214,-0.011420194059610367
1772566895179837000,8.3658369140625,0.01549011841416359,-0.009384538978338242,-0.014848826453089714
1772566895189865700,8.37586572265625,0.032846204936504364,-0.006983432453125715,-0.011218938045203686
1772566895199894800,8.385894775390625,0.03678698092699051,-0.0021574394777417183,-0.007116690743714571
1772566895209924000,8.395924072265625,0.029783133417367935,-0.0030924752354621887,-0.010971350595355034
1772566895219953000,8.405952880859376,0.023174172267317772,-0.0019964706152677536,-0.021115459501743317
1772566895229982000,8.41598193359375,0.018122157081961632,0.007968811318278313,-0.012842350639402866
1772566895240012000,8.426011962890625,0.009796582162380219,0.01739267259836197,-0.00603637658059597
1772566895250041000,8.436041015625,0.0023538460955023766,0.007748302072286606,-0.016664786264300346
1772566895260070000,8.44606982421875,0.0014061443507671356,0.006902516819536686,-0.02018594928085804
1772566895270099000,8.456098876953124,0.001152079552412033,0.006050837226212025,-0.013797026127576828
1772566895280128000,8.4661279296875,0.001964198425412178,0.0070151882246136665,0.0013134442269802094
1772566895290156800,8.47615673828125,-0.003719253931194544,-0.0021799076348543167,-0.0022043250501155853
1772566895300185900,8.486185791015625,-0.005602641496807337,-0.00588276656344533,-0.013313701376318932
1772566895310215000,8.49621484375,-0.008661282248795033,-0.00809798389673233,-0.022902945056557655
1772566895320243700,8.50624365234375,-0.009135058149695396,-0.009484426118433475,-0.02196364849805832
1772566895330273000,8.51627294921875,-0.0027581192553043365,-0.008655117824673653,-0.013582147657871246
1772566895340302000,8.526302001953125,0.0006986362859606743,-0.020268574357032776,-0.004793686792254448
1772566895350331000,8.536330810546875,0.006820976734161377,-0.026877209544181824,0.00026978179812431335
1772566895360360000,8.54635986328125,0.010875795967876911,-0.039262812584638596,0.0017244163900613785
1772566895370389000,8.556388916015624,0.012203381396830082,-0.03735652193427086,0.0034152576699852943
1772566895380417800,8.566417724609375,0.01726583018898964,-0.03830576688051224,-0.0010628844611346722
1772566895390446800,8.57644677734375,0.025103513151407242,-0.035643670707941055,-0.006383347790688276
1772566895400476000,8.586475830078125,0.026514794677495956,-0.032350022345781326,-0.005664728581905365
1772566895410505000,8.5965048828125,0.026396818459033966,-0.02382657490670681,-0.004578425083309412
1772566895420534000,8.606533935546874,0.02806059643626213,-0.01878141611814499,-0.008748063817620277
1772566895430564900,8.61656494140625,0.028078705072402954,-0.005092501640319824,-0.013374507427215576
1772566895440594000,8.626593994140626,0.030729642137885094,0.004351015202701092,-0.0152139812707901
1772566895450623000,8.636623046875,0.025516239926218987,0.003788820467889309,-0.01756288856267929
1772566895460651800,8.64665185546875,0.02158140018582344,0.006756948307156563,-0.005756987724453211
1772566895470680800,8.656680908203125,0.017629003152251244,0.007471473887562752,0.004064483568072319
1772566895480710100,8.666710205078125,0.010948728770017624,0.011401500552892685,0.002067113295197487
1772566895490739000,8.676739013671876,0.005824808031320572,0.007385721430182457,-0.0044701481238007545
1772566895500772000,8.686772216796875,0.006882678717374802,0.004914182238280773,-0.009103392250835896
1772566895510801000,8.69680078125,0.010759174823760986,0.0015133246779441833,-0.0100916912779212
1772566895520830000,8.706829833984376,0.012357763014733791,-0.0034729614853858948,-0.008188052102923393
1772566895530859000,8.71685888671875,0.01677754521369934,-0.009272794239223003,0.006212725304067135
1772566895540887800,8.7268876953125,0.013292292132973671,-0.013283568434417248,0.015507928095757961
1772566895550916900,8.736916748046875,0.00817050039768219,-0.012820977717638016,0.020562872290611267
1772566895560946000,8.74694580078125,0.004095791839063168,-0.007047899533063173,0.01858990266919136
1772566895570974700,8.756974609375,0.0032409178093075752,0.003283035010099411,0.011078989133238792
1772566895581004800,8.7670048828125,0.0040105246007442474,0.012395932339131832,-0.004421268589794636
1772566895591033900,8.777033935546875,0.013732926920056343,0.022961489856243134,-0.015536770224571228
1772566895601063000,8.78706298828125,0.013397101312875748,0.02793387696146965,-0.015254741534590721
1772566895611092000,8.797092041015626,0.01527809351682663,0.019971292465925217,-0.017083268612623215
1772566895621121000,8.80712109375,0.01682671159505844,0.016288693994283676,-0.0022474094294011593
1772566895631150000,8.817150146484375,0.019806791096925735,0.009494171477854252,0.008180464617908001
1772566895641179000,8.827178955078125,0.016634734347462654,0.0033903978765010834,0.01410551369190216
1772566895651208000,8.8372080078125,0.02125292271375656,0.004715321585536003,0.012622399255633354
1772566895661237000,8.847237060546876,0.03156496584415436,0.0037597408518195152,0.014324851334095001
1772566895671265800,8.857265869140624,0.04116087034344673,0.008029852993786335,0.009223831817507744
1772566895681294800,8.867294921875,0.04468882083892822,0.013860451988875866,0.0018634097650647163
1772566895691324000,8.877323974609375,0.04046664759516716,0.02203715220093727,-0.00939883291721344
1772566895701353000,8.88735302734375,0.03812764957547188,0.029880858957767487,-0.021007340401411057
1772566895711382000,8.897382080078126,0.037026431411504745,0.03205772489309311,-0.019246190786361694
1772566895721411000,8.9074111328125,0.035052359104156494,0.028007859364151955,-0.01225285604596138
1772566895731439900,8.91743994140625,0.030597422271966934,0.026342852041125298,-0.005055130459368229
1772566895741469000,8.927468994140625,0.027956467121839523,0.01971963793039322,0.006109445355832577
1772566895751498000,8.937498046875,0.02612074837088585,0.01864105649292469,0.009545722976326942
1772566895761526800,8.94752685546875,0.021625662222504616,0.025702305138111115,0.009148136712610722
1772566895771556900,8.957556884765625,0.010766357183456421,0.028699159622192383,-0.0010549654252827168
1772566895781586000,8.9675859375,0.009965197183191776,0.03571648150682449,-0.004970794543623924
1772566895791615000,8.977614990234375,0.010541771538555622,0.03430793434381485,-0.012564266100525856
1772566895801643800,8.987643798828126,0.018372658640146255,0.032563574612140656,-0.021871602162718773
1772566895811672800,8.9976728515625,0.023846253752708435,0.018311401829123497,-0.023681487888097763
1772566895821702000,9.007701904296875,0.03521883487701416,0.0064764125272631645,-0.019023705273866653
1772566895831731000,9.01773095703125,0.04332096874713898,-0.009113732725381851,-0.004883119836449623
1772566895841760000,9.027760009765625,0.04021788015961647,-0.029666464775800705,0.01450067013502121
1772566895851789000,9.0377890625,0.039595235139131546,-0.04486086219549179,0.02472694031894207
1772566895861817900,9.04781787109375,0.03827223181724548,-0.04773212596774101,0.030873196199536324
1772566895871847000,9.057846923828125,0.03422049432992935,-0.04092801362276077,0.028528282418847084
1772566895881876000,9.0678759765625,0.027694329619407654,-0.023105962201952934,0.013347204774618149
1772566895891904800,9.07790478515625,0.02669617533683777,-0.006281442008912563,-0.005197451449930668
1772566895901933800,9.087933837890626,0.02206491120159626,0.011560727842152119,-0.01524845790117979
1772566895911963000,9.097962890625,0.023799961432814598,0.025277603417634964,-0.023740479722619057
1772566895921992000,9.107991943359375,0.028446028009057045,0.030959635972976685,-0.0196906216442585
1772566895932021000,9.11802099609375,0.025375934317708015,0.03099985048174858,-0.01843653991818428
1772566895942050000,9.128050048828126,0.01793525740504265,0.029784787446260452,-0.01911708153784275
1772566895952078800,9.138078857421876,0.0105441864579916,0.024627842009067535,-0.01574738323688507
1772566895962109000,9.14810888671875,0.0030248798429965973,0.01960992068052292,-0.015368271619081497
1772566895972138000,9.158137939453125,-0.0055206711404025555,0.018862906843423843,-0.009962586686015129
1772566895982167000,9.1681669921875,-0.018407652154564857,0.003942166455090046,-0.015797631815075874
1772566895992195800,9.17819580078125,-0.021357368677854538,-0.01369275338947773,-0.014801609329879284
1772566896002225000,9.188224853515624,-0.01733618974685669,-0.032909732311964035,-0.003992003388702869
1772566896012254000,9.19825390625,-0.017256028950214386,-0.042907506227493286,0.013825342990458012
1772566896022282800,9.20828271484375,-0.022643007338047028,-0.06063336133956909,0.023638051003217697
1772566896032311800,9.218311767578125,-0.026484083384275436,-0.06317242234945297,0.02912336215376854
1772566896042341000,9.228341064453126,-0.031008627265691757,-0.05750235542654991,0.022717852145433426
1772566896052370000,9.238369873046874,-0.03134898096323013,-0.05465224012732506,0.00793624296784401
1772566896062399000,9.24839892578125,-0.03082774579524994,-0.043065205216407776,-0.008372478187084198
1772566896072428000,9.258427978515625,-0.024972785264253616,-0.027346160262823105,-0.018422182649374008
1772566896082456800,9.268456787109375,-0.018654949963092804,-0.020333558320999146,-0.022107306867837906
1772566896092486000,9.27848583984375,-0.006784708704799414,-0.010993054136633873,-0.015179626643657684
1772566896102515000,9.288514892578124,0.0012595979496836662,-0.010462215170264244,-0.00664291437715292
1772566896112543700,9.298543701171875,0.0046426113694906235,-0.013259866274893284,-0.009074913337826729
1772566896122572800,9.30857275390625,0.003730159252882004,-0.016325589269399643,-0.010100439190864563
1772566896132601900,9.318601806640626,-0.0032025822438299656,-0.016530651599168777,-0.005998105742037296
1772566896142632000,9.3286318359375,-0.002033703029155731,-0.017159195616841316,-0.0007749563083052635
1772566896152660700,9.33866064453125,-0.001575106754899025,-0.01528459694236517,0.0010359929874539375
1772566896162690000,9.34868994140625,-0.0006844564341008663,-0.0059908716939389706,0.0019215922802686691
1772566896172719000,9.358718994140625,0.001071898266673088,0.00018925964832305908,-0.0020760782063007355
1772566896182748000,9.368747802734376,0.005467797629535198,0.002849317155778408,-0.010193749330937862
1772566896192777000,9.37877685546875,0.003997732885181904,0.0032871412113308907,-0.014740830287337303
1772566896202806000,9.388805908203125,0.006375301629304886,0.002213294617831707,-0.018546126782894135
1772566896212834800,9.398834716796875,0.004409089684486389,-0.001763337291777134,-0.012902889400720596
1772566896222864000,9.40886376953125,0.003364534117281437,-0.007494601421058178,-0.00412060646340251
1772566896232893000,9.418892822265626,0.00019084475934505463,-0.01578262448310852,0.008580808527767658
1772566896242921700,9.428921630859374,-0.0008682422339916229,-0.02318444661796093,0.014738619327545166
1772566896252950800,9.43895068359375,-0.0026850509457290173,-0.03029801696538925,0.01157158799469471
1772566896262980000,9.44897998046875,0.002807915210723877,-0.038169123232364655,0.003165910020470619
1772566896273009000,9.4590087890625,0.006061499007046223,-0.03597228229045868,0.004700424149632454
1772566896283038000,9.469037841796874,0.00640439335256815,-0.028831571340560913,0.0024106763303279877
1772566896293067000,9.47906689453125,0.009412966668605804,-0.026325803250074387,0.002261805348098278
1772566896303096000,9.489095947265625,0.007701617665588856,-0.021489489823579788,-0.0016885586082935333
1772566896313124900,9.499124755859375,0.008968218229711056,-0.01102832704782486,-0.004485676996409893
1772566896323154000,9.50915380859375,0.007958972826600075,-0.0022640638053417206,-0.01594996452331543
1772566896333184000,9.51918408203125,0.00828973762691021,0.0007405150681734085,-0.014883900992572308
1772566896343212800,9.529212890625,0.005770745687186718,-0.000654362142086029,-0.014273510314524174
1772566896353241900,9.539241943359375,0.009101826697587967,0.0033664777874946594,-0.005591871682554483
1772566896363271000,9.54927099609375,0.012527111917734146,0.0017785793170332909,0.002210555598139763
1772566896373299700,9.5592998046875,0.013883726671338081,0.00466145109385252,0.00300497654825449
1772566896383329000,9.5693291015625,0.013546084053814411,0.009107240475714207,-0.0003800373524427414
1772566896393358000,9.579358154296875,0.012468568049371243,0.008600707165896893,-0.013510220684111118
1772566896403387000,9.589386962890625,0.008526804856956005,0.010639660991728306,-0.020430603995919228
1772566896413416000,9.599416015625,0.00903733354061842,0.004952480085194111,-0.021205583587288857
1772566896423445000,9.609445068359374,0.008071616291999817,-0.0021284902468323708,-0.0180203840136528
1772566896433473800,9.619473876953125,0.007865753024816513,-0.004110947251319885,-0.007787987589836121
1772566896443502800,9.6295029296875,0.006236284971237183,-0.007276613265275955,0.0015729889273643494
1772566896453532000,9.639531982421875,0.008166544139385223,-0.010376532562077045,0.00608917698264122
1772566896463560700,9.649560791015626,0.00842341035604477,-0.010861242190003395,0.010423960164189339
1772566896473590000,9.659590087890624,0.0033343760296702385,-0.010146982036530972,0.005512825213372707
1772566896483619000,9.669619140625,0.004041207022964954,-0.008557664230465889,-0.00322343735024333
1772566896493648100,9.679648193359375,0.005718732252717018,-0.0093765864148736,-0.010406781919300556
1772566896503675000,9.6896748046875,0.010058258660137653,-0.008863460272550583,-0.006639028899371624
1772566896513704000,9.699703857421875,0.009504321031272411,-0.006400036625564098,0.0006934525445103645
1772566896523733000,9.70973291015625,0.008873246610164642,-0.007312370464205742,0.005009458400309086
1772566896533762000,9.719761962890624,0.005344024859368801,-0.0029051052406430244,0.00229809433221817
1772566896543790800,9.729790771484375,0.006269894540309906,0.004592993296682835,-0.0009954171255230904
1772566896553820000,9.73981982421875,-0.0005025239661335945,0.0137116564437747,0.0013689370825886726
1772566896563849000,9.749848876953125,-0.0066343042999506,0.023500598967075348,-0.0033434960059821606
1772566896573877800,9.759877685546876,-0.008608239702880383,0.025058548897504807,-0.007225319743156433
1772566896583906800,9.76990673828125,-0.013344947248697281,0.025383472442626953,-0.0033931098878383636
1772566896593936000,9.779935791015625,-0.019561298191547394,0.023418858647346497,-0.0039638252928853035
1772566896603965000,9.78996484375,-0.020289527252316475,0.020614270120859146,-0.006325041875243187
1772566896613994000,9.799993896484375,-0.02060990408062935,0.015906602144241333,-0.003639244008809328
1772566896624023000,9.81002294921875,-0.015101688914000988,0.01500751730054617,-0.005465107504278421
1772566896634051800,9.8200517578125,-0.0159577839076519,0.0072644054889678955,-0.017971066758036613
1772566896644081000,9.830080810546875,-0.011684357188642025,0.00209151953458786,-0.01598784327507019
1772566896654110000,9.84010986328125,-0.018987810239195824,0.01754584163427353,0.01634346693754196
1772566896664138800,9.850138671875,-0.03903781995177269,0.0813051089644432,0.08071860671043396
1772566896674168800,9.8601689453125,-0.07583098858594894,0.12326348572969437,0.1202995702624321
1772566896684198000,9.870197998046875,-0.09638851135969162,0.16214387118816376,0.12373757362365723
1772566896694227000,9.88022705078125,-0.0955224484205246,0.03667568415403366,-0.005778869614005089
1772566896704255700,9.890255859375,-0.10442042350769043,-0.02678859792649746,-0.037604186683893204
1772566896714284800,9.900284912109376,-0.1113201379776001,-0.07458221912384033,0.016751728951931
1772566896724313900,9.91031396484375,-0.09539176523685455,-0.13509297370910645,0.06999816745519638
1772566896734343000,9.920343017578125,-0.06336246430873871,-0.16580507159233093,0.10610823333263397
1772566896744372000,9.9303720703125,-0.05919934809207916,-0.14442989230155945,0.1357181817293167
1772566896754401000,9.940401123046875,-0.07456658035516739,-0.08783584088087082,0.1147436648607254
1772566896764429800,9.950429931640626,-0.08172080665826797,-0.04295217618346214,0.01341729611158371
1772566896774459000,9.960458984375,-0.07823233306407928,0.009392253123223782,-0.12515762448310852
1772566896784488000,9.970488037109375,-0.07563628256320953,0.07479602843523026,-0.25036054849624634
1772566896794516700,9.980516845703125,-0.07964801788330078,0.13364486396312714,-0.30605873465538025
