time,seconds_elapsed,z,y,x
1772623297607322400,0.076322265625,-1.0283651426166296,-0.8806649366602302,0.015306472866423428
1772623297617352400,0.0863525390625,-1.5300181949585676,-0.4040320515453815,-0.242248886635527
1772623297627382500,0.096382568359375,-1.8194418705493212,0.06431465126127005,-0.46500078991223126
1772623297637412600,0.10641259765625,-1.9146581482917069,0.4726598898306489,-0.5044457883330061
1772623297647442700,0.116442626953125,-1.8567355361551046,0.75798489793092,-0.18076613433193414
1772623297657471500,0.126471435546875,-1.4226871165305375,0.9962982717484236,0.2228320193082094
1772623297667501600,0.13650146484375,-0.8755787194371223,1.1762044647827743,0.3989139413466677
1772623297677531400,0.146531494140625,-0.3195645468324423,1.253658875863254,0.33811372794713823
1772623297687561500,0.1565615234375,0.13947510618567466,1.31359838078022,0.26633232100177556
1772623297697590500,0.166590576171875,0.3807160578876734,1.1999456981152294,0.06113711720369756
1772623297707620600,0.17662060546875,0.40003216825425625,1.0148609333992005,0.004058846936747432
1772623297717650400,0.186650390625,0.954924058830738,0.9125514825254678,0.42646402891017493
1772623297727680500,0.196680419921875,0.8619389011412858,0.7167042085155845,0.4153076979931444
1772623297737709600,0.20670947265625,1.2422013700425625,0.5701955504313111,0.591757101637125
1772623297747739600,0.21673974609375,1.0705962646245957,0.6103893213927746,0.5053597248401492
1772623297757769500,0.22676953125,0.5896195050865412,0.47144642238765955,0.356230655124411
1772623297767799600,0.236799560546875,0.09371873266100883,0.07459376095235347,0.32970373659618196
1772623297777828400,0.246828369140625,-0.4646113156706094,-0.2102542772859335,0.3740766929384321
1772623297787858400,0.2568583984375,-0.806115307110548,-0.1546311742633581,0.37488844771273433
1772623297797888500,0.266888427734375,-1.0141425559967756,0.04166764290630817,0.293789250389114
1772623297807918600,0.276918701171875,-1.1247913806706666,0.21823738499432802,0.256911983564496
1772623297817947400,0.286947509765625,-1.1035627146810292,0.30186960792690515,0.3410081342143938
1772623297827977500,0.2969775390625,-0.9851333191335201,0.3135311118870973,0.32827384992353614
1772623297838007600,0.307007568359375,-0.6504921992003917,0.39383974335491656,0.2391194843023084
1772623297848037400,0.317037353515625,-0.0870411545932293,0.44648470734953877,0.04208082681708038
1772623297858066400,0.32706640625,0.43696986002922056,0.4345537387982011,-0.1442233236260712
1772623297868096500,0.337096435546875,0.8061603152960538,0.39079526109248397,-0.05585965172480791
1772623297878126600,0.347126708984375,1.1685071882784366,0.33239567909389733,0.1945719933770597
1772623297888156400,0.357156494140625,1.5651397772222757,0.3256999808475375,0.36207002880237993
1772623297898185500,0.367185546875,1.8826222570836544,0.4081114298135042,0.3568408959772438
1772623297908215600,0.377215576171875,2.074150791111588,0.3586982873469591,0.28219072866253553
1772623297918245600,0.38724560546875,2.380640752315521,0.2606754277512431,0.3012140666276216
1772623297928275700,0.397275634765625,2.5008453408420084,0.08802519719451665,0.4254890463981777
1772623297938304500,0.407304443359375,2.4474188710808753,-0.1287590663820505,0.5070654327794909
1772623297948334300,0.417334228515625,1.8050468499720096,-0.1863642831325531,0.6580506517559289
1772623297958364400,0.427364501953125,3.0577006404459475,-0.3228954448208213,0.48112267081476745
1772623297968394500,0.43739453125,2.538503163585067,-0.5767872037813067,0.3984051515743136
1772623297978423600,0.447423583984375,2.1684341719180344,-0.6812655231267214,0.5400469342745841
1772623297988453400,0.457453369140625,2.613073543661833,-0.743273943272233,0.5324149780914187
1772623297998483500,0.4674833984375,2.304765134859085,-0.6449447942063212,0.3607438216999173
1772623298008513500,0.477513427734375,2.036397691300511,-0.040190556091070175,-0.03408500575758516
1772623298018542600,0.48754248046875,2.1036586251467466,-0.20123232804909347,0.8112029125731438
1772623298028572700,0.49757275390625,1.983821700888872,-0.7798843027889728,0.6670642715558409
1772623298038602500,0.5076025390625,2.013981276831031,-1.0038429880395532,0.03606244331039488
1772623298048632600,0.517632568359375,1.8043565296202897,-0.9344242916375398,0.29677820307202635
1772623298058661400,0.527661376953125,1.1909259408354758,-1.0360980749562383,0.7866204791761934
1772623298068691500,0.53769140625,0.7500193258792162,-1.3392835877873002,0.9878879516039043
1772623298078721500,0.547721435546875,0.5886766712784767,-1.4842095067247747,1.0412229436893015
1772623298088751600,0.557751708984375,0.44941316201686854,-1.6553760745950041,1.0844665306754409
1772623298098780400,0.567780517578125,0.08428630292713642,-1.8009455521330235,1.0144715687554329
1772623298108810500,0.577810546875,-0.421370139837265,-1.9054066280826925,0.8285185698375105
1772623298118840600,0.587840576171875,-0.791872262224555,-1.832646220037341,0.6056448302794247
1772623298128870400,0.597870361328125,-1.003382677051425,-1.4730705653339624,0.4968761933289468
1772623298138899500,0.6078994140625,-1.1198013172984123,-1.0216050008319317,0.4338852649521082
1772623298148929500,0.617929443359375,-1.2394681456863879,-0.6961462813943624,0.28192959350831803
1772623298158959400,0.62795947265625,-1.7359733137458562,-0.6417572502113879,0.3482148872554302
1772623298168989400,0.637989501953125,-2.2169068186640737,-0.8497510352194309,0.3995736108317971
1772623298179018500,0.6480185546875,-2.7360464278578758,-1.0550656641460954,0.4363890644665807
1772623298189048600,0.658048583984375,-3.1626725885272022,-1.1994085224986075,0.47444063576757906
1772623298199078700,0.66807861328125,-3.3407898523181676,-1.1126638666339217,0.4487918152481317
1772623298209108500,0.6781083984375,-3.2019162191569803,-0.8724100262731314,0.290150601625815
1772623298219137500,0.688137451171875,-2.609168937438726,-0.7383424782194197,0.01282419106401503
1772623298229167400,0.69816748046875,-1.8065818044543265,-0.7976609286285936,-0.17729433003552256
1772623298239197400,0.708197509765625,-1.1103110198974608,-1.0327866123206912,-0.12176065886206924
1772623298249227500,0.7182275390625,-1.036163833668828,-1.3592349273175,0.020901845188066363
1772623298259256600,0.728256591796875,-1.3205302258700131,-1.5342431191772221,0.183310959976539
1772623298269287400,0.738287353515625,-1.253093935456872,-1.4488354110047221,0.46790042034387586
1772623298279317500,0.7483173828125,-0.692101974439621,-1.32365098823905,0.5775349534086883
1772623298289347300,0.758347412109375,-0.2575941206097603,-1.2282695830628274,0.568866055393219
1772623298299376400,0.76837646484375,-0.18363865756094455,-1.2485405099362135,0.6345597399227321
1772623298309406500,0.778406494140625,-0.4176443973124027,-1.4039771553635596,0.7326593180164694
1772623298319436300,0.788436279296875,-0.8782558296918869,-1.6631445166394114,0.8081504661999642
1772623298329466400,0.79846630859375,-1.3802806379556656,-1.7897665709927677,0.9016454731076955
1772623298339496400,0.808496337890625,-1.7520383133620023,-1.6130821164838969,0.9695460930969566
1772623298349525500,0.818525390625,-1.8677754010856151,-1.0208499446809292,0.9667278938710689
1772623298359555600,0.8285556640625,-1.6311124248236417,-0.2802912517167628,0.8473266576167195
1772623298369585400,0.83858544921875,-1.1667431012153624,0.36142727391943336,0.6731813661966473
1772623298379614500,0.848614501953125,-0.6952244903743267,0.8091418153248727,0.46125762132853265
1772623298389644300,0.858644287109375,-0.20419103172421454,1.2054836046285926,0.28316088886894286
1772623298399674400,0.86867431640625,0.3339110520929098,1.6332599582463503,0.08987089812643825
1772623298409704400,0.878704345703125,0.66836220241189,2.0016987183630466,-0.15256328194811938
1772623298419733500,0.8887333984375,0.6629682344138622,2.2732807400539516,-0.24780257523991167
1772623298429763300,0.898763427734375,0.6348235054254532,2.3005618379503487,-0.07001746601276099
1772623298439793400,0.90879345703125,0.7332073072880506,1.997585437825322,0.00412796665020287
1772623298449823500,0.918823486328125,0.7236638183951377,1.6588506188377736,-0.015036825612187384
1772623298459852500,0.9288525390625,0.7436088743150234,1.4444289927393197,0.04837108606770634
1772623298469882400,0.93888232421875,0.8531891929745674,1.417622526617348,0.1601567327518016
1772623298479912400,0.948912353515625,1.0058382535099983,1.563969856660068,0.16482034064866602
1772623298489942300,0.9589423828125,1.025069023680687,1.576306775663793,-0.09663812723904848
1772623298499972400,0.968972412109375,1.0110247162371873,1.4903887798815965,-0.3904668328557163
1772623298510001400,0.97900146484375,0.9699234750419855,1.354932261687517,-0.6235309078428893
1772623298520031500,0.989031494140625,0.9877449629366397,1.2322379021719096,-0.7961191060140729
1772623298530061600,0.9990615234375,0.9841413854867219,1.1125313262954353,-0.8136287514805793
1772623298540091400,1.00909130859375,1.0795295126646756,1.039502038180828,-0.6539446777418255
1772623298550120400,1.019120361328125,1.2446949404239653,1.029466381856799,-0.5027642649868503
1772623298560150300,1.029150390625,1.399013395476341,1.0237792761310935,-0.3174232970200479
1772623298570180400,1.039180419921875,1.4599351894289254,1.0031807247385383,-0.14454345895852894
1772623298580210400,1.04921044921875,1.4508616561353205,0.976175813435018,0.1378388832859695
1772623298590239500,1.059239501953125,1.425968622419238,0.9338687035813927,0.39277156613413244
1772623298600269300,1.069269287109375,1.497353358197212,0.8717281814888119,0.42328178214486684
1772623298610299400,1.07929931640625,1.629963254788518,0.9188467832773923,0.2440276232784614
1772623298620329500,1.08932958984375,1.8054367260724304,1.1239067067906259,0.029449308780953285
1772623298630358500,1.099358642578125,1.8182254804968834,1.4571391289696096,-0.14022632641177624
1772623298640388600,1.109388671875,1.7370897505551575,1.2492860676065087,0.16641367425471543
1772623298650418400,1.11941845703125,1.9090473226726055,0.8198404656022786,-0.06629793403297662
1772623298660448300,1.1294482421875,2.0685534094959497,0.6951496715724468,-0.24553937954828142
1772623298670477300,1.139477294921875,1.901912648487091,0.7701787552021443,-0.12828341169431806
1772623298680507400,1.14950732421875,1.6855162151843308,0.6745850224494934,0.0658238137152046
1772623298690537500,1.159537353515625,1.476532688486576,0.38368279873877764,0.31475561218075454
1772623298700567600,1.169567626953125,1.23383218562603,0.08890899429172278,0.5334709534177556
1772623298710596400,1.179596435546875,0.9858061038285493,-0.09736731829643248,0.6181421274766326
1772623298720626400,1.18962646484375,0.7962479930907488,-0.2458807403318584,0.5182509167257696
1772623298730656500,1.199656494140625,0.6493956361353397,-0.3638743748106062,0.2626529018366709
1772623298740686300,1.209686279296875,0.49322483121454713,-0.37766850688531994,-0.05531933430302888
1772623298750715400,1.21971533203125,0.2769488094210625,-0.3045142772167921,-0.19115703383442012
1772623298760745500,1.229745361328125,0.0801350284665823,-0.2519378484137356,-0.17538506234809756
1772623298770775300,1.239775390625,-0.05176467402875423,-0.3076752254657447,-0.0115690033711493
1772623298780805400,1.249805419921875,-0.2143055985033512,-0.4027161466412246,0.24028693891279398
1772623298790834400,1.25983447265625,-0.5099520941317082,-0.4336369162142277,0.45401769667025654
1772623298800864500,1.269864501953125,-0.7809925562918185,-0.4795891776371747,0.4132814163299277
1772623298810894600,1.27989453125,-0.6889198372721672,-0.6630328240826726,0.09150832660254091
1772623298820924400,1.28992431640625,-0.2078518923193216,-1.0014712174069136,-0.27803441270068285
1772623298830953500,1.299953369140625,-0.26602584886848923,-1.071643070263788,-0.6323563115943223
1772623298840983300,1.3099833984375,-0.751276632463932,-0.9596893735364079,-0.9191971310850232
1772623298851013400,1.320013427734375,-0.8620335936874151,-0.9673155575659126,-0.9831878841541707
1772623298861043500,1.33004345703125,-0.7317068395972252,-1.0383714267157018,-0.7001766328889876
1772623298871072500,1.340072509765625,-0.8499702309280633,-1.0931249803621321,-0.316075170346722
1772623298881102300,1.350102294921875,-1.1408137101888656,-1.190990822765231,-0.25409013107679784
1772623298891132400,1.36013232421875,-1.2841513370215891,-1.3533232190556823,-0.4664985176566988
1772623298901162500,1.37016259765625,-1.1048527544915676,-1.429303027538955,-0.6084623719181865
1772623298911191600,1.380191650390625,-1.0470879632651806,-1.3698086360409856,-0.6356395710486918
1772623298921221400,1.390221435546875,-1.0804998190015553,-1.2782590641126035,-0.615452888392657
1772623298931251500,1.40025146484375,-0.9231102859407663,-1.2326882762879132,-0.5655913445714861
1772623298941281300,1.41028125,-0.6700561468482017,-1.3029581826917827,-0.4887225513592362
1772623298951311400,1.420311279296875,-0.5770394249767065,-1.4782394924044608,-0.3808073894329369
1772623298961340400,1.43034033203125,-0.4685726205170154,-1.638910092962533,-0.2812614849884063
1772623298971370500,1.44037060546875,-0.29380992785096166,-1.6836657650120554,-0.22735409984253346
1772623298981400600,1.450400634765625,-0.10829144789278507,-1.706668893328309,-0.13520787719525396
1772623298991430400,1.460430419921875,-0.03274783886969089,-1.7684367827162146,-0.033456133269518615
1772623299001459500,1.47045947265625,-0.2655494635283947,-1.702935990410298,0.1418812905445695
1772623299011489300,1.4804892578125,-0.5156114350676536,-1.5673600836202501,0.3762346746899187
1772623299021519400,1.490519287109375,-0.5654822581738234,-1.6018818002946673,0.6344729384221136
1772623299031549400,1.500549560546875,-0.6163070210039615,-1.8504494416229427,0.8603013630673289
1772623299041578500,1.51057861328125,-0.8419336394667625,-2.033563636918366,0.9893117007967084
1772623299051608300,1.5206083984375,-1.3584265335440635,-2.186430870249122,0.9259997237719595
1772623299061638400,1.530638427734375,-2.060209944042563,-2.3369731677636505,0.6183587659019977
1772623299071668500,1.54066845703125,-2.6941975831657645,-1.9499615168631075,0.6240230752740055
1772623299081697500,1.550697509765625,-3.26517785423398,-1.18256742394343,1.0057469219647348
1772623299091727600,1.5607275390625,-3.4349937381476163,-0.41868937632068987,1.531141207639128
1772623299101757400,1.57075732421875,-3.0602152536153793,0.17168620783016084,1.9482180341966449
1772623299111787300,1.580787353515625,-2.4675065503418443,0.5415105770863592,1.872959379594773
1772623299121816300,1.59081640625,-1.8140636846423148,0.8019077724181115,1.4621386908225715
1772623299131846400,1.600846435546875,-1.045471760240197,1.0606634841531515,0.8467351214643567
1772623299141876500,1.61087646484375,-0.2475409286290407,1.295621410062909,0.2116447635299526
1772623299151906600,1.620906494140625,0.39610476567745206,1.5430398813560604,-0.2750252209473401
1772623299161935400,1.630935302734375,0.8367103518605232,1.738734741283208,-0.5893940257675946
1772623299171965400,1.64096533203125,0.989476901295781,1.7873744151592255,-0.6327504985436797
1772623299181995300,1.650995361328125,0.9680161801159382,1.6124048017442225,-0.5608281852902844
1772623299192025300,1.661025390625,1.1506067899286747,1.3156048982970416,-0.4366151648400351
1772623299202054400,1.671054443359375,1.273190967068076,1.0831623162090778,-0.12429586729495785
1772623299212084500,1.68108447265625,1.2490455368489026,0.9437645130433142,0.1585802772153169
1772623299222114300,1.6911142578125,1.2654109807163476,0.8809266563363373,0.41218255170993506
1772623299232144400,1.701144287109375,1.152187337118387,0.803759683895111,0.6793062057524919
1772623299242173400,1.71117333984375,0.9785551097869872,0.6333996101021766,0.8533700294341892
1772623299252203500,1.72120361328125,0.9270902954876422,0.5177335417881608,0.8172848628353327
1772623299262233600,1.731233642578125,0.9490238948762416,0.6026306700900197,0.5616715773118659
1772623299272266800,1.741266845703125,1.0348404761105776,0.8276790502734481,0.14273737765094263
1772623299282295800,1.7512958984375,1.1753852573543786,1.0557178444445132,-0.3186776444626972
1772623299292325600,1.76132568359375,1.389268831053376,1.2177179400406777,-0.6695199210796505
1772623299302355500,1.77135546875,1.586241601961851,1.2286653043821454,-0.809935230724886
1772623299312385500,1.781385498046875,1.6568921782463788,1.1033655846737325,-0.6589825257785618
1772623299322415600,1.79141552734375,1.5559733049482107,0.8642517081283032,-0.2341778631816618
1772623299332444700,1.801444580078125,1.2745125710606575,0.5626762608423829,0.33839243529066443
1772623299342474800,1.811474853515625,1.2776245656013487,0.38261779985576866,0.636126916174218
1772623299352504800,1.8215048828125,1.4041712166309357,0.45675753343030806,0.637210985083878
1772623299362534400,1.831534423828125,1.422078044721484,0.6835483733668923,0.48150838219672437
1772623299372563700,1.841563720703125,1.5125222857564686,0.8837047427475452,0.22903701142817734
1772623299382593500,1.851593505859375,1.4402180970460177,0.9719085113793611,-0.026939883243292568
1772623299392623600,1.86162353515625,1.286291271659732,0.8707074601389467,-0.18631569475047288
1772623299402653700,1.87165380859375,1.2517653172016143,0.634476153292507,-0.15714317535059524
1772623299412682500,1.8816826171875,1.2293518253415823,0.423974623247236,0.029241840042732656
1772623299422712600,1.891712646484375,1.2024871992915869,0.2732110841974616,0.1705475957216695
1772623299432742700,1.90174267578125,1.1444956135720015,0.11555310945883393,0.27472569001149383
1772623299442772700,1.911772705078125,1.1496429133325814,-0.024495412700623272,0.3791561150945723
1772623299452801800,1.9218017578125,1.2447633294850586,-0.09476926462724804,0.405145419614762
1772623299462831600,1.93183154296875,1.3166425707817078,-0.15316972340866922,0.4272220442032441
1772623299472861400,1.941861328125,1.2722457951724528,-0.25949717775210734,0.5135312312601134
1772623299482891500,1.9518916015625,1.2010644730120896,-0.41120866517648097,0.5712126185193658
1772623299492920600,1.961920654296875,1.262222998329997,-0.5284773463815451,0.5060592879442498
1772623299502950700,1.97195068359375,1.2327432213455438,-0.6080298987850546,0.417133305985108
1772623299512980700,1.981980712890625,1.2037953592807054,-0.6696082569502294,0.35401064098738133
1772623299523010800,1.9920107421875,1.1972113047152757,-0.7275204938232899,0.3373898341193795
1772623299533039600,2.00203955078125,1.0127519784212111,-0.8311328439891338,0.39214309550486504
1772623299543069700,2.012069580078125,0.7937269501805305,-1.0201360973231495,0.49447790001556274
1772623299553099500,2.022099609375,0.491177251034975,-1.2046945000775158,0.6607138796158134
1772623299563129600,2.032129638671875,0.3094944037169218,-1.2967653194010258,0.7926314100287855
1772623299573158700,2.04215869140625,0.1494376972734928,-1.3259018359057604,0.8764153163917362
1772623299583188500,2.0521884765625,-0.16005787548720835,-1.341167794098705,0.9449120756432413
1772623299593218600,2.062218505859375,-0.528016743132472,-1.379417883646488,0.9637616644766182
1772623299603248600,2.07224853515625,-0.9306365897923707,-1.4077047975845633,0.9092280371911823
1772623299613277700,2.082277587890625,-1.1952829670011997,-1.2767385765470565,0.8065445653732866
1772623299623307800,2.092307861328125,-1.5010364306241273,-1.082443938806653,0.6909393604010343
1772623299633337900,2.102337890625,-1.841359687846899,-1.0023698467470705,0.5694310323322191
1772623299643367400,2.112367431640625,-2.0168501102656125,-0.998835681271553,0.4252378115834668
1772623299653396500,2.122396484375,-2.0500304953336714,-0.9749221601121127,0.26652601694297046
1772623299663426600,2.132426513671875,-1.9755799422442912,-0.9279042422190308,0.24010317984372376
1772623299673456600,2.14245654296875,-1.8583821343183515,-0.9412924238413571,0.31026710512246936
1772623299683486700,2.15248681640625,-1.8387527202188967,-1.0092471851706504,0.38325164077989754
1772623299693516800,2.162516845703125,-1.854423752081394,-0.9539959842003881,0.4291455961443484
1772623299703545600,2.172545654296875,-1.9175743279993533,-0.7505603008881211,0.3601353344127536
1772623299713575700,2.18257568359375,-2.059927619969845,-0.5306422693304718,0.1213060834949836
1772623299723605800,2.192605712890625,-2.3283120146632195,-0.3876579859800637,-0.14090159532483668
1772623299733635600,2.202635498046875,-2.632513572669029,-0.2995671762034297,-0.3656571300415322
1772623299743664600,2.21266455078125,-3.0203128668159245,-0.21836846402809024,-0.5412155396625399
1772623299753694500,2.222694580078125,-3.2891847527652978,-0.1348227503351867,-0.6362251889169216
1772623299763724500,2.232724609375,-3.3658997436553237,-0.02714607333987951,-0.6631337271738798
1772623299773754600,2.242754638671875,-3.3832004225462673,0.1734000260107219,-0.6500505929127335
1772623299783783700,2.25278369140625,-3.1903958772331475,0.3983807477854192,-0.646419396803528
1772623299793813800,2.262813720703125,-2.703645210468769,0.6723448423072695,-0.6499097231373191
1772623299803843800,2.27284375,-2.096143427211046,1.0370121210612355,-0.6771301768876612
1772623299813873400,2.282873291015625,-1.5798077695220707,1.398206170746684,-0.6698622317112982
1772623299823902700,2.29290283203125,-1.0643933183312415,1.6139698591038585,-0.6915473362315445
1772623299833932500,2.3029326171875,-0.4589432069063186,1.7323194674134252,-0.8265181167352944
1772623299843962600,2.312962646484375,-0.00018821604847908018,1.8439055729374287,-1.0337453743502496
1772623299853992700,2.32299267578125,0.3440028225183487,1.9022490408346056,-1.1881954929582774
1772623299864021500,2.333021484375,0.6835048264861107,1.8514838992372153,-1.3258560970678925
1772623299874051600,2.343051513671875,0.9689496615737676,1.7100478682421147,-1.4509503573320806
1772623299884081700,2.35308154296875,1.1343284398227929,1.544296018896997,-1.4977439649499953
1772623299894111700,2.36311181640625,1.2617308308988808,1.3902214556030927,-1.516945655156672
1772623299904140800,2.373140869140625,1.3933932175070047,1.2878170199222863,-1.5151576026961207
1772623299914170600,2.383170654296875,1.4796312390238047,1.1609332458928228,-1.460090672251582
1772623299924200400,2.393200439453125,1.574486282238364,1.0341957484662532,-1.3054703116431832
1772623299934230500,2.40323046875,1.7552520147114992,0.9439844394043088,-1.1277367864727974
1772623299944259600,2.413259521484375,1.9878332746177911,0.9380722927510737,-0.9917330096594988
1772623299954289700,2.42328955078125,2.136174408826232,0.9811480488896369,-0.8421024201624095
1772623299964319700,2.43331982421875,2.2538994554966685,1.0191074849277735,-0.7189410276569426
1772623299974349800,2.443349853515625,2.388845686081052,1.0251859280586242,-0.5960214080180972
1772623299984378600,2.453378662109375,2.472865447026491,1.0180898323178291,-0.4612102750554681
1772623299994408700,2.46340869140625,2.5247996324032544,0.9555717090845107,-0.31617954403664916
1772623300004438500,2.4734384765625,2.5612673685789105,0.8705535847514867,-0.20480799457877874
1772623300014468600,2.483468505859375,2.5677427020728585,0.8344026594400406,-0.13356752610970288
1772623300024497700,2.49349755859375,2.5378917536884544,0.812459999962151,-0.10411777893733233
1772623300034527500,2.503527587890625,2.4444652819722887,0.7606824664518237,-0.08823449256364256
1772623300044557600,2.5135576171875,2.299821248716116,0.653052405077219,-0.04614350967872888
1772623300054587600,2.523587646484375,2.194462931665778,0.566407848586142,-0.043266602535545824
1772623300064616700,2.53361669921875,2.069420255458355,0.5013739431396127,-0.08523297266010195
1772623300074646800,2.543646728515625,1.8396973075926302,0.3783712483271956,-0.06324950624778866
1772623300084676900,2.5536767578125,1.6052712966024876,0.2767372124969959,-0.025671982199326156
1772623300094706400,2.56370654296875,1.366352065846324,0.19626023872494697,0.009354359528981148
1772623300104735500,2.573735595703125,1.1055302153617144,0.12011837154775858,0.023300467295013366
1772623300114765600,2.583765625,0.8834855470389127,0.0033320670321583747,0.02840498735979199
1772623300124795600,2.593795654296875,0.6774813284128904,-0.19403350258618593,0.014740947938151656
1772623300134825700,2.60382568359375,0.39138358237445353,-0.18472177662253378,-0.10927749978806822
1772623300144855800,2.613855712890625,0.23504385062754152,-0.10014525857716798,-0.15953447266761211
1772623300154884600,2.623884521484375,0.13257540979981422,-0.13440320974886416,-0.25192864219397304
1772623300164914700,2.633914794921875,-0.003454524368047714,-0.3713224988594651,-0.27831911139357834
1772623300174944500,2.643944580078125,-0.15319325041472912,-0.5414993250399828,-0.24796309956386683
1772623300184974600,2.653974609375,-0.15306582464277743,-0.35108518199473615,-0.1609142000555992
1772623300195003600,2.664003662109375,0.30591888331770895,-0.3987231314823031,-0.18414616869166492
1772623300205033500,2.674033447265625,0.15281272666454315,-0.30259762994050976,-0.4246663318384439
1772623300215063600,2.6840634765625,0.1908469815045595,-0.0846744254618883,-0.529816486030817
1772623300225093600,2.69409375,0.3353086439311504,-0.20313509293049573,-0.6359984674889594
1772623300235122700,2.704122802734375,0.4252069415211677,-0.5273104945592582,-0.7434138631995767
1772623300245152800,2.71415283203125,0.40609190668463707,-0.7535130132138729,-0.6725874919567256
1772623300255182800,2.724182861328125,0.4754360765457153,-0.9274747647605835,-0.5734793944075703
1772623300265212400,2.73421240234375,0.44251171206533907,-1.1195394514918326,-0.5903784336950629
1772623300275238400,2.74423828125,0.34217794517874717,-1.326869365763664,-0.6547894580028951
1772623300285268200,2.754268310546875,0.255365923166275,-1.4790582614414394,-0.6088835930049419
1772623300295298300,2.76429833984375,0.048103228911757466,-1.5170906165853142,-0.5219849156223237
1772623300305328400,2.774328369140625,-0.23024200330376624,-1.5960894806288182,-0.4013181164115667
1772623300315357200,2.784357177734375,-0.4291799368053674,-1.6376659381203353,-0.3971217607002705
1772623300325387300,2.79438720703125,-0.6136427702307701,-1.4982354017287491,-0.31560579926930366
1772623300335417300,2.804417236328125,-0.7495628142833709,-1.3199568098962307,-0.27310755075775084
1772623300345447400,2.814447509765625,-0.9419739763647317,-1.2428903752200304,-0.1633707994274795
1772623300355476200,2.824476318359375,-1.0240203914105892,-1.27354299537614,0.04618314756937325
1772623300365506000,2.834506103515625,-1.0218418783277272,-1.3211360828086733,0.365152797248587
1772623300375536000,2.8445361328125,-1.0853373221606015,-1.3611641418144107,0.7732140312448144
1772623300385566200,2.854566162109375,-1.1498574328660964,-1.4036336026228964,1.1068198898460715
1772623300395595300,2.86459521484375,-1.2835481104314326,-1.4086609292656183,1.2360292572788893
1772623300405625300,2.874625244140625,-1.3302145845383404,-1.4119725380316377,1.2609613078311086
1772623300415655400,2.884655517578125,-1.3915847067803144,-1.4230812304146587,1.2717756934426725
1772623300425685200,2.894685302734375,-1.5837737505435943,-1.479136441244185,1.2700789725273847
1772623300435714300,2.90471435546875,-1.9028250871568917,-1.4879472319483755,1.2085545365065335
1772623300445744400,2.914744384765625,-2.4124685537308452,-1.3280977385148405,1.1218759316153823
1772623300455774200,2.924774169921875,-2.883140776875615,-1.0407025000117718,1.072410036048293
1772623300465804300,2.93480419921875,-3.220262607708573,-0.7277214232228696,0.9100013596512376
1772623300475834400,2.94483447265625,-3.4177252079606055,-0.40884310508891936,0.5991914894215762
1772623300485863200,2.95486328125,-3.3544776014089583,-0.0595353810954839,0.15715674721822143
1772623300495893200,2.964893310546875,-3.002494886052608,0.2900585394281894,-0.3127651690158993
1772623300505923300,2.97492333984375,-2.475220485720038,0.5264376572474837,-0.5827274805504828
1772623300515953400,2.984953369140625,-1.7739327497839927,0.6761450383078307,-0.6144093706890941
1772623300525982200,2.994982177734375,-0.9395604854822158,0.7807335400294512,-0.5153244348198175
1772623300536012300,3.00501220703125,-0.12893033129572867,0.9361205010961741,-0.40459501919038593
1772623300546042000,3.0150419921875,0.5772317326784133,1.1179496980823576,-0.2854085947304964
1772623300556072200,3.025072265625,1.1802560782611369,1.224578765720874,-0.21459975914433596
1772623300566101200,3.035101318359375,1.654374057945609,1.2540749093182384,-0.1906423988431692
1772623300576131300,3.04513134765625,1.922811644130945,1.2134962306924164,-0.18736074682399628
1772623300586161200,3.0551611328125,2.0138924295037985,1.1004703016236423,-0.10858517014235257
1772623300596191200,3.065191162109375,2.0059078604906797,0.8988174100749194,-0.026216099013388155
1772623300606220300,3.07522021484375,1.824538901427388,0.6742758103698492,0.1071069142833352
1772623300616250400,3.08525048828125,1.668934498217702,0.4583846962407231,0.2085672740470618
1772623300626280200,3.0952802734375,1.5728513745129107,0.3154994893506169,0.1345060125362128
1772623300636310300,3.105310302734375,1.4202555054694412,0.3348238560888916,0.007561594360694289
1772623300646339000,3.115339111328125,1.231940672791004,0.44704665208123623,0.024063377958908675
1772623300656369200,3.125369140625,1.1584551653414965,0.5192644776824862,0.02080313405394554
1772623300666399200,3.135399169921875,1.064518990537524,0.48430100858993824,0.002761208341643214
1772623300676429300,3.14542919921875,1.0080068297207354,0.3675903996590525,0.08065919847115874
1772623300686458400,3.155458251953125,1.0207342093467713,0.23295206598006188,0.19268223410770297
1772623300696488200,3.16548828125,1.2571458411961793,0.17550098034534603,0.17912874238844959
1772623300706518300,3.175518310546875,1.4145312826037406,0.15980046666003764,0.07191957330703735
1772623300716548000,3.185548095703125,1.84518129196167,0.07363576610777527,-0.030152616478409618
1772623300726577400,3.195577392578125,2.115738939040899,0.037237880297936496,-0.18551208675000816
1772623300736607200,3.205607177734375,1.185052664887905,0.22920243112295866,-0.6038220718316734
1772623300746637300,3.21563720703125,1.151527411904931,-0.309412351456657,-0.7688958027195185
1772623300756667100,3.225667236328125,1.4423106854110956,-0.6951628233149647,-0.5611174870930612
1772623300766696200,3.2356962890625,1.2699392717957496,-0.3721156585311517,-0.21205265021109954
1772623300776726300,3.245726318359375,1.0745312659859656,-0.01384235513061285,0.0013758731967769562
1772623300786756400,3.25575634765625,1.1355880844950674,0.09799637344758957,0.10954259873135015
1772623300796786400,3.265786376953125,1.1049386792093514,0.03473707645814866,0.24396310667488721
1772623300806815200,3.275815185546875,0.9317764074772595,-0.0431403732068371,0.22875198394171892
1772623300816845000,3.285844970703125,0.7931319068968296,-0.14366473076208494,0.2299999381761998
1772623300826875100,3.295875244140625,0.8303408168286085,-0.29011052534375337,0.19959106364808976
1772623300836905200,3.3059052734375,0.8426227907747029,-0.3391767906013876,0.1120741813018918
1772623300846935300,3.315935302734375,0.8242875081390142,-0.32459264066014437,-0.0420242743242532
1772623300856964400,3.32596435546875,0.803936794027686,-0.254973270586878,-0.16656572301127015
1772623300866994200,3.335994140625,0.8172709073752165,-0.12000095571316778,-0.2532856828261167
1772623300877024300,3.346024169921875,0.9788748432606458,0.012525491245230658,-0.3142079882353544
1772623300887054000,3.35605419921875,0.8573194246470928,0.17360197832360863,-0.24405842027552424
1772623300897083400,3.36608349609375,0.6364087287902832,0.2842988068576902,-0.000023015549406409262
1772623300907113200,3.37611328125,0.49443069987297056,0.0032238243096449877,0.23502141960002482
1772623300917143300,3.386143310546875,0.5729501098364591,-0.2369081466620788,0.4817550504341721
1772623300927173000,3.396173095703125,0.4363105193376541,-0.31217220809143037,0.6267915170740336
1772623300937202200,3.4062021484375,-0.15011106649041175,-0.35312085254080594,0.5140126946341246
1772623300947232300,3.416232177734375,-0.1103162317186594,-0.4943311850212514,0.22373349819257854
1772623300957262300,3.426262451171875,0.5007388601064682,-0.6217987502880394,0.19115897006317972
1772623300967292400,3.43629248046875,0.5630594149410725,-0.4985397060943767,0.4450190917763859
1772623300977321200,3.4463212890625,-0.07118190668225288,-0.3428736358253285,0.735487527179718
1772623300987351300,3.456351318359375,-0.5173381127297878,-0.49107075845319775,0.8081079422324895
1772623300997381000,3.466381103515625,-0.563798835131526,-0.8098332316551357,0.7398672035686671
1772623301007411200,3.4764111328125,-0.7445020237624644,-0.9532719077095388,0.4839234439818188
1772623301017440300,3.486440185546875,-1.1084276903688908,-0.9675446901466697,0.1560811538759619
1772623301027470300,3.49647021484375,-1.5203928730010985,-1.0395327255800366,-0.14904712705332784
1772623301037500200,3.506500244140625,-1.8122475751310585,-1.0760640285111962,-0.08943197698621079
1772623301047530200,3.5165302734375,-1.929966192060709,-0.7551996511265635,0.3384577556118369
1772623301057559300,3.526559326171875,-1.6803005263626574,-0.5902036616500467,0.4654650464231148
1772623301067589400,3.53658935546875,-1.0233896922916172,-0.5294928800996392,0.6013757746580988
1772623301077619200,3.546619140625,-1.4548083479344844,-0.4681612632371485,0.6146396723136306
1772623301087649300,3.556649169921875,-1.6520973451852798,-0.4551883844174444,0.9081354927141219
1772623301097678000,3.566677978515625,-1.4429144965231417,-0.4281956019431352,1.1111674905963242
1772623301107708200,3.576708251953125,-1.1667413476496935,-0.2704426423974335,0.8641755741521716
1772623301117738200,3.58673828125,-0.7130582532286643,-0.10004062915891408,0.5295120231915265
1772623301127768300,3.596768310546875,-0.7033803243011236,-0.06702697895988821,0.11603347685430199
1772623301137797400,3.60679736328125,-0.7607324430733918,-0.2628201846949756,-0.1984268787069246
1772623301147827200,3.6168271484375,-0.763956665816903,-0.4733439265720546,-0.1827250133147463
1772623301157857300,3.626857177734375,-0.9239654414653777,-0.554225827883184,0.0727030883675441
1772623301167887000,3.63688720703125,-1.1890917111456394,-0.5353076307930053,0.22388156489375977
1772623301177916400,3.64691650390625,-1.3690110559225082,-0.3802180452376604,0.39058735396284605
1772623301187946200,3.6569462890625,-1.4641700505197048,-0.26589944600984455,0.42443058685380963
1772623301197976300,3.666976318359375,-1.9494348626405,-0.1894204558327794,0.18360566860679536
1772623301208006100,3.677006103515625,-2.4600457129418847,-0.12772037098407746,0.11444613459762185
1772623301218036200,3.6870361328125,-2.575521519380808,0.019913053346425295,0.19770145050920546
1772623301228065300,3.697065185546875,-2.31199157898128,0.34691688333414494,0.13167718231845646
1772623301238095400,3.707095458984375,-1.6933850488632916,0.8587415664047002,-0.09671568598728626
1772623301248125400,3.71712548828125,-1.047301313754916,1.3260650636434554,-0.35656346727535126
1772623301258155300,3.7271552734375,-0.508402526602149,1.6784727264136075,-0.5856275128409266
1772623301268184000,3.73718408203125,-0.10300444740056991,1.9100399869717657,-0.7169163899615406
1772623301278214400,3.74721435546875,0.2560866386562586,1.9990628169015048,-0.8566447402559221
1772623301288244500,3.757244384765625,0.562623946133256,1.9374856277801096,-1.0084303888950497
1772623301298274600,3.767274658203125,0.726143944773078,1.8034062431581317,-1.1070904504157602
1772623301308303600,3.7773037109375,0.9155886582642793,1.670690694235265,-1.1268218635849654
1772623301318333400,3.78733349609375,1.2892764249503612,1.5654976507492362,-1.1339393674399703
1772623301328363500,3.797363525390625,1.6293302175819873,1.522864377681166,-1.1110858036622404
1772623301338393300,3.807393310546875,1.9557097051262855,1.429033709078282,-1.1321498536746948
1772623301348422400,3.81742236328125,2.202398400840163,1.3191969314396381,-1.095396359360218
1772623301358452500,3.827452392578125,2.406318214407563,1.1941470948390662,-1.049397701512277
1772623301368482600,3.837482666015625,2.5585668774485586,1.0101109623931348,-1.0816882981337606
1772623301378512600,3.8475126953125,2.6228712995767594,0.8502643915690481,-1.0449984436400235
1772623301388541400,3.85754150390625,2.633797182738781,0.729054133131355,-0.8634574159454553
1772623301398571500,3.867571533203125,2.629591547742486,0.6206155318528414,-0.6822272077657282
1772623301408601600,3.8776015625,2.5987130098760125,0.544072682659328,-0.4846417117863893
1772623301418631700,3.887631591796875,2.4781997937917706,0.5127113297119736,-0.25647410360388456
1772623301428660500,3.897660400390625,2.2892343882501125,0.5020218856543303,-0.03239314368050545
1772623301438690300,3.907690185546875,1.9483423912286757,0.47977585931569333,0.13441767666563392
1772623301448720400,3.917720458984375,1.6965338682830333,0.45371904251724476,0.19683553612856194
1772623301458750500,3.92775048828125,1.4886018964648247,0.4524398163616657,0.22896358086578547
1772623301468779500,3.937779541015625,1.3872919780224562,0.4181684211865067,0.17991773734167218
1772623301478809600,3.9478095703125,1.2771166160792111,0.32243425704985856,0.08198524117683992
1772623301488839400,3.95783935546875,1.1710194633603095,0.027124153769016265,0.09653972663218155
1772623301498869500,3.967869384765625,1.0417068547487258,-0.22473229997158048,0.2986080853803083
1772623301508898600,3.977898681640625,0.7140805820137262,0.04937719437032938,0.4072142983106896
1772623301518928600,3.9879287109375,0.8711533042103051,0.4951426475346088,0.41775476235169917
1772623301528958500,3.99795849609375,0.7119587675541639,0.4012611255273223,0.43161454354114825
1772623301538988500,4.007988525390625,0.4136369152367115,0.024129355867207047,0.39073772221896796
1772623301549018600,4.0180185546875,0.15870412279069424,-0.2844090622991323,0.3995872009657323
1772623301559047400,4.02804736328125,-0.11472294224500655,-0.3375233973711729,0.3504715801410377
1772623301569077500,4.038077392578125,-0.20857377685308456,-0.192822957752645,0.24479970362950115
1772623301579107600,4.048107666015625,-0.19358020586073396,-0.138120476706326,0.11880962703675031
1772623301589137700,4.0581376953125,-0.230352477940917,-0.23395430182516574,-0.06440137969665229
1772623301599166500,4.06816650390625,-0.247549696457386,-0.3619011750414967,-0.2697789177916944
1772623301609196500,4.078196533203125,-0.21260288623869417,-0.3909828926190734,-0.5000152220070362
1772623301619226400,4.088226318359375,-0.15495032321512697,-0.3745012750260532,-0.6524790621686727
1772623301629256400,4.09825634765625,-0.05110884046852588,-0.41429625592827796,-0.773220168724656
1772623301639285500,4.108285400390625,0.00845218652486801,-0.4830557577691972,-0.7698583641413599
1772623301649315600,4.118315673828125,0.08868073849380016,-0.5471083970934152,-0.708527404865995
1772623301659345400,4.128345458984375,0.205055539599061,-0.5964138414017855,-0.6828845026306808
1772623301669375500,4.13837548828125,0.28041794683635235,-0.6420366516746581,-0.7247475950438529
1772623301679404500,4.148404541015625,0.3918021000474691,-0.7140291440874338,-0.8324604393310845
1772623301689434600,4.1584345703125,0.38073943876326083,-0.8034354203768074,-0.8324228107344359
1772623301699464400,4.16846435546875,0.44517888544797896,-0.8899659950993954,-0.8183629403956234
1772623301709494500,4.17849462890625,0.44266427227854727,-0.9917748029746115,-0.8179339013285934
1772623301719523300,4.1885234375,0.34726387014091015,-1.1289669127896427,-0.831996913472563
1772623301729553400,4.198553466796875,0.17345044102370738,-1.267445116892457,-0.8124130920805036
1772623301739583500,4.20858349609375,-0.24091712657511233,-1.3985367178753016,-0.6684999303821474
1772623301749613600,4.218613525390625,-0.5964777004182339,-1.3986059837192295,-0.41624468658231195
1772623301759642600,4.228642578125,-0.7374801623016596,-1.131273436166346,-0.06490618741363287
1772623301769672400,4.23867236328125,-0.812885239636898,-0.7890490214973688,0.2942057587681338
1772623301779702500,4.24870263671875,-0.6424193673819303,-0.4764227494955063,0.4309051166301593
1772623301789732400,4.258732421875,-0.5062070623844862,-0.22669804708659647,0.31541133614312855
1772623301799761400,4.268761474609375,-0.5661965439230203,-0.24563567952960727,0.1935135703653097
1772623301809791500,4.27879150390625,-0.6977145536243915,-0.5183917134359478,0.13973010386005044
1772623301819821600,4.288821533203125,-0.9163064511448145,-0.8006707779690623,0.18894374169912187
1772623301829851400,4.298851318359375,-0.9447142149835824,-0.9133098996773361,0.3767675029249862
1772623301839880400,4.30888037109375,-0.8526198686540126,-0.983067034253478,0.5476543040057644
1772623301849910500,4.31891064453125,-0.6882137348294257,-1.1183122477844356,0.7144798104643821
1772623301859940600,4.328940673828125,-0.5437678544938565,-1.2381976873591543,0.7665786118183284
1772623301869970700,4.338970703125,-0.7063508645445108,-1.2294064781382679,0.6946013900399207
1772623301880000500,4.34900048828125,-0.9093167383879422,-1.2180386964276433,0.7829640755604952
1772623301890029300,4.359029296875,-0.9551444235831499,-1.3665253765866159,0.8647885184187442
1772623301900059400,4.369059326171875,-1.1150006390184164,-1.6118509672537444,0.8828072824511677
1772623301910089500,4.37908935546875,-1.5154185917198657,-1.790435556295514,0.8825182363767177
1772623301920119600,4.38911962890625,-2.009198718729615,-1.7557646404087544,0.8191351668771356
1772623301930148600,4.399148681640625,-2.455170800381899,-1.5302145943135022,0.6807116155710071
1772623301940178400,4.409178466796875,-2.848587934410572,-1.2158259888142346,0.5288600986214355
1772623301950208500,4.41920849609375,-2.933587354043126,-0.8577402804076671,0.4593696886900812
1772623301960238300,4.42923828125,-2.412892916622758,-0.3523731759786606,0.2990473353140987
1772623301970267600,4.439267578125,-1.6736662029147147,0.264306769990921,0.08268716063480824
1772623301980297500,4.44929736328125,-1.1811702704966067,0.8023392957031726,-0.12884704605960287
1772623301990327600,4.45932763671875,-0.7684685902833938,1.093559207060933,-0.42484190760105844
1772623302000357400,4.469357421875,-0.2958879031687975,1.2218410113200544,-0.6150485453754663
1772623302010386400,4.479386474609375,-0.011296470040082931,1.3312737382024527,-0.5854544943615794
1772623302020416500,4.48941650390625,0.1582131244033575,1.4394102877944708,-0.48219957933127877
1772623302030446600,4.499446533203125,0.34668051729500293,1.5258058379605413,-0.4762636864762753
1772623302040476700,4.5094765625,0.6553571748882532,1.592903690199554,-0.5198137821283191
1772623302050505500,4.51950537109375,0.9432961648792028,1.5920590560689567,-0.4903921650718897
1772623302060535600,4.52953564453125,1.0875772100418806,1.4466314712196588,-0.4069191878216341
1772623302070565400,4.5395654296875,1.1114420697540044,1.232282033574581,-0.35303828882388766
1772623302080595500,4.549595458984375,1.1274006863862276,1.1060387494057415,-0.3067393693877384
1772623302090624500,4.55962451171875,1.0918500650554894,1.030617305457592,-0.28081056288313117
1772623302100654600,4.569654541015625,1.0216881490707397,0.9745204474434256,-0.2501116924325004
1772623302110684400,4.579684326171875,0.8976414981633424,0.920026056189835,-0.20015425048880278
1772623302120714500,4.589714599609375,0.8043909675359725,0.8336901272565126,-0.22749332565013317
1772623302130743600,4.59974365234375,0.8808347402691841,0.7500871304184198,-0.34141240416634827
1772623302140773600,4.609773681640625,1.1220686777085065,0.6137649353057145,-0.4471937324017286
1772623302150803500,4.619803466796875,1.276387717282772,0.5883358950167894,-0.5359682866588235
1772623302160833500,4.62983349609375,1.0704138937950134,0.9352803239449858,-0.6995536056198179
1772623302170863400,4.63986328125,0.9264660261094569,1.3053934470146893,-0.8802098863691091
1772623302180892400,4.649892333984375,0.974448843511939,1.418827226231992,-0.969277651419118
1772623302190922500,4.659922607421875,1.1937819147884845,1.287341072973609,-0.9854635009359568
1772623302200952600,4.66995263671875,1.5263479820132255,1.067018113876879,-0.9505299885902553
1772623302210982700,4.679982666015625,1.8277812443494796,0.8924205486446618,-0.67046034373492
1772623302221011500,4.690011474609375,1.8913626129001377,0.7941334851548075,-0.22827899613510816
1772623302231041500,4.70004150390625,1.7955337562173603,0.710485187870264,0.14099647053405642
1772623302241071400,4.7100712890625,1.732672518634796,0.6293751768916845,0.3529953629976138
1772623302251101400,4.720101318359375,1.74650347558856,0.5681283887684345,0.39430268469154833
1772623302261130500,4.730130615234375,1.816409370985627,0.5265288426622748,0.276357054072991
1772623302271160300,4.740160400390625,1.8022528353393077,0.5585828540489077,0.166821086011827
1772623302281190400,4.7501904296875,1.7058078925848006,0.6044535016030073,0.13574406643118708
1772623302291220500,4.760220458984375,1.5809855811297893,0.5595291949883103,0.17037782864533363
1772623302301249300,4.770249267578125,1.4462866033047437,0.42218817822188137,0.25039233600478616
1772623302311279400,4.780279296875,1.2530623712748288,0.24912147581875324,0.34005835920888927
1772623302321309400,4.790309326171875,1.0768494798004626,0.04983896666318178,0.3917844547929242
1772623302331339300,4.80033935546875,0.993553941476345,-0.12463964836448431,0.4422153959998861
1772623302341368300,4.810368408203125,0.9909785380303859,-0.25518326007574793,0.47976055214870716
1772623302351398400,4.8203984375,0.9644798226833343,-0.33106706083863974,0.5107435367703438
1772623302361428500,4.830428466796875,0.926663594508171,-0.3567176349237561,0.573372207706049
1772623302371458300,4.840458251953125,0.8220148870319127,-0.3942401408493519,0.6608906244222075
1772623302381487400,4.8504873046875,0.7002963868111372,-0.46194121967852114,0.7199995967991649
1772623302391517400,4.860517333984375,0.6295201383203267,-0.5434162645772099,0.744140058582276
1772623302401547500,4.870547607421875,0.5442717123627663,-0.6311959625780582,0.7846185647692531
1772623302411577300,4.880577392578125,0.43727381141185756,-0.7328507489353417,0.8492489309161901
1772623302421606400,4.8906064453125,0.2900432687938213,-0.7941331928938626,1.0425232126329094
1772623302431636200,4.90063623046875,0.1113882448643446,-0.8745651584804057,1.3197116029635072
1772623302441666300,4.910666259765625,-0.08376724748909473,-1.00061321233809,1.5431458259485662
1772623302451696400,4.9206962890625,-0.3725561323076486,-1.0931316292986273,1.6883230892986059
1772623302461726500,4.9307265625,-0.5797668041139841,-1.100789742836356,1.6638734154358505
1772623302471755300,4.94075537109375,-0.6783785695135593,-1.045697970211506,1.3586350617282092
1772623302481785300,4.950785400390625,-0.9941852251172065,-0.8909566135719418,0.893674494228512
1772623302491815400,4.9608154296875,-1.4655465995699166,-0.7098088960438966,0.523350504887104
1772623302501845200,4.97084521484375,-1.798826368021965,-0.6799228763461113,0.35907263708468523
1772623302511874600,4.98087451171875,-2.104240224426985,-0.723102092859149,0.32216829959005117
1772623302521904400,4.990904296875,-2.385004792743921,-0.794470169763267,0.3980627678774297
1772623302531934500,5.0009345703125,-2.4323159944951533,-0.9011974370792507,0.44362237672097976
1772623302541964300,5.01096435546875,-2.3220938708007335,-0.9402554820090532,0.4479098447818309
1772623302551993300,5.020993408203125,-2.259605558183789,-0.8871133821472525,0.42639856245853003
1772623302562023400,5.0310234375,-2.18714822473824,-0.8257122802451252,0.2941147560164332
1772623302572053500,5.041053466796875,-2.073209710869193,-0.719162999844551,0.060527022481337185
1772623302582083600,5.05108349609375,-1.9885387925386429,-0.5872875550076365,-0.14134992361422627
1772623302592112400,5.0611123046875,-1.8710750271528958,-0.6152525435149669,-0.27872325348136945
1772623302602142200,5.07114208984375,-1.7495558488965033,-0.7741083497360348,-0.3618329686434939
1772623302612172300,5.08117236328125,-1.669929938995838,-0.9118348586887121,-0.41924996934551745
1772623302622202400,5.091202392578125,-1.6754910802543161,-0.98416359731853,-0.4292649847403168
1772623302632231400,5.1012314453125,-1.7231453963547945,-1.0427981571167706,-0.4292454763222486
1772623302642261200,5.11126123046875,-1.6925573658674955,-1.0538508815288543,-0.622730916571617
1772623302652291300,5.121291259765625,-1.6734470072060823,-0.9074293172061443,-0.7932767952602356
1772623302662321400,5.1313212890625,-1.638741604527831,-0.6753697430863976,-0.9299966844536364
1772623302672350500,5.1413505859375,-1.5258745192825793,-0.4439160259053111,-0.9804757025860249
1772623302682380500,5.151380615234375,-1.272211892902851,-0.2140437326967716,-0.9282389540661126
1772623302692410400,5.161410400390625,-0.8451122695028781,0.053668169562518596,-0.8507963795538991
1772623302702440200,5.171440185546875,-0.3510585862487554,0.4271536916747689,-0.8854675146363675
1772623302712470300,5.18147021484375,0.10747194820344448,0.8892080163389444,-0.8945683743283152
1772623302722499300,5.191499267578125,0.5278109914273024,1.2689096364870667,-0.8835277787454425
1772623302732529400,5.201529296875,0.8378326338887214,1.501924611635506,-0.8994555618479847
1772623302742559500,5.2115595703125,1.0354168146938085,1.6386916279062629,-0.9317147404178976
1772623302752589600,5.221589599609375,1.1149988854527473,1.7256223078623414,-0.9349894512396305
1772623302762618400,5.231618408203125,1.0746510929733515,1.7983400458097456,-0.8871526912443339
1772623302772648400,5.2416484375,1.0139426495105028,1.8292337812453507,-0.8971258037261665
1772623302782678300,5.25167822265625,1.1042080268472432,1.8313526730954646,-1.0632960246138274
1772623302792708400,5.261708251953125,1.2247323488473891,1.8304262059003114,-1.2967857776671647
1772623302802737400,5.2717373046875,1.319178226739168,1.7808622567862271,-1.4769379082866012
1772623302812767200,5.281767333984375,1.4253665648728608,1.6517346493527292,-1.580324633003026
1772623302822797300,5.29179736328125,1.4449439565241335,1.5012316609352827,-1.6229638974204659
1772623302832827400,5.301827392578125,1.350878017860651,1.3506097223132847,-1.601663042977452
1772623302842856400,5.3118564453125,1.2346166140019892,1.2246361949965356,-1.4794935841187833
1772623302852886500,5.321886474609375,1.1524310827463864,1.1026514450550078,-1.3082592117093503
1772623302862916400,5.331916259765625,1.1533727475106716,1.0113771829366682,-1.1671825155459343
1772623302872946200,5.3419462890625,1.1684475670456886,0.9351622505232691,-1.0300871441036463
1772623302882975200,5.351975341796875,1.2011164954602718,0.8946306259095669,-0.8422525692228228
1772623302893005300,5.36200537109375,1.2681336836785078,0.8344853692874312,-0.6501748768795281
1772623302903035400,5.372035400390625,1.3064338959783315,0.776922238112986,-0.4680472084034234
1772623302913065500,5.3820654296875,1.3767559709608554,0.7323249714955687,-0.35766010340563953
1772623302923095600,5.392095458984375,1.4774498033314942,0.7403814367011189,-0.28622794828936454
1772623302933124400,5.402124267578125,1.4883862078875303,0.7058975678190589,-0.18633030779771506
1772623302943154400,5.412154541015625,1.5125456666320563,0.608236235012114,-0.09075988285541534
1772623302953184300,5.422184326171875,1.6092174038797615,0.5198769835576414,0.006288871011137962
1772623302963214300,5.43221435546875,1.6205518678426742,0.4518044410675764,0.1104587089292705
1772623302973243400,5.442243408203125,1.4862316602021455,0.3609422668814659,0.2424588030591607
1772623302983273200,5.452273193359375,1.413299694982171,0.20507395203858614,0.2924372512582689
1772623302993303300,5.46230322265625,1.3878455202519893,0.04757131399214268,0.2557744309019297
1772623303003333400,5.47233349609375,1.2474293338239193,-0.039812370428442954,0.2729989758167416
1772623303013362400,5.482362548828125,1.0397662420749663,-0.12338994056433439,0.3844326672580093
1772623303023392500,5.492392578125,0.9012439065694808,-0.2262155242666602,0.47940110771916805
1772623303033422600,5.502422607421875,0.7978922531664371,-0.3429945222586393,0.47463645060062404
1772623303043452200,5.5124521484375,0.6738496939122677,-0.439639663760364,0.30946247420869766
1772623303053481200,5.522481201171875,0.5313099394589662,-0.4592123792365193,0.22068865060396492
1772623303063511300,5.53251123046875,0.3794470608651638,-0.4708975563332438,0.19189239890426396
1772623303073541400,5.542541259765625,0.2815986810535192,-0.5001575530871749,0.20842501603215932
1772623303083571500,5.552571533203125,0.20804361549913883,-0.5015092599570751,0.20604002059176563
1772623303093601500,5.5626015625,0.10886603291034698,-0.5090484232902527,0.18778284469358622
1772623303103630300,5.57263037109375,0.08218903838694096,-0.5330415855571627,0.10121084198206663
1772623303113660400,5.582660400390625,0.1318441729158163,-0.5328212208047509,-0.006863602159172296
1772623303123690200,5.592690185546875,0.13154314414262772,-0.5124582317337394,-0.06758059425465762
1772623303133720300,5.60272021484375,0.11911503972411155,-0.5444339171871543,-0.09624766661673784
1772623303143749400,5.612749267578125,0.1530067879319191,-0.5970642681345343,-0.0742780460666865
1772623303153779200,5.622779296875,0.16631518231630324,-0.6756260559350252,-0.04723682134076953
1772623303163809300,5.632809326171875,0.12181260824501514,-0.7722524927362799,-0.09792809398435055
1772623303173839400,5.64283935546875,0.12837503550052642,-0.8642734815686941,-0.22991620541550217
1772623303183868400,5.652868408203125,0.1582698230266571,-0.9259650908499956,-0.28225495300516484
1772623303193898500,5.6628984375,0.10875555827319622,-0.9651786186024546,-0.2859153752088547
1772623303203928600,5.672928466796875,0.031337387549877166,-0.9953624522030353,-0.25992475551441313
1772623303213958100,5.682958251953125,-0.08953647854030132,-1.0054650362834334,-0.2457451312534511
1772623303223987500,5.692987548828125,-0.24782266817986964,-0.9929293798372149,-0.2601015733860433
1772623303234017300,5.703017333984375,-0.3872083425164222,-0.9855150119274854,-0.3171438955567777
1772623303244047400,5.71304736328125,-0.5754805050969124,-0.931279563871026,-0.302523541790992
1772623303254077400,5.723077392578125,-0.7179220598727464,-0.8912871607005596,-0.22032924270704388
1772623303264107500,5.733107421875,-0.8697551278501748,-0.8422209319755435,-0.06847666631154715
1772623303274136000,5.743135986328125,-1.015133905121684,-0.7898305272638797,0.1190053688045591
1772623303284166100,5.753166259765625,-1.0552940660744905,-0.7855278616338968,0.2847230236191302
1772623303294196000,5.763196044921875,-1.0002128148436547,-0.8031880214869975,0.37143458093181253
1772623303304226000,5.77322607421875,-0.9554530511409044,-0.804164465303719,0.3798059573054313
1772623303314255000,5.783255126953125,-0.9517916060239076,-0.7431795429870486,0.3593670534539968
1772623303324285000,5.793284912109375,-0.9391039738863706,-0.6527957999676466,0.34606552720181644
1772623303334315000,5.80331494140625,-0.9247083687871694,-0.6184507550343871,0.4170997690416872
1772623303344345000,5.813344970703125,-0.9396697910755872,-0.7500368615359068,0.59643342288509
1772623303354374000,5.823373779296875,-0.9097656511992216,-1.0221443684056402,0.7995627436619251
1772623303364404000,5.833404052734375,-0.8958101910829543,-1.3084428977131843,0.9698444915216415
1772623303374434000,5.84343408203125,-0.9007429713100195,-1.5371408864453433,1.0550029741734266
1772623303384464100,5.853464111328125,-0.9396990171700715,-1.6895228204771875,0.9351558938477188
1772623303394493200,5.8634931640625,-1.2674457014143465,-1.7165169181257485,0.5750089420624077
1772623303404523000,5.87352294921875,-1.909980804130435,-1.5653306236192583,0.16796667585037647
1772623303414552800,5.883552734375,-2.5815555388480425,-1.3801628567948936,-0.021950404392927884
1772623303424583000,5.8935830078125,-2.994560585922003,-1.1978422960951924,-0.03258139626160264
1772623303434613000,5.903613037109375,-3.061787617498636,-0.8866121546268463,-0.1906982572162524
1772623303444642000,5.91364208984375,-2.741133521863818,-0.4244534928053617,-0.519989102162607
1772623303454672100,5.923672119140625,-2.1700492058992387,0.09102934744656085,-0.6965267320793121
1772623303464702000,5.933701904296875,-1.564820043748617,0.4060594657197594,-0.7237335226304829
1772623303474732000,5.94373193359375,-0.996791608223319,0.5657143133640289,-0.603813304003328
1772623303484761000,5.953760986328125,-0.44564007321894167,0.7804629794597625,-0.3982630762225017
1772623303494791000,5.963791015625,0.05181143577992916,1.1056062032073735,-0.1978098427871242
1772623303504821000,5.973821044921875,0.4918827689558267,1.327630705524981,0.0127024643804878
1772623303514851000,5.98385107421875,0.8446271163344383,1.3912430537357925,0.1239003743045032
1772623303524880000,5.9938798828125,1.1332201863199471,1.361687581166625,0.12819631793275474
1772623303534910000,6.003909912109375,1.4100976840704678,1.3059361755892633,0.07387596807181834
1772623303544940000,6.01393994140625,1.5899755277931689,1.2680138566911219,0.10617672076113521
1772623303554970000,6.02397021484375,1.6112597233623265,1.2397297192320227,0.17272117690108715
1772623303564999200,6.033999267578125,1.4617998142570257,1.1562968182638287,0.2368057457335293
1772623303575029000,6.044029052734375,1.223690146318078,1.0556833576530218,0.3585019245246425
1772623303585058800,6.054058837890625,0.9705448218107223,0.9771323835074901,0.46093653614800423
1772623303595089000,6.0640888671875,0.7712199348181485,0.9548378418520093,0.47582595264613625
1772623303605119000,6.074118896484375,0.6113263099819422,1.0196741788998245,0.4041668569061905
1772623303615148000,6.08414794921875,0.4822808278739452,1.123835979641974,0.2704194441849366
1772623303625178000,6.09417822265625,0.41499592863023277,1.2468605940252542,0.10777754355389624
1772623303635208000,6.1042080078125,0.39251054057776924,1.3242515844807028,0.0007119476616382598
1772623303645238000,6.114238037109375,0.452545614823699,1.3118033140569925,-0.029894312602095303
1772623303655267000,6.12426708984375,0.6128238550633192,1.295604751189053,-0.06808704593945294
1772623303665297200,6.134297119140625,0.825699713024497,1.2968211412414907,-0.1026344815770164
1772623303675327000,6.144326904296875,0.9987158542841672,1.2973434115499258,-0.01963251937199384
1772623303685357000,6.154357177734375,1.1504080524861813,1.2144903562963008,0.07542725263442844
1772623303695385900,6.1643857421875,1.2858400207608938,1.099312948282063,0.09246442175097763
1772623303705416000,6.174416015625,1.4077502441614866,1.033477955585718,0.12950794852059333
1772623303715446000,6.184446044921875,1.5086755472004412,0.9697183078587055,0.20319014758598059
1772623303725476000,6.19447607421875,1.5609510933607815,0.8945350565806031,0.27511516425311566
1772623303735506200,6.204506103515625,1.5608844578653573,0.7969955965876578,0.3014584333101287
1772623303745535000,6.214534912109375,1.5140256760567425,0.7177332593023776,0.3850262857696041
1772623303755565000,6.22456494140625,1.6116519375503062,0.7039286058336496,0.3951734031114727
1772623303765595000,6.234594970703125,1.7600877643048762,0.7312675713971257,0.28255046535301953
1772623303775625000,6.244625,1.9324299518257377,0.7459928468421101,0.2275305889206007
1772623303785654000,6.254654052734375,2.118432415908575,0.7259788173392414,0.25388094530552624
1772623303795684000,6.26468408203125,2.266845446309447,0.6403916609466076,0.25351269651502367
1772623303805714000,6.2747138671875,2.2810382223129273,0.5355804563850164,0.29744872274473305
1772623303815744000,6.284743896484375,2.1459213113367555,0.4244797962903976,0.4162491435617208
1772623303825773000,6.29477294921875,2.0228794535577297,0.27268706032335754,0.47613772200904786
1772623303835803100,6.30480322265625,1.8693261376589536,0.08748129957616328,0.4655285766460001
1772623303845833000,6.3148330078125,1.7275293105274439,-0.2670002468585968,0.4693289918422699
1772623303855863000,6.324863037109375,1.5006722734868525,-0.40507542311847206,0.39849531407579775
1772623303865892900,6.334892822265625,1.3307482530236243,-0.40207507225871086,0.31636567772589624
1772623303875922000,6.344921875,1.1339625291198492,-0.618394933193922,0.19824965897649524
1772623303885952000,6.354951904296875,0.8855436486124992,-0.9272589300528168,0.18222645267546175
1772623303895982000,6.364982177734375,0.6111947925567627,-1.298920743869245,0.2296983248811215
1772623303906012200,6.37501220703125,0.4625795175820589,-1.9277762808009982,0.43501631480865177
1772623303916041000,6.385041015625,0.14163959074318408,-2.0489377316609025,0.24684403240606187
1772623303926071000,6.395071044921875,-0.021373627418279646,-1.6099045093610882,0.11578545690998435
1772623303936100900,6.405100830078125,-0.5513794985413552,-1.6024594540521502,0.3859915140725672
1772623303946131000,6.415130859375,-0.8641326117932796,-2.0314570200279354,0.5741247796390205
1772623303956160000,6.425159912109375,-1.252541562271118,-2.3077856517240405,0.6428649922575801
1772623303966190000,6.435190185546875,-1.6935329329013824,-2.228842463390529,0.48584071231260895
1772623303976220000,6.445219970703125,-2.1288760685116053,-1.9764672464728354,0.29065318085309116
1772623303986250000,6.45525,-2.3997271455794573,-1.8307807184264062,0.11987400486525147
1772623303996280000,6.465280029296875,-2.5789871496647594,-1.8341461032062767,0.017599040783010424
1772623304006309000,6.47530908203125,-2.797816947594285,-1.699725065539777,0.014265475913509726
1772623304016339000,6.4853388671875,-2.7212948489278554,-1.5242334740772843,0.13069208027124404
1772623304026369000,6.495369140625,-2.6065648924201725,-1.3529565777003765,0.23681794762797653
1772623304036398800,6.50539892578125,-2.5157448038101196,-1.1627196909181774,0.35442948745395986
1772623304046428000,6.515427978515625,-2.296186107084155,-1.0675734096720815,0.45427813770473
1772623304056458000,6.5254580078125,-2.1935779655247925,-0.9433451185874641,0.39387905245199795
1772623304066488000,6.535488037109375,-2.1581910103231667,-0.7539728858105837,0.20051387758143244
1772623304076518100,6.54551806640625,-1.9686931053400039,-0.5334640487529337,0.03921065537536051
1772623304086547000,6.555546875,-1.6745675356686114,-0.4089665853381157,-0.11260059806248172
1772623304096577000,6.565576904296875,-1.4092004429697988,-0.44211818270310754,-0.17687007674146443
1772623304106606800,6.57560693359375,-1.02068043333292,-0.6676727588430047,-0.10977932096351868
1772623304116637000,6.585636962890625,-1.0999503694027661,-0.862635943494737,-0.29842476470265533
1772623304126667000,6.5956669921875,-1.9079478369981049,-0.6157531865134835,-0.767829561727494
1772623304136696000,6.605696044921875,-1.9716864419370888,-0.24332126510739324,-0.9217040724046528
1772623304146726000,6.615725830078125,-1.5458435405999422,0.010276187081634998,-1.1714387116856873
1772623304156756000,6.625755859375,-1.081136363339424,0.3171127697661519,-1.31087085551247
1772623304166786000,6.6357861328125,-0.8142664648622274,0.7405085702121257,-1.2038893211744726
1772623304176815000,6.645815185546875,-0.4873556469202041,1.130575809291005,-0.991554949678853
1772623304186845200,6.65584521484375,-0.00478314262330532,1.406173496364057,-0.7367272981077432
1772623304196875000,6.665875,0.44865152999460695,1.620216352277994,-0.48954968636576085
1772623304206904800,6.67590478515625,0.6870230637401342,1.8110107268124818,-0.21913911960702387
1772623304216934000,6.685933837890625,0.8314461477220058,1.88957719078809,-0.04378324682079255
1772623304226964000,6.6959638671875,1.0062450807452201,1.893296211311221,0.03831150087881833
1772623304236994000,6.705994140625,1.1360568710505963,1.885854955394566,0.11700075098387896
1772623304247024000,6.716024169921875,1.2452145803838968,1.8946832817554473,0.1985435273565352
1772623304257053000,6.726052978515625,1.3659347172170877,1.838510143634677,0.2855727723162621
1772623304267083000,6.7360830078125,1.5156629218697546,1.6776111411482095,0.2919072725674137
1772623304277112600,6.746112548828125,1.6266151134043931,1.467474352762103,0.30268713485486803
1772623304287142400,6.756142333984375,1.5606424658030271,1.232953356964886,0.38668051925003527
1772623304297172200,6.766172119140625,1.341525083103776,0.9891451851233839,0.4898577659342438
1772623304307201300,6.776201171875,1.2166156778872013,0.8085220759913325,0.49930977715142066
1772623304317231400,6.7862314453125,1.1344114419311284,0.7251338909476995,0.4363011669874191
1772623304327261400,6.796261474609375,1.045831825724244,0.7143930089637637,0.3460460918489843
1772623304337291500,6.80629150390625,1.0577566567957402,0.6504948295488954,0.24962109590396284
1772623304347320300,6.8163203125,1.0098270308852195,0.6200239957004785,0.20417338646966962
1772623304357350400,6.826350341796875,0.9182149151146412,0.5965373216509818,0.3093692429672926
1772623304367380500,6.83638037109375,0.8781266503542661,0.5792421957179904,0.4774482931509614
1772623304377410300,6.846410400390625,0.8181114498525858,0.6107642921850085,0.5973924771755933
1772623304387440400,6.8564404296875,0.884227305316925,0.6969026527196168,0.6696835141435266
1772623304397469400,6.866469482421875,1.0731938799023628,0.755871851299703,0.7001679381258785
1772623304407499300,6.876499267578125,1.1944389173924923,0.7142316809222101,0.7506201413165777
1772623304417529300,6.886529296875,1.1935241406351327,0.6253089503660798,0.7943418672084808
1772623304427559400,6.896559326171875,1.2450211036384105,0.493685726724565,0.7690148259893059
1772623304437588500,6.90658837890625,1.2951672365546225,0.382462317033112,0.70285089359954
1772623304447618600,6.91661865234375,1.3096411675870419,0.3386082699984312,0.6024150545779615
1772623304457648600,6.926648681640625,1.3155062602281569,0.25624299826174973,0.4988040195863694
1772623304467678200,6.93667822265625,1.1807990990966557,0.17160919707119465,0.44661476346999407
1772623304477707300,6.946707275390625,1.0418997469723223,0.12222557296007872,0.39703956230953336
1772623304487737300,6.9567373046875,0.9244055864483117,0.08351677985936402,0.2831224382883869
1772623304497767400,6.966767333984375,0.6982125662744045,0.04301730394959449,0.2675298419569619
1772623304507797500,6.976797607421875,0.4846089785605669,-0.019086393263936043,0.22985568913361057
1772623304517827600,6.98682763671875,0.41144203554093833,-0.06744330467581748,0.06385309816412628
1772623304527856400,6.9968564453125,0.39675650758445263,-0.1147732111275196,-0.1450040439412929
1772623304537886500,7.006886474609375,0.426495227766037,-0.1452744401142001,-0.3699028413198888
1772623304547916300,7.016916259765625,0.4312544049918651,-0.16611819843947886,-0.5672422535836696
1772623304557946400,7.0269462890625,0.37858255299031734,-0.18944778223112224,-0.6698815209336578
1772623304567975400,7.036975341796875,0.37844168321490285,-0.23452611036375165,-0.6599957944743334
1772623304578005200,7.047005126953125,0.4180494709819555,-0.28626024312376974,-0.5387679638473317
1772623304588035300,7.057035400390625,0.45635903563201424,-0.296411050260067,-0.36843693348579104
1772623304598065400,7.0670654296875,0.4869517422944307,-0.3507128415510058,-0.3228853618182242
1772623304608094500,7.077094482421875,0.5177122067391872,-0.4792376607857644,-0.36177988674938677
1772623304618124500,7.08712451171875,0.472521650403738,-0.6448373883090913,-0.4144505331745371
1772623304628154600,7.097154541015625,0.37124855684041974,-0.8123618002846836,-0.407833745383285
1772623304638184200,7.10718408203125,0.3442687799781561,-0.9764230661943555,-0.3995608244154602
1772623304648214300,7.11721435546875,0.31104280220270153,-1.1118928822614251,-0.4201833412054926
1772623304658243300,7.127243408203125,0.17816928623914718,-1.2023092123761772,-0.4145227581605315
1772623304668273400,7.1372734375,0.004610124143958091,-1.2658416272185742,-0.40668263911940156
1772623304678303500,7.147303466796875,-0.12383680754899978,-1.3488712080828844,-0.4410018554916605
1772623304688333600,7.15733349609375,-0.2415980945765972,-1.401641405892372,-0.5133030119948089
1772623304698362400,7.1673623046875,-0.4222159430116415,-1.3958242440462112,-0.5884839982505887
1772623304708392400,7.177392333984375,-0.6834381909906864,-1.3516774976752697,-0.5987529153412208
1772623304718422500,7.187422607421875,-0.8718933089226484,-1.230845863291621,-0.5729826603991911
1772623304728452400,7.197452392578125,-0.9525351178675889,-0.9979295262120663,-0.5167467592405155
1772623304738481400,7.2074814453125,-1.0152052167922259,-0.7155212823413312,-0.41377906365375966
1772623304748511200,7.21751123046875,-1.0486819544583559,-0.5144011824950575,-0.26945370442532
1772623304758541300,7.227541259765625,-1.0103753124177455,-0.44485023801550266,-0.1365560221348889
1772623304768571400,7.2375712890625,-0.9238409383028745,-0.39628494454994795,0.027115513804834335
1772623304778601500,7.2476015625,-0.8550479725837707,-0.33571590955778957,0.23141793348165227
1772623304788630500,7.257630615234375,-0.8801374056547879,-0.2703089330151677,0.46939025704283266
1772623304798660600,7.26766064453125,-0.8994751433312892,-0.27230083748474715,0.6625403643906116
1772623304808690400,7.2776904296875,-0.8983177899897098,-0.301200330363214,0.7840759092599153
1772623304818720300,7.28772021484375,-0.9405079954653978,-0.3655463996760547,0.9137307554379105
1772623304828749300,7.297749267578125,-1.0370587366819382,-0.44470615336969493,1.0253573391027748
1772623304838779400,7.307779296875,-1.1380950988799332,-0.4877912618584931,1.1039669115677475
1772623304848809500,7.3178095703125,-1.1801081942230462,-0.43436552274972196,1.084756964989379
1772623304858839600,7.327839599609375,-1.2542477816671131,-0.20500497845560312,0.8672625803820788
1772623304868869400,7.337869384765625,-1.467625159409642,0.19637290531918405,0.5294203993853182
1772623304878898400,7.3478984375,-1.654832907629013,0.6137186119459569,0.26996158088222144
1772623304888928500,7.357928466796875,-1.5593144320696593,0.8194023664459585,0.13887553285732865
1772623304898958300,7.367958251953125,-1.2778092745184897,0.8928918194182217,0.15395510163269935
1772623304908988400,7.377988525390625,-1.0080261189430952,0.9653281100757419,0.24826383607611058
1772623304919017200,7.388017333984375,-0.7445914556115866,1.0354987938888371,0.36505167496167124
1772623304929047300,7.39804736328125,-0.4048790237635374,1.0672833406843245,0.45092371271029114
1772623304939077400,7.408077392578125,-0.059116205835342404,1.1026723417125641,0.483997678261809
1772623304949107500,7.418107421875,0.15466156940162182,1.140510197197646,0.5523490742258728
1772623304959137500,7.428137451171875,0.21944822208881376,1.1310538020662964,0.6263978415813297
1772623304969166600,7.43816650390625,0.22673779457509516,1.0489036343850195,0.5703957491785288
1772623304979196400,7.448196533203125,0.2607037770628929,0.935256504677981,0.45943413222841917
1772623304989226200,7.458226318359375,0.2845844188660383,0.803987355171144,0.2584779177069664
1772623304999256300,7.46825634765625,0.11769698961973189,0.7019475150190293,-0.009010916386172175
1772623305009285400,7.478285400390625,-0.108377372610569,0.6123107909746468,-0.16881299048140644
1772623305019315500,7.4883154296875,-0.19039806869328021,0.5871767881095409,-0.22570187565609812
1772623305029345500,7.498345458984375,-0.14711305371820926,0.674056030139327,-0.1791152618523687
1772623305039375400,7.508375244140625,-0.10622282492518424,0.7977293176896869,-0.1297756230134517
1772623305049404400,7.518404296875,-0.028879473003745076,0.8865336825631558,-0.13702910127304493
1772623305059434500,7.5284345703125,0.07972410957813263,0.9437161438569426,-0.12316584948487579
1772623305069464300,7.53846435546875,0.1963373956143856,0.9801023392289876,-0.052284240923449396
1772623305079494400,7.548494384765625,0.41823008824586866,0.9649626377642154,-0.01811944792792201
1772623305089523200,7.558523193359375,0.7381780814379453,0.9440651034250855,0.021287994961440564
1772623305099553300,7.56855322265625,1.0463111336737871,0.8757505688726901,0.03537942948229611
1772623305109583400,7.578583251953125,1.3054805407762526,0.7395078687369823,0.06496960803866386
1772623305119613400,7.588613525390625,1.484251884561777,0.3294444280728698,0.021048706312850118
1772623305129643500,7.5986435546875,1.6329729579985142,-0.1883545801669359,0.1255408349879086
1772623305139672600,7.608672607421875,1.8458926551014183,0.0717059305563569,0.19301877258569
1772623305149702400,7.618702392578125,1.8261480901896952,0.4721665533557534,0.9478508325088769
1772623305159732200,7.628732177734375,2.055371271839738,0.5270885223716497,0.40156609982326624
1772623305169762300,7.63876220703125,1.5325152724713087,-0.07704524575769901,-0.32791919126696883
1772623305179791400,7.648791259765625,1.8222201030910015,-0.1770548952564597,0.2202796314116567
1772623305189821400,7.658821533203125,1.3346844234287738,0.003914543095231056,0.2153519657511264
1772623305199851500,7.6688515625,1.4506588270395993,0.07888970458060503,0.25312822724208234
1772623305209881300,7.67888134765625,1.4158464568555353,0.03640314650684595,0.06018909576386213
1772623305219911400,7.688911376953125,1.3568693672299383,-0.06848813755363226,-0.030146351134404538
1772623305229940500,7.6989404296875,1.3278537006258964,-0.19525310750901698,0.03660999419055879
1772623305239970600,7.708970458984375,1.3253016780555247,-0.31491701328754423,0.11335844895876944
1772623305250000400,7.71900048828125,1.3785387627243995,-0.3593856850892305,0.15763240190595387
1772623305260030500,7.729030517578125,1.438993523687124,-0.3249339649111032,0.15163140792548654
1772623305270059300,7.739059326171875,1.460607389602065,-0.2782698288917541,0.15777802092172205
1772623305280090600,7.749090576171875,1.4195581708550453,-0.303527896527946,0.1704186721123755
1772623305290120700,7.75912060546875,1.2577554975271223,-0.2777747388511896,0.22905878486856818
1772623305300150500,7.769150634765625,1.1730243734419346,-0.31400720496624707,0.33450536472424863
1772623305310180600,7.7791806640625,1.1047206525444984,-0.39464842938929795,0.44701822970435023
1772623305320209700,7.789209716796875,0.9560212064176797,-0.4496113149374723,0.571662188917771
1772623305330239500,7.799239501953125,0.7446645208477973,-0.5523246704369783,0.6804401051532477
1772623305340269600,7.80926953125,0.49266895089745516,-0.7515937355890869,0.7464883022088558
1772623305350299600,7.819299560546875,0.15570084932148456,-0.984260627952218,0.7729778113361447
1772623305360328700,7.82932861328125,-0.17525135296583175,-1.2262646729812026,0.7664331389330327
1772623305370358800,7.83935888671875,-0.3676163378179073,-1.3809215662077068,0.7775884469367563
1772623305380388900,7.849388916015625,-0.5582137284755706,-1.3907994016215204,0.7330491210516542
1772623305390418400,7.85941845703125,-0.7743307603150605,-1.2601555444061756,0.6226509101379663
1772623305400447500,7.869447509765625,-0.9755343006610869,-1.0750441839441656,0.5322168251708149
1772623305410477600,7.8794775390625,-1.1463397801339625,-0.8953089635625481,0.44741256278418
1772623305420507600,7.889507568359375,-1.3459037365794182,-0.7047352460414171,0.26053006446380167
1772623305430537700,7.899537841796875,-1.4060387640684842,-0.4930661335214972,0.026587745337374506
1772623305440567800,7.90956787109375,-1.3714222087174652,-0.31788200057297944,-0.018974676517769695
1772623305450596600,7.9195966796875,-1.261419280731678,-0.3300558379694819,0.015063750151731073
1772623305460626700,7.929626708984375,-1.1667974617511034,-0.4572209131583571,0.10698445694744586
1772623305470656500,7.939656494140625,-1.1266384698420762,-0.5434510436296462,0.18904256243109702
1772623305480686600,7.9496865234375,-1.0238169777929782,-0.49823681415766474,0.15494484332241118
1772623305490715600,7.959715576171875,-0.9622469490647315,-0.40370676511377096,0.09057835227604955
1772623305500745500,7.969745361328125,-0.9926146147996187,-0.34708179157227276,-0.02439622664246708
1772623305510775600,7.979775634765625,-1.154095216566324,-0.24429127918332813,-0.15151702429819852
1772623305520805600,7.9898056640625,-1.4669126272261142,-0.1222998072400689,-0.29683698405455794
1772623305530835700,7.999835693359375,-1.8501111495792866,-0.047720367074012754,-0.35197489737607535
1772623305540864800,8.00986474609375,-2.124277634805441,-0.038652386738359926,-0.40977234876304863
1772623305550894800,8.019894775390625,-2.2233698771983383,0.0763113785251975,-0.5341262389887124
1772623305560924400,8.02992431640625,-2.230465388417244,0.3519230941236019,-0.6215129190839827
1772623305570954500,8.03995458984375,-2.1065753893762826,0.6603355478227139,-0.6356463661156594
1772623305580983600,8.049983642578125,-1.8445418250143526,0.870652076689899,-0.6112599667474627
1772623305591013600,8.060013671875,-1.4821049356609581,1.000312037434429,-0.5826620140988379
1772623305601043700,8.070043701171874,-1.046807392758131,1.118198704407364,-0.5808372463570908
1772623305611073800,8.08007373046875,-0.5796019689410925,1.197470686303824,-0.6375190281197428
1772623305621103600,8.090103515625,-0.14416881695985792,1.2575190584227443,-0.684882909906283
1772623305631132700,8.100132568359374,0.2623129658252001,1.2814870862483978,-0.6505756397001445
1772623305641162800,8.110162841796875,0.5680488937914371,1.2371342959113418,-0.5105457857085391
1772623305651192600,8.120192626953125,0.7350181561022997,1.1333087413862346,-0.3615376754913479
1772623305661222700,8.13022265625,0.8664484875202179,0.9891609672144055,-0.38710119234751905
1772623305671251500,8.14025146484375,0.9603986908495425,0.8862591034054755,-0.5260924970716238
1772623305681281500,8.150281494140625,1.0252689301669597,0.8135641618117689,-0.6378269250251353
1772623305691311600,8.1603115234375,1.0756669920176267,0.7134703411608934,-0.7300828916572034
1772623305701341700,8.170341796875,1.0568600002169608,0.5860404775559902,-0.8084202230520546
1772623305711371800,8.180371826171875,1.0478659619003534,0.4824968087121844,-0.7999315039090812
1772623305721400800,8.19040087890625,1.1371440817654133,0.394167075613141,-0.7428295605055988
1772623305731430700,8.2004306640625,1.1629811183333396,0.3192158795252442,-0.623082652618736
1772623305741460500,8.21046044921875,1.1307821455180644,0.2594853411838412,-0.5038507085166871
1772623305751490600,8.220490478515625,1.141786354613304,0.2712640417829156,-0.4663683154057711
1772623305761519600,8.23051953125,1.149638237157464,0.3217506586998701,-0.5060214036192745
1772623305771549700,8.2405498046875,1.1582646112054586,0.38755467173606156,-0.5393973112594336
1772623305781579800,8.250579833984375,1.1830652904629706,0.4131970625147223,-0.4944129450205713
1772623305791609600,8.260609619140626,1.2139128486692905,0.42276451680511234,-0.4224403263520449
1772623305801639700,8.2706396484375,1.2402280241429806,0.41450317667722697,-0.3675231065765023
1772623305811668700,8.280668701171875,1.2821288912832736,0.3373722984626889,-0.3981480350080877
1772623305821698600,8.290698486328125,1.3258289168000221,0.2826224711433053,-0.4084020102579146
1772623305831728600,8.300728759765626,1.2992355089068413,0.24265447176173327,-0.37103849428631364
1772623305841758700,8.3107587890625,1.355364807885885,0.14381123569384216,-0.35597814166806635
1772623305851787500,8.32078759765625,1.393780755519867,0.059293169837445016,-0.34066337589733303
1772623305861817600,8.330817626953126,1.401818516024947,-0.026819471734017133,-0.3300819587914273
1772623305871847700,8.34084765625,1.2882272081583737,-0.16698329083621502,-0.3107772831343114
1772623305881877800,8.350877685546875,1.196394143113494,-0.32215193297713995,-0.3663195029404014
1772623305891906800,8.36090673828125,1.083079898622632,-0.38824864534959197,-0.40234037213139234
1772623305901936600,8.3709365234375,0.9727736037760972,-0.39869302860498423,-0.447795863013342
1772623305911966500,8.380966552734375,0.8898907379060983,-0.36937399514019487,-0.5001930627919733
1772623305921996500,8.39099658203125,0.7739291937768459,-0.3587061783924699,-0.4556998776035383
1772623305932026600,8.401026611328126,0.7224579497367143,-0.40460298330113287,-0.4045832922199741
1772623305942055700,8.4110556640625,0.6673685151994228,-0.41008565249592066,-0.3646438613457605
1772623305952085800,8.421085693359375,0.6248007085829973,-0.4017443789996207,-0.3431199387365952
1772623305962115600,8.431115478515625,0.6032552317291497,-0.40936420635357496,-0.3389876612374559
1772623305972145700,8.441145751953124,0.5810889926284551,-0.4384856714196503,-0.35343441200200465
1772623305982174700,8.4511748046875,0.555514406388998,-0.49454205129295586,-0.34462716496177015
1772623305992204500,8.46120458984375,0.520886745122075,-0.5616502787955105,-0.325527218096517
1772623306002234600,8.471234619140626,0.5248614939719438,-0.6124214117422699,-0.3628804684024304
1772623306012264700,8.4812646484375,0.49206923143863673,-0.643026101103425,-0.43695634296052155
1772623306022294500,8.49129443359375,0.471475356221199,-0.6988204690396785,-0.5108356355005875
1772623306032323600,8.501323486328126,0.43907121622264383,-0.7573049528427421,-0.49492622830495236
1772623306042353700,8.511353759765624,0.3835580033153295,-0.7893006581708788,-0.40650819586794823
1772623306052383700,8.5213837890625,0.33484102641940117,-0.8100142142452299,-0.3346218307107687
1772623306062413600,8.53141357421875,0.15581600013375282,-0.8313793660961091,-0.283127315392904
1772623306072443600,8.541443603515624,-0.14822949052751064,-0.8761044968768954,-0.27211554404571653
1772623306082472400,8.551472412109375,-0.4252788377135992,-0.9392391445733607,-0.4012819125870242
1772623306092502500,8.56150244140625,-0.6539929007977247,-1.0310707483135164,-0.5483971582623198
1772623306102532600,8.57153271484375,-0.8510755618214607,-1.0954286541946232,-0.6117398957515136
1772623306112562700,8.581562744140625,-0.9935153630316257,-1.1127958224505186,-0.677740417740494
1772623306122591700,8.591591796875,-1.0395201583594083,-1.0080619209088384,-0.7569111312195658
1772623306132621600,8.60162158203125,-1.1036761119276284,-0.8410749768108129,-0.7546126450188457
1772623306142651600,8.611651611328124,-1.0875678576916457,-0.7092652906864881,-0.70194152366966
1772623306152681500,8.621681396484375,-1.0365373431563376,-0.6373192677639424,-0.6021791634628549
1772623306162711600,8.631711669921875,-1.0268448011815547,-0.6137421389520168,-0.46613289921469986
1772623306172741600,8.64174169921875,-0.8793629141509532,-0.6118737147316337,-0.3360034212622791
1772623306182771700,8.651771728515625,-0.774322577008605,-0.5472372841700911,-0.29101894542556256
1772623306192801800,8.6618017578125,-0.6776531778484582,-0.47974692548215386,-0.2809949430067092
1772623306202830600,8.67183056640625,-0.6035813949435949,-0.44148675293177364,-0.1837928252093494
1772623306212860700,8.681860595703125,-0.6425660823762417,-0.507736756169796,-0.034899829271808264
1772623306222890500,8.691890380859375,-0.7477876213043928,-0.6734978117346763,0.10596231082547455
1772623306232920600,8.701920654296876,-0.8663830210685729,-0.7620455714985728,0.185594175542891
1772623306242949600,8.71194970703125,-1.0097539656490087,-0.7099959430485964,0.2270228951267898
1772623306252979500,8.7219794921875,-1.1432219403743744,-0.6046998775795102,0.1324491165390238
1772623306263009500,8.732009521484375,-1.3916846600234507,-0.4329790368273854,-0.05980510141495615
1772623306273039400,8.742039306640624,-1.7614800954461096,-0.2378749824002385,-0.29945567865297196
1772623306283069400,8.7520693359375,-1.974427849599719,-0.027983693207800385,-0.5706694150207564
1772623306293098500,8.762098388671875,-1.987450997301936,0.24561463674157857,-0.7612534712728113
1772623306303128600,8.772128662109376,-1.853515405064821,0.5273430816546082,-0.8416724312473088
1772623306313158400,8.782158447265624,-1.4674433731019496,0.721210872285068,-0.7620650799166411
1772623306323188200,8.792188232421875,-0.9855360547155141,0.855778624945879,-0.5845250680243597
1772623306333217300,8.80221728515625,-0.5326712909400463,0.9730550510659813,-0.38545631121732293
1772623306343247400,8.812247314453124,-0.08913608104586601,1.0780807751610875,-0.2372175048721954
1772623306353277400,8.82227734375,0.40105098990797994,1.1401476474955676,-0.15177308141849935
1772623306363307500,8.8323076171875,0.8007523187726736,1.1032859435662628,-0.009875497326254845
1772623306373337300,8.84233740234375,1.0813766018360853,0.9464391390800475,0.14274441017992795
1772623306383366400,8.852366455078124,1.2747908034801483,0.7580836821302771,0.2005062057316303
1772623306393396500,8.862396484375,1.4030010038077831,0.637466421149671,0.20137166345454752
1772623306403426300,8.87242626953125,1.3557073377132416,0.6063067282542586,0.19286971950381993
1772623306413456400,8.882456298828124,1.231058629259467,0.5711398455440998,0.19002127127014098
1772623306423485200,8.892485107421875,1.0634452238261698,0.5078422623708844,0.18167510240301488
1772623306433515300,8.902515380859375,0.8542793262988329,0.4911000941455364,0.15761384333595632
1772623306443545300,8.91254541015625,0.6184539699047803,0.5589838360652327,0.007788023527711629
1772623306453575400,8.922575439453125,0.4237351154029369,0.6203825998798013,-0.18456402877755462
1772623306463605500,8.93260546875,0.26058921077251435,0.6673650080680846,-0.2937662348397076
1772623306473634600,8.942634521484376,0.1829354777276516,0.7404524561107159,-0.36508711160123347
1772623306483664400,8.952664306640624,0.2009165400981903,0.8471934596911073,-0.32544253548774865
1772623306493694200,8.962694091796875,0.27528467560112474,0.91312548302114,-0.21816190860532222
1772623306503724300,8.972724365234376,0.3856190274983644,0.9095730512365698,-0.10825323477424681
1772623306513753300,8.98275341796875,0.5366705897092819,0.8533458448410034,-0.010805983109399675
1772623306523783400,8.992783447265625,0.7662175964862108,0.7772615530699492,0.08513641695044934
1772623306533813500,9.0028134765625,1.0514648631751538,0.703215489128232,0.15219072230868042
1772623306543843300,9.01284326171875,1.3021709778368473,0.593032820661366,0.1829989714179188
1772623306553873400,9.022873291015625,1.51511230224967,0.3978212142065167,0.1785886076297611
1772623306563902500,9.03290234375,1.6456594210922717,0.1411860017567873,0.17672179084457457
1772623306573932300,9.042932373046876,1.6916694771170615,-0.08322861056774854,0.16965126793645322
1772623306583962400,9.05296240234375,1.6804454877912998,-0.2625400525793433,0.15099464439190924
1772623306593992400,9.062992431640625,1.639062507045269,-0.4023161875382065,0.13553732834532856
1772623306604021200,9.073021240234375,1.5449702648967503,-0.4912675596669316,0.1389839616678655
1772623306614051300,9.08305126953125,1.494651113501191,-0.5364662993088364,0.13951814160980283
1772623306624081400,9.093081298828125,1.4811936660349367,-0.5567036161735653,0.07927790018059312
1772623306634111500,9.103111572265625,1.4083838658899068,-0.5678749985292554,-0.006405336997658014
1772623306644141300,9.113141357421876,1.2944552888929843,-0.619771189983189,-0.07717712850905954
1772623306654170400,9.12317041015625,1.2098533441454171,-0.7143374793842434,-0.11617650205418467
1772623306664200200,9.1332001953125,1.1324228984624147,-0.7665463900491595,-0.13177417641952632
1772623306674230300,9.143230224609376,1.0718149927645921,-0.8181915293514728,-0.07752141190208495
1772623306684260400,9.15326025390625,0.9855237797558307,-0.8463125852033495,0.05333250786736607
1772623306694289400,9.163289306640625,0.9109054688841104,-0.8146534183531999,0.1041075132716447
1772623306704319500,9.173319580078125,0.8723270241647958,-0.7461290404424071,0.1338620155442506
1772623306714349300,9.183349365234376,0.8486924660772085,-0.7136255317226052,0.15613682958595454
1772623306724379400,9.19337939453125,0.7904746703863144,-0.7243959320619702,0.18992687098495661
1772623306734409200,9.2034091796875,0.73143679048419,-0.7654983423009515,0.25415683963745833
1772623306744438500,9.2134384765625,0.6657382836490869,-0.8431459378659725,0.32885238046385346
1772623306754468400,9.22346826171875,0.5817576856702565,-0.9437254962071776,0.4362532361924648
1772623306764498400,9.23349853515625,0.4536076910972595,-1.0922194828897713,0.5310881134018302
1772623306774528300,9.2435283203125,0.2527612936258316,-1.2216405203118919,0.6344409358486532
1772623306784558300,9.253558349609374,-0.004863806644082069,-1.3537453899905085,0.7192688713718205
1772623306794587400,9.26358740234375,-0.3455453757852316,-1.4652993468105793,0.7360201727516948
1772623306804617500,9.273617431640625,-0.7427700854033231,-1.5225556039929389,0.6568329465292394
1772623306814647600,9.2836474609375,-1.1777899804085492,-1.5336302479758859,0.542750530677475
1772623306824677400,9.293677490234375,-1.533963717713952,-1.4815189524665473,0.4298104897938668
1772623306834706400,9.30370654296875,-1.8525807545632123,-1.352489252449572,0.30627259212620556
1772623306844736300,9.313736328125,-2.1064771896988153,-1.1748574340879916,0.206147937945649
1772623306854766300,9.323766357421874,-2.1955063032388686,-0.9936083020120858,0.11340594136230647
1772623306864796400,9.33379638671875,-2.146802770346403,-0.8905667374715208,0.052035344196297226
1772623306874825500,9.343825439453125,-2.0506956812441346,-0.8129846083581447,0.050689975735638285
1772623306884855300,9.353855224609376,-1.9197738838702438,-0.7542644161030649,0.16262991793230175
1772623306894885400,9.363885498046875,-1.700986171516776,-0.6552753418236971,0.25814284053370357
1772623306904915500,9.37391552734375,-1.42467799808681,-0.48087154559791084,0.2502958716266788
1772623306914945300,9.3839453125,-1.158928043550253,-0.33890433033555745,0.21490893469136207
1772623306924974300,9.393974365234374,-0.901364902600646,-0.34265257695317264,0.21909641297645865
1772623306935004400,9.40400439453125,-0.7365782450258731,-0.4643833521336317,0.2670496389582753
1772623306945034200,9.4140341796875,-0.6638754123866558,-0.6463698585733771,0.33660303112324325
1772623306955064300,9.424064208984374,-0.6524106000423431,-0.7564280238777399,0.373341948923096
1772623306965094400,9.434094482421875,-0.6531757391959429,-0.7147323239207267,0.2712464330609888
1772623306975123500,9.44412353515625,-0.7368032859534025,-0.4731164014264941,-0.038770368828531354
1772623306985153500,9.454153564453126,-0.9665098672062158,-0.12607727995216847,-0.49308111189492043
1772623306995183400,9.464183349609375,-1.2439490904927253,0.2041536223232746,-0.9027887979239225
1772623307005213400,9.47421337890625,-1.3309604344695807,0.3823129716902971,-1.0315681764416396
1772623307015242200,9.4842421875,-1.2305869200944899,0.4516550957247615,-0.8777844858530909
1772623307025272300,9.494272216796874,-0.9572083703756332,0.592227057236433,-0.6489758032880724
1772623307035302400,9.504302490234375,-0.6388543683767318,0.8296785535275936,-0.371381718233414
1772623307045332500,9.51433251953125,-0.3011754881829023,1.0303291361659765,-0.2201967571674846
1772623307055362600,9.524362548828124,0.005261866050958633,1.2638190353497862,-0.2500270646226592
1772623307065391400,9.534391357421875,0.27379356026053425,1.4966323504462837,-0.36910719743017106
1772623307075421400,9.54442138671875,0.5377566313803196,1.638616809104383,-0.43249980194307863
1772623307085451300,9.554451171875,0.7993973970323801,1.6951780697599053,-0.41806678744293746
1772623307095481300,9.5644814453125,1.0426607944726944,1.6599515658169983,-0.4236586891658604
1772623307105510400,9.574510498046875,1.238617666336894,1.5483283431529997,-0.49267731686700134
1772623307115540200,9.584540283203125,1.351025317376852,1.3967378517597913,-0.5554917196331546
1772623307125570300,9.5945703125,1.3186761224359274,1.2033221888110042,-0.576707270412892
1772623307135600400,9.604600341796875,1.3377297824740408,0.9854124283358454,-0.5481224695067852
1772623307145630500,9.61463037109375,1.304592067503929,0.7748235122680663,-0.5283714748542756
1772623307155659500,9.624659423828126,1.2136007139801979,0.5546756174772978,-0.5370013925662264
1772623307165689300,9.634689453125,1.16516255402565,0.34729718788862224,-0.5411765958916396
1772623307175719400,9.644719482421875,1.1826315752208232,0.23823066397011278,-0.5191699677994475
1772623307185749200,9.654749267578126,1.2527221795350312,0.27099370040893556,-0.47978608844876286
1772623307195778300,9.6647783203125,1.315123982912302,0.3672720544248819,-0.40270083947423846
1772623307205808400,9.674808349609375,1.4245020569980145,0.4268503248140216,-0.3451208667628467
1772623307215838500,9.68483837890625,1.5421803419172764,0.4928104051947593,-0.2576510384287685
1772623307225868500,9.69486865234375,1.559708399823308,0.5293728339165449,-0.17580390881467609
1772623307235898400,9.7048984375,1.5410527991920708,0.5033148480743169,-0.12469722377061843
1772623307245927400,9.714927490234375,1.5171014302402734,0.48026890352964396,-0.10934490246847271
1772623307255957200,9.724957275390626,1.4486387193888426,0.4579433822140097,-0.11978040829766541
1772623307265987300,9.7349873046875,1.3505442558616398,0.38767011480927466,-0.1410698645638302
1772623307276017400,9.745017333984375,1.3033020276933909,0.2937932689771056,-0.1543260173043236
1772623307286046500,9.75504638671875,1.2972329369127749,0.21372633731067178,-0.17144995138887315
1772623307296076500,9.76507666015625,1.265693889310956,0.12096359020024537,-0.20001082343012094
1772623307306106600,9.775106689453125,1.1852835510343314,-0.04174012362062931,-0.2954458219571039
1772623307316136700,9.78513671875,1.0792647242486477,-0.21245646350532768,-0.38910380087420343
1772623307326166300,9.795166259765624,0.9675807113081216,-0.3568155423402786,-0.45554969201050693
1772623307336195600,9.805195556640625,0.9009797026753426,-0.45917146270424125,-0.5126439270315691
1772623307346225400,9.815225341796875,0.8070815217941999,-0.5249819054812193,-0.5347025410393252
1772623307356255500,9.82525537109375,0.7352782683432102,-0.5635130039274692,-0.5311089004615321
1772623307366285600,9.83528564453125,0.6641016223579644,-0.595403056924045,-0.5177334321903064
1772623307376314400,9.845314453125,0.5880149924993515,-0.6361088690608739,-0.5519314698683098
1772623307386344400,9.855344482421875,0.593144756603241,-0.6811179313495754,-0.5720597003353759
1772623307396374500,9.86537451171875,0.7180763736516237,-0.6751578539013863,-0.5231398578111082
1772623307406404600,9.875404541015625,0.9414970065027475,-0.6090393680885434,-0.548037129310891
1772623307416434400,9.885434326171875,1.514202201667428,-0.4575745489016175,-0.605934314745292
1772623307426463500,9.89546337890625,1.3293635206669567,-0.4370037622988224,-0.19005462555047123
1772623307436493300,9.905493408203125,0.5663052649945021,-0.8498778764694929,0.28098825753759593
1772623307446523400,9.9155234375,0.5613777454644441,-1.2349600206121802,0.24279895826634018
1772623307456553500,9.925553466796876,0.4956126031339168,-1.0597548448756338,-0.21245167773235588
1772623307466582500,9.93558251953125,0.2918897734433412,-0.7441030875727533,-0.4232175943348557
1772623307476612600,9.945612548828125,0.13274550566971302,-0.8218538512513041,-0.3661513798318803
1772623307486642700,9.955642578125,-0.14817629903554916,-1.0187287147432564,-0.2823520932367071
1772623307496672500,9.965672607421874,-0.4293611385911703,-1.0444424171924591,-0.2693299319151789
1772623307506702300,9.975702392578125,-0.7108242105662822,-0.9732996734768151,-0.2603430905243382
1772623307516731400,9.9857314453125,-1.1360633007913827,-0.92437168417871,-0.26805472434759137
1772623307526761500,9.995761474609376,-1.6601725150912998,-0.9826999545067548,-0.10703578527588396
1772623307536791600,10.00579150390625,-2.0296838728755713,-1.069747246579826,0.06183178493697196
1772623307546821600,10.015821533203125,-1.9235662618905305,-0.8620806476995349,0.07792710662614553
1772623307556851500,10.0258515625,-0.9206453571319579,-0.009705985978245735,-0.13560096816606818
