time,seconds_elapsed,z,y,x
1772623297607322400,0.076322265625,0.02160300500690937,-0.6286376118659973,-0.43739086389541626
1772623297617352400,0.0863525390625,-0.09153446555137634,-0.7640771865844727,-0.48889636993408203
1772623297627382500,0.096382568359375,-0.19057220220565796,-0.7869887351989746,-0.5168516039848328
1772623297637412600,0.10641259765625,-0.28960344195365906,-0.6681805849075317,-0.492695152759552
1772623297647442700,0.116442626953125,-0.3564983308315277,-0.3955749273300171,-0.40931299328804016
1772623297657471500,0.126471435546875,-0.3544597029685974,-0.010980645194649696,-0.28899723291397095
1772623297667501600,0.13650146484375,-0.25234127044677734,0.468757301568985,-0.18275265395641327
1772623297677531400,0.146531494140625,-0.06473222374916077,0.9326496124267578,-0.10108789056539536
1772623297687561500,0.1565615234375,0.2169642448425293,1.2754826545715332,-0.08709142357110977
1772623297697590500,0.166590576171875,0.5202319622039795,1.475609302520752,-0.14926503598690033
1772623297707620600,0.17662060546875,0.7658140063285828,1.4767158031463623,-0.17052441835403442
1772623297717650400,0.186650390625,0.9753432273864746,1.3034803867340088,-0.19225022196769714
1772623297727680500,0.196680419921875,1.092722773551941,0.9865934252738953,-0.14374125003814697
1772623297737709600,0.20670947265625,1.1449670791625977,0.5354169011116028,-0.07335842400789261
1772623297747739600,0.21673974609375,1.1634018421173096,0.08383625745773315,-0.03755636140704155
1772623297757769500,0.22676953125,1.1196357011795044,-0.30133354663848877,-0.012135157361626625
1772623297767799600,0.236799560546875,0.988370418548584,-0.6209535598754883,0.03273778408765793
1772623297777828400,0.246828369140625,0.7760323286056519,-0.853117823600769,0.10234322398900986
1772623297787858400,0.2568583984375,0.5253686308860779,-1.0053715705871582,0.1791178286075592
1772623297797888500,0.266888427734375,0.26065176725387573,-1.0397441387176514,0.2517062723636627
1772623297807918600,0.276918701171875,0.019678790122270584,-0.8980243802070618,0.30675604939460754
1772623297817947400,0.286947509765625,-0.16678988933563232,-0.6236855387687683,0.30013781785964966
1772623297827977500,0.2969775390625,-0.28529930114746094,-0.2731872797012329,0.22857151925563812
1772623297838007600,0.307007568359375,-0.33097225427627563,0.05220042169094086,0.10600725561380386
1772623297848037400,0.317037353515625,-0.3223721385002136,0.31018558144569397,-0.07127512246370316
1772623297858066400,0.32706640625,-0.3213569223880768,0.5165120959281921,-0.2821308970451355
1772623297868096500,0.337096435546875,-0.3455353081226349,0.7130478620529175,-0.4849623441696167
1772623297878126600,0.347126708984375,-0.36380088329315186,0.8974467515945435,-0.6502330899238586
1772623297888156400,0.357156494140625,-0.32822757959365845,0.9722200632095337,-0.7648402452468872
1772623297898185500,0.367185546875,-0.24692846834659576,0.9121702909469604,-0.8222545385360718
1772623297908215600,0.377215576171875,-0.15037089586257935,0.7899001836776733,-0.8499329090118408
1772623297918245600,0.38724560546875,-0.06408926844596863,0.6091945767402649,-0.8706057071685791
1772623297928275700,0.397275634765625,0.018248282372951508,0.49259042739868164,-0.9593827128410339
1772623297938304500,0.407304443359375,0.013463915325701237,0.7392103672027588,-1.3057233095169067
1772623297948334300,0.417334228515625,0.03202866017818451,0.4596547782421112,-1.154926061630249
1772623297958364400,0.427364501953125,0.02704136073589325,0.24310144782066345,-1.1483312845230103
1772623297968394500,0.43739453125,-0.020676665008068085,0.06563965231180191,-1.1383107900619507
1772623297978423600,0.447423583984375,-0.07606855034828186,-0.06363631039857864,-1.0661617517471313
1772623297988453400,0.457453369140625,-0.12877193093299866,-0.22280366718769073,-1.0153676271438599
1772623297998483500,0.4674833984375,-0.1695217788219452,-0.4328128397464752,-1.0080921649932861
1772623298008513500,0.477513427734375,-0.30702701210975647,-0.4100933074951172,-1.0169132947921753
1772623298018542600,0.48754248046875,-0.3752058148384094,-0.2866957485675812,-1.0398647785186768
1772623298028572700,0.49757275390625,-0.35653504729270935,-0.19429422914981842,-1.0188227891921997
1772623298038602500,0.5076025390625,-0.3498353362083435,-0.1649368852376938,-0.9845691323280334
1772623298048632600,0.517632568359375,-0.363347589969635,-0.1979941427707672,-0.9458595514297485
1772623298058661400,0.527661376953125,-0.3653619885444641,-0.2763558030128479,-0.8734197020530701
1772623298068691500,0.53769140625,-0.35807332396507263,-0.34277451038360596,-0.782452404499054
1772623298078721500,0.547721435546875,-0.32412734627723694,-0.36974114179611206,-0.6722270846366882
1772623298088751600,0.557751708984375,-0.25890180468559265,-0.384309858083725,-0.5662902593612671
1772623298098780400,0.567780517578125,-0.16447971761226654,-0.4177255928516388,-0.4640238285064697
1772623298108810500,0.577810546875,-0.06642059981822968,-0.4399348199367523,-0.345885694026947
1772623298118840600,0.587840576171875,-0.006081093102693558,-0.39796340465545654,-0.2018880397081375
1772623298128870400,0.597870361328125,0.01610814779996872,-0.24364492297172546,-0.011075865477323532
1772623298138899500,0.6078994140625,-0.01589958742260933,-0.13470086455345154,0.1982286125421524
1772623298148929500,0.617929443359375,-0.08988054096698761,-0.0641016885638237,0.4128923714160919
1772623298158959400,0.62795947265625,-0.17750227451324463,-0.013540772721171379,0.5940861105918884
1772623298168989400,0.637989501953125,-0.2643688917160034,-0.01753164641559124,0.7292987704277039
1772623298179018500,0.6480185546875,-0.3461923897266388,-0.04249931499361992,0.8142064809799194
1772623298189048600,0.658048583984375,-0.4184584319591522,-0.06547186523675919,0.8631646633148193
1772623298199078700,0.66807861328125,-0.4674036204814911,-0.02651088498532772,0.9032641053199768
1772623298209108500,0.6781083984375,-0.4697241187095642,0.12811076641082764,0.9426682591438293
1772623298219137500,0.688137451171875,-0.4224010705947876,0.40612801909446716,0.980276346206665
1772623298229167400,0.69816748046875,-0.32016080617904663,0.7346809506416321,0.9892853498458862
1772623298239197400,0.708197509765625,-0.16794997453689575,0.9475117325782776,0.9418019652366638
1772623298249227500,0.7182275390625,-0.0003119679167866707,0.9357457160949707,0.8305132985115051
1772623298259256600,0.728256591796875,0.14740771055221558,0.8532348871231079,0.6611114740371704
1772623298269287400,0.738287353515625,0.28183314204216003,0.8025223612785339,0.481061190366745
1772623298279317500,0.7483173828125,0.39025309681892395,0.7556602954864502,0.2892523407936096
1772623298289347300,0.758347412109375,0.46725544333457947,0.6539318561553955,0.09096401184797287
1772623298299376400,0.76837646484375,0.5316661596298218,0.4477546811103821,-0.13913923501968384
1772623298309406500,0.778406494140625,0.5778519511222839,0.1459520012140274,-0.37912774085998535
1772623298319436300,0.788436279296875,0.5778559446334839,-0.22310912609100342,-0.583200991153717
1772623298329466400,0.79846630859375,0.49054279923439026,-0.6232197284698486,-0.6809646487236023
1772623298339496400,0.808496337890625,0.3002559244632721,-0.961151123046875,-0.6234070658683777
1772623298349525500,0.818525390625,0.08897998183965683,-1.130471110343933,-0.43220970034599304
1772623298359555600,0.8285556640625,-0.07412158697843552,-1.1109224557876587,-0.14468790590763092
1772623298369585400,0.83858544921875,-0.1339508444070816,-0.9558702707290649,0.18088985979557037
1772623298379614500,0.848614501953125,-0.08582326024770737,-0.6697295904159546,0.4900597035884857
1772623298389644300,0.858644287109375,0.05497192591428757,-0.30566805601119995,0.7366604208946228
1772623298399674400,0.86867431640625,0.2524107098579407,0.04213201627135277,0.8789333701133728
1772623298409704400,0.878704345703125,0.45599156618118286,0.27729928493499756,0.9055435061454773
1772623298419733500,0.8887333984375,0.6568865776062012,0.4051823914051056,0.8366150259971619
1772623298429763300,0.898763427734375,0.8586485981941223,0.4154195487499237,0.7170184850692749
1772623298439793400,0.90879345703125,1.0375456809997559,0.3358117938041687,0.5863688588142395
1772623298449823500,0.918823486328125,1.148751974105835,0.22417131066322327,0.48178210854530334
1772623298459852500,0.9288525390625,1.14951753616333,0.12035489827394485,0.4200931787490845
1772623298469882400,0.93888232421875,1.0565640926361084,0.05989346653223038,0.3823743462562561
1772623298479912400,0.948912353515625,0.9160365462303162,0.020646460354328156,0.35701653361320496
1772623298489942300,0.9589423828125,0.7782772183418274,-0.015816975384950638,0.31574609875679016
1772623298499972400,0.968972412109375,0.662636935710907,-0.04199105501174927,0.25838321447372437
1772623298510001400,0.97900146484375,0.5663930177688599,-0.05515701323747635,0.18806695938110352
1772623298520031500,0.989031494140625,0.463008850812912,-0.07301190495491028,0.11167098581790924
1772623298530061600,0.9990615234375,0.3531298339366913,-0.08861958980560303,0.032186057418584824
1772623298540091400,1.00909130859375,0.2299780696630478,-0.10879490524530411,-0.04370604455471039
1772623298550120400,1.019120361328125,0.10380663722753525,-0.10422726720571518,-0.12631680071353912
1772623298560150300,1.029150390625,-0.019642863422632217,-0.09864554554224014,-0.21256113052368164
1772623298570180400,1.039180419921875,-0.14641468226909637,-0.0832761600613594,-0.3120267987251282
1772623298580210400,1.04921044921875,-0.26879945397377014,-0.06229018792510033,-0.4080585241317749
1772623298590239500,1.059239501953125,-0.3552939295768738,-0.010798062197864056,-0.5100341439247131
1772623298600269300,1.069269287109375,-0.3906782865524292,0.06635158509016037,-0.596856415271759
1772623298610299400,1.07929931640625,-0.4091211259365082,0.11696695536375046,-0.7002978324890137
1772623298620329500,1.08932958984375,-0.4207295775413513,0.11332269757986069,-0.8215001821517944
1772623298630358500,1.099358642578125,-0.3451000154018402,0.0702645406126976,-0.874625563621521
1772623298640388600,1.109388671875,-0.21611326932907104,0.07102354615926743,-0.8801998496055603
1772623298650418400,1.11941845703125,-0.06967566162347794,0.09486701339483261,-0.8565134406089783
1772623298660448300,1.1294482421875,0.0386982187628746,0.06479299813508987,-0.8323497772216797
1772623298670477300,1.139477294921875,0.10687196999788284,-0.009946450591087341,-0.8166010975837708
1772623298680507400,1.14950732421875,0.13373342156410217,-0.11528246104717255,-0.8037737011909485
1772623298690537500,1.159537353515625,0.11510991305112839,-0.23387742042541504,-0.8058843016624451
1772623298700567600,1.169567626953125,0.058343831449747086,-0.34032556414604187,-0.8333974480628967
1772623298710596400,1.179596435546875,-0.011303783394396305,-0.39591267704963684,-0.877146303653717
1772623298720626400,1.18962646484375,-0.06040501594543457,-0.38832801580429077,-0.9259068965911865
1772623298730656500,1.199656494140625,-0.0880361869931221,-0.33329570293426514,-0.9796835780143738
1772623298740686300,1.209686279296875,-0.10988582670688629,-0.2577711045742035,-1.0473217964172363
1772623298750715400,1.21971533203125,-0.1274980902671814,-0.16095350682735443,-1.1294889450073242
1772623298760745500,1.229745361328125,-0.14485284686088562,-0.035446181893348694,-1.198544979095459
1772623298770775300,1.239775390625,-0.1570960432291031,0.10263832658529282,-1.260299801826477
1772623298780805400,1.249805419921875,-0.15117131173610687,0.21875135600566864,-1.3275760412216187
1772623298790834400,1.25983447265625,-0.09519324451684952,0.28219032287597656,-1.3627965450286865
1772623298800864500,1.269864501953125,0.052254002541303635,0.36363139748573303,-1.3176791667938232
1772623298810894600,1.27989453125,0.29730936884880066,0.4917270541191101,-1.1589758396148682
1772623298820924400,1.28992431640625,0.5721395611763,0.5299268960952759,-0.9323933720588684
1772623298830953500,1.299953369140625,0.8308282494544983,0.4497602880001068,-0.6726396679878235
1772623298840983300,1.3099833984375,1.0138510465621948,0.3885773718357086,-0.38017478585243225
1772623298851013400,1.320013427734375,1.1143248081207275,0.3942362070083618,-0.07785793393850327
1772623298861043500,1.33004345703125,1.1428970098495483,0.40516820549964905,0.17141686379909515
1772623298871072500,1.340072509765625,1.1301004886627197,0.35740697383880615,0.3401501774787903
1772623298881102300,1.350102294921875,1.0961021184921265,0.31864359974861145,0.4406411051750183
1772623298891132400,1.36013232421875,1.053878903388977,0.3246542811393738,0.4784944951534271
1772623298901162500,1.37016259765625,0.9878934621810913,0.33401796221733093,0.4433245062828064
1772623298911191600,1.380191650390625,0.8980534076690674,0.32960861921310425,0.37085455656051636
1772623298921221400,1.390221435546875,0.7846722602844238,0.34871387481689453,0.2882097363471985
1772623298931251500,1.40025146484375,0.6716306805610657,0.39921918511390686,0.2385069876909256
1772623298941281300,1.41028125,0.5761840343475342,0.43698787689208984,0.22264839708805084
1772623298951311400,1.420311279296875,0.5201928615570068,0.4638165235519409,0.24037408828735352
1772623298961340400,1.43034033203125,0.48503434658050537,0.4923895597457886,0.28025972843170166
1772623298971370500,1.44037060546875,0.48792004585266113,0.5260728001594543,0.3382793664932251
1772623298981400600,1.450400634765625,0.5188044905662537,0.5329434871673584,0.3968116343021393
1772623298991430400,1.460430419921875,0.5445600748062134,0.45285946130752563,0.45435240864753723
1772623299001459500,1.47045947265625,0.5399072766304016,0.321402907371521,0.49611127376556396
1772623299011489300,1.4804892578125,0.5391044616699219,0.19469542801380157,0.5079491138458252
1772623299021519400,1.490519287109375,0.5641980767250061,0.07848545908927917,0.4859897792339325
1772623299031549400,1.500549560546875,0.6057327389717102,-0.09699772298336029,0.4096857011318207
1772623299041578500,1.51057861328125,0.6717585921287537,-0.3789540231227875,0.27897217869758606
1772623299051608300,1.5206083984375,0.7548238635063171,-0.7707433700561523,0.10993984341621399
1772623299061638400,1.530638427734375,0.7444226145744324,-1.2339019775390625,-0.061578646302223206
1772623299071668500,1.54066845703125,0.5744773149490356,-1.7353440523147583,-0.18862804770469666
1772623299081697500,1.550697509765625,0.22622667253017426,-2.104398488998413,-0.2123190015554428
1772623299091727600,1.5607275390625,-0.20789089798927307,-2.193587303161621,-0.1351393610239029
1772623299101757400,1.57075732421875,-0.5987598896026611,-2.0302681922912598,0.02758297510445118
1772623299111787300,1.580787353515625,-0.8500428199768066,-1.7079715728759766,0.24488238990306854
1772623299121816300,1.59081640625,-0.9153962731361389,-1.2778301239013672,0.4813050627708435
1772623299131846400,1.600846435546875,-0.8059996962547302,-0.7722209095954895,0.7015407681465149
1772623299141876500,1.61087646484375,-0.5719012022018433,-0.23818837106227875,0.8670993447303772
1772623299151906600,1.620906494140625,-0.2699443995952606,0.23620887100696564,0.9326279759407043
1772623299161935400,1.630935302734375,0.03641900420188904,0.5682390332221985,0.8984383344650269
1772623299171965400,1.64096533203125,0.32149264216423035,0.7490296959877014,0.783058226108551
1772623299181995300,1.650995361328125,0.5450589060783386,0.8365616798400879,0.64677894115448
1772623299192025300,1.661025390625,0.6713016629219055,0.8225865960121155,0.5120242834091187
1772623299202054400,1.671054443359375,0.6774085760116577,0.7164316177368164,0.39240655303001404
1772623299212084500,1.68108447265625,0.5848881006240845,0.54264235496521,0.2910313308238983
1772623299222114300,1.6911142578125,0.41010618209838867,0.2959599196910858,0.19397269189357758
1772623299232144400,1.701144287109375,0.19880416989326477,0.018937774002552032,0.11039929836988449
1772623299242173400,1.71117333984375,-0.008452891372144222,-0.24283525347709656,0.04672311246395111
1772623299252203500,1.72120361328125,-0.18145723640918732,-0.45397260785102844,-0.009365961886942387
1772623299262233600,1.731233642578125,-0.3054707944393158,-0.5974112749099731,-0.05864429473876953
1772623299272266800,1.741266845703125,-0.37297090888023376,-0.6500565409660339,-0.10627008229494095
1772623299282295800,1.7512958984375,-0.3943329155445099,-0.6321542263031006,-0.15173344314098358
1772623299292325600,1.76132568359375,-0.38560524582862854,-0.5688871741294861,-0.19415394961833954
1772623299302355500,1.77135546875,-0.3765433132648468,-0.5108805894851685,-0.24379047751426697
1772623299312385500,1.781385498046875,-0.3906223177909851,-0.4691559374332428,-0.28109559416770935
1772623299322415600,1.79141552734375,-0.4260314404964447,-0.4779680669307709,-0.2918590307235718
1772623299332444700,1.801444580078125,-0.45546138286590576,-0.451381653547287,-0.24267379939556122
1772623299342474800,1.811474853515625,-0.47302359342575073,-0.386004775762558,-0.1544579267501831
1772623299352504800,1.8215048828125,-0.4685172438621521,-0.2944500744342804,-0.05304373800754547
1772623299362534400,1.831534423828125,-0.41801467537879944,-0.16083845496177673,0.032263435423374176
1772623299372563700,1.841563720703125,-0.3169798254966736,-0.05033478885889053,0.05745812505483627
1772623299382593500,1.851593505859375,-0.1806456744670868,0.02202649414539337,0.03426731750369072
1772623299392623600,1.86162353515625,-0.0607808418571949,0.0877591073513031,-0.012015121057629585
1772623299402653700,1.87165380859375,0.012535981833934784,0.14867357909679413,-0.06042419746518135
1772623299412682500,1.8816826171875,0.054296426475048065,0.20569132268428802,-0.10378247499465942
1772623299422712600,1.891712646484375,0.07326772063970566,0.22854070365428925,-0.14119669795036316
1772623299432742700,1.90174267578125,0.06845027953386307,0.2350153625011444,-0.15181061625480652
1772623299442772700,1.911772705078125,0.05666046962141991,0.2432975322008133,-0.14370395243167877
1772623299452801800,1.9218017578125,0.04262680187821388,0.2487693727016449,-0.13588717579841614
1772623299462831600,1.93183154296875,0.029395155608654022,0.2535417377948761,-0.13235503435134888
1772623299472861400,1.941861328125,0.01586006209254265,0.26312342286109924,-0.1148754209280014
1772623299482891500,1.9518916015625,0.015589751303195953,0.30731645226478577,-0.08519609272480011
1772623299492920600,1.961920654296875,0.030651550740003586,0.3672224283218384,-0.040021609514951706
1772623299502950700,1.97195068359375,0.05628900229930878,0.43996214866638184,0.01971069723367691
1772623299512980700,1.981980712890625,0.08834204077720642,0.5113652944564819,0.0823507234454155
1772623299523010800,1.9920107421875,0.10347279161214828,0.5654050707817078,0.15055426955223083
1772623299533039600,2.00203955078125,0.10990635305643082,0.6132859587669373,0.2367599606513977
1772623299543069700,2.012069580078125,0.0988856628537178,0.6015105247497559,0.33342549204826355
1772623299553099500,2.022099609375,0.0712275356054306,0.564333438873291,0.4295271337032318
1772623299563129600,2.032129638671875,0.041385482996702194,0.4879196286201477,0.5039081573486328
1772623299573158700,2.04215869140625,0.005230293609201908,0.3674503266811371,0.5324527025222778
1772623299583188500,2.0521884765625,-0.029121555387973785,0.24132594466209412,0.5172803997993469
1772623299593218600,2.062218505859375,-0.0677003338932991,0.11643175780773163,0.468426913022995
1772623299603248600,2.07224853515625,-0.12711839377880096,0.027291763573884964,0.408017635345459
1772623299613277700,2.082277587890625,-0.18345429003238678,-0.045983199030160904,0.31354060769081116
1772623299623307800,2.092307861328125,-0.2416406273841858,-0.09493289887905121,0.19460996985435486
1772623299633337900,2.102337890625,-0.28141358494758606,-0.08294571191072464,0.0647529810667038
1772623299643367400,2.112367431640625,-0.2981933653354645,-0.00911116972565651,-0.05273263901472092
1772623299653396500,2.122396484375,-0.3019639849662781,0.10232916474342346,-0.14045242965221405
1772623299663426600,2.132426513671875,-0.2893315553665161,0.22206515073776245,-0.1993626207113266
1772623299673456600,2.14245654296875,-0.26211032271385193,0.2993263900279999,-0.22244690358638763
1772623299683486700,2.15248681640625,-0.22964823246002197,0.31985777616500854,-0.22973383963108063
1772623299693516800,2.162516845703125,-0.18444284796714783,0.2781621217727661,-0.23822720348834991
1772623299703545600,2.172545654296875,-0.12734228372573853,0.19672264158725739,-0.2772981822490692
1772623299713575700,2.18257568359375,-0.07102634757757187,0.07651105523109436,-0.36030113697052
1772623299723605800,2.192605712890625,-0.03892140835523605,-0.08566320687532425,-0.4707448482513428
1772623299733635600,2.202635498046875,-0.07112355530261993,-0.2699972689151764,-0.5772589445114136
1772623299743664600,2.21266455078125,-0.17268532514572144,-0.4225468635559082,-0.6417577862739563
1772623299753694500,2.222694580078125,-0.322109580039978,-0.5029243230819702,-0.6466675400733948
1772623299763724500,2.232724609375,-0.4905816912651062,-0.5115590691566467,-0.5921305418014526
1772623299773754600,2.242754638671875,-0.6236110329627991,-0.45754051208496094,-0.47203388810157776
1772623299783783700,2.25278369140625,-0.6881431937217712,-0.34057313203811646,-0.2919815480709076
1772623299793813800,2.262813720703125,-0.6690829992294312,-0.18291732668876648,-0.09646919369697571
1772623299803843800,2.27284375,-0.5820543766021729,-0.02373938262462616,0.09000241011381149
1772623299813873400,2.282873291015625,-0.41719430685043335,0.13473999500274658,0.262817919254303
1772623299823902700,2.29290283203125,-0.18728813529014587,0.3043045401573181,0.4111842215061188
1772623299833932500,2.3029326171875,0.07644274085760117,0.43024373054504395,0.5222832560539246
1772623299843962600,2.312962646484375,0.32848086953163147,0.4880567193031311,0.5899571180343628
1772623299853992700,2.32299267578125,0.5401486754417419,0.5067029595375061,0.6319149136543274
1772623299864021500,2.333021484375,0.697488009929657,0.4895457327365875,0.6536955833435059
1772623299874051600,2.343051513671875,0.7823344469070435,0.43824633955955505,0.6673168540000916
1772623299884081700,2.35308154296875,0.799781084060669,0.3564460277557373,0.674826979637146
1772623299894111700,2.36311181640625,0.7541871070861816,0.2536715865135193,0.6796766519546509
1772623299904140800,2.373140869140625,0.6608590483665466,0.13867095112800598,0.671455979347229
1772623299914170600,2.383170654296875,0.53592449426651,0.005892610177397728,0.6649790406227112
1772623299924200400,2.393200439453125,0.39889344573020935,-0.12844522297382355,0.662390410900116
1772623299934230500,2.40323046875,0.26885777711868286,-0.24428346753120422,0.6505197286605835
1772623299944259600,2.413259521484375,0.13947050273418427,-0.33990639448165894,0.6226369738578796
1772623299954289700,2.42328955078125,0.02946396730840206,-0.40032997727394104,0.5708143711090088
1772623299964319700,2.43331982421875,-0.0637032613158226,-0.40415242314338684,0.5081078410148621
1772623299974349800,2.443349853515625,-0.14809861779212952,-0.3602934181690216,0.4400063753128052
1772623299984378600,2.453378662109375,-0.22284077107906342,-0.281175434589386,0.3757916986942291
1772623299994408700,2.46340869140625,-0.28307390213012695,-0.18274562060832977,0.32241642475128174
1772623300004438500,2.4734384765625,-0.32139304280281067,-0.07941576838493347,0.27714961767196655
1772623300014468600,2.483468505859375,-0.34168118238449097,0.02373567968606949,0.22865375876426697
1772623300024497700,2.49349755859375,-0.33808112144470215,0.09911245852708817,0.16650304198265076
1772623300034527500,2.503527587890625,-0.313358336687088,0.13566747307777405,0.09446334093809128
1772623300044557600,2.5135576171875,-0.28244274854660034,0.15111620724201202,0.025915706530213356
1772623300054587600,2.523587646484375,-0.2464524209499359,0.15045687556266785,-0.045577261596918106
1772623300064616700,2.53361669921875,-0.22953522205352783,0.124173603951931,-0.11780272424221039
1772623300074646800,2.543646728515625,-0.22577977180480957,0.09030395746231079,-0.18185541033744812
1772623300084676900,2.5536767578125,-0.2315838634967804,0.051947515457868576,-0.22690650820732117
1772623300094706400,2.56370654296875,-0.24182449281215668,0.015980485826730728,-0.2631317973136902
1772623300104735500,2.573735595703125,-0.2469838261604309,-0.022547196596860886,-0.2917839586734772
1772623300114765600,2.583765625,-0.2394741177558899,-0.06738486140966415,-0.3293946087360382
1772623300124795600,2.593795654296875,-0.27121156454086304,-0.11229375004768372,-0.36456695199012756
1772623300134825700,2.60382568359375,-0.3403787612915039,-0.12060612440109253,-0.3901382386684418
1772623300144855800,2.613855712890625,-0.408033162355423,-0.08387846499681473,-0.38537436723709106
1772623300154884600,2.623884521484375,-0.4560144245624542,-0.023755719885230064,-0.37411999702453613
1772623300164914700,2.633914794921875,-0.49737784266471863,0.016064129769802094,-0.36714065074920654
1772623300174944500,2.643944580078125,-0.5567318797111511,0.06252499669790268,-0.32457441091537476
1772623300184974600,2.653974609375,-0.5731254816055298,0.18599048256874084,-0.2720233201980591
1772623300195003600,2.664003662109375,-0.5508561134338379,0.26331397891044617,-0.24593667685985565
1772623300205033500,2.674033447265625,-0.4920503497123718,0.3232646584510803,-0.2237165868282318
1772623300215063600,2.6840634765625,-0.3738820552825928,0.39439868927001953,-0.19786237180233002
1772623300225093600,2.69409375,-0.22547610104084015,0.41922706365585327,-0.1811334490776062
1772623300235122700,2.704122802734375,-0.08152537047863007,0.3878970444202423,-0.17755591869354248
1772623300245152800,2.71415283203125,0.03162622079253197,0.33466070890426636,-0.17431911826133728
1772623300255182800,2.724182861328125,0.10877266526222229,0.2593127191066742,-0.18125025928020477
1772623300265212400,2.73421240234375,0.14255061745643616,0.18074893951416016,-0.19548113644123077
1772623300275238400,2.74423828125,0.12466523051261902,0.11914271116256714,-0.22563649713993073
1772623300285268200,2.754268310546875,0.0431184321641922,0.040362145751714706,-0.2721605896949768
1772623300295298300,2.76429833984375,-0.07454586774110794,-0.033068448305130005,-0.3114038109779358
1772623300305328400,2.774328369140625,-0.202015683054924,-0.061298757791519165,-0.31098249554634094
1772623300315357200,2.784357177734375,-0.3268736004829407,-0.044270336627960205,-0.24838855862617493
1772623300325387300,2.79438720703125,-0.42190930247306824,0.02563364803791046,-0.1697339564561844
1772623300335417300,2.804417236328125,-0.46874600648880005,0.11814233660697937,-0.11532248556613922
1772623300345447400,2.814447509765625,-0.47797730565071106,0.24019421637058258,-0.09950889647006989
1772623300355476200,2.824476318359375,-0.4690572917461395,0.36895105242729187,-0.12809832394123077
1772623300365506000,2.834506103515625,-0.46212881803512573,0.476161390542984,-0.22328396141529083
1772623300375536000,2.8445361328125,-0.45724907517433167,0.5460838079452515,-0.36474621295928955
1772623300385566200,2.854566162109375,-0.44300809502601624,0.5743082761764526,-0.5255135297775269
1772623300395595300,2.86459521484375,-0.42422112822532654,0.5891181230545044,-0.6728416681289673
1772623300405625300,2.874625244140625,-0.3969740569591522,0.5741303563117981,-0.7912242412567139
1772623300415655400,2.884655517578125,-0.3640865683555603,0.5027413964271545,-0.8774120211601257
1772623300425685200,2.894685302734375,-0.33730050921440125,0.3605709671974182,-0.9222322106361389
1772623300435714300,2.90471435546875,-0.33314916491508484,0.11842451989650726,-0.951525866985321
1772623300445744400,2.914744384765625,-0.36730101704597473,-0.1850607991218567,-0.9751803278923035
1772623300455774200,2.924774169921875,-0.4208758473396301,-0.4829327166080475,-0.9782044291496277
1772623300465804300,2.93480419921875,-0.48180150985717773,-0.7198347449302673,-0.9374365210533142
1772623300475834400,2.94483447265625,-0.5317825675010681,-0.8268442153930664,-0.8258842825889587
1772623300485863200,2.95486328125,-0.5654470324516296,-0.7800774574279785,-0.6444966197013855
1772623300495893200,2.964893310546875,-0.5520034432411194,-0.6195539832115173,-0.40661218762397766
1772623300505923300,2.97492333984375,-0.4833791255950928,-0.3904867172241211,-0.15483026206493378
1772623300515953400,2.984953369140625,-0.3457438051700592,-0.14532352983951569,0.08115361630916595
1772623300525982200,2.994982177734375,-0.15906207263469696,0.06058515980839729,0.25438347458839417
1772623300536012300,3.00501220703125,0.051240138709545135,0.21910777688026428,0.35425522923469543
1772623300546042000,3.0150419921875,0.2583073079586029,0.33003321290016174,0.383309006690979
1772623300556072200,3.025072265625,0.44543254375457764,0.37756699323654175,0.34260207414627075
1772623300566101200,3.035101318359375,0.60103839635849,0.36141812801361084,0.23613424599170685
1772623300576131300,3.04513134765625,0.711493968963623,0.2823297083377838,0.07770967483520508
1772623300586161200,3.0551611328125,0.7562148571014404,0.16757088899612427,-0.11772772669792175
1772623300596191200,3.065191162109375,0.7339112162590027,0.026312651112675667,-0.34106993675231934
1772623300606220300,3.07522021484375,0.6406095027923584,-0.12165524065494537,-0.5653954744338989
1772623300616250400,3.08525048828125,0.5025486350059509,-0.26509585976600647,-0.7427725791931152
1772623300626280200,3.0952802734375,0.31211233139038086,-0.4345115125179291,-0.8657286167144775
1772623300636310300,3.105310302734375,0.08577924966812134,-0.6334496736526489,-0.9225029349327087
1772623300646339000,3.115339111328125,-0.15636706352233887,-0.8743904232978821,-0.9290697574615479
1772623300656369200,3.125369140625,-0.40412747859954834,-1.1421054601669312,-0.9058175683021545
1772623300666399200,3.135399169921875,-0.6433832049369812,-1.391310453414917,-0.8512097001075745
1772623300676429300,3.14542919921875,-0.8707740902900696,-1.5471934080123901,-0.7697253823280334
1772623300686458400,3.155458251953125,-1.0414267778396606,-1.5498675107955933,-0.6708086729049683
1772623300696488200,3.16548828125,-1.123859167098999,-1.4336520433425903,-0.5718789100646973
1772623300706518300,3.175518310546875,-1.1244463920593262,-1.114777684211731,-0.4284117817878723
1772623300716548000,3.185548095703125,-1.0536733865737915,-0.8449367880821228,-0.28133833408355713
1772623300726577400,3.195577392578125,-0.884300172328949,-0.7550857067108154,-0.21449565887451172
1772623300736607200,3.205607177734375,-0.608625590801239,-0.6705085635185242,-0.19078335165977478
1772623300746637300,3.21563720703125,-0.3108160197734833,-0.555530309677124,-0.2154703140258789
1772623300756667100,3.225667236328125,-0.09601922333240509,-0.5075225830078125,-0.3212498426437378
1772623300766696200,3.2356962890625,0.019296448677778244,-0.49587470293045044,-0.46501633524894714
1772623300776726300,3.245726318359375,0.060665518045425415,-0.48531249165534973,-0.5894419550895691
1772623300786756400,3.25575634765625,0.04862430319190025,-0.5073555111885071,-0.6527165174484253
1772623300796786400,3.265786376953125,0.01543949544429779,-0.5968925952911377,-0.6426706910133362
1772623300806815200,3.275815185546875,-0.021972591057419777,-0.7166725397109985,-0.5661447644233704
1772623300816845000,3.285844970703125,-0.04111450910568237,-0.7957046031951904,-0.44113650918006897
1772623300826875100,3.295875244140625,-0.04350548982620239,-0.799910306930542,-0.3179927468299866
1772623300836905200,3.3059052734375,-0.035935357213020325,-0.7224215269088745,-0.23634180426597595
1772623300846935300,3.315935302734375,-0.02115853875875473,-0.5918883085250854,-0.19976887106895447
1772623300856964400,3.32596435546875,-0.010241340845823288,-0.43021994829177856,-0.17771998047828674
1772623300866994200,3.335994140625,-0.035844169557094574,-0.22729985415935516,-0.11463315784931183
1772623300877024300,3.346024169921875,-0.11842520534992218,-0.061136335134506226,-0.013694163411855698
1772623300887054000,3.35605419921875,-0.2338053286075592,0.0757802426815033,0.1247159093618393
1772623300897083400,3.36608349609375,-0.3766440451145172,0.21431700885295868,0.2856351137161255
1772623300907113200,3.37611328125,-0.4702959656715393,0.4054614305496216,0.46749094128608704
1772623300917143300,3.386143310546875,-0.45993781089782715,0.49832960963249207,0.5994099974632263
1772623300927173000,3.396173095703125,-0.3279659152030945,0.41996532678604126,0.6339303851127625
1772623300937202200,3.4062021484375,-0.10936352610588074,0.33142030239105225,0.6457769274711609
1772623300947232300,3.416232177734375,0.10386725515127182,0.3643774688243866,0.7199854254722595
1772623300957262300,3.426262451171875,0.2345869392156601,0.3758772611618042,0.7887594699859619
1772623300967292400,3.43629248046875,0.3073996305465698,0.2896190583705902,0.826102614402771
1772623300977321200,3.4463212890625,0.33513396978378296,0.1941513568162918,0.8678150773048401
1772623300987351300,3.456351318359375,0.3311602771282196,0.22356463968753815,0.9442992210388184
1772623300997381000,3.466381103515625,0.3021996319293976,0.29143252968788147,1.0404138565063477
1772623301007411200,3.4764111328125,0.2636820673942566,0.2994089722633362,1.1098531484603882
1772623301017440300,3.486440185546875,0.21713027358055115,0.18417209386825562,1.1112077236175537
1772623301027470300,3.49647021484375,0.13031920790672302,0.12249940633773804,0.9888273477554321
1772623301037500200,3.506500244140625,0.018574221059679985,0.19889341294765472,0.7508118152618408
1772623301047530200,3.5165302734375,-0.09851644933223724,0.5152356624603271,0.4663611948490143
1772623301057559300,3.526559326171875,-0.2413676232099533,0.724668562412262,0.3860678970813751
1772623301067589400,3.53658935546875,-0.34849196672439575,0.7630886435508728,0.33660978078842163
1772623301077619200,3.546619140625,-0.40569767355918884,0.7524442076683044,0.30828800797462463
1772623301087649300,3.556649169921875,-0.4054739773273468,0.6833620667457581,0.3206176459789276
1772623301097678000,3.566677978515625,-0.3417357802391052,0.6699472069740295,0.35050421953201294
1772623301107708200,3.576708251953125,-0.2324679046869278,0.6610994338989258,0.41890034079551697
1772623301117738200,3.58673828125,-0.06649357080459595,0.5888530611991882,0.4845992624759674
1772623301127768300,3.596768310546875,0.15177644789218903,0.53483647108078,0.5098851323127747
1772623301137797400,3.60679736328125,0.36602529883384705,0.5361867547035217,0.4603709876537323
1772623301147827200,3.6168271484375,0.5356545448303223,0.5643499493598938,0.3238890469074249
1772623301157857300,3.626857177734375,0.6427238583564758,0.5629299879074097,0.10114043951034546
1772623301167887000,3.63688720703125,0.6501620411872864,0.4865579903125763,-0.15517736971378326
1772623301177916400,3.64691650390625,0.5853967666625977,0.29190030694007874,-0.3804975152015686
1772623301187946200,3.6569462890625,0.4832933247089386,-0.009304024279117584,-0.5831558108329773
1772623301197976300,3.666976318359375,0.34956279397010803,-0.31170380115509033,-0.7114694714546204
1772623301208006100,3.677006103515625,0.17540112137794495,-0.5177522897720337,-0.7117365598678589
1772623301218036200,3.6870361328125,-0.01215135958045721,-0.5734431743621826,-0.566194474697113
1772623301228065300,3.697065185546875,-0.1615070253610611,-0.4766335189342499,-0.32973694801330566
1772623301238095400,3.707095458984375,-0.2285122126340866,-0.29596683382987976,-0.06419623643159866
1772623301248125400,3.71712548828125,-0.20580050349235535,-0.09479029476642609,0.1814577281475067
1772623301258155300,3.7271552734375,-0.1257699728012085,0.08777593821287155,0.3902547359466553
1772623301268184000,3.73718408203125,-0.0039031952619552612,0.24006347358226776,0.5420578718185425
1772623301278214400,3.74721435546875,0.14042332768440247,0.34868526458740234,0.6590536236763
1772623301288244500,3.757244384765625,0.2859056890010834,0.3875572979450226,0.7253740429878235
1772623301298274600,3.767274658203125,0.4151656925678253,0.3732396066188812,0.775393545627594
1772623301308303600,3.7773037109375,0.5184784531593323,0.34786900877952576,0.835472047328949
1772623301318333400,3.78733349609375,0.5995444655418396,0.3074035048484802,0.9166684746742249
1772623301328363500,3.797363525390625,0.6720319390296936,0.2814145088195801,1.008727788925171
1772623301338393300,3.807393310546875,0.7126968502998352,0.26173776388168335,1.08553946018219
1772623301348422400,3.81742236328125,0.7336039543151855,0.23404140770435333,1.1274720430374146
1772623301358452500,3.827452392578125,0.7495969533920288,0.1888689547777176,1.1381460428237915
1772623301368482600,3.837482666015625,0.7457742094993591,0.1311665177345276,1.1176944971084595
1772623301378512600,3.8475126953125,0.7159221172332764,0.04523169621825218,1.06709885597229
1772623301388541400,3.85754150390625,0.6525514125823975,-0.04385636746883392,0.9881143569946289
1772623301398571500,3.867571533203125,0.5671530365943909,-0.11429409682750702,0.8951186537742615
1772623301408601600,3.8776015625,0.45203742384910583,-0.16957147419452667,0.7706770896911621
1772623301418631700,3.887631591796875,0.3099766969680786,-0.21413365006446838,0.6158922910690308
1772623301428660500,3.897660400390625,0.15983110666275024,-0.2555455267429352,0.44205689430236816
1772623301438690300,3.907690185546875,0.02158256620168686,-0.27409183979034424,0.2666252851486206
1772623301448720400,3.917720458984375,-0.08691141754388809,-0.27029019594192505,0.10218201577663422
1772623301458750500,3.92775048828125,-0.15840545296669006,-0.20395474135875702,-0.01394632551819086
1772623301468779500,3.937779541015625,-0.19446492195129395,-0.08695781230926514,-0.07799401879310608
1772623301478809600,3.9478095703125,-0.17190568149089813,0.03223473206162453,-0.08701135218143463
1772623301488839400,3.95783935546875,-0.13622358441352844,0.10785945504903793,-0.09427272528409958
1772623301498869500,3.967869384765625,-0.14463311433792114,0.10175644606351852,-0.11486764997243881
1772623301508898600,3.977898681640625,-0.1908157914876938,0.15401005744934082,-0.14106303453445435
1772623301518928600,3.9879287109375,-0.22012844681739807,0.169624462723732,-0.185655415058136
1772623301528958500,3.99795849609375,-0.20733222365379333,0.15295787155628204,-0.25419774651527405
1772623301538988500,4.007988525390625,-0.1814800500869751,0.1123308390378952,-0.35418781638145447
1772623301549018600,4.0180185546875,-0.18366305530071259,0.07085982710123062,-0.46666190028190613
1772623301559047400,4.02804736328125,-0.20644119381904602,0.06663434207439423,-0.5596364140510559
1772623301569077500,4.038077392578125,-0.22734861075878143,0.10486002266407013,-0.6251288652420044
1772623301579107600,4.048107666015625,-0.21675634384155273,0.16715282201766968,-0.6622152924537659
1772623301589137700,4.0581376953125,-0.16123369336128235,0.24495548009872437,-0.6623063683509827
1772623301599166500,4.06816650390625,-0.08098634332418442,0.32708004117012024,-0.6269574165344238
1772623301609196500,4.078196533203125,0.01569971814751625,0.4017646610736847,-0.5354471802711487
1772623301619226400,4.088226318359375,0.12369562685489655,0.44868528842926025,-0.40018710494041443
1772623301629256400,4.09825634765625,0.23165325820446014,0.4213777780532837,-0.24272823333740234
1772623301639285500,4.108285400390625,0.32224345207214355,0.3509148359298706,-0.0761575847864151
1772623301649315600,4.118315673828125,0.3866506516933441,0.274824857711792,0.08026131987571716
1772623301659345400,4.128345458984375,0.4231114685535431,0.23629580438137054,0.22301259636878967
1772623301669375500,4.13837548828125,0.4499979317188263,0.21926088631153107,0.34658700227737427
1772623301679404500,4.148404541015625,0.46786144375801086,0.18925948441028595,0.4331672489643097
1772623301689434600,4.1584345703125,0.48509421944618225,0.15948240458965302,0.49382954835891724
1772623301699464400,4.16846435546875,0.49909278750419617,0.1251981258392334,0.5269986391067505
1772623301709494500,4.17849462890625,0.49735429883003235,0.10661830753087997,0.5341159701347351
1772623301719523300,4.1885234375,0.4798187017440796,0.0845164805650711,0.5272459983825684
1772623301729553400,4.198553466796875,0.43022531270980835,0.019261840730905533,0.5358056426048279
1772623301739583500,4.20858349609375,0.3547388017177582,-0.0681319609284401,0.5654500722885132
1772623301749613600,4.218613525390625,0.26293882727622986,-0.17546693980693817,0.6109986901283264
1772623301759642600,4.228642578125,0.17511065304279327,-0.29616227746009827,0.6549053192138672
1772623301769672400,4.23867236328125,0.12248793244361877,-0.3631895184516907,0.6891660690307617
1772623301779702500,4.24870263671875,0.11469259858131409,-0.37387150526046753,0.7029687166213989
1772623301789732400,4.258732421875,0.1574469804763794,-0.3171456456184387,0.6698896288871765
1772623301799761400,4.268761474609375,0.2271726429462433,-0.17527306079864502,0.6057037115097046
1772623301809791500,4.27879150390625,0.303335040807724,-0.005120234098285437,0.5419588685035706
1772623301819821600,4.288821533203125,0.3550548553466797,0.18672548234462738,0.4782615005970001
1772623301829851400,4.298851318359375,0.37998124957084656,0.3870670795440674,0.42321744561195374
1772623301839880400,4.30888037109375,0.3889229893684387,0.5926862955093384,0.37577781081199646
1772623301849910500,4.31891064453125,0.39873701333999634,0.7542728185653687,0.3245098292827606
1772623301859940600,4.328940673828125,0.38651180267333984,0.7750109434127808,0.22839827835559845
1772623301869970700,4.338970703125,0.3397000730037689,0.6971225142478943,0.09817981719970703
1772623301880000500,4.34900048828125,0.282038152217865,0.5609760880470276,-0.05717774108052254
1772623301890029300,4.359029296875,0.22251303493976593,0.3429279029369354,-0.22398483753204346
1772623301900059400,4.369059326171875,0.16045008599758148,0.009497145190834999,-0.4084410071372986
1772623301910089500,4.37908935546875,0.09245932102203369,-0.4314568042755127,-0.6000331044197083
1772623301920119600,4.38911962890625,0.011908394284546375,-0.9215800762176514,-0.765964686870575
1772623301930148600,4.399148681640625,-0.0984916165471077,-1.3889338970184326,-0.8693217039108276
1772623301940178400,4.409178466796875,-0.26370248198509216,-1.6762787103652954,-0.8631511330604553
1772623301950208500,4.41920849609375,-0.4389054477214813,-1.6738046407699585,-0.7504227161407471
1772623301960238300,4.42923828125,-0.5963107347488403,-1.4439303874969482,-0.5617597103118896
1772623301970267600,4.439267578125,-0.7036339640617371,-1.1294525861740112,-0.3448423743247986
1772623301980297500,4.44929736328125,-0.7414026260375977,-0.7829340100288391,-0.1200421005487442
1772623301990327600,4.45932763671875,-0.7044483423233032,-0.44303953647613525,0.0804518461227417
1772623302000357400,4.469357421875,-0.6081373691558838,-0.16115796566009521,0.2434474378824234
1772623302010386400,4.479386474609375,-0.4698178172111511,0.012489714659750462,0.3646945059299469
1772623302020416500,4.48941650390625,-0.2899821996688843,0.07465016096830368,0.4569450318813324
1772623302030446600,4.499446533203125,-0.09421481937170029,0.0803740918636322,0.5269023180007935
1772623302040476700,4.5094765625,0.09062546491622925,0.0647507756948471,0.5611631870269775
1772623302050505500,4.51950537109375,0.2415824830532074,0.036073584109544754,0.5635280609130859
1772623302060535600,4.52953564453125,0.35117655992507935,-0.008783109486103058,0.5319480895996094
1772623302070565400,4.5395654296875,0.4030749201774597,-0.101390540599823,0.4840790927410126
1772623302080595500,4.549595458984375,0.3981286287307739,-0.21625271439552307,0.42139148712158203
1772623302090624500,4.55962451171875,0.3398325443267822,-0.3493604362010956,0.3582647144794464
1772623302100654600,4.569654541015625,0.24055610597133636,-0.4736316502094269,0.28338193893432617
1772623302110684400,4.579684326171875,0.10448243468999863,-0.5493893027305603,0.20816653966903687
1772623302120714500,4.589714599609375,-0.03657347336411476,-0.534243106842041,0.1393316090106964
1772623302130743600,4.59974365234375,-0.16211861371994019,-0.4170408844947815,0.1011035367846489
1772623302140773600,4.609773681640625,-0.2709808945655823,-0.268608957529068,0.08092378824949265
1772623302150803500,4.619803466796875,-0.37342578172683716,-0.18742650747299194,0.04605261608958244
1772623302160833500,4.62983349609375,-0.45628300309181213,-0.16841275990009308,-0.0039713443256914616
1772623302170863400,4.63986328125,-0.5019087791442871,-0.1609063744544983,-0.05754508823156357
1772623302180892400,4.649892333984375,-0.4961158037185669,-0.1355748474597931,-0.09689705818891525
1772623302190922500,4.659922607421875,-0.4437519311904907,-0.08024848252534866,-0.11758262664079666
1772623302200952600,4.66995263671875,-0.38895347714424133,-0.05259804055094719,-0.1137111634016037
1772623302210982700,4.679982666015625,-0.36656641960144043,-0.09103145450353622,-0.10449662804603577
1772623302221011500,4.690011474609375,-0.3790225386619568,-0.1783314049243927,-0.09298928827047348
1772623302231041500,4.70004150390625,-0.40657347440719604,-0.2761721909046173,-0.08325570076704025
1772623302241071400,4.7100712890625,-0.42282184958457947,-0.3301354646682739,-0.07744497060775757
1772623302251101400,4.720101318359375,-0.4141199588775635,-0.3090309798717499,-0.07480791211128235
1772623302261130500,4.730130615234375,-0.39218759536743164,-0.23852336406707764,-0.09206996113061905
1772623302271160300,4.740160400390625,-0.3706335723400116,-0.1581750065088272,-0.12670624256134033
1772623302281190400,4.7501904296875,-0.3520187735557556,-0.08056218177080154,-0.1847364753484726
1772623302291220500,4.760220458984375,-0.3356885612010956,-0.022573981434106827,-0.2669447958469391
1772623302301249300,4.770249267578125,-0.3274542987346649,0.008853796869516373,-0.35377126932144165
1772623302311279400,4.780279296875,-0.3147134482860565,0.021940303966403008,-0.43599051237106323
1772623302321309400,4.790309326171875,-0.29745030403137207,0.04983973503112793,-0.4870613217353821
1772623302331339300,4.80033935546875,-0.27963826060295105,0.10900584608316422,-0.49759146571159363
1772623302341368300,4.810368408203125,-0.2701866030693054,0.1803809553384781,-0.4576719403266907
1772623302351398400,4.8203984375,-0.25254902243614197,0.24246935546398163,-0.3869474232196808
1772623302361428500,4.830428466796875,-0.2309659868478775,0.2862050533294678,-0.3017931878566742
1772623302371458300,4.840458251953125,-0.20215724408626556,0.3325408399105072,-0.20636892318725586
1772623302381487400,4.8504873046875,-0.15527993440628052,0.37903785705566406,-0.10548282414674759
1772623302391517400,4.860517333984375,-0.1023099273443222,0.4349866509437561,-0.006281668320298195
1772623302401547500,4.870547607421875,-0.03945298120379448,0.4566043019294739,0.07454218715429306
1772623302411577300,4.880577392578125,0.027735643088817596,0.42700061202049255,0.13306115567684174
1772623302421606400,4.8906064453125,0.09357136487960815,0.3493310213088989,0.17848508059978485
1772623302431636200,4.90063623046875,0.16402235627174377,0.24182772636413574,0.21939869225025177
1772623302441666300,4.910666259765625,0.23216532170772552,0.09556281566619873,0.2603059709072113
1772623302451696400,4.9206962890625,0.31020790338516235,-0.0312100388109684,0.3074585795402527
1772623302461726500,4.9307265625,0.40607649087905884,-0.1039038747549057,0.3581297695636749
1772623302471755300,4.94075537109375,0.4980229139328003,-0.16646285355091095,0.41023319959640503
1772623302481785300,4.950785400390625,0.5564627647399902,-0.2328973412513733,0.4388260841369629
1772623302491815400,4.9608154296875,0.5637730956077576,-0.2513708770275116,0.4382779896259308
1772623302501845200,4.97084521484375,0.5147476196289062,-0.2450893521308899,0.41557860374450684
1772623302511874600,4.98087451171875,0.41738808155059814,-0.20341886579990387,0.3749062716960907
1772623302521904400,4.990904296875,0.30707287788391113,-0.09433865547180176,0.3274343013763428
1772623302531934500,5.0009345703125,0.21516160666942596,0.06350317597389221,0.27953097224235535
1772623302541964300,5.01096435546875,0.14956606924533844,0.20843613147735596,0.2188132107257843
1772623302551993300,5.020993408203125,0.13229867815971375,0.3146267831325531,0.1538858711719513
1772623302562023400,5.0310234375,0.14542755484580994,0.37872299551963806,0.07263131439685822
1772623302572053500,5.041053466796875,0.169931560754776,0.4026986360549927,-0.024067526683211327
1772623302582083600,5.05108349609375,0.19209963083267212,0.44626355171203613,-0.09532465040683746
1772623302592112400,5.0611123046875,0.20994387567043304,0.49648088216781616,-0.145477294921875
1772623302602142200,5.07114208984375,0.22029010951519012,0.5262549519538879,-0.1825345754623413
1772623302612172300,5.08117236328125,0.2114420235157013,0.5105390548706055,-0.22049075365066528
1772623302622202400,5.091202392578125,0.18116694688796997,0.4633260667324066,-0.24223725497722626
1772623302632231400,5.1012314453125,0.1328098028898239,0.40222862362861633,-0.2523641884326935
1772623302642261200,5.11126123046875,0.06654863804578781,0.312631219625473,-0.25243276357650757
1772623302652291300,5.121291259765625,-0.022449415177106857,0.20752638578414917,-0.2406512051820755
1772623302662321400,5.1313212890625,-0.1346277892589569,0.12937329709529877,-0.22246816754341125
1772623302672350500,5.1413505859375,-0.25445351004600525,0.11765193194150925,-0.17646577954292297
1772623302682380500,5.151380615234375,-0.36695125699043274,0.2115502506494522,-0.09090518206357956
1772623302692410400,5.161410400390625,-0.44283774495124817,0.36698269844055176,0.03396058827638626
1772623302702440200,5.171440185546875,-0.47968578338623047,0.538224995136261,0.1708017885684967
1772623302712470300,5.18147021484375,-0.4522685408592224,0.6643030643463135,0.3010431230068207
1772623302722499300,5.191499267578125,-0.35966604948043823,0.7154547572135925,0.4047667384147644
1772623302732529400,5.201529296875,-0.2167123705148697,0.6904963850975037,0.47922420501708984
1772623302742559500,5.2115595703125,-0.043400563299655914,0.5826455354690552,0.519853413105011
1772623302752589600,5.221589599609375,0.12466088682413101,0.40207576751708984,0.5340957045555115
1772623302762618400,5.231618408203125,0.2844559848308563,0.18882912397384644,0.5452172160148621
1772623302772648400,5.2416484375,0.43330806493759155,0.006454801186919212,0.574135959148407
1772623302782678300,5.25167822265625,0.5635679960250854,-0.10447199642658234,0.61865234375
1772623302792708400,5.261708251953125,0.6536968350410461,-0.1516411006450653,0.6596631407737732
1772623302802737400,5.2717373046875,0.7036005854606628,-0.13367904722690582,0.6988922953605652
1772623302812767200,5.281767333984375,0.7073460817337036,-0.07433183491230011,0.7129018306732178
1772623302822797300,5.29179736328125,0.662463903427124,-0.01813078299164772,0.682330310344696
1772623302832827400,5.301827392578125,0.5649570822715759,0.02916296198964119,0.6046786308288574
1772623302842856400,5.3118564453125,0.43523550033569336,0.051448315382003784,0.49027466773986816
1772623302852886500,5.321886474609375,0.2873815894126892,0.06706082820892334,0.34862807393074036
1772623302862916400,5.331916259765625,0.1224919781088829,0.06982404738664627,0.19416844844818115
1772623302872946200,5.3419462890625,-0.0465572364628315,0.06758645921945572,0.03437638655304909
1772623302882975200,5.351975341796875,-0.217695951461792,0.06696761399507523,-0.11373424530029297
1772623302893005300,5.36200537109375,-0.3656172454357147,0.07524818181991577,-0.253647118806839
1772623302903035400,5.372035400390625,-0.48016417026519775,0.10227622091770172,-0.35657623410224915
1772623302913065500,5.3820654296875,-0.5677827000617981,0.13612553477287292,-0.42175203561782837
1772623302923095600,5.392095458984375,-0.6208288073539734,0.16765260696411133,-0.46398499608039856
1772623302933124400,5.402124267578125,-0.6498622894287109,0.2035514861345291,-0.4724186956882477
1772623302943154400,5.412154541015625,-0.655177652835846,0.23347511887550354,-0.47106871008872986
1772623302953184300,5.422184326171875,-0.6486520767211914,0.2372373640537262,-0.463591605424881
1772623302963214300,5.43221435546875,-0.632851779460907,0.20218247175216675,-0.4796583950519562
1772623302973243400,5.442243408203125,-0.5960665941238403,0.15782806277275085,-0.4941140115261078
1772623302983273200,5.452273193359375,-0.5460725426673889,0.1216144859790802,-0.5148528814315796
1772623302993303300,5.46230322265625,-0.4983028471469879,0.05371613800525665,-0.5459998846054077
1772623303003333400,5.47233349609375,-0.4666711986064911,-0.03822629153728485,-0.5768575072288513
1772623303013362400,5.482362548828125,-0.44117462635040283,-0.1347179412841797,-0.6086042523384094
1772623303023392500,5.492392578125,-0.42354461550712585,-0.18419711291790009,-0.621623694896698
1772623303033422600,5.502422607421875,-0.39627596735954285,-0.2035127580165863,-0.6101568937301636
1772623303043452200,5.5124521484375,-0.3764314651489258,-0.1837031990289688,-0.5892571210861206
1772623303053481200,5.522481201171875,-0.3668065071105957,-0.14396804571151733,-0.5574281215667725
1772623303063511300,5.53251123046875,-0.3675709068775177,-0.09152726829051971,-0.5200289487838745
1772623303073541400,5.542541259765625,-0.3609122037887573,-0.03742328658699989,-0.48370447754859924
1772623303083571500,5.552571533203125,-0.3368658423423767,-0.004447842016816139,-0.44958892464637756
1772623303093601500,5.5626015625,-0.2858942747116089,0.024347055703401566,-0.383652001619339
1772623303103630300,5.57263037109375,-0.2164338082075119,0.053619638085365295,-0.2955259084701538
1772623303113660400,5.582660400390625,-0.12874868512153625,0.05995369702577591,-0.19277901947498322
1772623303123690200,5.592690185546875,-0.03878828138113022,0.04786522686481476,-0.09642884135246277
1772623303133720300,5.60272021484375,0.04772663488984108,0.033994413912296295,-0.007212411612272263
1772623303143749400,5.612749267578125,0.12120480835437775,0.030572984367609024,0.06395915150642395
1772623303153779200,5.622779296875,0.19518956542015076,0.03770945593714714,0.11871161311864853
1772623303163809300,5.632809326171875,0.2642900049686432,0.07599720358848572,0.16299717128276825
1772623303173839400,5.64283935546875,0.31150946021080017,0.1176687628030777,0.19956129789352417
1772623303183868400,5.652868408203125,0.3370446264743805,0.14675948023796082,0.22244876623153687
1772623303193898500,5.6628984375,0.33415138721466064,0.13840807974338531,0.218290776014328
1772623303203928600,5.672928466796875,0.32065221667289734,0.08346825838088989,0.18200978636741638
1772623303213958100,5.682958251953125,0.29993894696235657,0.00880786869674921,0.12511801719665527
1772623303223987500,5.692987548828125,0.2787773609161377,-0.07801230251789093,0.06875436753034592
1772623303234017300,5.703017333984375,0.2467816323041916,-0.16254448890686035,0.024859348312020302
1772623303244047400,5.71304736328125,0.19963574409484863,-0.22527092695236206,0.006774250417947769
1772623303254077400,5.723077392578125,0.1299344301223755,-0.25036537647247314,0.013228422030806541
1772623303264107500,5.733107421875,0.059067174792289734,-0.2318897247314453,0.03235870227217674
1772623303274136000,5.743135986328125,0.005961078219115734,-0.15372276306152344,0.07370853424072266
1772623303284166100,5.753166259765625,0.0026466380804777145,-0.019409306347370148,0.13278824090957642
1772623303294196000,5.763196044921875,0.05648563802242279,0.11962766945362091,0.19517996907234192
1772623303304226000,5.77322607421875,0.14570985734462738,0.23456527292728424,0.24965623021125793
1772623303314255000,5.783255126953125,0.25679510831832886,0.303378701210022,0.28579825162887573
1772623303324285000,5.793284912109375,0.35035040974617004,0.3218037486076355,0.2829813063144684
1772623303334315000,5.80331494140625,0.41556909680366516,0.31635144352912903,0.26183339953422546
1772623303344345000,5.813344970703125,0.4596882462501526,0.3105100691318512,0.21237574517726898
1772623303354374000,5.823373779296875,0.4930536448955536,0.2934218943119049,0.14632003009319305
1772623303364404000,5.833404052734375,0.5297228097915649,0.2740813195705414,0.061657924205064774
1772623303374434000,5.84343408203125,0.5703938007354736,0.21835334599018097,-0.028216838836669922
1772623303384464100,5.853464111328125,0.6095833778381348,0.06713458895683289,-0.13372305035591125
1772623303394493200,5.8634931640625,0.5996093153953552,-0.22566986083984375,-0.2485545575618744
1772623303404523000,5.87352294921875,0.508314311504364,-0.594191312789917,-0.3473687767982483
1772623303414552800,5.883552734375,0.34780991077423096,-0.9300327301025391,-0.39215993881225586
1772623303424583000,5.8935830078125,0.1615397185087204,-1.1066116094589233,-0.3400440514087677
1772623303434613000,5.903613037109375,-0.010682123713195324,-1.084737777709961,-0.19160529971122742
1772623303444642000,5.91364208984375,-0.14931818842887878,-0.8835251927375793,0.03069945052266121
1772623303454672100,5.923672119140625,-0.21855372190475464,-0.5680738091468811,0.28561750054359436
1772623303464702000,5.933701904296875,-0.2221323847770691,-0.21870343387126923,0.5346319079399109
1772623303474732000,5.94373193359375,-0.184090718626976,0.10281120985746384,0.7403592467308044
1772623303484761000,5.953760986328125,-0.12091401219367981,0.3555711507797241,0.8792940378189087
1772623303494791000,5.963791015625,-0.03138972818851471,0.5213990211486816,0.9549019932746887
1772623303504821000,5.973821044921875,0.09228716790676117,0.5792731046676636,0.9657173156738281
1772623303514851000,5.98385107421875,0.25431257486343384,0.5497506856918335,0.9279358386993408
1772623303524880000,5.9938798828125,0.4181863069534302,0.4665850102901459,0.8695141673088074
1772623303534910000,6.003909912109375,0.5373135209083557,0.34873613715171814,0.8043471574783325
1772623303544940000,6.01393994140625,0.595281720161438,0.21328280866146088,0.7302939295768738
1772623303554970000,6.02397021484375,0.5753437280654907,0.0797995775938034,0.6470648050308228
1772623303564999200,6.033999267578125,0.4866304099559784,-0.05227961763739586,0.5470966100692749
1772623303575029000,6.044029052734375,0.3499748110771179,-0.17094901204109192,0.4426027238368988
1772623303585058800,6.054058837890625,0.20056475698947906,-0.2569822072982788,0.34103110432624817
1772623303595089000,6.0640888671875,0.055408358573913574,-0.3143727779388428,0.24645504355430603
1772623303605119000,6.074118896484375,-0.06753286719322205,-0.3195391297340393,0.1603594571352005
1772623303615148000,6.08414794921875,-0.15692347288131714,-0.2808724343776703,0.08414458483457565
1772623303625178000,6.09417822265625,-0.21377474069595337,-0.21997976303100586,0.003621334210038185
1772623303635208000,6.1042080078125,-0.24607355892658234,-0.12681147456169128,-0.06305516511201859
1772623303645238000,6.114238037109375,-0.24214576184749603,-0.0175120010972023,-0.12021677941083908
1772623303655267000,6.12426708984375,-0.2241838127374649,0.08547589927911758,-0.15608155727386475
1772623303665297200,6.134297119140625,-0.20208357274532318,0.1478753685951233,-0.1889100819826126
1772623303675327000,6.144326904296875,-0.17577926814556122,0.17655228078365326,-0.2129238098859787
1772623303685357000,6.154357177734375,-0.13979209959506989,0.1873244196176529,-0.2254679650068283
1772623303695385900,6.1643857421875,-0.10826638340950012,0.17754502594470978,-0.2361384481191635
1772623303705416000,6.174416015625,-0.08712753653526306,0.15345452725887299,-0.2530563771724701
1772623303715446000,6.184446044921875,-0.07579445093870163,0.11700756847858429,-0.2780514657497406
1772623303725476000,6.19447607421875,-0.08024821430444717,0.07252334803342819,-0.31696873903274536
1772623303735506200,6.204506103515625,-0.10613866150379181,0.050273969769477844,-0.3613835871219635
1772623303745535000,6.214534912109375,-0.1423978954553604,0.07103164494037628,-0.4039825201034546
1772623303755565000,6.22456494140625,-0.16503369808197021,0.11571468412876129,-0.4334077835083008
1772623303765595000,6.234594970703125,-0.18128713965415955,0.16338065266609192,-0.46183615922927856
1772623303775625000,6.244625,-0.19346177577972412,0.19876979291439056,-0.48233506083488464
1772623303785654000,6.254654052734375,-0.19616420567035675,0.2091488093137741,-0.5061662197113037
1772623303795684000,6.26468408203125,-0.20255765318870544,0.1774798333644867,-0.5404953956604004
1772623303805714000,6.2747138671875,-0.20460408926010132,0.10576294362545013,-0.5795892477035522
1772623303815744000,6.284743896484375,-0.19371922314167023,0.024843856692314148,-0.612488329410553
1772623303825773000,6.29477294921875,-0.1619483232498169,-0.04785197228193283,-0.6294779181480408
1772623303835803100,6.30480322265625,-0.08963790535926819,-0.0864182710647583,-0.6313099265098572
1772623303845833000,6.3148330078125,-0.03976313769817352,-0.09181825816631317,-0.6386032700538635
1772623303855863000,6.324863037109375,-0.04265080392360687,-0.048945095390081406,-0.6404629945755005
1772623303865892900,6.334892822265625,-0.06871838867664337,0.025844693183898926,-0.635246217250824
1772623303875922000,6.344921875,-0.11124081164598465,0.07764717191457748,-0.6409967541694641
1772623303885952000,6.354951904296875,-0.14406266808509827,0.09670501947402954,-0.6423464417457581
1772623303895982000,6.364982177734375,-0.11687392741441727,0.12851141393184662,-0.6080667972564697
1772623303906012200,6.37501220703125,-0.10577381402254105,0.08498135209083557,-0.580008864402771
1772623303916041000,6.385041015625,-0.1702398806810379,0.010526025667786598,-0.5560579895973206
1772623303926071000,6.395071044921875,-0.2801955044269562,-0.16606299579143524,-0.5364797711372375
1772623303936100900,6.405100830078125,-0.3660411536693573,-0.2989262342453003,-0.4912947118282318
1772623303946131000,6.415130859375,-0.4233364462852478,-0.39460986852645874,-0.43917298316955566
1772623303956160000,6.425159912109375,-0.44962501525878906,-0.4645940065383911,-0.38469162583351135
1772623303966190000,6.435190185546875,-0.4580489695072174,-0.5306194424629211,-0.31483739614486694
1772623303976220000,6.445219970703125,-0.4350999593734741,-0.5667569041252136,-0.2376108020544052
1772623303986250000,6.45525,-0.37017133831977844,-0.5945502519607544,-0.16570961475372314
1772623303996280000,6.465280029296875,-0.31039854884147644,-0.6431268453598022,-0.11526933312416077
1772623304006309000,6.47530908203125,-0.267314612865448,-0.6639517545700073,-0.08793531358242035
1772623304016339000,6.4853388671875,-0.2421242892742157,-0.6847584843635559,-0.07531779259443283
1772623304026369000,6.495369140625,-0.24308572709560394,-0.6986497044563293,-0.07143766433000565
1772623304036398800,6.50539892578125,-0.2422819882631302,-0.6903576850891113,-0.06314697861671448
1772623304046428000,6.515427978515625,-0.22369828820228577,-0.7144540548324585,-0.06037040799856186
1772623304056458000,6.5254580078125,-0.1944061815738678,-0.7562137246131897,-0.0627552717924118
1772623304066488000,6.535488037109375,-0.17743535339832306,-0.755244255065918,-0.047342970967292786
1772623304076518100,6.54551806640625,-0.16128167510032654,-0.6791974306106567,-0.01910148188471794
1772623304086547000,6.555546875,-0.13339252769947052,-0.5521366596221924,0.026984255760908127
1772623304096577000,6.565576904296875,-0.06881166994571686,-0.33205223083496094,0.08809341490268707
1772623304106606800,6.57560693359375,0.021050862967967987,-0.27161315083503723,0.14848944544792175
1772623304116637000,6.585636962890625,0.11079353094100952,-0.4302893579006195,0.17630909383296967
1772623304126667000,6.5956669921875,0.1761474758386612,-0.6613842844963074,0.19369567930698395
1772623304136696000,6.605696044921875,0.20321211218833923,-0.8053624629974365,0.22370922565460205
1772623304146726000,6.615725830078125,0.18564975261688232,-0.8472983837127686,0.2594897150993347
1772623304156756000,6.625755859375,0.10081183165311813,-0.8213964700698853,0.29349377751350403
1772623304166786000,6.6357861328125,-0.035342924296855927,-0.7180153727531433,0.3205964267253876
1772623304176815000,6.645815185546875,-0.18183942139148712,-0.526390552520752,0.34424716234207153
1772623304186845200,6.65584521484375,-0.32272869348526,-0.26611557602882385,0.35185006260871887
1772623304196875000,6.665875,-0.44215574860572815,0.01500399224460125,0.33100923895835876
1772623304206904800,6.67590478515625,-0.5096631050109863,0.268999844789505,0.30102813243865967
1772623304216934000,6.685933837890625,-0.5063256025314331,0.4616102874279022,0.26899752020835876
1772623304226964000,6.6959638671875,-0.4278496205806732,0.5570575594902039,0.2324330061674118
1772623304236994000,6.705994140625,-0.2998056411743164,0.5783625841140747,0.2019994556903839
1772623304247024000,6.716024169921875,-0.14243267476558685,0.5519257187843323,0.18195849657058716
1772623304257053000,6.726052978515625,0.02799152582883835,0.5014058351516724,0.18369407951831818
1772623304267083000,6.7360830078125,0.1913515329360962,0.4395143687725067,0.21051695942878723
1772623304277112600,6.746112548828125,0.3118095099925995,0.3318696916103363,0.24083173274993896
1772623304287142400,6.756142333984375,0.3918474614620209,0.16802433133125305,0.2730177342891693
1772623304297172200,6.766172119140625,0.43130698800086975,-0.013470365665853024,0.3092615008354187
1772623304307201300,6.776201171875,0.43612009286880493,-0.17285920679569244,0.32804304361343384
1772623304317231400,6.7862314453125,0.3832840323448181,-0.2543441951274872,0.32729947566986084
1772623304327261400,6.796261474609375,0.28933092951774597,-0.20648454129695892,0.3194711208343506
1772623304337291500,6.80629150390625,0.15202337503433228,-0.08892568945884705,0.2857254147529602
1772623304347320300,6.8163203125,-0.009299861267209053,0.04789143055677414,0.21793317794799805
1772623304357350400,6.826350341796875,-0.1468936800956726,0.1793501228094101,0.1163860484957695
1772623304367380500,6.83638037109375,-0.2589721977710724,0.2764280140399933,0.0025444114580750465
1772623304377410300,6.846410400390625,-0.31032511591911316,0.3479005992412567,-0.1119731143116951
1772623304387440400,6.8564404296875,-0.30954450368881226,0.41277071833610535,-0.19433140754699707
1772623304397469400,6.866469482421875,-0.26684391498565674,0.46304479241371155,-0.2513539493083954
1772623304407499300,6.876499267578125,-0.18706472218036652,0.49353739619255066,-0.28445249795913696
1772623304417529300,6.886529296875,-0.09464877098798752,0.5350174307823181,-0.3091793954372406
1772623304427559400,6.896559326171875,-0.006141582038253546,0.5782409906387329,-0.3328257203102112
1772623304437588500,6.90658837890625,0.05326209217309952,0.6014177203178406,-0.3682324290275574
1772623304447618600,6.91661865234375,0.08954288065433502,0.5985774993896484,-0.40899261832237244
1772623304457648600,6.926648681640625,0.09685538709163666,0.5440762042999268,-0.4561169743537903
1772623304467678200,6.93667822265625,0.08097491413354874,0.44125980138778687,-0.49893784523010254
1772623304477707300,6.946707275390625,0.05324527993798256,0.28951072692871094,-0.525952935218811
1772623304487737300,6.9567373046875,-0.00022138981148600578,0.1018151119351387,-0.549811601638794
1772623304497767400,6.966767333984375,-0.07121060788631439,-0.07347255200147629,-0.5693586468696594
1772623304507797500,6.976797607421875,-0.13794918358325958,-0.1819189041852951,-0.5822300910949707
1772623304517827600,6.98682763671875,-0.18748745322227478,-0.1872292459011078,-0.6003217101097107
1772623304527856400,6.9968564453125,-0.22016289830207825,-0.09782113134860992,-0.6321163177490234
1772623304537886500,7.006886474609375,-0.22995853424072266,0.04476238414645195,-0.6655853390693665
1772623304547916300,7.016916259765625,-0.2094232738018036,0.15407811105251312,-0.6849907636642456
1772623304557946400,7.0269462890625,-0.15450303256511688,0.19857393205165863,-0.6496167778968811
1772623304567975400,7.036975341796875,-0.09689328074455261,0.17768409848213196,-0.5523970723152161
1772623304578005200,7.047005126953125,-0.0418420173227787,0.11989350616931915,-0.4109249413013458
1772623304588035300,7.057035400390625,0.01730474829673767,0.05915838107466698,-0.26001080870628357
1772623304598065400,7.0670654296875,0.08646783232688904,0.00862676091492176,-0.11191961169242859
1772623304608094500,7.077094482421875,0.16642454266548157,-0.034047678112983704,0.018257539719343185
1772623304618124500,7.08712451171875,0.2416210174560547,-0.06684184074401855,0.10696344077587128
1772623304628154600,7.097154541015625,0.2971929609775543,-0.08308339864015579,0.16213595867156982
1772623304638184200,7.10718408203125,0.3377494215965271,-0.08994237333536148,0.17944543063640594
1772623304648214300,7.11721435546875,0.36671289801597595,-0.13647529482841492,0.17457717657089233
1772623304658243300,7.127243408203125,0.38543784618377686,-0.24702711403369904,0.14447945356369019
1772623304668273400,7.1372734375,0.3847147226333618,-0.36098963022232056,0.1150384396314621
1772623304678303500,7.147303466796875,0.3524862229824066,-0.43229711055755615,0.08689948171377182
1772623304688333600,7.15733349609375,0.27733057737350464,-0.4419618844985962,0.055765844881534576
1772623304698362400,7.1673623046875,0.16142873466014862,-0.42751771211624146,0.026075061410665512
1772623304708392400,7.177392333984375,0.025920024141669273,-0.37944191694259644,0.009219708852469921
1772623304718422500,7.187422607421875,-0.10825429111719131,-0.2964748442173004,0.010212534107267857
1772623304728452400,7.197452392578125,-0.22591297328472137,-0.2177422046661377,0.023317042738199234
1772623304738481400,7.2074814453125,-0.2927505671977997,-0.1505807340145111,0.04574085772037506
1772623304748511200,7.21751123046875,-0.2980497479438782,-0.06681213527917862,0.07853706926107407
1772623304758541300,7.227541259765625,-0.24999463558197021,0.05609674006700516,0.10604672878980637
1772623304768571400,7.2375712890625,-0.18187446892261505,0.19044919312000275,0.13528947532176971
1772623304778601500,7.2476015625,-0.123042032122612,0.3123985230922699,0.14957919716835022
1772623304788630500,7.257630615234375,-0.07197453826665878,0.43400946259498596,0.1395363211631775
1772623304798660600,7.26766064453125,-0.03717714175581932,0.5729579925537109,0.0964951142668724
1772623304808690400,7.2776904296875,-0.010661057196557522,0.6783034205436707,0.011467729695141315
1772623304818720300,7.28772021484375,0.009597876109182835,0.7222071886062622,-0.09530558437108994
1772623304828749300,7.297749267578125,0.02391733229160309,0.66944420337677,-0.20570158958435059
1772623304838779400,7.307779296875,0.02791101112961769,0.5555599927902222,-0.2991045117378235
1772623304848809500,7.3178095703125,0.016380494460463524,0.3913116753101349,-0.3603953421115875
1772623304858839600,7.327839599609375,-0.022841475903987885,0.18269427120685577,-0.39708971977233887
1772623304868869400,7.337869384765625,-0.0875907838344574,0.007771017029881477,-0.4056979715824127
1772623304878898400,7.3478984375,-0.15232476592063904,-0.038215652108192444,-0.36143943667411804
1772623304888928500,7.357928466796875,-0.19527119398117065,0.029750358313322067,-0.26270654797554016
1772623304898958300,7.367958251953125,-0.2036479115486145,0.1678626835346222,-0.12666401267051697
1772623304908988400,7.377988525390625,-0.16599074006080627,0.3287813067436218,0.03618158400058746
1772623304919017200,7.388017333984375,-0.07285946607589722,0.466999351978302,0.2052752673625946
1772623304929047300,7.39804736328125,0.061090804636478424,0.5776477456092834,0.366921991109848
1772623304939077400,7.408077392578125,0.21441911160945892,0.634986162185669,0.49202612042427063
1772623304949107500,7.418107421875,0.3624395728111267,0.6301425695419312,0.553292453289032
1772623304959137500,7.428137451171875,0.47436556220054626,0.5592085123062134,0.5501112937927246
1772623304969166600,7.43816650390625,0.5379490852355957,0.45897746086120605,0.47562482953071594
1772623304979196400,7.448196533203125,0.5519474744796753,0.357179194688797,0.34404948353767395
1772623304989226200,7.458226318359375,0.5288211107254028,0.2077564299106598,0.17760838568210602
1772623304999256300,7.46825634765625,0.49323970079421997,0.006803877651691437,0.0349537692964077
1772623305009285400,7.478285400390625,0.4423380196094513,-0.16645672917366028,-0.03758261725306511
1772623305019315500,7.4883154296875,0.3669828176498413,-0.25135084986686707,-0.029191795736551285
1772623305029345500,7.498345458984375,0.2830359637737274,-0.23777195811271667,0.04165247082710266
1772623305039375400,7.508375244140625,0.22597134113311768,-0.13160797953605652,0.14109677076339722
1772623305049404400,7.518404296875,0.1990346908569336,0.03113291971385479,0.23203328251838684
1772623305059434500,7.5284345703125,0.19472090899944305,0.2177099883556366,0.27003711462020874
1772623305069464300,7.53846435546875,0.21832221746444702,0.3820657730102539,0.2539609968662262
1772623305079494400,7.548494384765625,0.24928678572177887,0.4974863529205322,0.18276165425777435
1772623305089523200,7.558523193359375,0.28255292773246765,0.5575678944587708,0.07689904421567917
1772623305099553300,7.56855322265625,0.31879404187202454,0.5531774163246155,-0.0318218432366848
1772623305109583400,7.578583251953125,0.3896268606185913,0.4835202097892761,-0.12517166137695312
1772623305119613400,7.588613525390625,0.43832889199256897,0.3809235394001007,-0.18699641525745392
1772623305129643500,7.5986435546875,0.3309609889984131,0.207248717546463,-0.1929117888212204
1772623305139672600,7.608672607421875,0.23797404766082764,0.1380763053894043,-0.0963682010769844
1772623305149702400,7.618702392578125,0.23282350599765778,0.058226294815540314,0.004721676930785179
1772623305159732200,7.628732177734375,0.30151599645614624,0.020977197214961052,0.10402429848909378
1772623305169762300,7.63876220703125,0.3496198356151581,0.0012782365083694458,0.18066130578517914
1772623305179791400,7.648791259765625,0.3493306040763855,-0.08576186001300812,0.2068694829940796
1772623305189821400,7.658821533203125,0.3266127109527588,-0.09246296435594559,0.20908400416374207
1772623305199851500,7.6688515625,0.3066112995147705,-0.0886535793542862,0.17896418273448944
1772623305209881300,7.67888134765625,0.2891317903995514,-0.07422016561031342,0.1255837231874466
1772623305219911400,7.688911376953125,0.27089953422546387,-0.05860418826341629,0.05689201131463051
1772623305229940500,7.6989404296875,0.25714200735092163,-0.041586726903915405,-0.0012493422254920006
1772623305239970600,7.708970458984375,0.25431904196739197,-0.024357140064239502,-0.018319938331842422
1772623305250000400,7.71900048828125,0.2518707513809204,-0.013344434089958668,0.010099032893776894
1772623305260030500,7.729030517578125,0.2584346532821655,-0.010372346267104149,0.07215946912765503
1772623305270059300,7.739059326171875,0.2723427414894104,-0.007960651069879532,0.14624354243278503
1772623305280090600,7.749090576171875,0.2978385090827942,-0.03730975091457367,0.20915059745311737
1772623305290120700,7.75912060546875,0.32532912492752075,-0.05591524392366409,0.2592080533504486
1772623305300150500,7.769150634765625,0.3688720762729645,-0.05961064621806145,0.2976768910884857
1772623305310180600,7.7791806640625,0.4091053009033203,-0.07714655995368958,0.31340092420578003
1772623305320209700,7.789209716796875,0.45461925864219666,-0.11484866589307785,0.32214221358299255
1772623305330239500,7.799239501953125,0.5025665163993835,-0.17382460832595825,0.3135563135147095
1772623305340269600,7.80926953125,0.5333800911903381,-0.24505537748336792,0.2989523410797119
1772623305350299600,7.819299560546875,0.5398392677307129,-0.2940830886363983,0.2872752845287323
1772623305360328700,7.82932861328125,0.5101343393325806,-0.29583412408828735,0.2928559482097626
1772623305370358800,7.83935888671875,0.4571683704853058,-0.29176828265190125,0.31200993061065674
1772623305380388900,7.849388916015625,0.3933872580528259,-0.3021250367164612,0.32973513007164
1772623305390418400,7.85941845703125,0.3152797520160675,-0.30933013558387756,0.33477628231048584
1772623305400447500,7.869447509765625,0.23527202010154724,-0.30076301097869873,0.31447845697402954
1772623305410477600,7.8794775390625,0.17108504474163055,-0.2601045072078705,0.2646280825138092
1772623305420507600,7.889507568359375,0.11846417188644409,-0.16074755787849426,0.1957038938999176
1772623305430537700,7.899537841796875,0.07766766101121902,-0.006451819092035294,0.1139717623591423
1772623305440567800,7.90956787109375,0.05193353816866875,0.18030314147472382,0.039191797375679016
1772623305450596600,7.9195966796875,0.046023037284612656,0.32743939757347107,-0.025864847004413605
1772623305460626700,7.929626708984375,0.05534995719790459,0.389352023601532,-0.07463664561510086
1772623305470656500,7.939656494140625,0.07158356159925461,0.3970686197280884,-0.11985036730766296
1772623305480686600,7.9496865234375,0.07752054929733276,0.38097167015075684,-0.17621085047721863
1772623305490715600,7.959715576171875,0.07401752471923828,0.32989656925201416,-0.2410409301519394
1772623305500745500,7.969745361328125,0.052445121109485626,0.2036970853805542,-0.3232513964176178
1772623305510775600,7.979775634765625,-0.00026344042271375656,0.00007652677595615387,-0.4305594265460968
1772623305520805600,7.9898056640625,-0.09956951439380646,-0.21696577966213226,-0.5685313940048218
1772623305530835700,7.999835693359375,-0.22559426724910736,-0.36903512477874756,-0.7182435393333435
1772623305540864800,8.00986474609375,-0.3489396274089813,-0.4280302822589874,-0.8340327739715576
1772623305550894800,8.019894775390625,-0.45724591612815857,-0.4293219745159149,-0.8864977359771729
1772623305560924400,8.02992431640625,-0.5459315776824951,-0.3816481828689575,-0.8583827614784241
1772623305570954500,8.03995458984375,-0.5801271796226501,-0.27693814039230347,-0.7564231157302856
1772623305580983600,8.049983642578125,-0.5662574768066406,-0.13179267942905426,-0.6034045219421387
1772623305591013600,8.060013671875,-0.4869351089000702,0.022904884070158005,-0.41857263445854187
1772623305601043700,8.070043701171874,-0.34705018997192383,0.14681003987789154,-0.23757460713386536
1772623305611073800,8.08007373046875,-0.17046502232551575,0.21052297949790955,-0.07660143077373505
1772623305621103600,8.090103515625,0.0006979377940297127,0.2011507898569107,0.052893973886966705
1772623305631132700,8.100132568359374,0.12749618291854858,0.12923303246498108,0.15855060517787933
1772623305641162800,8.110162841796875,0.21544149518013,0.02624886855483055,0.2392936646938324
1772623305651192600,8.120192626953125,0.2914670407772064,-0.07479362934827805,0.2995421588420868
1772623305661222700,8.13022265625,0.35897791385650635,-0.1423787921667099,0.34440284967422485
1772623305671251500,8.14025146484375,0.39800915122032166,-0.1751282513141632,0.3615819215774536
1772623305681281500,8.150281494140625,0.4179237186908722,-0.1830093413591385,0.3532044291496277
1772623305691311600,8.1603115234375,0.4062653183937073,-0.18254876136779785,0.31116974353790283
1772623305701341700,8.170341796875,0.3627854883670807,-0.17777079343795776,0.2454218864440918
1772623305711371800,8.180371826171875,0.28336358070373535,-0.18123801052570343,0.16769172251224518
1772623305721400800,8.19040087890625,0.17199337482452393,-0.19878292083740234,0.0831155776977539
1772623305731430700,8.2004306640625,0.049368251115083694,-0.24167244136333466,0.007318688556551933
1772623305741460500,8.21046044921875,-0.06509121507406235,-0.2694239020347595,-0.0613972544670105
1772623305751490600,8.220490478515625,-0.1476060450077057,-0.2619495391845703,-0.11718375980854034
1772623305761519600,8.23051953125,-0.2043156623840332,-0.2302166223526001,-0.1623336523771286
1772623305771549700,8.2405498046875,-0.24032802879810333,-0.1828395277261734,-0.19713060557842255
1772623305781579800,8.250579833984375,-0.2694512903690338,-0.1307065486907959,-0.2286195456981659
1772623305791609600,8.260609619140626,-0.27805617451667786,-0.09316683560609818,-0.2451738715171814
1772623305801639700,8.2706396484375,-0.2652572691440582,-0.03872569277882576,-0.2553013265132904
1772623305811668700,8.280668701171875,-0.25074130296707153,0.01494650263339281,-0.2567080557346344
1772623305821698600,8.290698486328125,-0.23430639505386353,0.05276152864098549,-0.2420596033334732
1772623305831728600,8.300728759765626,-0.21542304754257202,0.08540865778923035,-0.20953378081321716
1772623305841758700,8.3107587890625,-0.20221349596977234,0.11167621612548828,-0.16493354737758636
1772623305851787500,8.32078759765625,-0.19846461713314056,0.11212965846061707,-0.12909317016601562
1772623305861817600,8.330817626953126,-0.20642586052417755,0.09694750607013702,-0.1284518837928772
1772623305871847700,8.34084765625,-0.20496371388435364,0.09428197145462036,-0.1555951088666916
1772623305881877800,8.350877685546875,-0.20499753952026367,0.0871494859457016,-0.19548127055168152
1772623305891906800,8.36090673828125,-0.2063082456588745,0.1021253690123558,-0.22999738156795502
1772623305901936600,8.3709365234375,-0.20258301496505737,0.11840900778770447,-0.24218852818012238
1772623305911966500,8.380966552734375,-0.20407959818840027,0.1254337728023529,-0.24532835185527802
1772623305921996500,8.39099658203125,-0.20318609476089478,0.12892091274261475,-0.2225703001022339
1772623305932026600,8.401026611328126,-0.20274576544761658,0.11924969404935837,-0.19858255982398987
1772623305942055700,8.4110556640625,-0.2027452290058136,0.10609979927539825,-0.16699133813381195
1772623305952085800,8.421085693359375,-0.20335546135902405,0.08890502154827118,-0.14304877817630768
1772623305962115600,8.431115478515625,-0.20812465250492096,0.07702465355396271,-0.13063231110572815
1772623305972145700,8.441145751953124,-0.21165290474891663,0.061083752661943436,-0.13801489770412445
1772623305982174700,8.4511748046875,-0.2060200572013855,0.05116267874836922,-0.15774333477020264
1772623305992204500,8.46120458984375,-0.1876426488161087,0.06559348851442337,-0.17491887509822845
1772623306002234600,8.471234619140626,-0.15538804233074188,0.11337432265281677,-0.18739952147006989
1772623306012264700,8.4812646484375,-0.09280984103679657,0.16939154267311096,-0.1783832311630249
1772623306022294500,8.49129443359375,-0.021504763513803482,0.18882250785827637,-0.14448198676109314
1772623306032323600,8.501323486328126,0.048213228583335876,0.15263564884662628,-0.07057878375053406
1772623306042353700,8.511353759765624,0.10911279171705246,0.09972450137138367,0.022170064970850945
1772623306052383700,8.5213837890625,0.13577289879322052,0.026752058416604996,0.10960990190505981
1772623306062413600,8.53141357421875,0.1541053056716919,-0.07443182170391083,0.17163917422294617
1772623306072443600,8.541443603515624,0.17411711812019348,-0.18272154033184052,0.2043790966272354
1772623306082472400,8.551472412109375,0.19653774797916412,-0.28465190529823303,0.2135920375585556
1772623306092502500,8.56150244140625,0.20050792396068573,-0.37193599343299866,0.22248125076293945
1772623306102532600,8.57153271484375,0.1805134415626526,-0.4199397563934326,0.2492728978395462
1772623306112562700,8.581562744140625,0.12600275874137878,-0.4050404131412506,0.31255239248275757
1772623306122591700,8.591591796875,0.041046321392059326,-0.3373306095600128,0.39424166083335876
1772623306132621600,8.60162158203125,-0.04748333618044853,-0.22536157071590424,0.48328056931495667
1772623306142651600,8.611651611328124,-0.12300072610378265,-0.09764061868190765,0.5472134351730347
1772623306152681500,8.621681396484375,-0.16852937638759613,0.02654997631907463,0.5646114945411682
1772623306162711600,8.631711669921875,-0.1812068223953247,0.14801888167858124,0.5198956727981567
1772623306172741600,8.64174169921875,-0.15727534890174866,0.22962325811386108,0.4135933518409729
1772623306182771700,8.651771728515625,-0.12772518396377563,0.26177719235420227,0.2838856875896454
1772623306192801800,8.6618017578125,-0.11072448641061783,0.2612420618534088,0.14524193108081818
1772623306202830600,8.67183056640625,-0.10892365127801895,0.2244749814271927,0.015377144329249859
1772623306212860700,8.681860595703125,-0.11001328378915787,0.17958861589431763,-0.09075608104467392
1772623306222890500,8.691890380859375,-0.11103114485740662,0.11032033711671829,-0.14982393383979797
1772623306232920600,8.701920654296876,-0.11750556528568268,0.008704728446900845,-0.14995336532592773
1772623306242949600,8.71194970703125,-0.13429813086986542,-0.09739614278078079,-0.11480949074029922
1772623306252979500,8.7219794921875,-0.16760893166065216,-0.23488043248653412,-0.0788528174161911
1772623306263009500,8.732009521484375,-0.22206178307533264,-0.3758452832698822,-0.06549519300460815
1772623306273039400,8.742039306640624,-0.29095789790153503,-0.4558742642402649,-0.06535525619983673
1772623306283069400,8.7520693359375,-0.3729760944843292,-0.430014967918396,-0.06877928227186203
1772623306293098500,8.762098388671875,-0.46438759565353394,-0.29194268584251404,-0.06044264882802963
1772623306303128600,8.772128662109376,-0.5388839244842529,-0.0368155837059021,-0.03046317771077156
1772623306313158400,8.782158447265624,-0.5761294364929199,0.2762313783168793,0.008717644028365612
1772623306323188200,8.792188232421875,-0.5558260083198547,0.5593928098678589,0.039023883640766144
1772623306333217300,8.80221728515625,-0.4779110252857208,0.7700544595718384,0.06398622691631317
1772623306343247400,8.812247314453124,-0.34843823313713074,0.8966989517211914,0.09399765729904175
1772623306353277400,8.82227734375,-0.193626269698143,0.9194049835205078,0.12079019844532013
1772623306363307500,8.8323076171875,-0.027977120131254196,0.8235484957695007,0.1550658792257309
1772623306373337300,8.84233740234375,0.11488893628120422,0.6442152857780457,0.19691070914268494
1772623306383366400,8.852366455078124,0.21594524383544922,0.4252573549747467,0.2443397492170334
1772623306393396500,8.862396484375,0.2522783577442169,0.17556165158748627,0.2964465022087097
1772623306403426300,8.87242626953125,0.2312265932559967,-0.07535631209611893,0.3399452567100525
1772623306413456400,8.882456298828124,0.15704582631587982,-0.31517159938812256,0.36663562059402466
1772623306423485200,8.892485107421875,0.06132141500711441,-0.5068060159683228,0.3705803155899048
1772623306433515300,8.902515380859375,-0.03866264969110489,-0.6127169728279114,0.33536627888679504
1772623306443545300,8.91254541015625,-0.1340264528989792,-0.6173018217086792,0.2525811195373535
1772623306453575400,8.922575439453125,-0.21100156009197235,-0.536558985710144,0.1328640878200531
1772623306463605500,8.93260546875,-0.2854454219341278,-0.4020933210849762,0.0020778505131602287
1772623306473634600,8.942634521484376,-0.34818002581596375,-0.23164257407188416,-0.1138925552368164
1772623306483664400,8.952664306640624,-0.39241620898246765,-0.05173031985759735,-0.20568399131298065
1772623306493694200,8.962694091796875,-0.4025132954120636,0.11041539907455444,-0.27752289175987244
1772623306503724300,8.972724365234376,-0.37193647027015686,0.23191574215888977,-0.3152657151222229
1772623306513753300,8.98275341796875,-0.3085445463657379,0.32843127846717834,-0.31723201274871826
1772623306523783400,8.992783447265625,-0.22814637422561646,0.3945966958999634,-0.2871137857437134
1772623306533813500,9.0028134765625,-0.13707244396209717,0.4086581766605377,-0.23727953433990479
1772623306543843300,9.01284326171875,-0.05145633965730667,0.3719901740550995,-0.169625923037529
1772623306553873400,9.022873291015625,0.018692705780267715,0.30153602361679077,-0.10338681191205978
1772623306563902500,9.03290234375,0.06534143537282944,0.1958327740430832,-0.058513350784778595
1772623306573932300,9.042932373046876,0.08247645199298859,0.0797135978937149,-0.03076888434588909
1772623306583962400,9.05296240234375,0.07626542448997498,-0.03698345273733139,-0.019614500924944878
1772623306593992400,9.062992431640625,0.047148022800683975,-0.15718257427215576,-0.011707309633493423
1772623306604021200,9.073021240234375,0.014664914458990097,-0.25209149718284607,0.0037829671055078506
1772623306614051300,9.08305126953125,-0.015676431357860565,-0.2932801842689514,0.029765188694000244
1772623306624081400,9.093081298828125,-0.043701671063899994,-0.28894883394241333,0.042103346437215805
1772623306634111500,9.103111572265625,-0.07458949834108353,-0.2486756443977356,0.0290598776191473
1772623306644141300,9.113141357421876,-0.10608457028865814,-0.18395817279815674,-0.007596936076879501
1772623306654170400,9.12317041015625,-0.13554662466049194,-0.11783883720636368,-0.05749799683690071
1772623306664200200,9.1332001953125,-0.16314202547073364,-0.06820603460073471,-0.09800733625888824
1772623306674230300,9.143230224609376,-0.17889952659606934,-0.05618221312761307,-0.12302166223526001
1772623306684260400,9.15326025390625,-0.17522676289081573,-0.04440757632255554,-0.123910091817379
1772623306694289400,9.163289306640625,-0.16137443482875824,-0.022227827459573746,-0.1000298485159874
1772623306704319500,9.173319580078125,-0.13200615346431732,0.005903409793972969,-0.06264945864677429
1772623306714349300,9.183349365234376,-0.09705260396003723,0.016984175890684128,-0.027922118082642555
1772623306724379400,9.19337939453125,-0.06671573966741562,0.009358215145766735,0.007805252447724342
1772623306734409200,9.2034091796875,-0.03823345899581909,-0.006689766421914101,0.030954662710428238
1772623306744438500,9.2134384765625,-0.01831381395459175,-0.04070179536938667,0.0397484190762043
1772623306754468400,9.22346826171875,0.0005762651562690735,-0.09059471637010574,0.04277724027633667
1772623306764498400,9.23349853515625,0.014492081478238106,-0.16592809557914734,0.03224923461675644
1772623306774528300,9.2435283203125,0.02300228364765644,-0.2843007743358612,0.020514246076345444
1772623306784558300,9.253558349609374,0.0225058700889349,-0.413724809885025,0.0040428610518574715
1772623306794587400,9.26358740234375,0.007664453238248825,-0.552124559879303,-0.0036975573748350143
1772623306804617500,9.273617431640625,-0.02804827131330967,-0.6708770990371704,-0.003297017887234688
1772623306814647600,9.2836474609375,-0.0733543187379837,-0.7327964901924133,0.020428843796253204
1772623306824677400,9.293677490234375,-0.13400967419147491,-0.7397103309631348,0.053273074328899384
1772623306834706400,9.30370654296875,-0.1935529261827469,-0.688328206539154,0.10882865637540817
1772623306844736300,9.313736328125,-0.2503962516784668,-0.5602128505706787,0.1641872525215149
1772623306854766300,9.323766357421874,-0.2780535817146301,-0.367481529712677,0.21662834286689758
1772623306864796400,9.33379638671875,-0.27700191736221313,-0.15417751669883728,0.24304212629795074
1772623306874825500,9.343825439453125,-0.24372875690460205,0.037752363830804825,0.2381191849708557
1772623306884855300,9.353855224609376,-0.18101558089256287,0.15365871787071228,0.22438475489616394
1772623306894885400,9.363885498046875,-0.09713418781757355,0.18243716657161713,0.21733319759368896
1772623306904915500,9.37391552734375,-0.005682837218046188,0.15345796942710876,0.2278207242488861
1772623306914945300,9.3839453125,0.07807979732751846,0.13336431980133057,0.2555290460586548
1772623306924974300,9.393974365234374,0.13851810991764069,0.12615273892879486,0.27619996666908264
1772623306935004400,9.40400439453125,0.18148458003997803,0.1263861209154129,0.2813611924648285
1772623306945034200,9.4140341796875,0.2017267346382141,0.09122893214225769,0.25679728388786316
1772623306955064300,9.424064208984374,0.2012585699558258,0.002900935709476471,0.2059786468744278
1772623306965094400,9.434094482421875,0.1682734489440918,-0.1541115939617157,0.12444384396076202
1772623306975123500,9.44412353515625,0.10742521286010742,-0.3735010325908661,0.008736979216337204
1772623306985153500,9.454153564453126,-0.0036227465607225895,-0.5664933919906616,-0.12490523606538773
1772623306995183400,9.464183349609375,-0.15706606209278107,-0.6350066065788269,-0.24206367135047913
1772623307005213400,9.47421337890625,-0.33764806389808655,-0.5403805375099182,-0.3106033205986023
1772623307015242200,9.4842421875,-0.5192615389823914,-0.29293733835220337,-0.32154589891433716
1772623307025272300,9.494272216796874,-0.6651524305343628,0.016712654381990433,-0.28324031829833984
1772623307035302400,9.504302490234375,-0.7365050315856934,0.33304011821746826,-0.21798738837242126
1772623307045332500,9.51433251953125,-0.7043635845184326,0.5768096446990967,-0.16611434519290924
1772623307055362600,9.524362548828124,-0.5754705667495728,0.7090830206871033,-0.12213989347219467
1772623307065391400,9.534391357421875,-0.38817843794822693,0.724427342414856,-0.08117621392011642
1772623307075421400,9.54442138671875,-0.1749247908592224,0.6191408038139343,-0.0115812411531806
1772623307085451300,9.554451171875,0.034484364092350006,0.4272181987762451,0.09923554956912994
1772623307095481300,9.5644814453125,0.2180505245923996,0.20051032304763794,0.2314339578151703
1772623307105510400,9.574510498046875,0.35212576389312744,-0.007495869416743517,0.3656271994113922
1772623307115540200,9.584540283203125,0.410464882850647,-0.1805708110332489,0.4761028587818146
1772623307125570300,9.5945703125,0.3924368917942047,-0.28567007184028625,0.5538301467895508
1772623307135600400,9.604600341796875,0.31045782566070557,-0.33067670464515686,0.5706748366355896
1772623307145630500,9.61463037109375,0.20060938596725464,-0.32489606738090515,0.5137209892272949
1772623307155659500,9.624659423828126,0.07611299306154251,-0.27499663829803467,0.4027548134326935
1772623307165689300,9.634689453125,-0.05020046979188919,-0.19019652903079987,0.24907788634300232
1772623307175719400,9.644719482421875,-0.166866734623909,-0.08641749620437622,0.08253466337919235
1772623307185749200,9.654749267578126,-0.2615130841732025,0.0044556912034749985,-0.06614428758621216
1772623307195778300,9.6647783203125,-0.32330945134162903,0.07618055492639542,-0.17934255301952362
1772623307205808400,9.674808349609375,-0.358499139547348,0.11558282375335693,-0.25488629937171936
1772623307215838500,9.68483837890625,-0.3618646562099457,0.11359741538763046,-0.2896523177623749
1772623307225868500,9.69486865234375,-0.33027371764183044,0.09033497422933578,-0.2968497574329376
1772623307235898400,9.7048984375,-0.28034546971321106,0.0643567144870758,-0.2727944552898407
1772623307245927400,9.714927490234375,-0.214544877409935,0.03334580734372139,-0.2281569391489029
1772623307255957200,9.724957275390626,-0.1399817168712616,0.001175624318420887,-0.17331747710704803
1772623307265987300,9.7349873046875,-0.067184217274189,-0.033996209502220154,-0.10274183750152588
1772623307276017400,9.745017333984375,-0.014421571046113968,-0.07880517840385437,-0.04161639139056206
1772623307286046500,9.75504638671875,0.00888108741492033,-0.10190969705581665,-0.0032729972153902054
1772623307296076500,9.76507666015625,0.017452765256166458,-0.12315636873245239,-0.0028129899874329567
1772623307306106600,9.775106689453125,0.013357356190681458,-0.13283056020736694,-0.03747482970356941
1772623307316136700,9.78513671875,-0.009041371755301952,-0.1242268979549408,-0.09576727449893951
1772623307326166300,9.795166259765624,-0.04010208696126938,-0.09959904849529266,-0.16194762289524078
1772623307336195600,9.805195556640625,-0.0770910233259201,-0.0679926797747612,-0.21617604792118073
1772623307346225400,9.815225341796875,-0.11542722582817078,-0.023743990808725357,-0.2451712191104889
1772623307356255500,9.82525537109375,-0.14252710342407227,0.03979255259037018,-0.2550584375858307
1772623307366285600,9.83528564453125,-0.1524210125207901,0.13300824165344238,-0.2527678608894348
1772623307376314400,9.845314453125,-0.14191271364688873,0.22112399339675903,-0.21894359588623047
1772623307386344400,9.855344482421875,-0.11460518836975098,0.29454439878463745,-0.15706822276115417
1772623307396374500,9.86537451171875,-0.06946554034948349,0.3535647392272949,-0.08195870369672775
1772623307406404600,9.875404541015625,-0.01902713254094124,0.44668030738830566,0.060104429721832275
1772623307416434400,9.885434326171875,-0.026612132787704468,0.24960556626319885,0.15441745519638062
1772623307426463500,9.89546337890625,-0.034827183932065964,-0.012355483137071133,0.1540728509426117
1772623307436493300,9.905493408203125,-0.003413427621126175,-0.0813826471567154,0.0964559018611908
1772623307446523400,9.9155234375,0.0547899566590786,-0.04644623398780823,0.02139231562614441
1772623307456553500,9.925553466796876,0.08776383101940155,-0.01548042707145214,-0.03429827839136124
1772623307466582500,9.93558251953125,0.09051354229450226,0.008813193999230862,-0.07321877777576447
1772623307476612600,9.945612548828125,0.07016788423061371,0.00211204681545496,-0.09246838837862015
1772623307486642700,9.955642578125,0.015317416749894619,-0.04751542583107948,-0.07187149673700333
1772623307496672500,9.965672607421874,-0.06444579362869263,-0.12602852284908295,-0.00036066677421331406
1772623307506702300,9.975702392578125,-0.14129449427127838,-0.24479486048221588,0.08010407537221909
1772623307516731400,9.9857314453125,-0.2227490097284317,-0.29555273056030273,0.12598516047000885
1772623307526761500,9.995761474609376,-0.30353307723999023,-0.15082350373268127,0.11803854256868362
1772623307536791600,10.00579150390625,-0.3619794249534607,0.17081066966056824,0.13062787055969238
1772623307546821600,10.015821533203125,-0.3341917097568512,0.5849287509918213,0.25703004002571106
1772623307556851500,10.0258515625,-0.14611990749835968,0.8037366271018982,0.40635594725608826
