time,seconds_elapsed,z,y,x
1772527337831732500,0.075732421875,0.13520663508623837,0.11931027003526687,0.21604572016894816
1772527337841730300,0.085730224609375,0.15183306797742843,0.09844985283613204,0.10630115085840225
1772527337851728400,0.095728271484375,0.1264373454362154,0.04242927492856979,0.09432020568549633
1772527337861725700,0.1057255859375,0.07793371903002262,0.010138532176613807,0.09978256274461746
1772527337871723500,0.1157236328125,0.0237327577650547,-0.06985270390510559,0.10684241812825203
1772527337881721600,0.1257216796875,-0.01679243710786104,-0.06264905613660812,0.12107669518589972
1772527337891719400,0.135719482421875,-0.05480857176929712,-0.05527122084498405,0.11868073996007442
1772527337901717500,0.145717529296875,-0.060353930936753744,-0.053529930135607716,0.13080752334445714
1772527337911715600,0.155715576171875,-0.056365153561532495,-0.004963759887218475,0.147305653680861
1772527337921712400,0.16571240234375,-0.021206746418774125,0.022814473876357075,0.11260025100260972
1772527337931710500,0.17571044921875,0.07193447861522435,0.06079904435575008,0.10844868428111076
1772527337941708500,0.18570849609375,0.1822448651149869,0.09376081823706627,0.06840864257663488
1772527337951706400,0.195706298828125,0.20158201826959848,0.07203238603174686,-0.001717325311899185
1772527337961704400,0.205704345703125,0.2034448895320296,0.07874561993479728,-0.0004085808008909225
1772527337971702300,0.215702392578125,0.18908873966038225,0.09391396297216414,0.01930734253823757
1772527337981700400,0.225700439453125,0.12407032404392956,0.0665402183562517,-0.005459434449672698
1772527337991697700,0.23569775390625,0.09343377823978662,-0.00935761093199253,-0.032279052314162254
1772527338001695500,0.245695556640625,0.06353489906042814,-0.027020108872652052,0.017612813580036163
1772527338011693600,0.255693603515625,0.02220218719691038,-0.05119008901119232,0.04706219542622566
1772527338021691600,0.265691650390625,-0.0015603811845183372,-0.04001987569928169,0.050775078469514845
1772527338031689500,0.275689453125,-0.04147036676853895,-0.011032850667834281,0.05857435404360294
1772527338041687600,0.2856875,-0.02573971367329359,-0.044964346364140505,0.07535539297461509
1772527338051684400,0.295684326171875,0.03461275595873594,-0.06616437078118324,0.09297609760016202
1772527338061682400,0.305682373046875,0.08454086221009492,0.03153378690481186,0.09248568373471498
1772527338071680500,0.315680419921875,0.13191665363013744,0.03705927232801914,0.008048281899094581
1772527338081678300,0.32567822265625,0.10851590429842471,-0.030977322065830228,-0.021580548167228698
1772527338091676400,0.335676513671875,0.06063567048758268,0.03949555956423283,-0.0000043839141726493836
1772527338101674500,0.345674560546875,0.02926671875566244,-0.0005254851788282394,0.0253515911385417
1772527338111671600,0.355671630859375,0.014648703077435493,-0.10215338352918624,0.04338993665426969
1772527338121669600,0.365669677734375,-0.06129296535253524,-0.08134089712500572,0.05637538269460201
1772527338131667500,0.37566748046875,-0.12893354616612196,-0.031386487388610836,0.09217822522073983
1772527338141665500,0.38566552734375,-0.11862228777110576,0.03574351355433464,0.10342325733453035
1772527338151663600,0.39566357421875,-0.06234627379775047,0.06655600044727325,0.14624270062446593
1772527338161661400,0.405661376953125,0.014480945295095443,0.09659048870503902,0.17644523892551658
1772527338171659500,0.415659423828125,0.08840396737903355,0.09034545683562754,0.13712562045007942
1772527338181656300,0.42565625,0.1345034552529454,0.054657472860813135,0.11182663628160953
1772527338191654400,0.435654296875,0.08817220444977283,-0.0069219082176685326,0.10470774418711662
1772527338201652500,0.445652587890625,0.048347266800701616,0.01845394057929516,0.08782850557863711
1772527338211650300,0.455650390625,-0.01865384706556797,0.05208148489296436,0.11499649848937987
1772527338221648400,0.4656484375,-0.008043897984921932,-0.008920973080396652,0.13527590093016623
1772527338231646500,0.475646484375,0.009674714057147503,-0.04141162231862545,0.11657178498208522
1772527338241644300,0.485644287109375,0.00016658873856067658,-0.07347089440226555,0.11929273437857627
1772527338251641600,0.4956416015625,-0.049989481049776074,-0.0890530789375305,0.1380401049464941
1772527338261639400,0.505639404296875,-0.044459027190506456,-0.08624445125758648,0.14851999790668485
1772527338271637500,0.515637451171875,-0.009173486536741255,-0.08739946651160717,0.07821370501518249
1772527338281635600,0.525635498046875,0.024837504136562345,-0.07692074259519577,-0.005809270800650119
1772527338291633400,0.53563330078125,-0.02077390795946121,-0.07759586537778378,-0.020715455770492552
1772527338301631500,0.545631591796875,-0.027743746972084045,-0.04123685027360916,0.0027244565278291702
1772527338311628300,0.555628173828125,-0.03399433179944753,-0.007476619490981102,0.005391922171413898
1772527338321626400,0.56562646484375,-0.01111000755727291,0.03720248019099235,0.05681845028698444
1772527338331624400,0.57562451171875,0.04061579576581716,-0.012222352713346481,0.08461305066347122
1772527338341622300,0.585622314453125,0.077265318249166,-0.05802139633595943,0.06172434250712394
1772527338351620400,0.595620361328125,0.03128185797035694,-0.04292611853480339,-0.005894903257489204
1772527338361618400,0.605618408203125,-0.010196692104637622,-0.037630350214242936,0.01090045645982027
1772527338371615500,0.615615478515625,-0.016492577378451823,-0.017636778977513312,-0.011474164694547652
1772527338381613600,0.625613525390625,0.0018295535147190092,-0.012521043398976325,-0.046347325155138966
1772527338391611400,0.635611328125,0.04349719642102718,-0.03249707897901535,-0.0370414444103837
1772527338401609500,0.645609375,0.03717559218406677,-0.04233458238244057,-0.0001575286492705345
1772527338411607600,0.655607666015625,0.026430910807847974,-0.04463526054024696,0.0761088416904211
1772527338421605400,0.66560546875,0.038327392567694185,-0.043188568863272665,0.10204904637187719
1772527338431603500,0.675603515625,0.06480155799537897,-0.019541735816001892,0.10106295794397592
1772527338441600500,0.6856005859375,0.09713906249850988,0.0156722009062767,0.09180442347228526
1772527338451598300,0.695598388671875,0.10381664056628942,0.03431961823105812,0.09655366382598876
1772527338461596400,0.705596435546875,0.09033464318066835,-0.00012216507494449615,0.07639554967731237
1772527338471594200,0.71559423828125,0.07119505842477082,-0.03590425707399845,0.061685471801459786
1772527338481592300,0.72559228515625,0.05131020825952291,-0.013692425265908241,0.07771160071194172
1772527338491590400,0.73559033203125,0.027194880917668342,-0.006102993050217628,0.09401479299813509
1772527338501587500,0.74558740234375,0.03695464290976524,0.01962590696811676,0.03439472929388285
1772527338511585500,0.75558544921875,0.06602963848561048,0.05180442151725292,0.021341478714346884
1772527338521583600,0.76558349609375,0.08997194734811782,0.08693769421875476,0.05646218419522047
1772527338531581400,0.77558154296875,0.10399228939414024,0.14750059173107147,0.07448007144480943
1772527338541579500,0.78557958984375,0.1216010113209486,0.13454875569939612,0.10955956813246011
1772527338551577600,0.79557763671875,0.10418196674734354,0.14186521619260312,0.08195844450145959
1772527338561575400,0.805575439453125,0.09742547822445631,0.15767477974295616,0.07954612266272305
1772527338571572500,0.815572509765625,0.09239712866842746,0.1314092886298895,0.10647066220641135
1772527338581570300,0.8255703125,0.08759089743047953,0.07968319304585457,0.17582301537394524
1772527338591568400,0.835568359375,0.0610617869451642,0.027259178325533866,0.1990761729285121
1772527338601566500,0.84556640625,-0.004461363323032856,-0.008646247792243957,0.16285890438258646
1772527338611564300,0.855564208984375,-0.0535655859708786,-0.05029460147619247,0.15491671320647
1772527338621562400,0.865562255859375,-0.08122282370328902,-0.05064706817567348,0.15919102952480316
1772527338631559400,0.875559326171875,-0.05827040266096591,-0.08055120805203914,0.14383213235139847
1772527338641557500,0.8855576171875,0.01571633230894804,-0.09806874456405638,0.14460516255050898
1772527338651555600,0.8955556640625,0.023772797514498234,-0.13505378261208534,0.08866291057616471
1772527338661553400,0.905553466796875,0.02751695247888565,-0.10153145223855972,0.019461071795225143
1772527338671551500,0.915551513671875,-0.013550386446714401,-0.04973170689642429,-0.03975362597852945
1772527338681549600,0.925549560546875,-0.007813011838495731,-0.05459025284349918,-0.054827568730711936
1772527338691547400,0.93554736328125,0.041188627217710015,-0.04852057754099369,-0.06434007796347141
1772527338701544400,0.94554443359375,0.08773235172778368,0.03274900791347027,-0.05798398693501949
1772527338711542300,0.955542236328125,0.16023936953395604,0.07896656920909881,-0.02035480576455593
1772527338721539800,0.965539794921875,0.15362667339593172,0.06860124253928661,-0.06311988851875067
1772527338731538000,0.975537841796875,0.03670943597704172,-0.06145780052542686,-0.018102935184538364
1772527338741536000,0.985535888671875,-0.0979965561106801,-0.1142027177631855,0.040756081019341944
1772527338751533800,0.995533935546875,-0.20445026718229053,-0.0998456911087036,0.07937748809754848
1772527338761531000,1.00553076171875,-0.21841917130202054,-0.06473989093601704,0.1067167459219694
1772527338771528700,1.01552880859375,-0.09654840312898158,-0.06718319243490696,0.14240239180922507
1772527338781526800,1.02552685546875,0.04382306737452745,-0.07467500949501991,0.12376286552995443
1772527338791524900,1.03552490234375,0.1363996442630887,-0.05572597887516021,0.10013941335827112
1772527338801522700,1.045522705078125,0.15049509737193584,-0.017177344772219657,0.06501315491944551
1772527338811520800,1.055520751953125,0.13040800263285637,-0.021397592815756795,0.029692835213243958
1772527338821518800,1.065518798828125,0.13063421260416508,0.014895955836772917,0.04573474621474743
1772527338831516000,1.075515869140625,0.12294248905777931,0.043349896904826164,0.059411681650578974
1772527338841514000,1.085513916015625,0.08243044592738151,0.001578209102153778,0.07246522449105977
1772527338851511800,1.09551171875,0.035090018081665036,-0.020850480327010153,0.09291443054080009
1772527338861510000,1.105510009765625,-0.0015595044016838073,-0.02637713479399681,0.09557108252942562
1772527338871508000,1.115508056640625,-0.026676994523406026,0.051606853118538853,0.07179039396941661
1772527338881505800,1.125505859375,-0.028761399582028387,0.11158581326305865,0.03809650642126798
1772527338891502800,1.1355029296875,0.0004541735082864761,0.07921499101221562,0.03785685244649648
1772527338901501000,1.1455009765625,0.08157324457615614,0.07260697104930877,0.03221855429857969
1772527338911498800,1.155498779296875,0.11334726997762917,0.04759411034584045,-0.017293372367322445
1772527338921496800,1.165496826171875,0.11392916151881217,0.002081482449173927,0.006087795481085777
1772527338931494700,1.17549462890625,0.1005064931049943,0.01523439401090145,-0.0141059745028615
1772527338941492700,1.18549267578125,0.061952013783156866,0.01849310354590416,-0.03579875087291002
1772527338951490800,1.19549072265625,0.004251227703690528,-0.0062742579638957975,-0.012916472457349299
1772527338961488000,1.20548779296875,-0.017073884397745133,-0.030278233885765074,0.03291822700053453
1772527338971486000,1.21548583984375,-0.023143851961195467,-0.018883564168214798,0.04861147069483995
1772527338981484000,1.225484130859375,-0.0391436773866415,-0.0128401923507452,0.040813948686420916
1772527338991481900,1.23548193359375,-0.03394377065598964,-0.033061727124452586,0.05033639479130506
1772527339001480000,1.24547998046875,-0.05469605130553245,-0.033386136773228645,0.07675736872702836
1772527339011477800,1.255477783203125,-0.030745851397514342,0.014143676164746283,0.13592062857449053
1772527339021474800,1.265474853515625,0.005005553202331066,0.03334229763150215,0.1559726520001888
1772527339031473000,1.275472900390625,0.0178594818174839,0.025763971331715582,0.12626023530364036
1772527339041470700,1.285470703125,0.03485065636783838,0.026725509840250013,0.14467588969916104
1772527339051468800,1.29546875,0.04185439765006303,0.012763035461306572,0.1327811615049839
1772527339061467000,1.305466796875,0.016908756963908672,-0.04978022221326828,0.11820113974958657
1772527339071464700,1.315464599609375,-0.029381869567930697,-0.07733926026821136,0.11644582051485776
1772527339081462800,1.325462890625,-0.07924363258481025,-0.09053075027465819,0.10994798292815684
1772527339091459800,1.3354599609375,-0.09379851989895105,-0.09019581923186779,0.13072715158462522
1772527339101458000,1.3454580078125,-0.10933861885815858,-0.06518062044084072,0.15137801768630743
1772527339111456000,1.3554560546875,-0.0878311359271407,-0.062271454995870584,0.13366203599274157
1772527339121453800,1.365453857421875,-0.06688479401022196,0.00514613071680069,0.15913403864055872
1772527339131452000,1.375451904296875,-0.0638370968773961,-0.03900748378634453,0.3091299543187022
1772527339141450000,1.385449951171875,0.13217705813199282,0.2136427506804466,0.15291764834374189
1772527339151446800,1.39544677734375,0.015125380678474902,0.2507137134462595,0.10518734439760447
1772527339161444900,1.40544482421875,0.0702922643661499,0.16271043582260608,0.06594108341932296
1772527339171442700,1.415442626953125,0.1509323197454214,0.06849836668670177,0.15762100372910498
1772527339181440800,1.425440673828125,0.12623422407954932,0.01557166314125061,0.17223171288371086
1772527339191438800,1.43543896484375,0.08228899163007736,0.06056172846853733,0.15116349815279245
1772527339201436700,1.445436767578125,0.09399491925388574,0.08432780398130417,0.1323760878354311
1772527339211434800,1.455434814453125,0.08339052313119173,0.04939093063473701,0.12979571595340966
1772527339221431800,1.465431884765625,0.06802052004188298,-0.01637596526145935,0.07991583275794982
1772527339231430000,1.475429931640625,0.03574292903244495,-0.062413493815064426,0.050559682153165336
1772527339241428000,1.485427978515625,0.002454407414793968,-0.04940203655064106,-0.01103898814767599
1772527339251425800,1.49542578125,0.015861585998535155,-0.029791911673545834,-0.040999826647341246
1772527339261423900,1.505423828125,0.056470075240731235,-0.05499240390360355,-0.06307312676757573
1772527339271422000,1.515421875,0.07413228092044591,-0.0763052410453558,-0.07323445529788732
1772527339281418800,1.525418701171875,0.09687544312626123,-0.09858312382698059,-0.1006605146229267
1772527339291416800,1.535416748046875,0.06496259377598762,-0.10449731630682944,-0.11230009901225566
1772527339301414700,1.54541455078125,0.03790975167751312,-0.0768190357863903,-0.12883826909810303
1772527339311412700,1.555412841796875,0.04504033420979976,-0.10976561209857463,-0.13103928627371786
1772527339321410800,1.565410888671875,0.0516787493109703,-0.13432955999076365,-0.16862988899946213
1772527339331408600,1.57540869140625,0.019307050277292726,-0.12927052303552627,-0.12260843479782342
1772527339341406700,1.58540673828125,-0.026231296582520006,-0.10100947419106959,-0.05882277584671974
1772527339351403800,1.59540380859375,-0.005865092641115188,-0.09166530726253985,-0.010271803167462349
1772527339361401900,1.60540185546875,0.03272913416922092,-0.027203064224123955,-0.004979834239184856
1772527339371400000,1.61539990234375,0.057444473230838775,-0.0026677579045295712,-0.0033189152896404266
1772527339381397800,1.625397705078125,0.03654109367281198,-0.08933774109780789,0.016126958936452863
1772527339391395800,1.635395751953125,-0.031498131069540976,-0.09752513920664786,0.03464315109699964
1772527339401394000,1.645393798828125,-0.06437398023307322,-0.026773440635204315,0.07210223639756441
1772527339411390700,1.655390625,-0.023274200342595575,0.06191138951182365,0.09445084632784127
1772527339421388800,1.665388916015625,0.05389788666516542,0.10731938799023627,0.12250965059846639
1772527339431386600,1.67538671875,0.10529811129570006,0.08304770104289054,0.12256927183121442
1772527339441384700,1.685384765625,0.13276274906545876,0.037707507103681565,0.12060878541320562
1772527339451382800,1.6953828125,0.11023206056654453,0.028962475112080572,0.14737550404667854
1772527339461380600,1.705380615234375,0.06842734727710485,-0.0005307458758354186,0.15963029772490261
1772527339471378700,1.715378662109375,0.0265627204939723,0.035808980005979534,0.15113661014586685
1772527339481376000,1.7253759765625,-0.008950783696770668,0.07250351067483425,0.1813315496623516
1772527339491373800,1.735373779296875,-0.005865092641115188,0.044153614503145214,0.18402941044420001
1772527339501372000,1.745371826171875,-0.002350362518429756,0.01986146928966045,0.1942676036030054
1772527339511370000,1.755369873046875,-0.015894319224357602,0.022497663012146948,0.18165479026734827
1772527339521367800,1.765367919921875,-0.003966857804358005,0.015289923590421675,0.1539642347872257
1772527339531366000,1.775365966796875,0.005225917954742908,-0.013702362138032912,0.11028203718811273
1772527339541362700,1.78536279296875,-0.016741291442513465,-0.021733108380436895,0.1013578492373228
1772527339551360800,1.79536083984375,-0.03517448149472475,-0.0007417582780122757,0.12808715846985577
1772527339561358800,1.80535888671875,-0.028999884513020515,0.004443535405397415,0.11749971348196267
1772527339571356700,1.815356689453125,-0.005830898110568523,0.04417115015983581,0.0843307265907526
1772527339581354800,1.825354736328125,0.04357230748385191,0.0270049113035202,0.05107902985215187
1772527339591352800,1.835352783203125,0.0769081753745675,-0.027356793481111526,0.06516805322021245
1772527339601350000,1.845349853515625,0.0644473377302289,-0.045126843449473375,0.05091594824492931
1772527339611348000,1.855347900390625,0.050529287014901635,-0.012512860092520712,0.047881402854621405
1772527339621345800,1.865345703125,0.06635054100304842,-0.0019178163200616835,0.08486147246658801
1772527339631343900,1.87534375,0.0772132958009839,0.01152092644572258,0.056602469448745245
1772527339641342000,1.885342041015625,0.0706432697609067,-0.013714052575826644,0.06586071165949106
1772527339651339800,1.89533984375,0.044315234805643554,-0.040514381217956544,0.019969313578307626
1772527339661337900,1.905337890625,0.02676964124292135,-0.06941665057539939,0.020967969226837156
1772527339671334700,1.915334716796875,0.009714753806591033,-0.08465864337086677,0.019954992792010306
1772527339681332700,1.925332763671875,0.0026946459114551543,-0.0494090508133173,0.00986088427901268
1772527339691330800,1.935330810546875,0.029355273821949957,-0.0030097032099962234,0.031095395487546917
1772527339701328600,1.94532861328125,0.10833879416584968,0.026181319960951802,0.0480082441046834
1772527339711326700,1.95532666015625,0.13950696262866258,0.021502222234010694,0.04536795872896909
1772527339721324800,1.96532470703125,0.12139321378916501,-0.01030044474005699,0.03371522259712219
1772527339731322600,1.975322509765625,0.0727691758736968,-0.03567453997135162,0.05283756395727396
1772527339741319700,1.985319580078125,0.04336012603789568,-0.04544306979179382,0.08393880466371774
1772527339751317500,1.9953173828125,0.013831249214708805,-0.04491992270052433,0.06663374185860156
1772527339761315600,2.005315673828125,0.00509469279050827,-0.027199557092785834,0.0621574732273817
1772527339771313700,2.015313720703125,0.07591478042304516,0.018229484173655507,0.08423807987123727
1772527339781311500,2.0253115234375,0.11259235995709896,0.05599485894441604,0.06473229215145111
1772527339791309600,2.0353095703125,0.09626987844854593,0.00765139153599739,0.025579262414574623
1772527339801306400,2.045306396484375,0.04294833036661148,-0.008224807509779929,0.0077060443326830855
1772527339811304400,2.055304443359375,-0.014751578930020331,-0.009450549912452698,0.00499795441776514
1772527339821302500,2.065302490234375,-0.023684826970100402,-0.016187164691090584,0.03832271639257669
1772527339831300600,2.075300537109375,-0.01745908432304859,0.01985971572399139,0.07344488317817449
1772527339841298700,2.085298583984375,0.03874883285015821,0.06741641666889191,0.08807721964269875
1772527339851296800,2.095296875,0.059065936952829357,-0.009956161347031593,0.04786357493698597
1772527339861293600,2.10529345703125,0.052706923314929,-0.037484219741821284,0.10045154804736375
1772527339871291600,2.115291748046875,0.042271746279299256,0.05368424391448497,0.1296677056595683
1772527339881289500,2.12528955078125,0.051768765681982035,0.056501639422774315,0.11063187353909015
1772527339891287600,2.13528759765625,0.054145139424502844,-0.025023966619372368,0.10476707315891981
1772527339901285600,2.14528564453125,0.03682984748631716,-0.03450841880142688,0.09131751673817634
1772527339911283500,2.155283447265625,0.03390753029882908,0.015749357795715332,0.11098755510896444
1772527339921281500,2.165281494140625,0.04560235200673342,0.013690087178349495,0.09429010280817747
1772527339931278600,2.175278564453125,0.05928600944429636,0.01992342860996723,0.06972177100181579
1772527339941276700,2.185276611328125,0.08450228376537561,0.01466273160278797,0.04341828596591949
1772527339951274800,2.195274658203125,0.07989215962141752,-0.020151392146945,0.018633973321318626
1772527339961272600,2.2052724609375,0.04587824633866548,-0.03564005317986011,0.001426233410835266
1772527339971270700,2.215270751953125,0.03245031722784042,-0.02329495086967945,-0.01220277123004198
1772527339981268700,2.225268798828125,0.04608399804383516,-0.05500234077572822,-0.007258592826128006
1772527339991266600,2.2352666015625,0.034680560497939585,-0.09001520196795464,0.003703530693054199
1772527340001263600,2.245263671875,0.016624094803631306,-0.0612906272649765,-0.003287643368542194
1772527340011261400,2.255261474609375,0.017647884893417357,-0.002525719085335731,-0.01770925969183445
1772527340021259500,2.265259521484375,0.051914019371569156,-0.025998364609479904,-0.012694646400213241
1772527340031257600,2.275257568359375,0.07243950552791356,-0.024524200403690338,-0.00019172317981719968
1772527340041255400,2.28525537109375,0.07432195827364921,-0.03702303197085857,-0.01805558891147375
1772527340051253500,2.29525341796875,0.04041939641088247,-0.02328618304133415,-0.004344166684150695
1772527340061250600,2.30525048828125,0.03213379862457513,0.022085575079917905,0.02817658543139696
1772527340071248600,2.31524853515625,0.04504296455830335,0.02712006211578846,0.02932078703045845
1772527340081246700,2.325246826171875,0.08052519682794809,-0.010015782579779624,0.020193477723002434
1772527340091244500,2.33524462890625,0.07333733115047215,-0.03231295458376408,0.018697101685404775
1772527340101242600,2.34524267578125,0.05773410382717847,-0.04660042313337326,0.01000116953253746
1772527340111240700,2.35524072265625,0.03482961357980966,-0.07228139235675335,0.01748655685186386
1772527340121237500,2.365237548828125,-0.007915303169190884,-0.061247957167029375,0.04111410067677498
1772527340131235600,2.375235595703125,-0.030317104591429233,0.0017740239351987839,0.06133914258182049
1772527340141233700,2.385233642578125,0.040759880411624906,-0.0018809914410114288,0.04776099134534597
1772527340151231500,2.3952314453125,0.08016863847523928,-0.013146481820940971,0.02668517782986164
1772527340161229600,2.4052294921875,0.044809448063373565,0.027680034086108207,0.023623744432628154
1772527340171227600,2.4152275390625,0.039492929215729236,0.01919452981352806,0.01909077717810869
1772527340181225500,2.4252255859375,0.0606391776189208,-0.00229834007024765,0.03312280966192484
1772527340191222800,2.435222900390625,0.06016513036638498,0.025954525467753408,0.050344285836815834
1772527340201220600,2.445220703125,0.07353197693973779,0.014767945542931557,0.0385597400188446
1772527340211218700,2.45521875,0.07304623924940824,-0.04023614879846572,0.04595949488133192
1772527340221216800,2.465216796875,0.025763386809825897,-0.04643500343859196,0.06972644717693328
1772527340231214600,2.475214599609375,0.021046587421000004,-0.016724340307712554,0.0874435979142785
1772527340241212700,2.485212646484375,0.04466799376606941,-0.02781798125207424,0.06873714387863875
1772527340251209500,2.49520947265625,0.04947101013362407,-0.06645896981358528,0.06312514921575785
1772527340261207600,2.50520751953125,0.032166531850397584,-0.033546295771002765,0.08048924873173237
1772527340271205600,2.51520556640625,0.04574760569632053,0.0001128127247095108,0.044510757377743716
1772527340281203500,2.525203369140625,0.0893278042256832,-0.004024433210492134,-0.0063397244155406944
1772527340291201500,2.535201416015625,0.0619832857042551,-0.02290799737870693,-0.024823183350265024
1772527340301199600,2.54519970703125,0.026914894932508468,-0.03490121751129627,-0.026311960603296755
1772527340311197400,2.555197509765625,0.008419745559990406,-0.05611527045369148,-0.03245966957807541
1772527340321194800,2.56519482421875,-0.004253273530304432,-0.06176935069262981,-0.03893120367974043
1772527340331192600,2.575192626953125,-0.011981237433850765,-0.03910392989814281,-0.012459668600559234
1772527340341190700,2.585190673828125,0.020471417881548402,-0.03419453054666519,0.012051672321557998
1772527340351188700,2.595188720703125,0.0563975945264101,-0.0383113182157278,0.023870704931020736
1772527340361186600,2.6051865234375,0.07393266669511794,-0.039969606816768644,0.01926116530895233
1772527340371184600,2.6151845703125,0.07927110511362552,0.000003507131338119507,0.030230595351755617
1772527340381181400,2.625181396484375,0.08717997854202986,0.027293080595135688,0.07824731502383947
1772527340391179500,2.635179443359375,0.09955021529346704,0.01869534811973572,0.08235796521306038
1772527340401177600,2.645177490234375,0.07832154930382966,0.0038145898520946502,0.0696428605467081
1772527340411175400,2.655175537109375,0.05691869579106569,0.017788170146942138,0.060956573005020616
1772527340421173500,2.665173583984375,0.06236497849822044,0.0036608605951070784,0.06374532694071532
1772527340431171600,2.675171630859375,0.049343876622617244,-0.007855974197387695,0.056770227231085296
1772527340441169400,2.68516943359375,0.04819003041237593,-0.02054828251004219,0.05437777913659811
1772527340451166700,2.695166748046875,0.05740034182816744,-0.05599836607575416,0.01878010379374027
1772527340461164500,2.70516455078125,0.01799889028817415,-0.0884001679867506,-0.002626256850361824
1772527340471162600,2.71516259765625,-0.022770634734630583,-0.07918751848340035,0.012645838822424411
1772527340481160700,2.72516064453125,-0.025632746167480944,-0.06740063457787036,0.023983517655730247
1772527340491158500,2.735158447265625,0.011534370449185372,-0.023446926560997963,0.0389911171734333
1772527340501156600,2.745156494140625,0.05217910004854202,0.029488544812798497,0.06859335149377584
1772527340511153400,2.7551533203125,0.09797522106170654,0.04692717086970806,0.0707128278657794
1772527340521151500,2.7651513671875,0.13310849376320838,0.017222352957725524,0.04160188419371843
1772527340531149600,2.775149658203125,0.10646130985617637,-0.019219664254784583,0.021622341482341288
1772527340541147400,2.7851474609375,0.04311170423477888,-0.0442325249582529,0.004930734400451183
1772527340551145500,2.7951455078125,-0.0019271686702966688,-0.04090659540593624,0.022552023547887802
1772527340561143600,2.8051435546875,-0.009192191237211227,0.009815291571617125,0.04049830686599016
1772527340571141400,2.815141357421875,0.032331074762344356,0.05353635987639427,0.052876434662938114
1772527340581138700,2.825138671875,0.07369593532979488,0.029086393752694128,0.05877396826893091
1772527340591136800,2.83513671875,0.08391396248340606,0.009735212072730063,0.047620998352766036
1772527340601134600,2.845134521484375,0.06283434957563877,0.010643559089303017,0.046754736912250516
1772527340611132700,2.855132568359375,0.05124591085165739,0.007899228817224503,0.04007160588651895
1772527340621130500,2.865130615234375,0.02317337031662464,-0.018034838384389875,0.02094429609030485
1772527340631128600,2.875128662109375,-0.006385317122936249,-0.06435176840126514,-0.013660276561975479
1772527340641125600,2.885125732421875,-0.05959492926299571,-0.08086977248191833,-0.003258417274057865
1772527340651123500,2.89512353515625,-0.07303016489744187,-0.07442074247300624,0.08151128525584936
1772527340661121500,2.90512158203125,-0.02836129434853792,-0.05884148054718971,0.17316870147287844
1772527340671119600,2.91511962890625,-0.017323767505586146,-0.038919220981001854,0.21729951962232588
1772527340681117400,2.925117431640625,-0.047507308845221995,-0.047018940806388854,0.18720920952409506
1772527340691115500,2.935115478515625,-0.051717035494744774,-0.04001870665550232,0.15897358738183975
1772527340701112600,2.945112548828125,-0.0013885317489504814,-0.007075052952766418,0.13688070577830075
1772527340711110700,2.955110595703125,0.028131869506835935,0.04346621676087379,0.12199760942310094
1772527340721109000,2.96510888671875,0.09718611651062965,0.09613748424053191,0.08380465689003468
1772527340731106800,2.97510693359375,0.14613953251093625,0.09839432325661182,0.028537527698278425
1772527340741105000,2.98510498046875,0.14176701651513576,0.037410569983720776,0.004101005578041076
1772527340751103000,2.99510302734375,0.08885171114653348,0.00009644611179828643,-0.0033092706784605976
1772527340761100800,3.005100830078125,0.0020554712250828743,-0.0010158990442752838,-0.0005032733470201492
1772527340771097900,3.015097900390625,0.0008677227452397346,0.010011690926551818,0.03911737390160561
1772527340781095700,3.025095703125,0.04287672643512487,0.03739537241458893,0.06689560766518116
1772527340791093800,3.03509375,0.06055383742302656,0.053637482163310046,0.09196487473100423
1772527340801091800,3.045091796875,0.06791296801418066,0.05813070192933082,0.10416501561254263
1772527340811089700,3.055089599609375,0.05764233389049768,0.05196984121203422,0.1099672721505165
1772527340821087700,3.065087646484375,0.06481909365206956,-0.00632861849963665,0.09219342278987169
1772527340831084800,3.075084716796875,0.03276858939677477,-0.04128185845911503,0.07901683809161186
1772527340841083000,3.085082763671875,-0.02404226210564375,-0.0638262832224369,0.0911187792956829
1772527340851081000,3.0950810546875,-0.07337386376857757,-0.07595277434587479,0.11873422371298074
1772527340861078800,3.105078857421875,-0.09944149422198534,-0.05334288313090801,0.15188596720844505
1772527340871076900,3.115076904296875,-0.08901011657863855,0.017153963896632193,0.18348463604301213
1772527340881075000,3.125074951171875,-0.06802607299983501,0.009245382729172706,0.18088848206996916
1772527340891072800,3.13507275390625,-0.039082594849169254,0.011174889487028121,0.17112112129330634
1772527340901069800,3.14506982421875,-0.01710749440640211,0.05462298606932163,0.12236088977754116
1772527340911067600,3.155067626953125,-0.019347674548625945,0.07493161460459231,0.11985329087078571
1772527340921065700,3.165065673828125,0.020454759007692336,0.08441255965530872,0.08207768696695565
1772527340931063800,3.175063720703125,0.047697278459370135,0.022835516664385793,0.14479747025221584
1772527340941061600,3.1850615234375,0.06052694941610098,0.020191724157333373,0.12409370491951703
1772527340951059700,3.195059814453125,0.05588438430726528,-0.00604103372991085,0.07651771475225687
1772527340961056800,3.205056884765625,0.060756958779692644,-0.035271219867467875,0.08645546365976334
1772527340971054800,3.215054931640625,0.054601358759403223,-0.037138767305016515,0.10179565613269806
1772527340981053000,3.225052978515625,0.025947218944132325,0.012883446970582007,0.12578063509315252
1772527340991050800,3.23505078125,0.054906479185819625,0.031331542330980296,0.1362976451933384
1772527341001048800,3.245048828125,0.044295068800449366,-0.001816109511256218,0.10580547629594803
1772527341011047000,3.255046875,0.008826280534267424,-0.05679623845517635,0.0447772993594408
1772527341021044700,3.265044677734375,-0.06066518884301185,-0.07001812359988689,0.026556875275075435
1772527341031041800,3.275041748046875,-0.08968903875350952,-0.06379062738716602,0.033251988999545574
1772527341041040000,3.285039794921875,-0.05323796145170927,-0.07673311106860638,0.05158171867728233
1772527341051037700,3.29503759765625,-0.0022828502401709555,-0.09900397958755493,0.05946574992537498
1772527341061035800,3.305035888671875,0.01662117219418287,-0.0432002593010664,0.09869856690019368
1772527341071033600,3.31503369140625,0.014690788653492926,0.027642040163278578,0.09639028995782137
1772527341081031700,3.32503173828125,0.028113749328255652,0.0636217005610466,0.08255114969760179
1772527341091029000,3.335029052734375,0.1076671785145998,0.0790589236676693,0.08086597308963536
1772527341101026800,3.34502685546875,0.15910013637095688,0.04335398855805397,0.08910013294965029
1772527341111025000,3.35502490234375,0.12972352750003338,0.025875030490756033,0.08534604111313819
1772527341121023000,3.36502294921875,0.043023733690381046,0.04994856451749801,0.11907967614978551
1772527341131020800,3.375020751953125,-0.00407733244150877,0.06654664809703827,0.14914163693636656
1772527341141019000,3.385018798828125,-0.06049187810271978,0.03235211755037307,0.1659381656974554
1772527341151015700,3.395015625,-0.09660013331621885,-0.014848025041818617,0.24004852704703805
1772527341161013800,3.405013671875,-0.1067389577537775,-0.012308277431130409,0.19569296023100613
1772527341171011800,3.41501171875,-0.08153612743616104,-0.044648704543709755,0.14650281286537647
1772527341181009700,3.425009765625,-0.03561462647765875,-0.0017769465446472166,0.09197510386407375
1772527341191007700,3.4350078125,0.03098462858945131,0.03690905020236969,0.06320055253952742
1772527341201005800,3.445005859375,0.12908493733555076,0.03496376135349274,0.032977848233282564
1772527341211004000,3.45500390625,0.17707096960842608,0.028290859460830688,-0.02166705740690231
1772527341221001000,3.4650009765625,0.16367168207019567,0.055687984952330585,-0.05866583171933889
1772527341230998800,3.474998779296875,0.1438999368906021,0.0434177014440298,-0.04472907630354166
1772527341240996900,3.484996826171875,0.12294511940628289,0.017448562929034232,-0.02150982101857662
1772527341250995000,3.494994873046875,0.07409399473667144,-0.004507248291373253,-0.027156886994838713
1772527341260992800,3.50499267578125,0.013863982440531252,-0.002947159367799759,-0.024296821388602254
1772527341270990800,3.514990966796875,-0.01047346321940422,-0.0253624047935009,0.004573883786797523
1772527341280987600,3.524987548828125,-0.029469547851383684,-0.06882569894492625,0.017552607825398445
1772527341290985700,3.53498583984375,-0.07036737542897463,-0.1105254905551672,0.024165596224367616
1772527341300983800,3.54498388671875,-0.09422609766125678,-0.12139525961577892,0.057929626399278636
1772527341310981600,3.554981689453125,-0.09155600166916847,-0.0859814164072275,0.08325959022790193
1772527341320979700,3.564979736328125,-0.07619944258332252,-0.04729483513832092,0.10564677860289812
1772527341330977800,3.574977783203125,0.003421498881280422,0.022498832055926322,0.12096622054874896
1772527341340975900,3.584975830078125,0.10795856267660855,0.040891982358694075,0.09729425306022167
1772527341350973000,3.594972900390625,0.1708934500172734,0.03245323983728885,0.07469342193454503
1772527341360970800,3.604970703125,0.19055501282066106,0.05859481230974197,0.12447189058214425
1772527341370968800,3.61496875,0.15327946739345788,0.03486147002279758,0.07651274631619454
1772527341380967000,3.624966796875,0.06457242541462183,0.025211013624072073,0.05484276629984378
1772527341390964700,3.63496484375,-0.006283025792241096,0.031248540222644804,0.08044803993850946
1772527341400962800,3.644962890625,-0.017820903372764586,0.026507483175396918,0.11068798764050006
1772527341410959600,3.654959716796875,-0.00635433746278286,0.010205167672038077,0.11095569866597652
1772527341420957700,3.664957763671875,-0.023703531670570373,-0.0009966098219156266,0.11809066511243581
1772527341430955800,3.674955810546875,-0.0069669164031744,-0.048041854113340374,0.10202245062589645
1772527341440953900,3.684953857421875,-0.021700082893669603,-0.043725159958004946,0.08710545200109482
1772527341450952000,3.694951904296875,-0.03516308331787586,-0.01122983454465866,0.06371317823678255
1772527341460950000,3.704949951171875,-0.019615970095992086,0.012962357425689696,0.05202420174777508
1772527341470947800,3.71494775390625,-0.01287117201089859,0.015692074650526047,0.0617281418994069
1772527341480945000,3.72494482421875,0.015909516793489457,0.014325462472438811,0.0655558834940195
1772527341490942700,3.734942626953125,0.03102729868739843,-0.00046001872718334194,0.07967968591451645
1772527341500940800,3.74494091796875,0.04485650207549333,0.011214636975526809,0.057904199697077274
1772527341510939000,3.75493896484375,0.0428472080796957,0.05713701471686363,0.04015606929957866
1772527341520936700,3.764936767578125,0.0487292518556118,0.014191606959700584,0.002904197008907795
1772527341530934800,3.774934814453125,0.04006254579722881,-0.026360183659195898,0.020710195073485375
1772527341540931800,3.784931884765625,0.022027707412838934,-0.00689502021074295,0.07455752059519291
1772527341550929700,3.7949296875,-0.010637129348516464,0.020381109249591828,0.1285802026838064
1772527341560927700,3.804927734375,-0.022950959737598895,-0.025326748958230016,0.1532566710397601
1772527341570925800,3.81492578125,-0.02269669271558523,-0.046593993392586706,0.17148177129924297
1772527341580924000,3.824923828125,-0.037409693200886246,-0.00132803373336792,0.2063955560311675
1772527341590922000,3.834921875,-0.0047451487004756925,0.05286299065947532,0.20158201826959848
1772527341600918800,3.844918701171875,0.06175707573294639,0.04807517186105251,0.1755675793081522
1772527341610916900,3.854916748046875,0.08280220184922218,0.016583470532298087,0.125339613327384
1772527341620915000,3.8649150390625,0.05013648830503225,0.006074935999512672,0.09305325448960065
1772527341630912800,3.874912841796875,0.00900514423251152,-0.03252455150783062,0.07766133182942866
1772527341640910800,3.884910888671875,-0.016596914535760877,-0.010512041664123534,0.07776216185539961
1772527341650908700,3.89490869140625,-0.005926175178587436,-0.021423311778903005,0.051799745342135425
1772527341660906800,3.90490673828125,0.018602116878330705,-0.017302432456612588,0.042110125976800916
1772527341670903800,3.91490380859375,0.03665098378807306,0.016546061131358147,0.04615238710492849
1772527341680902000,3.92490185546875,0.04878624273985624,0.07851122665703296,0.05811199722886085
1772527341690900000,3.93489990234375,0.07187427286058663,0.11058277370035648,0.04665858306139707
1772527341700898000,3.94489794921875,0.11924334227889775,0.07117021624445914,0.0327060455545783
1772527341710895900,3.954895751953125,0.1364449447095394,0.025215689799189565,0.010572539679706096
1772527341720894000,3.96489404296875,0.1032972928673029,0.037027123624086375,0.004843056116998195
1772527341730890800,3.974890869140625,0.08153671195805072,-0.03571954815685749,-0.01923515408486128
1772527341740888800,3.984888916015625,0.01690612661540508,-0.09519523495435714,-0.003621697628498077
1772527341750887000,3.994886962890625,-0.03518617193251848,-0.06860767228007317,0.043428515098989005
1772527341760884700,4.004884765625,-0.031235388480126854,-0.04236614656448364,0.046781917180120945
1772527341770882800,4.0148828125,-0.02408697803020477,-0.051421559679508205,0.041348493954539295
1772527341780881000,4.024880859375,-0.021746260122954844,-0.09359539854228496,0.033277707962691784
1772527341790878700,4.034878662109375,-0.009298574221134186,-0.12234101603329181,0.020882629030942915
1772527341800875800,4.044875732421875,0.011939444118738174,-0.13800152650177477,0.0285778597086668
1772527341810873900,4.054873779296875,0.012425766330957412,-0.09358721523582934,0.05612491506487131
1772527341820872000,4.064871826171875,0.00976589947193861,-0.016491700595617293,0.057389528173208235
1772527341830870000,4.0748701171875,0.024279577992856502,0.05215981082618236,0.07188420973271131
1772527341840867800,4.084867919921875,0.03171761903911829,0.06134148066937923,0.08413345045298337
1772527341850866000,4.094865966796875,0.03766805187612772,0.029727029743790625,0.09959463895708322
1772527341860862700,4.10486279296875,0.03449731288552284,0.021781039175391197,0.08844663747698069
1772527341870860800,4.11486083984375,0.016753858663141726,0.01967033063173294,0.06487111610025167
1772527341880859000,4.12485888671875,-0.011183072793483734,0.009432429733872413,0.03936199631243944
1772527341890856700,4.134856689453125,-0.02140080768615007,0.02514671621620655,0.07402735924124718
1772527341900854800,4.144854736328125,0.03142711165994406,0.0048538697719573975,0.04572948551774025
1772527341910852900,4.154852783203125,0.036116146259009836,0.009824643921852111,0.052287528859078884
1772527341920850000,4.164849853515625,0.06338526145666837,0.027748423147201537,0.09518997425734996
1772527341930848000,4.174847900390625,0.06980915702432394,-0.028293197548389434,0.07948474786430597
1772527341940845800,4.184845703125,0.03561813360899686,-0.03881517608463764,0.043641281066834924
1772527341950844000,4.194843994140625,0.016722879002988338,-0.02899579285979271,0.03633826457709074
1772527341960842000,4.204842041015625,0.009007190059125423,-0.03097381493449211,0.03380611575096845
1772527341970839800,4.21483984375,0.006300269187986851,-0.010676292315125464,0.042779695801436896
1772527341980836900,4.2248369140625,0.042781157106161115,0.06837795517742633,0.07786006927192211
1772527341990834700,4.234834716796875,0.0894087605074048,0.07246493223011494,0.08052402778416871
1772527342000832800,4.244832763671875,0.11782236956506967,0.016571195572614668,0.0530187657430768
1772527342010830800,4.254830810546875,0.11419482671767472,-0.006914893954992294,0.05638152017444372
1772527342020828700,4.26482861328125,0.09841068986952305,-0.024466332736611366,0.06420914506018162
1772527342030826800,4.27482666015625,0.053391106186807154,-0.056418637314438816,0.04098346003443003
1772527342040824800,4.284824951171875,0.008331482754647731,-0.07956745771169663,0.04820025954544544
1772527342050822000,4.29482177734375,-0.008286474569141864,-0.05085808057785034,0.07161912905573845
1772527342060820000,4.304820068359375,-0.0068967737764120095,-0.03678396251797676,0.04755407059639692
1772527342070817800,4.31481787109375,-0.004858838208019733,-0.030824177330732342,0.04962649295628071
1772527342080815900,4.32481591796875,0.02260083112567663,-0.013441080853343008,0.031521219684183595
1772527342090814000,4.33481396484375,0.05600888746976852,-0.01588964304924011,0.03940729675889015
1772527342100811800,4.344811767578125,0.07145984684079885,-0.022632103046774862,-0.004870820906758308
1772527342110808800,4.354808837890625,0.06410948407799005,-0.038435821378231046,0.0038742110848426817
1772527342120807000,4.364806884765625,0.038059389281272886,-0.028019641304016112,0.02204524306952953
1772527342130804700,4.3748046875,0.013656769430637358,0.000533083963394165,0.048582536861300464
1772527342140802800,4.384802734375,0.005176818116009235,0.0243950210660696,0.07564590035378932
1772527342150801000,4.39480078125,0.012762158678472042,-0.02894084780216217,0.04586480233520269
1772527342160798700,4.404798828125,0.07888648971021175,-0.03090542587339878,0.05658318022638559
1772527342170796800,4.414796875,0.11392243951708078,0.013477321210503577,0.06316898835748434
1772527342180793900,4.4247939453125,0.1151154486939311,0.050153147178888316,0.07368950558900833
1772527342190792000,4.4347919921875,0.10234452218711376,0.08721008141934872,0.0825052647292614
1772527342200790000,4.4447900390625,0.10227145695090294,0.06612462329268455,0.07269143446236849
1772527342210787800,4.454787841796875,0.0904889569595456,0.04160276097655296,0.06397913569658994
1772527342220786000,4.464785888671875,0.04659545469731092,0.010766893208026885,0.03488689672499895
1772527342230784000,4.474783935546875,-0.015141747291386126,-0.03495791613459587,0.061246203601360315
1772527342240780800,4.48478076171875,-0.03685907358080148,-0.0919119754999876,0.06631780777722597
1772527342250779000,4.49477880859375,-0.05937047285735607,-0.10676000054180622,0.07101707150936126
1772527342260776700,4.504776611328125,-0.07121230182051658,-0.053986441731452936,0.0814703687235713
1772527342270774800,4.51477490234375,-0.028930034147202965,-0.013772504764795303,0.06611848581284284
1772527342280772900,4.52477294921875,0.030307459980249404,0.005201660296320915,0.042103111714124675
1772527342290770700,4.534770751953125,0.06547872660458087,0.03649988487958908,0.05286386744230985
1772527342300768000,4.54476806640625,0.09513999763578176,0.03154664638638496,0.044622985580563546
1772527342310765800,4.554765869140625,0.08498480658531188,-0.008145897054672242,0.015318565163016318
1772527342320764000,4.564763916015625,0.0331657720208168,-0.05086801744997501,0.0060255438998341555
1772527342330762000,4.574761962890625,0.006049509297311306,-0.0634691403478384,0.009197159673273564
1772527342340759800,4.584759765625,0.007939268566668033,-0.05408288784325122,0.00736906746327877
1772527342350758000,4.5947578125,0.020117489877343176,-0.04909866968989372,0.017198387560248374
1772527342360756000,4.604755859375,0.08028262024372816,-0.001173135432600975,0.054071489666402336
1772527342370752800,4.614752685546875,0.11073854878395795,-0.08241992453336715,0.07300415367335081
1772527342380750800,4.624750732421875,0.0899251855969429,-0.04379530258476734,0.03936667248755693
1772527342390748700,4.634748779296875,0.08148761211931704,0.01223638123869896,0.005861000987887382
1772527342400746800,4.644746826171875,0.1092921493679285,0.002299509114027023,0.009790157130360603
1772527342410744800,4.654744873046875,0.13873860860466955,0.04109948762953281,-0.01953647511899471
1772527342420742700,4.66474267578125,0.10789075813740491,0.036377135282754894,-0.020332009410858155
1772527342430740000,4.674739990234375,0.03898965586870908,0.028463293418288228,-0.015965338633954523
1772527342440737800,4.68473779296875,0.011601882727444172,-0.002508183428645134,0.05140256271809339
1772527342450735900,4.69473583984375,0.017721242390573023,-0.013798223727941513,0.10136398671716451
1772527342460734000,4.70473388671875,-0.014347089782357216,-0.03633621875047684,0.12123247026950121
1772527342470731800,4.714731689453125,-0.017091127793490885,-0.056851768034696576,0.11650018105059862
1772527342480729900,4.724729736328125,-0.03456482516378164,-0.028886487266421318,0.10999065302610396
1772527342490728000,4.73472802734375,-0.04740823238492012,0.02530044547319412,0.09610065936148166
1772527342500724700,4.744724853515625,-0.007776771481335163,0.04089958114326,0.07961831111609935
1772527342510722800,4.754722900390625,0.03550882801562547,0.016826631638407707,0.07888765875399112
1772527342520720600,4.764720703125,0.040159868691861625,0.00414484471976757,0.06560498333275318
1772527342530718700,4.77471875,0.04781973579525947,0.005811316627264022,0.045191140857338906
1772527342540716800,4.784716796875,0.06325666664093732,-0.007547346639633178,0.015365034653246401
1772527342550714600,4.794714599609375,0.07177694996595382,-0.03329144422709942,-0.013614683854579925
1772527342560712000,4.8047119140625,0.06420709923356771,-0.07920037796497345,-0.012485387563705444
1772527342570710000,4.8147099609375,0.037192543318867684,-0.08614858966767787,0.023207564847171305
1772527342580707800,4.824707763671875,0.023170447707176207,-0.05869301198720932,0.06470715771019458
1772527342590706000,4.834705810546875,0.02142009690850973,-0.02333937453329563,0.08561696700900792
1772527342600703700,4.844703857421875,0.029513094732165335,0.01589139661490917,0.08502806120514869
1772527342610701800,4.854701904296875,0.05968845276534557,0.011149755045771597,0.09111147277206182
1772527342620699000,4.864698974609375,0.08029664876908063,-0.02900748329758644,0.079466043163836
1772527342630696700,4.87469677734375,0.06365034213364124,-0.03567629353702068,0.058416533133387565
1772527342640694800,4.88469482421875,0.021428864736855027,-0.0279068285793066,0.041835400688648224
1772527342650692900,4.89469287109375,0.0035617841348052023,-0.0467424619525671,0.02358253563940525
1772527342660690700,4.904690673828125,-0.013782441636919975,-0.04070435083210468,0.004610708665847778
1772527342670688800,4.914688720703125,-0.016536124259233474,-0.028453941068053244,0.031073768177628514
1772527342680686600,4.9246865234375,-0.015361819782853125,-0.035487492966651914,0.05686228942871093
1772527342690684000,4.934683837890625,0.01446662450879812,-0.06123568220734596,0.06982873850762844
1772527342700682000,4.944681884765625,0.0003045359045267105,-0.06713584616184234,0.06451426548659801
1772527342710679800,4.9546796875,0.006574994476139545,-0.06617606121897697,0.02941664862036705
1772527342720678000,4.964677978515625,0.013844693218171595,-0.06518412757217884,0.010931728380918502
1772527342730676500,4.974676513671875,-0.003395779918134212,-0.053315995123982426,-0.01509849267154932
1772527342740674600,4.984674560546875,-0.07191226678341626,-0.060464697834849354,-0.012740823629498481
1772527342750671400,4.99467138671875,-0.091454294860363,-0.08155775474607944,0.027233751623332497
1772527342760669400,5.00466943359375,-0.06035276189297437,-0.08739479033648967,0.02957125466018915
1772527342770667500,5.01466748046875,-0.0005251929178833961,-0.046431496307253836,0.07344517543911934
1772527342780665300,5.024665283203125,0.05945230592191219,-0.030222119784355163,0.09155833975672721
1772527342790663400,5.034663330078125,0.05503273591399192,-0.006120528706908226,0.07479600552618502
1772527342800661500,5.04466162109375,0.07789923223853111,0.056340311381220816,0.05191898780763149
1772527342810658600,5.054658447265625,0.15137217246741055,0.10019991137385367,0.029204467174410817
1772527342820656600,5.06465673828125,0.2038639917269349,0.11117606341838836,0.051037236537039274
1772527342830654500,5.074654541015625,0.19807956310659647,0.08716507323384284,0.041437925803661346
1772527342840652500,5.084652587890625,0.162522219774127,0.03405775242447853,0.022723580722510812
1772527342850650600,5.094650634765625,0.10355506702065467,-0.005762801310420036,0.021194179198145865
1772527342860648400,5.1046484375,0.04106996927410364,-0.030679800423979758,0.018086860832571983
1772527342870646500,5.114646484375,0.0095484573289752,-0.04083002303838729,0.0105853991612792
1772527342880643300,5.124643310546875,-0.02345481760650873,-0.05111293212175369,0.015769231539964675
1772527342890641400,5.134641357421875,-0.04578735318481922,-0.06459434498548507,0.02497749712914228
1772527342900639500,5.144639404296875,-0.07199322306513786,-0.06689560766518116,0.059145431929826735
1772527342910637300,5.15463720703125,-0.08038403479158877,-0.07265899349749087,0.07339315299093722
1772527342920635400,5.164635498046875,-0.06260141760259866,-0.07425473825633526,0.05620996299982071
1772527342930633500,5.174633544921875,-0.041760289625823496,-0.05934416937232017,0.041781624674797055
1772527342940630500,5.184630615234375,-0.0020978490620851514,-0.010179448708891868,0.038572599500417706
1772527342950628600,5.194628662109375,0.060842883497476574,0.02688040814101696,0.038159634785354134
1772527342960626400,5.20462646484375,0.08879413574039935,0.035083003818988795,0.04373743491768837
1772527342970624500,5.21462451171875,0.07690583728700875,0.03401742041409016,0.05761193875223398
1772527342980622600,5.22462255859375,0.08099486016631126,0.03218845142126083,0.08613806827366352
1772527342990620400,5.234620361328125,0.10812748950272798,0.03378068904876709,0.06477466998845338
1772527343000618500,5.244618408203125,0.10324264007061719,-0.013960720813274383,0.03593231412470341
1772527343010615300,5.254615234375,0.06792875010520219,-0.0035591537863016126,0.04146773642003536
1772527343020613400,5.26461328125,0.035572833162546155,0.01721767678260803,0.06823650088012218
1772527343030611500,5.274611572265625,0.006265782396495342,0.013477321210503577,0.06334522170722484
1772527343040609300,5.284609375,-0.01969078889787197,0.0013555062621831893,0.06263853474259376
1772527343050607400,5.294607421875,-0.05268003530800342,-0.02904021652340889,0.057524260468780994
1772527343060605400,5.30460546875,-0.06822188783288001,-0.050102878296375275,0.04223550592213869
1772527343070602500,5.3146025390625,-0.0339306189134717,-0.05106850845813751,0.0511973955348134
1772527343080600600,5.3246005859375,0.0028162264645099637,-0.040727147185802455,0.04402706551402807
1772527343090598400,5.334598388671875,0.03227028448581695,-0.05003273566961288,0.04424012374281883
1772527343100595500,5.344595458984375,0.03145516871064901,-0.0035381109982728955,0.056877486997842785
1772527343110593500,5.354593505859375,0.008754384341835975,0.0450952792674303,0.056825172288715836
1772527343120591400,5.36459130859375,0.0034659225448966024,0.01121288340985775,0.052042614187300204
1772527343130589400,5.37458935546875,0.0119186935916543,-0.04196925620138645,0.08622925368845462
1772527343140587500,5.38458740234375,-0.0042924364969134324,-0.06674012484252452,0.0919119754999876
1772527343150584600,5.39458447265625,-0.027168869693577288,-0.06523965715169906,0.1259580374866724
1772527343160582700,5.404582763671875,-0.029861762039363384,-0.01717325311899185,0.1493330678552389
1772527343170580500,5.41458056640625,-0.008816635923087596,0.02448445291519165,0.13941899208426475
1772527343180578600,5.42457861328125,0.00010316811352968215,0.026223990058898923,0.1374886085435748
1772527343190576600,5.43457666015625,0.007037351290881634,0.043217794957756996,0.1358975399598479
1772527343200574500,5.444574462890625,0.05029840086847544,0.04401566733717918,0.12113777772337198
1772527343210571500,5.454571533203125,0.06678776337653398,-0.000824175864458084,0.08494622814059256
1772527343220569300,5.4645693359375,0.02625204710960388,-0.01391162097454071,0.06824702227413654
1772527343230567400,5.4745673828125,0.018339374288916587,0.01327683020234108,0.04930208330750465
1772527343240565500,5.4845654296875,0.01123772559016943,-0.008496610188484192,0.03181172706335783
1772527343250563300,5.494563232421875,-0.01146598138809204,-0.050180619707703586,0.02095510974526405
1772527343260561400,5.5045615234375,-0.043971535934507845,-0.028384967485070228,0.05732610754817724
1772527343270559500,5.5145595703125,-0.04322276339381933,-0.009911737683415413,0.08059621623754501
1772527343280556500,5.524556640625,-0.020687106458842752,-0.013391981014609335,0.07514847222566604
1772527343290554600,5.5345546875,-0.0005766308441758156,-0.011121113473176956,0.10767916121333837
1772527343300552400,5.544552490234375,0.020460019704699513,0.00497661936879158,0.14207505955100058
1772527343310550500,5.554550537109375,0.04141571397185325,0.06327391003668308,0.1732245233133435
1772527343320548600,5.564548583984375,0.07994184398204088,0.09262801481485367,0.16049392881691454
1772527343330546400,5.57454638671875,0.0656166737705469,-0.07457739433944224,0.1374737032353878
1772527343340543500,5.58454345703125,0.01416384216994047,-0.004821721068024635,0.14771481900364158
1772527343350541300,5.594541259765625,-0.028001228864490985,-0.053254035803675645,0.12894903599619864
1772527343360539400,5.604539306640625,-0.024794249516725538,-0.020493921974301336,0.08917407496869563
1772527343370537500,5.614537353515625,-0.023199966062605378,-0.06722995418608188,0.05645341636687517
1772527343380535300,5.624535400390625,-0.012612521074712276,-0.07279109544456004,0.005572831696271896
1772527343390533400,5.634533447265625,-0.033414486084878445,0.0031651860326528548,0.0527574844583869
1772527343400530400,5.644530517578125,-0.02028290957212448,0.02363572713136673,0.03421177394241094
1772527343410528500,5.654528564453125,0.08782207583785057,0.0989788451462984,0.051290919037163256
1772527343420526600,5.664526611328125,0.12389701330363749,0.03306815686523914,0.004874328038096428
1772527343430524400,5.6745244140625,0.1314803080394864,0.1295697982430458,-0.008407762861251831
1772527343440522500,5.6845224609375,0.10421937614828347,0.11008125391900539,-0.026625264336168766
1772527343450520600,5.6945205078125,0.07063157932311297,-0.023618775996565818,-0.057196928210556504
1772527343460518400,5.704518310546875,0.0036991467788815495,-0.06349719739854336,-0.0213800571590662
1772527343470515500,5.714515380859375,-0.039056875886023044,-0.05923603282272815,0.0008095628172159195
1772527343480513300,5.72451318359375,-0.02883271125257015,-0.015243161839246748,0.014107435807585715
1772527343490511400,5.734511474609375,0.024440029251575467,-0.014050152662396431,0.045235856781899925
1772527343500509400,5.744509521484375,0.04620177920460701,-0.018285013753175733,0.047423137693107124
1772527343510507300,5.75450732421875,0.02881926724910736,-0.02093815861046314,0.04920154554247856
1772527343520505300,5.76450537109375,0.001693359914422035,-0.0525718987584114,0.04816840310245752
1772527343530502700,5.774502685546875,-0.025228841541707514,-0.0501671757042408,0.07476853299736977
1772527343540500500,5.78450048828125,0.008948153348267079,-0.008543956461548805,0.08659048821628093
1772527343550498600,5.79449853515625,0.0689832275941968,-0.03431961823105812,0.058418286699056625
1772527343560496600,5.80449658203125,0.0629965544000268,-0.026800913164019582,0.09811462953239679
1772527343570494500,5.814494384765625,0.05184241544008255,-0.014431260934472083,0.117113052251935
1772527343580492500,5.824492431640625,0.019732874473929404,-0.02889291700720787,0.1130503328576684
1772527343590489300,5.8344892578125,-0.003483165940642357,-0.02273205628991127,0.11011135679632425
1772527343600487400,5.8444873046875,0.010431377643346786,-0.014161211821436882,0.11550941644757985
1772527343610485500,5.854485595703125,0.03420154480934143,0.038972996994853015,0.13860767570137977
1772527343620483300,5.8644833984375,0.03191255708932876,0.03735036422908306,0.12341828987598419
1772527343630481400,5.8744814453125,0.01783200928866863,-0.0028121348112821578,0.10358721572458743
1772527343640479500,5.8844794921875,-0.03542202651500702,0.012550269493460655,0.12524608982503413
1772527343650476500,5.8944765625,-0.0568073443710804,0.0460538951665163,0.17689707434624433
1772527343660474600,5.904474609375,-0.04423106365352869,-0.04706804064512252,0.13750468289554119
1772527343670472400,5.914472412109375,-0.04506780673861503,-0.04071019605100155,0.13666267911344765
1772527343680470500,5.924470458984375,-0.05737433060407638,0.043965398454666134,0.1486275499343872
1772527343690468600,5.934468505859375,-0.02113864961862564,0.06183890879750251,0.13935089528411626
1772527343700466400,5.944466552734375,0.037384558759629725,0.06973346143960953,0.14008622382134198
1772527343710464500,5.954464599609375,0.06664046386033297,0.08242986140549183,0.1322553840652108
1772527343720461300,5.96446142578125,0.0989990111514926,0.07920914579331874,0.11697978126108646
1772527343730459100,5.974459228515625,0.11868424709141254,0.05207505515217781,0.07839052288681268
1772527343740457200,5.984457275390625,0.1058215506479144,-0.0031955811709165572,0.04925298346877098
1772527343750455000,5.994455078125,0.05429214667975902,-0.00011456629037857055,0.04838759881108999
1772527343760453000,6.004453125,0.02200228071063757,0.004530044645071029,0.07044570136219262
1772527343770451200,6.014451171875,0.03220832516551018,-0.03660276073217392,0.06709609867334365
1772527343780448300,6.0244482421875,0.03803776197135448,-0.05584288325309753,0.05680851341485977
1772527343790446300,6.0344462890625,0.042598201754689216,-0.030120412975549696,0.05929390048980712
1772527343800444200,6.044444091796875,0.04463058436512947,0.0009895955592393875,0.060601768217980856
1772527343810442200,6.054442138671875,0.06607026275694369,0.03235270207226276,0.056712359564006325
1772527343820440300,6.0644404296875,0.0957850175410509,0.03927987098693848,0.057420507833361625
1772527343830438100,6.074438232421875,0.13478607158660888,0.006500467935204505,0.05662000510543584
1772527343840435200,6.084435302734375,0.11406623190194368,-0.03548281679153442,0.029275778844952582
1772527343850433300,6.094433349609375,0.05325023641139268,-0.06212766261100769,0.0042842531904578205
1772527343860431000,6.10443115234375,0.0007183774024248123,-0.10735972000062464,-0.0036933015599846836
1772527343870429200,6.11442919921875,-0.023870704931020736,-0.07747194673717021,0.021768471954762933
1772527343880427300,6.12442724609375,-0.014938918195664883,-0.0965694459170103,-0.04919628484547138
1772527343890425000,6.134425048828125,-0.003889408653974533,-0.1328764385730028,-0.051745677067339416
1772527343900423200,6.144423095703125,0.030047640000283718,-0.11488836193978785,-0.00777034174054861
1772527343910420200,6.154420166015625,0.01839987230449915,-0.05135317061841488,-0.007471066533029079
1772527343920418300,6.164418212890625,0.04226239392906427,-0.03002221329808235,-0.03267272780686617
1772527343930416400,6.17441650390625,0.10510229646265506,0.017556114956736563,-0.012496493479609488
1772527343940414200,6.184414306640625,0.17527707192897796,0.04300970516502857,-0.04733692071437835
1772527343950412300,6.194412353515625,0.19774317075908182,0.03280044583976269,-0.06103606798201799
1772527343960410400,6.204410400390625,0.15033581515699623,0.01082066922187805,-0.04450315859317779
1772527343970407200,6.2144072265625,0.08133592868894338,-0.0007101940959692001,-0.016842705990374088
1772527343980405200,6.2244052734375,0.03629500995725393,-0.009004559710621833,0.002144610813260078
1772527343990403000,6.234403076171875,0.0561862898632884,-0.021229835033416748,0.008919804036617279
1772527344000401200,6.244401123046875,0.041542555221915245,-0.027957681983709334,0.00035860417932271954
1772527344010399200,6.254399169921875,0.0388540467903018,-0.06586801818311214,-0.025591829635202883
1772527344020397300,6.264397216796875,0.040270343329012394,-0.11791326271891593,-0.04767448210567236
1772527344030394400,6.274394287109375,0.04652472754865884,-0.10800094051361084,-0.039028818835318085
1772527344040392200,6.28439208984375,0.03611936112940311,-0.06782441294789314,-0.024440321512520312
1772527344050390300,6.294390380859375,0.03417524132430553,-0.043892917740345,-0.003075169661641121
1772527344060388400,6.304388427734375,0.05779927801787853,-0.0256324539065361,-0.009364332933723926
1772527344070386200,6.31438623046875,0.06137713650465011,-0.015570494097471237,-0.02725070275813341
1772527344080384300,6.32438427734375,0.052851884743571276,-0.010668693530559539,-0.022500585621595383
1772527344090382300,6.33438232421875,0.05350917960852384,0.005333762243390083,-0.007172083586454391
1772527344100379100,6.344379150390625,0.06655249331593513,0.017388357174396515,0.03831336404234171
1772527344110377200,6.354377197265625,0.06365297248214483,0.007283727267384529,0.046186289374530315
1772527344120375000,6.364375,0.06493979742228985,0.012415244936943053,0.0411480029463768
1772527344130373000,6.374373046875,0.12035042673796414,-0.02062543939948082,0.024698680187761782
1772527344140371200,6.38437109375,0.13014146065115928,-0.02045417448580265,-0.0009913491249084472
1772527344150369300,6.394369384765625,0.10859218440502881,-0.03445756539702415,-0.0128118430390954
1772527344160366300,6.404366455078125,0.1021226961299777,-0.06732406221032142,-0.01676934849321842
1772527344170364200,6.4143642578125,0.06664981621056795,-0.032899230039119716,-0.0022167992666363716
1772527344180362200,6.4243623046875,0.03204991973340511,-0.009290390914678573,0.03466653197258711
1772527344190360300,6.4343603515625,0.020930852086842058,-0.012311200040578842,0.05845598836094141
1772527344200358100,6.444358154296875,0.01364712481945753,0.0045019875943660735,0.08310439966619014
1772527344210356200,6.454356201171875,-0.0018806991800665853,-0.01423836871087551,0.09076105189919471
1772527344220353000,6.46435302734375,-0.041534956437349314,-0.0002969371199607849,0.06848959885835647
1772527344230351000,6.47435107421875,-0.05496726946234703,0.01149345391690731,0.07132949845939875
1772527344240349200,6.48434912109375,-0.01677811632156372,-0.006607435441017151,0.05751461585760116
1772527344250347300,6.49434716796875,0.015436930845677852,0.008841478103399277,0.054447921763360496
1772527344260345300,6.504345458984375,0.06579056903272867,0.02118658041357994,0.08852379436641931
1772527344270343400,6.514343505859375,0.13064298043251038,0.012882277926802634,0.0755950469493866
1772527344280341200,6.52434130859375,0.1382858964011073,0.015144962161779402,0.04139437892287969
1772527344290338300,6.53433837890625,0.13887041829079388,-0.035331425622105596,0.03503945693820715
1772527344300336400,6.54433642578125,0.09962386505156755,-0.07242986091673374,0.05127075303196907
1772527344310334200,6.554334228515625,0.013987901081144808,-0.09180442347228526,0.06781710642427205
1772527344320332300,6.564332275390625,-0.05804506947249174,-0.04316577250957489,0.10160656330138444
1772527344330330000,6.574330078125,-0.07296791331619024,0.03407937973439693,0.14376929624825716
1772527344340328200,6.584328125,-0.004145136980712414,0.0736339760094881,0.15846651464253664
1772527344350325200,6.5943251953125,0.07336158880889415,0.05505787035524845,0.12400953376740216
1772527344360323000,6.604322998046875,0.10004618211686611,0.041973347854614255,0.08965104483067989
1772527344370321200,6.614321044921875,0.0737730922192335,0.03712883043289184,0.06260784734338522
1772527344380319200,6.6243193359375,0.05887099890261888,-0.0012327566653490066,0.020246961475908754
1772527344390317300,6.6343173828125,0.026006840176880357,-0.0343202027529478,-0.009392974506318569
1772527344400315400,6.6443154296875,0.004610124143958091,-0.03812017955780029,0.0015387538745999336
1772527344410312200,6.654312255859375,0.004198912994563579,0.002367313653230667,0.052178807787597176
1772527344420310300,6.664310302734375,0.023376491673290728,0.03677928634285926,0.08098667685985565
1772527344430308400,6.674308349609375,0.04733458262681961,0.0116594581335783,0.04721563242226839
1772527344440306200,6.68430615234375,0.049376025326550006,0.0028308395117521284,0.06412351260334254
1772527344450304300,6.69430419921875,0.051776656727492806,0.004988894328474998,0.07301438280642032
1772527344460302300,6.70430224609375,0.053662032082676885,0.007190788286924362,0.05789601639062166
1772527344470300200,6.714300048828125,0.03560322830080986,0.022362053933739662,0.05851122567951679
1772527344480297200,6.724297119140625,0.046645139057934284,0.05345452681183815,0.03424626073390245
1772527344490295300,6.73429541015625,0.06240501824766397,0.03999123412668705,0.018217793735861777
1772527344500293400,6.74429345703125,0.05310644402652979,-0.009843933144211768,-0.002497662034630775
1772527344510291500,6.75429150390625,0.009966682741045951,-0.029918168401718136,0.02504208679795265
1772527344520289300,6.764289306640625,-0.030808395239710806,-0.026155600997805593,0.04242372197061777
1772527344530287400,6.774287353515625,-0.03372282138168812,0.026827801170945166,0.046537002508342265
1772527344540284200,6.7842841796875,-0.0037841947138309477,0.07606500254869461,0.05651859055757522
1772527344550282200,6.7942822265625,0.04405599934756756,0.05738835912942886,0.05804974564760923
1772527344560280300,6.8042802734375,0.09497253211438655,-0.019609540355205533,0.0846399386703968
1772527344570278100,6.814278076171875,0.10713438681215047,-0.08795768491625786,0.09080401425808668
1772527344580276200,6.824276123046875,0.07137333760112524,-0.1307978787332773,0.07745265751481056
1772527344590274300,6.8342744140625,0.013963058900833129,-0.1347983465462923,0.06570961275100708
1772527344600272100,6.844272216796875,-0.03536708145737648,-0.12326806775033473,0.07005787108838558
1772527344610269200,6.854269287109375,-0.053129240380227566,-0.10587211179137229,0.07192220365554094
1772527344620267300,6.864267333984375,-0.03964373586326837,-0.0558878914386034,0.10708002627640963
1772527344630265300,6.874265380859375,-0.0223690681964159,-0.021743629774451254,0.1060091821745038
1772527344640263400,6.884263427734375,0.027215631444752215,-0.014574468797445296,0.05918664072304964
1772527344650261200,6.89426123046875,0.06121259359270334,-0.008880056548118591,0.018500117808580397
1772527344660259300,6.90425927734375,0.08200520625263452,-0.004339490509033203,0.02316518701016903
1772527344670256000,6.914256103515625,0.09565788403004408,0.0024736966371536255,0.0339873175367713
1772527344680254200,6.924254150390625,0.10039426490217447,0.040168344259262086,0.03117722855210304
1772527344690252300,6.934252197265625,0.0843348182439804,0.04446282658278942,0.01542874753922224
1772527344700250000,6.94425,0.07582680987864732,0.019846856242418286,0.017044073781371117
1772527344710248200,6.954248291015625,0.052129707948863506,0.014279285243153571,0.020272680439054964
1772527344720246300,6.964246337890625,0.018099428053200244,-0.015129180070757866,0.03582388531416655
1772527344730243000,6.9742431640625,0.006152677410840988,-0.07277122170031071,0.05642974323034286
1772527344740241200,6.9842412109375,-0.02106587664335966,-0.07500058818757534,0.08825462203621864
1772527344750239000,6.994239013671875,-0.04203501491397619,-0.04413958597779274,0.1113572652041912
1772527344760237000,7.004237060546875,-0.05581804107278585,-0.014891279661655425,0.1471188989371061
1772527344770235100,7.014235107421875,-0.02587649179548025,0.01966682350039482,0.0640963323354721
1772527344780233000,7.02423291015625,0.018436697183549403,0.02030862853527069,0.04060732019841671
1772527344790231000,7.03423095703125,0.07603197706192731,-0.02712006211578846,0.08719634515494108
1772527344800227800,7.044227783203125,0.06075929686725139,0.001973345899581909,-0.0022679449319839475
1772527344810226000,7.054225830078125,0.0006239771172404289,0.0013759645283222197,-0.012902443931996821
1772527344820224000,7.06422412109375,-0.00016746552139520644,0.034090485650300976,0.008823357924818993
1772527344830221800,7.074221923828125,0.04928513217270374,0.07621405563056469,0.011729893021285534
1772527344840220000,7.084219970703125,0.09825169991552829,0.0952624549716711,0.030360943733155725
1772527344850218000,7.094218017578125,0.11098024858534336,0.06802198134660721,0.0163236505523324
1772527344860215000,7.104215087890625,0.07353343824446201,0.00906651903092861,0.03225391787290573
1772527344870213000,7.114213134765625,0.052343935221433636,-0.025806056907773017,0.035678631624579425
1772527344880211000,7.1242109375,0.01956277860403061,-0.06950432885885238,0.03925181393623352
1772527344890209000,7.134208984375,0.006552198122441768,-0.1199409691542387,0.06075111356079578
1772527344900207000,7.14420703125,-0.03088876699954271,-0.11704057153761387,0.07865034286677837
1772527344910205000,7.154204833984375,-0.05943623156994581,-0.10034545732438564,0.10384469761699437
1772527344920202000,7.164201904296875,-0.04916530518531799,-0.06986439434289932,0.10468991626948118
1772527344930200000,7.174199951171875,-0.01796937193274498,-0.0042716859698295594,0.10164952566027641
1772527344940198000,7.184197998046875,0.035009646321833135,0.05227963781356811,0.07420066998153925
1772527344950196000,7.194196044921875,0.08228869936913251,0.052066871845722194,0.049026188975572586
1772527344960194000,7.204194091796875,0.08512392279505729,0.03420972811579704,0.019383914905786514
1772527344970192000,7.21419189453125,0.06962737071663141,0.007711597290635109,0.008316577446460723
1772527344980190000,7.22418994140625,0.04693360061049461,0.0036029929280281064,0.02498421913087368
1772527344990187000,7.23418701171875,0.028026363305747506,0.04292728757858276,0.0752636230379343
1772527345000185000,7.24418505859375,0.020602058523893355,0.029615386062860488,0.07648030535131692
1772527345010183200,7.25418310546875,0.020685645154118536,-0.02689034501314163,0.053230654928088185
1772527345020181000,7.264180908203125,-0.00464373415261507,-0.06507949815392494,0.05310556724369526
1772527345030179000,7.274178955078125,-0.00651771133095026,-0.06979074458479881,0.060839668627083295
1772527345040177200,7.28417724609375,-0.015857786606252193,-0.07657762824594974,0.09867518602460622
1772527345050174000,7.294174072265625,-0.02022708773165941,-0.08150748586356639,0.14438918171226978
1772527345060172000,7.304172119140625,-0.019034370815753935,-0.07730360443294047,0.15382891796976328
1772527345070169900,7.314169921875,-0.03504208728671074,-0.0368342314004898,0.14593553437143564
1772527345080168000,7.32416796875,-0.04406476717591285,-0.03656593585312366,0.10595189902931451
1772527345090166000,7.334166015625,-0.026652152343094346,-0.021577041035890577,0.13162000877112148
1772527345100163800,7.344163818359375,-0.0008107318609952926,0.06427402698993682,0.15014818363040686
1772527345110162000,7.354161865234375,0.05580781193971634,0.0950882674485445,0.15572832185029983
1772527345120159000,7.364158935546875,0.11098229441195726,0.09206687380075454,0.09322481166422367
1772527345130157000,7.374156982421875,0.0955155529499054,0.0806751266926527,0.09729366853833198
1772527345140155100,7.384155029296875,0.08648878140747547,0.09242401667535305,0.056631695543229575
1772527345150153000,7.394153076171875,0.07438041046261787,0.036270752298831935,0.022911796770989895
1772527345160151000,7.404151123046875,0.055417351317405696,-0.030723055043816564,0.031087796702980994
1772527345170149000,7.414149169921875,0.010230009852349757,-0.03230009510219097,-0.006736907039582729
1772527345180146000,7.42414599609375,-0.01715805554986,-0.0384814140856266,0.007393325121700763
1772527345190144000,7.43414404296875,-0.0067947747066617005,-0.014539397484064102,0.0498337059661746
1772527345200141800,7.444141845703125,-0.016705051085352897,-0.009539397239685058,0.05991729308515787
1772527345210140000,7.454139892578125,0.005897825866937637,-0.039490883389115335,0.04200637334138155
1772527345220138000,7.464137939453125,0.026219606144726276,-0.030179449686408042,0.030290801106393334
1772527345230135800,7.4741357421875,0.04058393932282924,-0.007935469174385071,0.02334317392557859
1772527345240134000,7.4841337890625,0.061056818509101864,-0.04641512969434261,0.0036178982362151143
1772527345250131000,7.494130859375,0.06779167972207069,-0.06948153250515461,-0.005173310984671116
1772527345260129000,7.50412890625,0.04805880524814129,-0.06271159997880459,0.01976531543880701
1772527345270127000,7.514127197265625,0.05448474664241075,-0.03967266969680786,0.026911387801170347
1772527345280125000,7.524125,0.08186609004288911,-0.05306231262385845,0.024675883834064005
1772527345290123000,7.534123046875,0.06606120266765356,-0.06762275289595127,0.03386778281033039
1772527345300121000,7.54412109375,0.04517389746159315,-0.06406476815342903,0.04352057729661465
1772527345310118000,7.554117919921875,0.04036445135325193,-0.03683598496615886,0.03972206179648637
1772527345320116000,7.564115966796875,0.040646483165025706,-0.008662614405155181,0.007359130591154098
1772527345330113800,7.57411376953125,0.05432078825235367,0.037003158226609226,-0.008075169906020164
1772527345340112000,7.58411181640625,0.057583004918694496,0.029950901627540587,0.020127134488523005
1772527345350110000,7.59410986328125,0.04695435113757848,0.014658639949560164,0.0066731941536068914
1772527345360107800,7.604107666015625,0.042936639928817744,0.0035047932505607605,0.006738952866196632
1772527345370105000,7.61410498046875,0.02586217100918293,-0.03404080128967762,0.012625672817230224
1772527345380103200,7.624103271484375,0.0057549102649092675,-0.07632394574582577,0.029184593430161474
1772527345390101000,7.63410107421875,-0.036052433373034,-0.09859832139611244,0.0267173265337944
1772527345400099000,7.64409912109375,-0.09140461049973964,-0.08698153336048126,0.04435965846925974
1772527345410097000,7.654096923828125,-0.06723375357836485,-0.040242578539252276,0.06275222425013781
1772527345420095000,7.664094970703125,0.017379004824161527,0.0038753801286220547,0.07826835781186818
1772527345430093000,7.674093017578125,0.09546206919699907,0.030750527572631834,0.05546235950291156
1772527345440089900,7.68408984375,0.10777765315175056,0.019066519519686697,0.05785246950984001
1772527345450088000,7.694087890625,0.09146364721059799,0.021395839250087735,0.07354834355264901
1772527345460086000,7.7040859375,0.07510755569338798,0.031551907083392144,0.06060732117593288
1772527345470083800,7.714083740234375,0.0522410593688488,0.0037982232391834255,0.019513386504352092
1772527345480082000,7.72408203125,0.024751871679723262,-0.018825696501135827,0.04715133501440286
1772527345490080000,7.734080078125,-0.006259937177598476,-0.036412206596136094,0.0939095790579915
1772527345500077000,7.7440771484375,-0.04757599016726017,-0.02134907749891281,0.11520634184777737
1772527345510075100,7.7540751953125,-0.04505523951798677,-0.005815408280491829,0.10665507886260747
1772527345520073000,7.764072998046875,-0.01421703366190195,-0.03274900791347027,0.07223959904164075
1772527345530071000,7.774071044921875,0.0002916764229536056,-0.038515900877118106,0.019953823748230935
1772527345540069000,7.784069091796875,0.009189268627762794,-0.07334756028354167,-0.017163608507812022
1772527345550067000,7.79406689453125,0.013182429917156695,-0.08780044852793216,-0.03590250350832939
1772527345560064000,7.80406396484375,-0.0007926116824150085,-0.03347907575368881,-0.024517770662903785
1772527345570061800,7.814061767578125,0.01674889022707939,-0.021084873604774474,-0.009394435811042785
1772527345580060000,7.824059814453125,0.0555915388405323,-0.03820610427558422,0.011799451126158237
1772527345590058000,7.83405810546875,0.07408522690832614,-0.037377836757898325,0.03899257847815752
1772527345600055800,7.844055908203125,0.047853053542971605,-0.017879940083622932,0.042909167400002474
1772527345610054100,7.85405419921875,-0.002484510292112827,0.029824060377478596,0.05536854373961687
1772527345620052200,7.86405224609375,0.02006459064632654,-0.010621931779384612,0.0582122427329421
1772527345630049000,7.874049072265625,0.05287263527065515,-0.014379823008179663,0.06642389850020408
1772527345640047000,7.884047119140625,0.08733779945224523,0.011864625316858292,0.08251637064516544
1772527345650045000,7.894044921875,0.0900251388400793,-0.02769815426468849,0.02213029100447893
1772527345660043000,7.90404296875,0.05823708491325378,-0.05660042362213134,-0.010505319662392138
1772527345670041000,7.914041015625,0.03150806794166565,-0.05064414556622505,-0.010196107582747936
1772527345680039000,7.924038818359375,0.03235007172375917,-0.03212590757906437,0.017634440889954566
1772527345690036000,7.934035888671875,0.05051496622860431,-0.016236264529824258,0.03137508921176195
1772527345700033800,7.94403369140625,0.06866963160037994,-0.02852642178237438,0.035625440132617946
1772527345710032000,7.954031982421875,0.015796996329724786,-0.06117839906215668,0.047450025700032705
1772527345720030000,7.964030029296875,-0.03737462188750505,-0.04303425508439541,0.08148059785664082
1772527345730028000,7.974028076171875,-0.038981472562253476,-0.00675298139154911,0.09280191007703542
1772527345740026000,7.984026123046875,-0.0083785367667675,-0.008210778984427451,0.1028565633624792
1772527345750024000,7.99402392578125,0.0026367782443761823,0.026899112841486928,0.10440613089203835
1772527345760021000,8.00402099609375,0.030515549772977827,0.032398879301548,0.08187807274162769
1772527345770019000,8.01401904296875,0.051800329864025114,0.007799860095977783,0.027839024040102956
1772527345780017000,8.024016845703125,0.01655073730647564,-0.01533025560081005,0.021212883898615836
1772527345790015000,8.034014892578124,-0.037197219493985176,0.0011579378634691238,0.05571048904508352
1772527345800013000,8.044012939453125,-0.036470951046049596,0.007108370700478554,0.08164075685441494
1772527345810011000,8.054010986328125,0.01860503948777914,0.014461656072735786,0.08375935644358395
1772527345820008000,8.064008056640626,0.05748655880689621,0.012684125006198883,0.06701046621650457
1772527345830005800,8.074005859375,0.06011982991993427,-0.02468085227012634,0.048482291357219216
1772527345840003800,8.08400390625,0.048206104764342304,-0.03968669822216034,0.05452098699957132
1772527345850002200,8.094002197265626,0.009143968181312084,0.012009586745500563,0.11685761618614196
1772527345860000000,8.104,0.021472411617636678,0.016156185030937194,0.09376666345596313
1772527345869998000,8.113998046875,0.04520692294836044,-0.020919453909993172,0.06014876375347376
1772527345879995000,8.123994873046875,0.027982524164021014,-0.06941138987839221,0.05200695835202932
1772527345889993000,8.133992919921875,0.02157733329683542,-0.06333996101021766,0.04546820423305034
1772527345899991000,8.143990966796874,0.010591828902065753,-0.0017816227197647093,0.025309505562484264
1772527345909988900,8.15398876953125,0.03772241241186857,0.017063363003730774,0.004022387383878231
1772527345919987000,8.163987060546875,0.06678571754992008,0.015287000980973242,-0.0007449731484055519
1772527345929985000,8.173985107421874,0.07117401563674211,0.0011263736814260481,0.010595336033403872
1772527345939982800,8.18398291015625,0.03974310458451509,-0.024572131198644636,0.008855506628751755
1772527345949980000,8.19397998046875,-0.006176935069262981,-0.06967559377253055,-0.004883972649276256
1772527345959978000,8.20397802734375,-0.03426701126098632,-0.06864157454967498,-0.01104337206184864
1772527345969976000,8.21397607421875,-0.012632394818961619,-0.026662381476163864,0.020471417881548402
1772527345979974100,8.22397412109375,0.05094809694886207,0.005643558844923973,0.04938625445961952
1772527345989972000,8.233971923828125,0.09055559245496987,-0.0040308629512786865,0.025053777235746384
1772527345999970000,8.243969970703125,0.07756810058802366,-0.04289747696220875,0.006370119553804397
1772527346009966800,8.253966796875,0.03555500524491072,-0.041643092986941334,0.044297114627063275
1772527346019965000,8.26396484375,-0.002270575280487537,-0.04792553425729274,0.04112491433173418
1772527346029963000,8.273962890625,-0.007054302425682544,-0.02338730532824993,0.034439445218443866
1772527346039960800,8.2839609375,0.01578472137004137,0.024838088658452034,0.05175006098151207
1772527346049959000,8.293958984375,0.05657265883237123,0.06330079804360866,0.052228492148220534
1772527346059957000,8.30395703125,0.0887944280013442,0.08480828097462653,0.05263356581777334
1772527346069954800,8.313954833984376,0.10951689803451299,0.060817164534330365,0.04307984779179096
1772527346079952100,8.3239521484375,0.09997516270726918,0.007890460988879203,0.040568741753697395
1772527346089950000,8.333949951171874,0.0636082565575838,-0.034301498052477834,0.04548749345541
1772527346099948000,8.343947998046875,0.01700111142247915,-0.03694119890630245,0.04959375973045826
1772527346109946000,8.353946044921875,-0.006469488275051116,-0.04854454293847084,0.03706190267652273
1772527346119944000,8.36394384765625,-0.022753683599829672,-0.0677174454420805,0.02768734060972929
1772527346129942000,8.37394189453125,-0.033649171623587604,-0.0877986949622631,0.01672580161243677
1772527346139939000,8.38393896484375,-0.051182782487571236,-0.07222352468967437,0.053154959343373775
1772527346149937000,8.39393701171875,-0.048449558131396765,-0.050309214523434634,0.05048807822167873
1772527346159935000,8.40393505859375,-0.04287292704284191,-0.0020756372302770613,0.06025310091078281
1772527346169932800,8.413932861328124,0.012875555925071239,0.03867430630922317,0.10384528213888407
1772527346179931000,8.423930908203126,0.0775683928489685,0.07259528061151505,0.10449147108793258
1772527346189929000,8.433928955078125,0.11297492953389883,0.06932721872627735,0.07286854459494352
1772527346199926000,8.443926025390626,0.09279080416113138,0.03296761910021305,0.041216392007470126
1772527346209924000,8.453924072265625,0.050412967158854,0.011826631394028663,0.052364393487572665
1772527346219922200,8.463922119140625,0.01204202771037817,-0.014320786297321319,0.04828209261000156
1772527346229920000,8.473919921875,-0.045889352254569526,-0.014970190116763114,0.06384323435723781
1772527346239918000,8.48391796875,-0.04410071527212858,-0.019758008915185928,0.07966127347499131
1772527346249916000,8.493916015625,-0.030404490613937376,-0.0008306056052446365,0.05153378788232803
1772527346259914000,8.5039140625,-0.019527122768759727,0.01499298647046089,0.00203822782933712
1772527346269911000,8.5139111328125,0.013627835597097872,-0.013154080605506897,0.01735971560180187
1772527346279908900,8.523908935546874,0.028383213919401167,-0.027682372173666953,0.04974427411705255
1772527346289907000,8.533906982421875,0.023389351154863833,-0.030813655936717987,0.03212590757906437
1772527346299905000,8.543905029296875,0.011625555863976478,-0.02858312040567398,0.04396306036710739
1772527346309902800,8.55390283203125,0.007297755792737007,0.002884615525603294,0.081735741661489
1772527346319901000,8.56390087890625,0.003026362083852291,-0.006453706184029579,0.0861412831440568
1772527346329898000,8.57389794921875,0.016062953789532184,-0.04511807562112808,0.07387947520315646
1772527346339896000,8.58389599609375,0.00798076962083578,-0.05526420658230781,0.06879325798004865
1772527346349894100,8.59389404296875,-0.002926408840715885,-0.03062076371312141,0.07961042007058858
1772527346359892000,8.60389208984375,-0.005074526785314083,-0.010747603985667228,0.08116904768943786
1772527346369890000,8.61389013671875,0.020021628287434576,0.006562427255511283,0.07646686134785413
1772527346379888000,8.62388818359375,0.032737025214731694,0.02079962692260742,0.07073211708813905
1772527346389885000,8.633885009765624,0.0480298714146018,0.004441781839728355,0.05750935516059398
1772527346399883000,8.643883056640625,0.04606880047470331,-0.030047347739338873,0.02747252881526947
1772527346409880800,8.653880859375,-0.00008534019589424133,-0.04476327083408832,0.001142155772447586
1772527346419879000,8.66387890625,-0.04222264644056559,-0.05235036496222019,0.024859715968370437
1772527346429877000,8.673876953125,-0.04757394434064626,-0.02894435493350029,0.053448389331996436
1772527346439874800,8.683874755859375,-0.04235182577818632,-0.053091538718342775,0.08092033362537622
1772527346449873000,8.693872802734376,-0.03421761916130781,-0.07553484119474888,0.09074526980817317
1772527346459870000,8.703869873046875,-0.0529796027764678,-0.058607671791315076,0.09776771579086779
1772527346469868000,8.713867919921874,-0.03439823642522096,-0.04464753549993038,0.08917758210003375
1772527346479866000,8.7238662109375,0.020400398471951485,-0.04517594328820705,0.09469313065111637
1772527346489864000,8.733864013671875,0.025955402250587938,-0.03032674920260906,0.08826660473495722
1772527346499862000,8.743862060546874,0.031658582328259945,-0.03293313230872154,0.07960603615641594
1772527346509860000,8.753860107421875,0.023960429041087625,-0.031219314128160473,0.06282558174729347
1772527346519857000,8.76385693359375,0.016112053628265857,-0.002974631896615028,0.07940963680148125
1772527346529855000,8.77385498046875,0.009580606032907963,0.02121229937672615,0.09771598560363054
1772527346539852800,8.783852783203125,0.03354015829116106,0.05535246938765049,0.1085056751653552
1772527346549851000,8.793850830078124,0.04868979662805795,0.05603226834535598,0.08875818764418363
1772527346559849000,8.803848876953126,0.05788169560432434,0.050420273682475085,0.06957213339805603
1772527346569846800,8.8138466796875,0.060925301083922384,0.03205693399608135,0.04733516714870929
1772527346579844000,8.823843994140624,0.053012336002290245,0.007009586501121521,0.029252982491254804
1772527346589842000,8.833842041015625,0.01134703118354082,-0.006928922480344772,-0.00041530280262231826
1772527346599840000,8.843840087890625,-0.002597323016822338,-0.0006260229438543319,0.0023331191226840017
1772527346609838000,8.853838134765626,0.024817922653257846,-0.004768529576063156,0.028236206664144992
1772527346619836000,8.8638359375,0.029940964755415914,-0.019847440764307975,0.031110300795733927
1772527346629834000,8.873833984375,0.02175298212468624,-0.012329320219159126,0.06299947700947522
1772527346639832000,8.88383203125,0.04033551751971245,-0.02752864291667938,0.0906739581376314
1772527346649828900,8.893828857421875,0.027452947331964968,-0.045884968340396876,0.09283581234663725
1772527346659827000,8.903826904296874,0.001805295856297016,-0.07906009271144866,0.0625125702753663
1772527346669824800,8.91382470703125,-0.025610826596617696,-0.0700789138764143,0.06973141561299562
1772527346679822800,8.92382275390625,-0.03598229074627161,-0.02060147400200367,0.09613163902163505
1772527346689821000,8.933821044921874,-0.023872750757634637,0.013999299257993697,0.09879764336049557
1772527346699818800,8.94381884765625,0.01816226415634155,0.053906362232565876,0.09048720339387654
1772527346709816000,8.953816162109375,0.0939069487094879,0.08900690170824527,0.06991787809580564
1772527346719814100,8.963814208984376,0.14540128136426209,0.07826806555092335,0.027434242631494996
1772527346729812000,8.97381201171875,0.15079232675284146,0.0499754525244236,0.0007350362762808799
1772527346739809800,8.983809814453124,0.1249643502742052,-0.025682722789049147,-0.02059796687066555
1772527346749807900,8.993807861328126,0.05154986223429441,-0.050911272069811817,-0.02805588166117668
1772527346759806000,9.003805908203125,0.0004594342052936554,-0.04219838878214359,-0.009684066407382487
1772527346769803800,9.0138037109375,-0.029057167658209797,-0.02167933236658573,-0.024491174916923045
1772527346779800800,9.02380078125,-0.029250059881806373,0.0006581716477870941,-0.0016506898164749145
1772527346789798700,9.033798583984375,-0.005881459254026412,0.014044307443499564,0.023988778352737425
1772527346799796700,9.043796630859376,0.0606762947589159,-0.01525485227704048,0.018554770605266092
1772527346809794800,9.053794921875,0.07948124073296785,-0.049155368313193316,0.002618658065795898
1772527346819792600,9.063792724609375,0.0707864776238799,-0.058307812061905856,0.0025318565651774403
1772527346829790700,9.073790771484376,0.06474924328625202,-0.07020692417025566,0.00016425065100193021
1772527346839787800,9.083787841796875,0.03765402335077524,-0.04509001857042312,0.019997662889957427
1772527346849785900,9.093785888671874,0.04203822978436947,-0.030400983482599255,0.025900164932012557
1772527346859784000,9.103783935546875,0.06992021618336439,-0.001308159989118576,0.03826747907400131
1772527346869781800,9.11378173828125,0.07513795083165169,0.04576455683112144,0.060602645000815386
1772527346879779800,9.12377978515625,0.09300064751952886,0.020949849048256874,0.0541711506485939
1772527346889778000,9.13377783203125,0.08515519471615553,-0.0036281273692846294,0.04392535870522261
1772527346899774700,9.143774658203125,0.052671267479658126,-0.028837387427687645,0.04876812256127595
1772527346909772800,9.153772705078126,0.011170797833800315,-0.06240472598671913,0.030418519139289855
1772527346919770600,9.1637705078125,-0.002093172886967659,-0.10942366679310798,0.004850070379674434
1772527346929768700,9.173768798828124,-0.012359423096477985,-0.1261702189326286,-0.002466390113532543
1772527346939766800,9.183766845703126,-0.02133124958127737,-0.10191197598874568,0.018660861328244207
1772527346949764600,9.1937646484375,0.0037120062604546543,-0.08654489550888537,0.016770809797942637
1772527346959762700,9.2037626953125,0.029888650046288965,-0.022022446715831756,0.02158785469084978
1772527346969760000,9.213760009765625,0.06347177069634198,0.0449777903676033,0.027079730105400084
1772527346979757800,9.2237578125,0.11830226203650235,0.04186111965179443,0.025146131694316863
1772527346989756000,9.233755859375,0.12242460266351698,0.009204466196894644,0.035464404352009295
1772527346999753700,9.243753662109375,0.09410627067387103,-0.0064256491333246225,-0.0036553076371550557
1772527347009751800,9.253751708984375,0.0536743070423603,-0.010156652355194092,-0.026468904730677603
1772527347019750000,9.26375,0.027979017032682893,-0.012225275322794913,0.015742635793983936
1772527347029746700,9.27374658203125,0.01878010379374027,0.0066617959767580025,0.01447451555430889
1772527347039744800,9.283744873046874,0.05447042585611343,0.008639233529567717,0.02262859591543674
1772527347049742800,9.293742919921876,0.07472878550887108,-0.00305471139550209,0.010729483807086944
1772527347059740700,9.30374072265625,0.0556307018071413,-0.03234919494092464,0.009576514379680157
1772527347069738800,9.31373876953125,0.027796061681210994,-0.03510170851945877,0.006806465144455432
1772527347079736800,9.32373681640625,0.03449965097308159,-0.02240004785656929,-0.0009679682493209838
1772527347089735000,9.33373486328125,0.04030190751105547,-0.03717617670595646,-0.008408347383141517
1772527347099732000,9.34373193359375,0.024754794289171694,-0.05939677634239197,-0.025600889724493026
1772527347109729800,9.353729736328125,-0.007065700602531433,-0.04917056588232517,0.01920885059982538
1772527347119727900,9.363727783203124,0.002406476619839668,-0.023400164809823036,0.03475362573415041
1772527347129726000,9.373725830078126,0.01507452727407217,-0.009430091646313667,0.042944530974328515
1772527347139723800,9.383723876953125,0.04333820646703243,-0.02151332814991474,0.039459611468017096
1772527347149721900,9.393721923828124,0.037623628212511535,-0.035379356417059894,0.03330927214473486
1772527347159718700,9.40371875,0.02763590268343687,-0.04882452892363071,0.03463993622660637
1772527347169716700,9.413716796875,-0.00031359599381685255,-0.04331190298199653,0.026265491113066673
1772527347179714800,9.42371484375,-0.007078267823159694,-0.02064531314373016,0.049439445951581
1772527347189712600,9.433712646484375,0.002423427754640579,-0.03933890769779682,0.04111994589567184
1772527347199710700,9.443710693359375,0.012356792747974394,-0.024577976417541503,0.05357289249449968
1772527347209709000,9.453708984375,0.01893529435545206,-0.032142858713865276,0.06430997508615255
1772527347219707000,9.463706787109375,0.008643909704685211,-0.02363572713136673,0.05746230114847421
1772527347229704000,9.473703857421874,0.009299451003968714,0.039620062726736065,0.08878945956528186
1772527347239701800,9.48370166015625,0.03272679608166218,0.060953358134627336,0.0881038153886795
1772527347249699800,9.493699951171875,0.043782150842249394,0.06201426536440849,0.04893295773416757
1772527347259698000,9.503697998046874,0.031089842529594895,0.0488163456171751,0.04073533049225807
1772527347269695700,9.51369580078125,0.051236558501422405,0.045258945396542544,0.09542641336172819
1772527347279693800,9.52369384765625,0.08252747656106948,0.033385552251338955,0.0822264477878809
1772527347289690600,9.533690673828126,0.06935469125509262,-0.04198153116106987,0.013091244502365589
1772527347299688700,9.543688720703125,0.0593996989518404,-0.06713116998672485,0.05509177262485027
1772527347309686800,9.553686767578125,0.04898468792140483,-0.051636663734912866,0.0886181946516037
1772527347319684900,9.563684814453126,0.007595861956477165,-0.07106850943565368,0.08535276311486958
1772527347329683000,9.573682861328125,-0.029451135411858557,-0.03782499600350857,0.09647826050221919
1772527347339681000,9.583680908203124,-0.022862989193201063,-0.0032838439762592313,0.06177227330207825
1772527347349677800,9.593677734375,0.01779021597355604,0.04604571186006069,0.06857113966196775
1772527347359676000,9.603676025390625,0.06075140582174062,0.04303191699683666,0.04756751459985971
1772527347369673700,9.613673828125,0.07456453485786914,0.0006967500925064087,0.008416822950541972
1772527347379671800,9.623671875,0.050374680975079536,-0.02753390361368656,-0.03493862691223621
1772527347389670000,9.633669921875,-0.00954933411180973,-0.04899813192486763,-0.028116671937704084
1772527347399667700,9.643667724609376,-0.04325111270546913,-0.048001522102952,-0.002159516121447086
1772527347409664800,9.653664794921875,-0.03917494930773973,-0.017216507738828657,0.02050473562926054
1772527347419662600,9.66366259765625,-0.007148410449922084,-0.0013274492114782332,0.03630027065426111
1772527347429660700,9.67366064453125,0.05845248122960329,0.00428863710463047,0.08287555934637784
1772527347439659000,9.683658935546875,0.087164780972898,-0.005276479098200798,0.10833382572978735
1772527347449656800,9.69365673828125,0.09517068503499031,0.0010094693034887314,0.12271569456458091
1772527347459655000,9.703655029296876,0.09515227259546517,-0.022111878564953804,0.12895780382454394
1772527347469653000,9.713653076171875,0.09845014509707689,-0.029636428850889206,0.10682517473250627
1772527347479649800,9.72364990234375,0.07945815211832523,0.00779343035519123,0.08699877675622701
1772527347489647900,9.73364794921875,0.05929945344775915,-0.012661913174390792,0.07383738962709903
1772527347499645700,9.743645751953125,0.018605624009668826,-0.038646249258518214,0.058792965230345724
1772527347509643800,9.753643798828126,-0.016192717649042607,-0.05378185907006264,0.05670914469361305
1772527347519641900,9.763641845703125,-0.04079056781083345,-0.045748190218210215,0.06931348246186972
1772527347529639700,9.7736396484375,-0.06405687710791826,-0.04348901311457157,0.07991641727983952
1772527347539636700,9.78363671875,-0.04490267930477857,-0.0626584084868431,0.050024844624102116
1772527347549634800,9.793634765625,-0.02443856794685125,-0.03218377524614334,0.04457447026371956
1772527347559633000,9.8036328125,-0.003808452372252941,0.004240121787786483,0.04325052818357944
1772527347569631000,9.813630859375,-0.0005894903257489204,0.03336450946331024,0.03395926048606634
1772527347579629000,9.823629150390625,-0.009775836344063281,0.059172319936752316,0.03073971391767263
1772527347589627000,9.833626953125,0.02010083100348711,0.05761106196939945,0.03979571155458689
1772527347599625000,9.843625,0.04603548272699117,0.08215572063922881,0.05424889205992221
1772527347609621800,9.853621826171874,0.07098492280542851,0.07162789688408375,0.0686605715110898
1772527347619619800,9.863619873046876,0.07396481539905071,-0.005675123026967048,0.05499328068643808
1772527347629618000,9.873617919921875,0.05032528887540102,-0.07095686575472354,0.06745850224494934
1772527347639615700,9.88361572265625,0.028725451485812663,-0.06089490594565868,0.07842822454869747
1772527347649613800,9.89361376953125,-0.009383914417028426,-0.05013035082519054,0.08356617195904255
1772527347659612000,9.90361181640625,-0.040839959910511967,-0.03821779471337795,0.11099456937164068
1772527347669608700,9.913608642578126,-0.02181961762011051,-0.002918517795205116,0.13568711207956075
1772527347679607000,9.92360693359375,0.0036950551256537435,-0.0026537293791770934,0.15849369491040705
1772527347689604900,9.93360498046875,0.04770692307054996,-0.006146832191944122,0.12756050424724816
1772527347699603000,9.94360302734375,0.05761982979774475,0.009847440275549887,0.10087971033155918
1772527347709601000,9.95360107421875,0.07196458149254321,0.007342179456353187,0.06313333252221345
1772527347719598800,9.963598876953125,0.0627002018019557,0.0056231005787849425,0.0334533567905426
1772527347729596200,9.97359619140625,0.05041179811507463,-0.008898176726698875,0.0196045719191432
1772527347739594000,9.983593994140625,0.006035773032903671,-0.05995031857192516,0.009796586871147156
1772527347749592000,9.993592041015624,-0.05008884977102279,-0.05281096821129322,0.037083822247385975
1772527347759590100,10.003590087890625,-0.0668371554762125,-0.02496668347418308,0.07086100416481494
1772527347769588000,10.013587890625,-0.026319267126917838,-0.012856558963656424,0.05628799667209387
1772527347779586000,10.0235859375,-0.006119359663128853,-0.04597615375518799,0.05203501540273427
1772527347789584100,10.033584228515625,0.0026738953843712804,-0.08896540065407753,0.040465865901112556
1772527347799581000,10.043580810546874,-0.009547288285195826,-0.07592471729516982,0.04689093051254749
1772527347809579000,10.0535791015625,-0.01797843202203512,-0.04794365443587303,0.026397300799190997
1772527347819577000,10.0635771484375,-0.030201953779160975,-0.03383972575962543,0.026499299868941305
1772527347829575200,10.0735751953125,-0.02190817268639803,-0.019359364986419676,0.04451455677002668
1772527347839573200,10.0835732421875,-0.019996786107122896,0.01673719978928566,0.07245178048759698
1772527347849571000,10.093571044921875,-0.015214228005707263,0.04371113143265247,0.08179565515518188
1772527347859568000,10.103568115234374,0.016427987709641455,0.04857435355484485,0.07007452996224164
1772527347869566000,10.11356591796875,0.05188450101613998,0.04703998359441757,0.060325581625103944
1772527347879564000,10.12356396484375,0.07651157727241516,0.02976853079795837,0.05130494756251573
1772527347889562000,10.13356201171875,0.08905044858902693,-0.01982756702005863,0.029514848297834396
1772527347899560000,10.143559814453125,0.040220951229333876,-0.05427753363251686,0.03009673983901739
1772527347909558000,10.15355810546875,-0.008292612048983574,-0.04719721998274326,0.06715279729664325
1772527347919556000,10.16355615234375,-0.05091594824492931,-0.03519230941236019,0.10207008915990591
1772527347929553200,10.17355322265625,-0.06946633493602275,-0.036249124988913535,0.11076982070505619
1772527347939551200,10.18355126953125,-0.0547483660146594,-0.016979776373505593,0.11764146004021167
1772527347949549000,10.193549072265625,-0.025996026521921158,0.01707622248530388,0.12065993107855319
1772527347959547100,10.203547119140625,0.035731530855596064,0.006613865181803703,0.08722060281336307
1772527347969545200,10.213545166015624,0.0726274293154478,-0.02937222495675087,0.028529344391822812
1772527347979543000,10.22354296875,0.05087444719076156,-0.07139642621576786,-0.01371814422905445
1772527347989540000,10.2335400390625,0.028692718259990212,-0.07858838354647159,-0.022260347124934195
1772527347999538200,10.2435380859375,0.02732259895056486,-0.0484632943958044,-0.009437690430879593
1772527348009536000,10.253535888671875,0.033928865347802636,-0.007112462353706359,0.01817366233319044
1772527348019534000,10.2635341796875,0.07243862874507903,0.014417232409119605,0.02120002441704273
1772527348029532200,10.2735322265625,0.08011690828800201,-0.014373977789282798,0.04483838189691305
1772527348039530000,10.283530029296875,0.04778466448187828,-0.05074176072180271,0.06107786129713058
1772527348049527300,10.29352734375,-0.022681202885508536,-0.06860942584574223,0.046178690589964384
1772527348059525000,10.303525146484375,-0.05551438195109367,-0.026969839990139004,0.08725888899713755
1772527348069523200,10.313523193359375,-0.06572451805919409,0.023086861076951026,0.11909545824080706
1772527348079521300,10.323521240234374,0.015496552078425884,0.05189151527881622,0.13436316999942063
1772527348089519000,10.33351904296875,0.07426204477995633,0.04562660966515541,0.12919073579758406
1772527348099517200,10.34351708984375,0.10401596253067254,0.01516600494980812,0.09978753118067979
1772527348109515300,10.353515380859376,0.09264876534193754,-0.014150690427422523,0.08067015825659037
1772527348119512000,10.363511962890625,0.06319003114551305,-0.025257775375247,0.07383359023481607
1772527348129510100,10.37351025390625,0.02189414416104555,-0.020694412982463835,0.05813888523578643
1772527348139508000,10.383508056640625,0.02199380514323711,-0.0053320086777210235,0.015571370880305767
1772527348149506000,10.393506103515625,0.0029778467670083042,-0.03733925831317901,-0.00575432574301958
1772527348159504100,10.403504150390624,-0.03232026110738516,-0.05064239200055599,-0.003355740168690681
1772527348169502000,10.413501953125,-0.020535715289413926,-0.016215806263685226,0.0036363106757402418
1772527348179499300,10.423499267578125,0.01065729535371065,-0.012608721682429313,-0.0037409400939941405
1772527348189497000,10.4334970703125,0.05145107803493738,-0.02418283962011337,-0.012471943560242652
1772527348199495200,10.4434951171875,0.06124211194813251,-0.03140285400152206,-0.007677695021033286
1772527348209493200,10.4534931640625,0.029966099196672438,-0.044564533391594885,0.0008665537014603614
1772527348219491000,10.463490966796876,-0.008926818299293518,-0.028294366592168805,0.023912205985188482
1772527348229489200,10.4734892578125,-0.01965805567204952,-0.06767126821279526,0.042490649726986886
1772527348239487200,10.4834873046875,-0.03690495854914188,-0.08192249640524386,0.04750029458254575
1772527348249484000,10.493484130859375,-0.04770487724393606,-0.056574120137095445,0.07807663463205099
1772527348259482000,10.503482177734375,-0.02849865699261427,-0.052750177934765816,0.07996931651085615
1772527348269480000,10.51347998046875,0.006535831509530544,-0.020551789641380307,0.08662292918115853
1772527348279478000,10.52347802734375,0.032312077800929546,0.03854804958105087,0.10858253979384898
1772527348289476000,10.53347607421875,0.08214169211387634,0.07380991709828376,0.12446049240529536
1772527348299474000,10.543473876953126,0.11318711097985505,0.05146715238690376,0.09745587336272
1772527348309471200,10.55347119140625,0.10313362673819064,0.04935176766812801,0.0746364310503006
1772527348319469000,10.563468994140624,0.08274170383363962,0.017136428239941597,0.04933101714104414
1772527348329467100,10.573467041015626,0.05778583401441574,-0.02167933236658573,0.013133037817478179
1772527348339465200,10.58346533203125,-0.0013464461728930472,-0.031491116806864734,0.013551847751438617
1772527348349463000,10.593463134765624,-0.017292495584487914,-0.030756957313418386,0.024906769980490205
1772527348359461000,10.603461181640625,-0.005629822580516338,-0.018950199663639068,0.043483460156619545
1772527348369459200,10.613459228515625,-0.0008832125753164291,-0.00000526069700717926,0.04263035045862198
1772527348379456000,10.6234560546875,0.014759469975531101,-0.033809915143251414,0.04738689733594656
1772527348389454000,10.6334541015625,0.03350041080266237,-0.06303951675891876,0.06236702432483434
1772527348399452000,10.643451904296874,0.020812194143235683,-0.05340308888554573,0.04389671713262796
1772527348409450000,10.653449951171876,0.008303133442997932,-0.03357844447493553,0.010849603055417536
1772527348419448000,10.663447998046875,0.049069735856354234,0.014992401948571205,0.019191022682189942
1772527348429446000,10.67344580078125,0.08749678940623998,0.021588146951794625,-0.01411415780931711
1772527348439443200,10.683443115234375,0.09853957694619893,-0.022699907585978507,-0.03730243343412876
1772527348449441300,10.693441162109375,0.05774754783064127,-0.07420330033004284,-0.037547055844962596
1772527348459439000,10.703439208984374,0.021199732156097887,-0.10000117393136024,-0.04231441637724638
1772527348469437200,10.713437255859375,-0.00003302548676729202,-0.08477320966124534,-0.019282208096981047
1772527348479435000,10.72343505859375,-0.00001315174251794815,-0.06381283921897411,0.031250293788313864
1772527348489433000,10.73343310546875,0.007632102313637733,-0.019739304214715956,0.08388093699663877
1772527348499430100,10.74343017578125,0.03965513404011726,0.009750409641861916,0.10519465092122554
1772527348509428000,10.753427978515624,0.05583148507624864,-0.018079262048006056,0.07856792528033256
1772527348519426000,10.763426025390626,0.012214169406890869,-0.08283376603126526,0.0783332397416234
1772527348529424100,10.773424072265625,-0.017990122459828853,-0.03582768470644951,0.06747253077030181
1772527348539422000,10.783421875,0.003187690125405788,0.013610592201352118,0.10426350755095481
1772527348549420000,10.793419921875,0.10522738414704799,-0.0350438408523798,0.08708703956156968
1772527348559417900,10.80341796875,0.17525602914094923,0.0008288520395755767,0.04822130233347416
1772527348569415200,10.813415283203126,0.11245265922546387,0.08961889612674713,0.006671440587937831
1772527348579413200,10.823413330078125,-0.012664543522894381,0.07110065813958645,-0.005841419504582881
1772527348589411000,10.8334111328125,-0.09336889631003141,-0.03082651541829109,0.07005611752271652
1772527348599409200,10.8434091796875,-0.06131809979379177,-0.0480102899312973,0.09949965415000915
1772527348609407200,10.8534072265625,0.007661328408122062,0.018612346011400223,0.09366992508322
1772527348619405000,10.863405029296874,0.0504831097856164,0.008172200539708137,0.09036386927515268
1772527348629402000,10.873402099609375,0.029465456198155878,-0.012989829954504966,0.10578414124697447
1772527348639400000,10.88339990234375,-0.010853986969590187,0.027293080595135688,0.11586509801745414
1772527348649398000,10.89339794921875,0.020743805082142353,0.09117138626575469,0.11936550735384226
1772527348659396000,10.90339599609375,0.10180997691899538,0.10213584787249565,0.08642185365110636
