time,seconds_elapsed,z,y,x
1772522641368305700,0.0733056640625,0.000533553771674633,-0.0005502994172275066,0.0006379503756761551
1772522641378303700,0.0833037109375,-0.00006083771586418152,0.0006286273710429668,0.0006222282536327839
1772522641388300500,0.093300537109375,0.0016142907552421093,0.0004912083968520164,-0.0008180094882845879
1772522641398297900,0.1032978515625,0.001946919597685337,-0.0012904461473226547,-0.0012891227379441261
1772522641408294700,0.113294677734375,-0.00041557103395462036,-0.0011700713075697422,0.00020357919856905937
1772522641418292700,0.123292724609375,0.0010178806260228157,0.0011689867824316025,-0.0010613743215799332
1772522641428289500,0.13328955078125,-0.0018950849771499634,0.0009585972875356674,0.00038791773840785027
1772522641438286800,0.143286865234375,-0.000031342729926109314,0.0006524235941469669,0.0014261603355407715
1772522641448283600,0.15328369140625,0.0011724065989255905,0.0004636053927242756,-0.0003003673627972603
1772522641458281700,0.16328173828125,-0.00041892100125551224,-0.00032792193815112114,-0.001901059877127409
1772522641468278500,0.173278564453125,0.0003400798887014389,-0.0007055583409965038,-0.0013897325843572617
1772522641478275800,0.18327587890625,-0.0005993908271193504,-0.0003452845849096775,-0.0003287149593234062
1772522641488272600,0.193272705078125,-0.001516583375632763,-0.0006651300936937332,-0.0020549758337438107
1772522641498270700,0.203270751953125,0.0007888060063123703,-0.000208189245313406,-0.0003362293355166912
1772522641508267500,0.213267578125,-0.00043358560651540756,0.00040034297853708267,0.00073995441198349
1772522641518264800,0.223264892578125,-0.000039266422390937805,-0.002336003351956606,0.0029508965089917183
1772522641528261600,0.23326171875,-0.0016837678849697113,0.0026094866916537285,0.0006616427563130856
1772522641538258700,0.2432587890625,-0.00046902429312467575,-0.001022962387651205,-0.0005139042623341084
1772522641548256500,0.253256591796875,-0.00011801999062299728,0.0004265960305929184,-0.0005234917625784874
1772522641558253800,0.26325390625,0.0008603800088167191,0.00019697286188602448,0.0033087627962231636
1772522641568250600,0.273250732421875,0.0008646408095955849,0.00042999908328056335,-0.003435959108173847
1772522641578247700,0.28324755859375,-0.0010769004002213478,0.0015888838097453117,-0.0007227975875139236
1772522641588245500,0.29324560546875,0.0024485928006470203,0.0010237609967589378,-0.0014868583530187607
1772522641598242800,0.303242919921875,-0.00038078613579273224,0.004777516238391399,0.001278469804674387
1772522641608239600,0.313239501953125,-0.0009168805554509163,0.0012490944936871529,-0.001965793315321207
1772522641618236700,0.323236572265625,0.00019550509750843048,-0.0005848687142133713,0.00017880694940686226
1772522641628233700,0.333233642578125,-0.0019659167155623436,-0.0005473182536661625,-0.00004356680437922478
1772522641638231800,0.343231689453125,-0.0003612935543060303,-0.0005925898440182209,0.001876862719655037
1772522641648228600,0.353228515625,0.0008408576250076294,-0.00038433028385043144,-0.001035570167005062
1772522641658225700,0.3632255859375,-0.0009597055613994598,-0.0006453203968703747,0.0006408896297216415
1772522641668222700,0.37322265625,-0.0002469383180141449,0.0008989265188574791,-0.0006039631552994251
1772522641678220800,0.383220703125,0.0011689653620123863,-0.0007165931165218353,-0.0016430895775556564
1772522641688217600,0.393217529296875,0.00027946941554546356,0.0031228861771523952,0.0023074434138834476
1772522641698214700,0.403214599609375,-0.0002947784960269928,-0.0022537740878760815,-0.00025427527725696564
1772522641708211700,0.413211669921875,0.0009340038523077965,-0.0024316729977726936,-0.0019227457232773304
1772522641718209800,0.423209716796875,-0.0004833061248064041,0.0005351267755031586,-0.0004013441503047943
1772522641728206600,0.43320654296875,0.00037982501089572906,-0.001192732248455286,0.0006061294116079807
1772522641738203600,0.44320361328125,-0.00021162349730730057,-0.002070910297334194,0.00021531665697693825
1772522641748200700,0.45320068359375,0.000176931731402874,0.00024497462436556816,0.0001660482957959175
1772522641758198800,0.46319873046875,-0.0009826086461544037,-0.0017958059906959534,0.0007026749663054943
1772522641768195600,0.473195556640625,0.0013684295117855072,-0.0003888579085469246,-0.0028507807292044163
1772522641778192600,0.483192626953125,-0.001527390442788601,0.00019708648324012756,0.0027522053569555283
1772522641788189700,0.493189697265625,0.00035812798887491226,0.0002881665714085102,0.0005212756805121899
1772522641798186800,0.503186767578125,-0.0030772890895605087,-0.0025362151209264994,0.002147743944078684
1772522641808184600,0.5131845703125,0.0008071977645158768,-0.0014235465787351131,-0.0007449816912412643
1772522641818181600,0.523181640625,-0.0003145616501569748,-0.002307671355083585,0.0021710945293307304
1772522641828178700,0.5331787109375,0.0009150197729468346,0.00018904218450188637,-0.0012966073118150234
1772522641838175700,0.54317578125,0.0009602485224604607,-0.0014288872480392456,0.0019406965002417564
1772522641848173600,0.553173583984375,-0.0004293890669941902,0.0002939119003713131,-0.0014170166105031967
1772522641858170600,0.563170654296875,-0.001153482124209404,0.0010793916881084442,0.00030955439433455467
1772522641868167700,0.573167724609375,0.0015874430537223816,0.00001439359039068222,0.0009124940261244774
1772522641878164700,0.583164794921875,0.0008995234966278076,0.0011244537308812141,0.0011402033269405365
1772522641888161500,0.59316162109375,-0.0005748029798269272,-0.000693153589963913,-0.0009644925594329834
1772522641898159600,0.60315966796875,0.000026739202439785004,0.00018072174862027168,0.00032786279916763306
1772522641908157200,0.6131572265625,-0.0005993703380227089,0.0015977900475263596,0.0010098982602357864
1772522641918154000,0.623154052734375,-0.0011836523190140724,-0.00047120358794927597,-0.0014089550822973251
1772522641928150800,0.63315087890625,0.0014451537281274796,0.000858779065310955,0.0002866797149181366
1772522641938148900,0.64314892578125,0.0004586251452565193,-0.0010354756377637386,-0.0011945851147174835
1772522641948146200,0.653146240234375,-0.0018745707347989082,-0.0023172551300376654,-0.0014505148865282536
1772522641958143000,0.66314306640625,-0.0019489936530590057,0.00045972876250743866,-0.0003365189768373966
1772522641968140000,0.67314013671875,0.0019562658853828907,0.0003848937340080738,-0.0009493124671280384
1772522641978137900,0.683137939453125,0.0005217157304286957,-0.0022982927039265633,0.0009569921530783176
1772522641988135200,0.69313525390625,-0.0008431542664766312,0.002740941010415554,-0.0006757918745279312
1772522641998132000,0.703132080078125,0.00009895209223031998,-0.0034294973593205214,-0.0009833918884396553
1772522642008129000,0.71312890625,0.0007548881694674492,0.002576197497546673,0.0001580389216542244
1772522642018126800,0.723126953125,0.0023497268557548523,-0.00035247718915343285,-0.0005559064447879791
1772522642028124200,0.733124267578125,0.0004607466980814934,0.00044593866914510727,-0.0005899947136640549
1772522642038121000,0.743120849609375,-0.002021939493715763,-0.0004902752116322517,0.00001607416197657585
1772522642048118000,0.753117919921875,0.0006944853812456131,-0.0012008068151772022,-0.0007123006507754326
1772522642058115000,0.763114990234375,0.0005749091506004333,-0.0025249302852898836,-0.0008838078938424587
1772522642068113200,0.773113037109375,-0.0015015574172139168,0.00008150516077876091,0.00013032369315624237
1772522642078110000,0.78310986328125,0.0009853467345237732,-0.0006079296581447124,-0.002746123354882002
1772522642088107000,0.79310693359375,0.00044605694711208344,-0.0008470816537737846,0.00008668098598718643
1772522642098104000,0.80310400390625,0.0009116083383560181,0.0007415381260216236,-0.00023455824702978134
1772522642108102100,0.81310205078125,0.00041333120316267014,0.0026720641180872917,-0.0017994316294789314
1772522642118099000,0.823098876953125,0.0018726424314081669,-0.0014361757785081863,-0.0004787319339811802
1772522642128096000,0.833095947265625,0.00005423650145530701,-0.0003709113225340843,0.001014768611639738
1772522642138093000,0.843093017578125,0.00029311422258615494,-0.0012541166506707668,-0.00043926434591412544
1772522642148091100,0.853091064453125,0.000774347223341465,0.0025014728307724,0.0008390527218580246
1772522642158088000,0.863087890625,0.0005002133548259735,-0.003385658608749509,0.00013356702402234077
1772522642168085000,0.8730849609375,0.0010783849284052849,0.0007251966744661331,0.0006962930783629417
1772522642178082000,0.88308203125,0.0005978308618068695,0.001064323354512453,0.0010781851597130299
1772522642188080000,0.893080078125,0.0009658792987465858,0.00004752865061163902,0.0027908640913665295
1772522642198077000,0.903076904296875,0.0005094138905405998,0.0006342227570712566,-0.0011010798625648022
1772522642208074000,0.913073974609375,-0.0009473348036408424,0.001075242180377245,-0.000572974793612957
1772522642218071000,0.923071044921875,-0.0005846517160534859,-0.0009993193671107292,-0.0019989171996712685
1772522642228068000,0.933068115234375,-0.0019188951700925827,0.0016800868324935436,-0.002727025654166937
1772522642238066000,0.94306591796875,0.0007680384442210197,-0.001418496947735548,-0.0012803724966943264
1772522642248063000,0.95306298828125,-0.00032545533031225204,-0.00016627833247184753,0.0011782580986618996
1772522642258060000,0.96306005859375,-0.00040813349187374115,0.0004844376817345619,0.0015747975558042526
1772522642268057000,0.97305712890625,0.00005685444921255112,-0.0009187818504869938,0.0023764092475175858
1772522642278055000,0.983054931640625,0.0032499595545232296,0.00003468478098511696,-0.00013920245692133904
1772522642288052000,0.993052001953125,-0.0020185718312859535,0.003426752518862486,0.000041093211621046066
1772522642298049000,1.003049072265625,0.00002610776573419571,-0.0008459719829261303,-0.0014289859682321548
1772522642308046000,1.013046142578125,-0.0010743103921413422,0.000632881186902523,-0.001402087975293398
1772522642318044000,1.0230439453125,0.0004977649077773094,-0.000016386155039072037,0.0007735434919595718
1772522642328041000,1.033041015625,-0.0004236893728375435,-0.0010611442849040031,0.0016979272477328777
1772522642338038000,1.0430380859375,-0.001923409290611744,0.0002308078110218048,0.0004526181146502495
1772522642348035000,1.05303515625,0.0020612129010260105,0.00012188451364636421,-0.000032343436032533646
1772522642358032000,1.063031982421875,-0.0006893184036016464,-0.0003370889462530613,0.002443554811179638
1772522642368030000,1.073030029296875,0.0021940860897302628,0.0017074192874133587,0.0000842604786157608
1772522642378027000,1.083027099609375,0.0005229078233242035,-0.001916135661303997,0.0003619943745434284
1772522642388024000,1.093024169921875,-0.0008978880941867828,-0.0007171807810664177,-0.0004103220999240875
1772522642398020900,1.103020751953125,-0.000978659838438034,-0.0022755488753318787,0.0017537185922265053
1772522642408019000,1.11301904296875,0.0006519937887787819,-0.00015167798846960068,-0.00005217036232352257
1772522642418016000,1.12301611328125,-0.00009023118764162064,-0.00032614823430776596,0.001123578753322363
1772522642428013000,1.133012939453125,-0.0017160912975668907,-0.0008542533032596111,-0.0023033772595226765
1772522642438009900,1.143009765625,0.0008377619087696075,-0.00006232736632227898,0.0020725741051137447
1772522642448008000,1.153008056640625,-0.001101551577448845,-0.000598421785980463,0.0011929315514862537
1772522642458005000,1.1630048828125,0.001549826469272375,-0.0000017597340047359467,0.001666767057031393
1772522642468002000,1.173001953125,-0.0007647266611456871,0.0012019891291856766,0.000616682693362236
1772522642477998800,1.182998779296875,0.0008580898866057396,0.000048041343688964844,-0.0010345675982534885
1772522642487996200,1.19299609375,-0.00019838567823171616,-0.0008656890131533146,0.0001582619734108448
1772522642497994000,1.202993896484375,-0.0003008134663105011,-0.001586762722581625,-0.0001718895509839058
1772522642507991000,1.212990966796875,0.00011650379747152328,-0.0018773134797811508,-0.0004043835215270519
1772522642517987800,1.22298779296875,0.0011580642312765121,0.0012116297148168087,-0.0013799229636788368
1772522642527985200,1.232985107421875,0.0005921423435211182,0.00017033377662301064,-0.00021106144413352013
1772522642537983000,1.24298291015625,0.0008154977113008499,-0.00012785661965608597,0.00017900625243782997
1772522642547980000,1.25297998046875,0.0013300199061632156,-0.0008181477896869183,0.0003470517694950104
1772522642557977000,1.26297705078125,0.0009453697130084038,-0.0006771814078092575,0.0023082690313458443
1772522642567974100,1.27297412109375,-0.002495966851711273,-0.001072128303349018,0.0003180890344083309
1772522642577972000,1.282971923828125,-0.0009999331086874008,0.0013619200326502323,0.00018892530351877213
1772522642587969000,1.292968994140625,-0.00005797296762466431,-0.00032492587342858315,0.0025223870761692524
1772522642597966000,1.302966064453125,0.0010090311989188194,0.0003116973675787449,0.0007387888617813587
1772522642607963100,1.312963134765625,-0.0003768773749470711,0.00029811542481184006,0.002223500981926918
1772522642617961000,1.3229609375,0.00023552123457193375,0.0006708116270601749,-0.0011379765346646309
1772522642627958000,1.3329580078125,0.0015500574372708797,-0.00041336147114634514,-0.0013089515268802643
1772522642637955000,1.342955078125,-0.0009577907621860504,0.00016067083925008774,-0.0017889318987727165
1772522642647952100,1.3529521484375,-0.0021615391597151756,-0.0007778271101415157,-0.0005841176025569439
1772522642657949000,1.362948974609375,-0.00023489166051149368,0.0009602908976376057,0.0002586469054222107
1772522642667947000,1.372947021484375,-0.000020240433514118195,-0.0019814367406070232,0.0016725193709135056
1772522642677944000,1.382944091796875,-0.0005739191547036171,0.0014021694660186768,-0.0004831426776945591
1772522642687941000,1.392941162109375,-0.002055702731013298,0.0022264178842306137,-0.00030364561825990677
1772522642697938000,1.40293798828125,-0.00024256017059087753,-0.0006090081296861172,-0.00003633275628089905
1772522642707936000,1.41293603515625,-0.0011142129078507423,-0.000440164003521204,0.0014553037472069263
1772522642717933000,1.42293310546875,0.0010087722912430763,-0.001067507080733776,0.0018032817170023918
1772522642727930000,1.43293017578125,-0.0008509131148457527,-0.0020238482393324375,0.0003316188231110573
1772522642737927000,1.442927001953125,0.00015552714467048645,-0.00035922322422266006,0.0003089606761932373
1772522642747925000,1.452925048828125,-0.0009699249640107155,-0.00036428309977054596,-0.0019723032601177692
1772522642757922000,1.462922119140625,-0.0011015664786100388,0.0009090029634535313,-0.0025120466016232967
1772522642767919000,1.472919189453125,-0.0023034503683447838,0.001009137835353613,0.0004033157601952553
1772522642777916000,1.482916015625,-0.0015736008062958717,0.0013220114633440971,-0.001107978168874979
1772522642787914000,1.4929140625,0.0009617283940315247,0.0009347880259156227,-0.0006517786532640457
1772522642797911000,1.5029111328125,-0.0012150593101978302,-0.0008025388233363628,0.0012390227057039738
1772522642807908000,1.512908203125,-0.0011559370905160904,-0.0008472795598208904,0.0001346096396446228
1772522642817905000,1.52290478515625,-0.0010401681065559387,-0.0010495386086404324,0.0008065556176006794
1772522642827902000,1.53290185546875,-0.0005043400451540947,8.121132850646973e-7,0.0005482286214828491
1772522642837900000,1.542900146484375,0.0006811711937189102,-0.00032783159986138344,0.0016803261823952198
1772522642847897000,1.55289697265625,0.001777594443410635,0.001981928013265133,-0.0007500750944018364
1772522642857894000,1.562893798828125,0.0025888411328196526,-0.001074755098670721,0.00006357021629810333
1772522642867891200,1.57289111328125,-0.00256970152258873,-0.00010616378858685493,0.0019269841723144054
1772522642877889000,1.582888916015625,0.00046781543642282486,-0.000029128510504961014,0.0004889112897217274
1772522642887886000,1.592885986328125,-0.0012912023812532425,0.0005554351955652237,-0.0011891466565430164
1772522642897883000,1.6028828125,-0.0009539518505334854,0.0014872238971292973,0.0010657664388418198
1772522642907880200,1.612880126953125,0.0015225219540297985,0.0017218482680618763,-0.0007752771489322186
1772522642917878300,1.622878173828125,0.0015711910091340542,-0.0003870162181556225,0.0005884510464966297
1772522642927875000,1.632875,-0.001825670711696148,-0.000500999391078949,-0.0005511157214641571
1772522642937872100,1.6428720703125,0.00008438993245363235,-0.00039051612839102745,-0.0001409025862812996
1772522642947869200,1.652869140625,-0.00047274399548768997,0.0025520101189613342,-0.0012591639533638954
1772522642957867300,1.6628671875,-0.00115115474909544,0.0002060229890048504,0.0008452283218502998
1772522642967864000,1.672864013671875,0.0010986840352416039,0.00047127390280365944,0.00009714625775814056
1772522642977861000,1.682861083984375,-0.0008115125820040703,-0.0013088597916066647,0.00026630843058228493
1772522642987858200,1.692858154296875,-0.00016196724027395248,0.002205180935561657,0.00024180766195058823
1772522642997855200,1.702855224609375,0.0004988331347703934,0.001299271360039711,0.002464279066771269
1772522643007853000,1.71285302734375,0.0016405307687819004,0.0016824998892843723,-0.00026253145188093185
1772522643017850000,1.72285009765625,0.00001560058444738388,-0.0008249608799815178,-0.00022125476971268654
1772522643027847200,1.73284716796875,0.0005431734025478363,0.0005686711519956589,0.0016669263131916523
1772522643037844200,1.74284423828125,0.0008505890145897865,0.00044836150482296944,-0.0013557500205934048
1772522643047842000,1.752842041015625,-0.000916418619453907,-0.0002903994172811508,0.004296809434890747
1772522643057839000,1.762839111328125,0.00040206220000982285,0.001578697469085455,-0.00198390893638134
1772522643067836200,1.772836181640625,0.001663601491600275,0.0002700202167034149,-0.0010249046608805656
1772522643077833200,1.782833251953125,-0.002243232913315296,-0.00032927747815847397,-0.0018822895362973213
1772522643087831000,1.7928310546875,-0.0016605332493782043,0.0017573093064129353,0.0014280197210609913
1772522643097828000,1.802828125,-0.0011437209323048592,-0.0009631817229092121,-0.0013751829974353313
1772522643107825200,1.8128251953125,-0.00004010740667581558,0.00010687671601772308,-0.002274265978485346
1772522643117822200,1.822822265625,-0.0012073414400219917,-0.0012289457954466343,-0.0005660774186253548
1772522643127820300,1.8328203125,-0.001984185539186001,-0.0014683641493320465,0.0009585823863744736
1772522643137817000,1.842817138671875,-0.0022229868918657303,-0.0009733801707625389,-0.00228933896869421
1772522643147814100,1.852814208984375,0.00004203151911497116,-0.00032330257818102837,-0.0005239294841885567
1772522643157811200,1.862811279296875,0.00036723073571920395,-0.0007272255606949329,0.0003498080186545849
1772522643167808000,1.87280810546875,-0.0003928355872631073,0.0011114208027720451,0.0015620789490640163
1772522643177806000,1.88280615234375,0.0009341854602098465,-0.0010493462905287743,0.0014209439978003502
1772522643187803100,1.89280322265625,0.00004176050424575806,0.0004034079611301422,0.0006784540601074696
1772522643197800200,1.90280029296875,0.0018511731177568436,-0.0008480222895741463,-0.00028665829449892044
1772522643207797000,1.912796875,-0.0003211675211787224,0.001558144111186266,-0.0015876125544309616
1772522643217795000,1.922795166015625,0.0006496161222457886,0.00020302319899201393,0.0002834680490195751
1772522643227792100,1.932792236328125,0.0008000843226909637,-0.000343990046530962,-0.0017184303142130375
1772522643237789200,1.9427890625,-0.00011179037392139435,0.0002647978253662586,-0.0017454465851187706
1772522643247786000,1.952785888671875,0.0026416522450745106,0.0003156638704240322,0.0018452932126820087
1772522643257784000,1.9627841796875,0.000046232715249061584,0.0009832964278757572,0.0018800096586346626
1772522643267781000,1.972781005859375,-0.000884275883436203,0.00012123119086027145,0.00022884970530867577
1772522643277778200,1.982778076171875,-0.0008235778659582138,0.001397077925503254,0.0005333423614501953
1772522643287775000,1.99277490234375,0.0000012032687664031982,-0.0011414471082389355,-0.00007518986240029335
1772522643297773000,2.00277294921875,-0.0009187674149870872,0.00021341349929571152,0.00030894624069333076
1772522643307770400,2.012770263671875,0.0005715377628803253,-0.0013501280918717384,-0.0007027885876595974
1772522643317767200,2.02276708984375,0.00012627243995666504,0.0003808331675827503,0.0006303442642092705
1772522643327764000,2.032763916015625,0.000360097736120224,-0.00046498700976371765,0.0011288882233202457
1772522643337762000,2.042761962890625,-0.00028760265558958054,-0.0008218367584049702,0.0007146946154534817
1772522643347759400,2.05275927734375,0.00043011922389268875,0.0013707438483834267,-0.0009010452777147293
1772522643357756200,2.062756103515625,0.00022239796817302704,0.0016305940225720406,0.001328044105321169
1772522643367753000,2.0727529296875,0.00010814890265464783,-0.00044347578659653664,-0.00027224933728575706
1772522643377750300,2.082750244140625,0.0005905004218220711,0.0012669675052165985,0.0016882126219570637
1772522643387748400,2.092748291015625,-0.0007306933403015137,-0.0022241701371967793,0.0006064362823963165
1772522643397745200,2.1027451171875,-0.0010626334697008133,-0.0007776250131428242,-0.0009877346456050873
1772522643407742000,2.112741943359375,0.0007461858913302422,0.00015448126941919327,-0.00040317047387361526
1772522643417739300,2.1227392578125,-0.0022232597693800926,-0.0005642119795084,0.00029022013768553734
1772522643427737300,2.1327373046875,-0.00044373609125614166,-0.00003557465970516205,0.000917128287255764
1772522643437734100,2.142734130859375,-0.0010915780439972878,0.001477906946092844,-0.0015673316083848476
1772522643447731000,2.15273095703125,0.002103682141751051,-0.004105144180357456,0.002024739980697632
1772522643457728300,2.162728271484375,0.0005460558459162712,-0.000032421667128801346,0.0013770493678748608
1772522643467726300,2.172726318359375,-0.002174629829823971,0.0007031434215605259,-0.00009807571768760681
1772522643477723100,2.18272314453125,-0.0026396606117486954,-0.0014433693140745163,0.0030928640626370907
1772522643487720200,2.19272021484375,0.00042430590838193893,0.0005555995739996433,-0.0015524877235293388
1772522643497717200,2.20271728515625,-0.000619581900537014,-0.0019220947287976742,-0.00007431767880916595
1772522643507715300,2.21271533203125,0.000753277912735939,0.0018388209864497185,0.0022144028916954994
1772522643517712100,2.222712158203125,-0.00205122958868742,-0.00020966259762644768,0.0002469746395945549
1772522643527709200,2.232709228515625,-0.0029132943600416183,-0.0014000958763062954,0.00040649808943271637
1772522643537706200,2.242706298828125,-0.001369493082165718,-0.00019296910613775253,-0.0017560715787112713
1772522643547703000,2.252703125,-0.0006150193512439728,0.001786025706678629,-0.0015813680365681648
1772522643557701000,2.262701171875,-0.0028739310801029205,-0.001809081993997097,-0.003834750037640333
1772522643567698200,2.2726982421875,-0.0008224984630942345,0.003140402492135763,0.0025773425586521626
1772522643577695200,2.2826953125,0.00010883994400501251,-0.0007950342260301113,-0.00022871745750308037
1772522643587692000,2.292692138671875,-0.0006709331646561623,-0.00034522637724876404,0.0008309544064104557
1772522643597690000,2.302690185546875,0.0014714440330863,0.0002471557818353176,0.0018896078690886497
1772522643607687200,2.312687255859375,-0.0005759941413998604,-0.0017217188142240047,-0.00044119078665971756
1772522643617684200,2.322684326171875,0.00020934641361236572,0.0007946309633553028,-0.0008552265353500843
1772522643627681000,2.332680908203125,0.000884191133081913,-0.0013441536575555801,0.00041723158210515976
1772522643637679000,2.34267919921875,0.00040078070014715195,-0.0013877120800316334,-0.0009769974276423454
1772522643647676200,2.35267626953125,0.0019720452837646008,0.003105306997895241,-0.0020915307104587555
1772522643657673200,2.362673095703125,-0.0007776040583848953,0.0007905606180429459,0.0013276617974042892
1772522643667670300,2.372670166015625,-0.0017371410503983498,0.0007205191068351269,-0.00010698288679122925
1772522643677668000,2.382668212890625,0.0001735137775540352,0.0008408003486692905,-0.0019584037363529205
1772522643687665200,2.3926650390625,-0.0005516642704606056,0.00104905990883708,-0.0028052888810634613
1772522643697662200,2.402662109375,-0.0001389002427458763,0.0019584917463362217,0.0019026338122785091
1772522643707659300,2.4126591796875,0.001570049673318863,-0.0003363541327416897,0.00016598636284470558
1772522643717657000,2.422656982421875,-0.002048601396381855,-0.001343519426882267,0.0005715442821383476
1772522643727654100,2.432654052734375,-0.0008584344759583473,-0.0009283325634896755,-0.0036173416301608086
1772522643737651200,2.442651123046875,-0.0011560525745153427,-0.0008704210631549358,-0.0008505489677190781
1772522643747648300,2.452648193359375,-0.0007975911721587181,-0.0001492369920015335,-0.0017751986160874367
1772522643757645000,2.46264501953125,0.00011239293962717056,0.000012337695807218552,0.0013600708916783333
1772522643767643100,2.47264306640625,0.0011275899596512318,-0.0025637380313128233,-0.0010628728196024895
1772522643777640200,2.48264013671875,0.000286666676402092,-0.0004298347048461437,-0.001363862305879593
1772522643787637200,2.49263720703125,-0.0006164116784930229,0.0017624800093472004,-0.0017798482440412045
1772522643797634000,2.502634033203125,0.0011801267974078655,0.0005322531796991825,0.0009030560031533241
1772522643807632100,2.512632080078125,-0.001401808112859726,-0.002021451946347952,-0.0004729991778731346
1772522643817629200,2.522629150390625,0.0006815623492002487,0.0026286556385457516,0.00123910466209054
1772522643827626200,2.532626220703125,0.0004778299480676651,-0.0005383756943047047,-0.0002812938764691353
1772522643837623000,2.542623046875,-0.0018345648422837257,-0.0002536708489060402,-0.0008696471340954304
1772522643847621000,2.55262109375,0.0016640298999845982,-0.00044355448335409164,-0.00018494855612516403
1772522643857618200,2.5626181640625,-0.0010229507461190224,0.00047690514475107193,0.0013508698903024197
1772522643867615200,2.572615234375,0.00009078346192836761,0.002728608436882496,0.000004641711711883545
1772522643877612000,2.582612060546875,-0.0008132988587021828,0.0005072858184576035,0.00044637639075517654
1772522643887610000,2.592610107421875,-0.0004095640033483505,0.001153901219367981,-0.000006893649697303772
1772522643897607200,2.602607177734375,0.00021674484014511108,-0.0017824023962020874,-0.0025094272568821907
1772522643907603700,2.612603759765625,-0.0009776828810572624,5.122274160385132e-8,0.00013455888256430626
1772522643917600500,2.6226005859375,0.00030620209872722626,0.00032943813130259514,0.00041568418964743614
1772522643927598600,2.6325986328125,0.0017530974000692368,0.0017742030322551727,-0.00015822704881429672
1772522643937595600,2.642595703125,-0.0010262299329042435,-0.001116456463932991,0.000033173710107803345
1772522643947592700,2.6525927734375,0.00045155826956033707,-0.00008687842637300491,-0.0007607145234942436
1772522643957589500,2.662589599609375,0.0009071798995137215,-0.0010391450487077236,-0.00034504150971770287
1772522643967587600,2.672587646484375,-0.0011517107486724854,0.0016426579095423222,-0.0008646240457892418
1772522643977584600,2.682584716796875,-0.000042593106627464294,-0.0003151162527501583,0.00047551002353429794
1772522643987581700,2.692581787109375,0.00030095502734184265,-0.0011039446108043194,-0.0017825844697654247
1772522643997578500,2.70257861328125,-0.0007060524076223373,0.003215833567082882,-0.00030404655262827873
1772522644007575800,2.712575927734375,0.0015469817444682121,-0.00036691734567284584,-0.0002886001020669937
1772522644017573600,2.72257373046875,-0.0015517277643084526,-0.002294576494023204,0.0005315123125910759
1772522644027570700,2.73257080078125,0.0006099594756960869,0.002161957323551178,-0.0017137988470494747
1772522644037567500,2.7425673828125,-0.00009826850146055222,-0.00001724204048514366,0.000667959451675415
1772522644047564800,2.752564697265625,0.0005986802279949188,0.0017827879637479782,0.00028233369812369347
1772522644057562600,2.762562744140625,-0.0005848035216331482,-0.000007567927241325378,0.0004102913662791252
1772522644067559700,2.7725595703125,-0.0011994615197181702,0.0016403961926698685,0.0009863334707915783
1772522644077556700,2.782556640625,0.00024117156863212585,0.0017792321741580963,-0.0013127001002430916
1772522644087553800,2.7925537109375,-0.00022940896451473236,0.0016322256997227669,0.002464993391185999
1772522644097551600,2.802551513671875,-0.0027809394523501396,0.0005026590079069138,0.0017416011542081833
1772522644107548700,2.812548583984375,0.000827644020318985,0.0007697739638388157,-0.0004539084620773792
1772522644117545700,2.822545654296875,0.0008309837430715561,-0.00003477092832326889,0.0003660079091787338
1772522644127542800,2.832542724609375,0.0009729303419589996,0.00018733693286776543,-0.0001626294106245041
1772522644137540600,2.84254052734375,0.002600021194666624,0.00047109415754675865,0.00037745386362075806
1772522644147537700,2.85253759765625,0.00046469829976558685,0.0004820129834115505,-0.0013205776922404766
1772522644157534700,2.86253466796875,0.001471137162297964,0.0007095555774867535,0.000712541863322258
1772522644167531800,2.87253173828125,0.0014306572265923023,-0.001955736428499222,0.0007234611548483372
1772522644177528600,2.882528564453125,0.0010014045983552933,-0.0030319092329591513,-0.0006330232135951519
1772522644187526700,2.892526611328125,0.0018163318745791912,-0.0008976520039141178,-0.00022902153432369232
1772522644197523700,2.902523681640625,0.0002844668924808502,-0.0011106263846158981,-0.0005124635063111782
1772522644207520800,2.912520751953125,0.0005182931199669838,0.0010071191936731339,-0.0009886366315186024
1772522644217517600,2.922517578125,-0.0005893968045711517,-0.0001489771530032158,-0.0013093003071844578
1772522644227515600,2.932515625,0.0009094299748539925,-0.0009583118371665478,0.003238846082240343
1772522644237512700,2.9425126953125,-0.0010488387197256088,-0.00012859702110290527,0.00014549121260643005
1772522644247509800,2.952509765625,0.001909400336444378,-0.00034644361585378647,0.0013074283488094807
1772522644257506600,2.962506591796875,-0.002274608239531517,-0.0018288050778210163,-0.000021995510905981064
1772522644267504600,2.972504638671875,0.0005773706361651421,-0.00012171920388936996,-0.000532789621502161
1772522644277501700,2.982501708984375,-0.0020262328907847404,-0.0008058580569922924,-0.0015061069279909134
1772522644287498800,2.992498779296875,-0.0009729526937007904,-0.00036457227542996407,0.0010734307579696178
1772522644297495600,3.00249560546875,0.00012846477329730988,0.0016527920961380005,0.00047447485849261284
1772522644307493600,3.01249365234375,0.000010753050446510315,0.00016674818471074104,-0.0005561686120927334
1772522644317490700,3.02249072265625,-0.0005796030163764954,-0.0018116780556738377,0.002353327814489603
1772522644327487700,3.03248779296875,-0.000317281112074852,-0.0003293626941740513,0.002310450654476881
1772522644337484500,3.042484619140625,-0.00029890984296798706,-0.000650275032967329,-0.0016796980053186417
1772522644347482600,3.052482666015625,0.0019107148982584476,-0.0007466813549399376,-0.0016429461538791656
1772522644357479700,3.062479736328125,-0.0009011197835206985,0.002371069975197315,0.00008676061406731606
1772522644367476700,3.072476806640625,-0.0019954126328229904,-0.0009472286328673363,0.002711039502173662
1772522644377473500,3.0824736328125,-0.0021210256963968277,-0.0004727346822619438,0.00021570082753896713
1772522644387471600,3.0924716796875,-0.0006653424352407455,0.00027641234919428825,-0.0016706162132322788
1772522644397468700,3.10246875,0.0005422467365860939,-0.00038541387766599655,-0.0010794983245432377
1772522644407465700,3.1124658203125,-0.002081765793263912,-0.00031217699870467186,-0.002290970180183649
1772522644417462500,3.122462646484375,0.0001215590164065361,-0.0009766146540641785,-0.002450768370181322
1772522644427459800,3.1324599609375,0.0016835029236972332,0.0006266082637012005,0.000004932750016450882
1772522644437457700,3.142457763671875,0.0004869336262345314,0.0005657095462083817,-0.00033082393929362297
1772522644447454700,3.152454833984375,0.0009447308257222176,-0.001148301176726818,0.00000872928649187088
1772522644457451500,3.162451416015625,-0.0004781978204846382,0.0003236280754208565,-0.00178918382152915
1772522644467448800,3.17244873046875,-0.0004893830046057701,-0.0004883697256445885,0.0019602803513407707
1772522644477447000,3.182447021484375,-0.0008354196324944496,-0.00018056388944387436,0.0003728363662958145
1772522644487443700,3.192443603515625,-0.0003382079303264618,-0.00017150910571217537,0.00006550783291459084
1772522644497440500,3.2024404296875,0.0015128124505281448,0.0010019843466579914,-0.0014726938679814339
1772522644507437800,3.212437744140625,-0.0026374580338597298,0.0008872020989656448,-0.001460975967347622
1772522644517436000,3.222435791015625,0.00019728951156139374,0.0026968857273459435,-0.0007829600945115089
1772522644527432700,3.2324326171875,-0.0007705036550760269,0.0010617049410939217,-0.0002894764766097069
1772522644537429500,3.242429443359375,0.00016476958990097046,0.00015693949535489082,0.00034436164423823357
1772522644547426800,3.2524267578125,0.0015253787860274315,-0.0003482620231807232,0.0002828426659107208
1772522644557425000,3.2624248046875,-0.001001584343612194,0.0014294828288257122,-0.0019212029874324799
1772522644567421700,3.272421630859375,0.00016860850155353546,-0.0003007729537785053,0.001312407199293375
1772522644577418500,3.28241845703125,0.0011083437129855156,0.0007812273688614368,0.0018376214429736137
1772522644587415800,3.292415771484375,-0.0025159521028399467,0.00289178267121315,-0.00009663263335824013
1772522644597414000,3.302413818359375,0.00004917476326227188,0.00022102892398834229,-0.0019615287892520428
1772522644607410700,3.31241064453125,0.0004350673407316208,0.0008069244213402271,-0.0002981182187795639
1772522644617407500,3.322407470703125,0.0020836573094129562,0.0012086103670299053,-0.0000404994934797287
1772522644627404800,3.33240478515625,-0.001281779259443283,-0.0017131436616182327,0.003389385063201189
1772522644637401600,3.342401611328125,0.00040271785110235214,-0.001289877574890852,0.0015078019350767136
1772522644647399700,3.352399658203125,0.00018780119717121124,-0.0019546025432646275,-0.0027948012575507164
1772522644657396700,3.362396728515625,-0.0006471807137131691,0.0005826647393405437,-0.0006912690587341785
1772522644667393800,3.372393798828125,0.0004969136789441109,0.0009472514502704144,0.0007388484664261341
1772522644677390600,3.382390625,-0.0008638016879558563,-0.0006295065395534039,-0.0018721465021371841
1772522644687388700,3.392388671875,0.00012982357293367386,0.0015795854851603508,-0.002430611290037632
1772522644697385700,3.4023857421875,0.0002936357632279396,-0.0006526671350002289,0.0005200468003749847
1772522644707382800,3.4123828125,-0.0006105070933699608,-0.0005922135896980762,0.001206343062222004
1772522644717379600,3.422379638671875,0.000395909883081913,0.00032255472615361214,0.0006932970136404037
1772522644727377700,3.432377685546875,-0.0010424628853797913,-0.00005827751010656357,0.0003018123097717762
1772522644737374700,3.442374755859375,0.001121794804930687,-0.0006439425051212311,-0.00138173159211874
1772522644747371800,3.452371826171875,-0.0016249893233180046,0.0017587612383067608,0.0013970108702778816
1772522644757368600,3.46236865234375,0.0006935093551874161,-0.0017275409772992134,-0.001347371842712164
1772522644767366700,3.47236669921875,-0.0009523248299956322,-0.0009072870016098022,-0.0005497550591826439
1772522644777363700,3.48236376953125,-0.0019555818289518356,-0.0007101064547896385,0.00007883692160248756
1772522644787360800,3.49236083984375,-0.0008256025612354279,0.0003727348521351814,0.0012706019915640354
1772522644797357600,3.502357666015625,0.0020592068322002888,0.0007364768534898758,-0.0005368641577661037
1772522644807355600,3.512355712890625,-0.0010207388550043106,0.00010663922876119614,0.0001283935271203518
1772522644817352700,3.522352783203125,-0.002773560583591461,0.000599810853600502,0.000569591298699379
1772522644827349800,3.532349853515625,-0.0009777918457984924,0.0001598568633198738,-0.000032549258321523666
1772522644837346800,3.542346923828125,-0.0008062990382313728,0.0013603405095636845,0.0007019690237939358
1772522644847344600,3.5523447265625,0.0005111666396260262,0.0002356874756515026,0.0023733689449727535
1772522644857341700,3.562341796875,-0.0010330434888601303,0.0002565300092101097,0.00008374359458684921
1772522644867338800,3.5723388671875,-0.00017950031906366348,-0.0013411003164947033,-0.0044572120532393456
1772522644877335800,3.582335693359375,-0.00023704301565885544,0.0013267304748296738,-0.001225899439305067
1772522644887333600,3.592333740234375,0.0006742905825376511,0.0027616415172815323,0.003292153123766184
1772522644897330700,3.60233056640625,-0.0009722905233502388,0.0020145270973443985,0.0016923574730753899
1772522644907328000,3.612327880859375,0.0005923165008425713,-0.002111508511006832,-0.0014176820404827595
1772522644917325000,3.622324951171875,-0.0019460730254650116,0.0012812935747206211,0.00011057127267122269
1772522644927321900,3.63232177734375,0.0008957860991358757,0.00011110072955489159,0.0006416058167815208
1772522644937320000,3.64231982421875,0.0007175067439675331,0.0006679915823042393,-0.0006798198446631432
1772522644947317000,3.65231689453125,0.00003227498382329941,-0.0009458838030695915,-0.00032535288482904434
1772522644957314000,3.66231396484375,-0.0005831830203533173,-0.0014194347895681858,-0.0006247586570680141
1772522644967310800,3.672310791015625,0.00011722836643457413,-0.00037094857543706894,0.00044529931619763374
1772522644977309000,3.682308837890625,0.0018435996025800705,-0.0005394737236201763,0.0004581962712109089
1772522644987306000,3.692305908203125,0.000599903054535389,0.0010285954922437668,0.0004938822239637375
1772522644997303000,3.702302978515625,0.000666995532810688,-0.0032660462893545628,-0.0014632712118327618
1772522645007299800,3.7122998046875,-0.0006435457617044449,0.00009273272007703781,-0.0026062997058033943
1772522645017298000,3.7222978515625,0.0014422801323235035,-0.0002917400561273098,0.0013545863330364227
1772522645027295000,3.732294921875,-0.001361495815217495,0.00024941423907876015,-0.001376485452055931
1772522645037292000,3.7422919921875,0.0010113036260008812,-0.00010089809074997902,0.002292006742209196
1772522645047288800,3.752288818359375,-0.0007373280823230743,-0.0016375421546399593,-0.00198582885786891
1772522645057287000,3.762286865234375,-0.00003912113606929779,-0.001258314587175846,-0.00029554497450590134
1772522645067284000,3.772283935546875,-0.0005419254302978516,0.0012509156949818134,0.003000649157911539
1772522645077281000,3.782281005859375,0.0020532775670289993,0.001640648115426302,-0.00020045042037963867
1772522645087277800,3.79227783203125,-0.003014984540641308,-0.001252876129001379,0.0004448331892490387
1772522645097276000,3.80227587890625,-0.0008850842714309692,-0.0005381274968385696,0.00009093806147575378
1772522645107273000,3.81227294921875,0.003008989617228508,0.0012238197959959507,0.0018989583477377892
1772522645117270000,3.82227001953125,0.0019067060202360153,0.0009844941087067127,0.000031762756407260895
1772522645127266800,3.832266845703125,0.001630269456654787,-0.0014152801595628262,0.001361745409667492
1772522645137265000,3.842264892578125,-0.0007141605019569397,-0.00080841314047575,-0.0017487811855971813
1772522645147262000,3.852261962890625,0.0006698844954371452,0.0009346255101263523,-0.0002038814127445221
1772522645157259000,3.862259033203125,-0.0010517975315451622,0.00005132704973220825,0.0007284297607839108
1772522645167255800,3.872255859375,0.000022522173821926117,-0.002723420737311244,0.001361196395009756
1772522645177254000,3.88225390625,-0.0004541957750916481,0.00031163543462753296,0.000693218782544136
1772522645187251000,3.8922509765625,0.0009852433577179909,0.000814440194517374,-0.0008231853134930134
1772522645197248000,3.902248046875,-0.001707383431494236,0.0004763850010931492,-0.0011758869513869286
1772522645207244800,3.912244873046875,-0.0014109732583165169,-0.0003108452074229717,0.00016528088599443436
1772522645217242000,3.9222421875,-0.0008347192779183388,0.00039531849324703217,0.00027536461129784584
1772522645227240000,3.932239990234375,0.0009306902065873146,0.0017495355568826199,0.00023248791694641113
1772522645237237000,3.942237060546875,-0.0008928738534450531,0.0004906165413558483,0.001723097637295723
1772522645247233800,3.95223388671875,0.0003098100423812866,0.000761725939810276,-0.00017227418720722198
1772522645257231000,3.962231201171875,-0.0020086653530597687,-0.0010738917626440525,-0.001552885863929987
1772522645267229000,3.97222900390625,-0.0006192941218614578,0.0006350590847432613,-0.0009161238558590412
1772522645277226000,3.98222607421875,0.0008870437741279602,0.0012957528233528137,0.00029892148450016975
1772522645287222800,3.992222900390625,-0.000408051535487175,0.0008797668851912022,0.000483478419482708
1772522645297220000,4.00222021484375,-0.001994791440665722,-0.00016644876450300217,0.0010052388533949852
1772522645307218000,4.012218017578125,-0.0008847862482070923,0.000027162954211235046,0.0024401498958468437
1772522645317215000,4.022215087890625,-0.001065514050424099,-0.00019523268565535545,-0.001593777909874916
1772522645327211800,4.032211669921875,0.0009520966559648514,0.0026743230409920216,0.0007463414222002029
1772522645337209000,4.042208984375,-0.000026443973183631897,-0.000816847663372755,0.0013358411379158497
1772522645347207000,4.05220703125,0.0004726322367787361,0.0017155520617961884,0.0002516680397093296
1772522645357204000,4.062203857421875,-0.0003251107409596443,-0.0002124924212694168,-0.0010724966414272785
1772522645367200800,4.07220068359375,0.0012477515265345573,0.0006325286813080311,0.0005280631594359875
1772522645377198000,4.082197998046875,-0.00017466675490140915,-0.0009934981353580952,0.002081658225506544
1772522645387196000,4.09219580078125,-0.002885764464735985,0.0011820383369922638,0.0008816379122436047
1772522645397193000,4.10219287109375,0.00010154396295547485,0.001116771250963211,0.0001085200347006321
1772522645407189800,4.112189697265625,-0.0021850457414984703,0.0020355619490146637,-0.00029841065406799316
1772522645417187000,4.12218701171875,-0.0027275606989860535,0.0005151126533746719,-0.0011037951335310936
1772522645427185000,4.132184814453125,-0.00039170216768980026,-0.00021512620151042938,0.0008728029206395149
1772522645437182000,4.142181884765625,-0.0021578697487711906,-0.0011361143551766872,-0.0009741475805640221
1772522645447178800,4.1521787109375,-0.0021650604903697968,0.0006567253731191158,0.0003494434058666229
1772522645457176000,4.162176025390625,-0.002835008315742016,-0.0008215242996811867,-0.0005505438894033432
1772522645467174000,4.172173828125,-0.00003069918602705002,0.002016873098909855,-0.0020760027691721916
1772522645477171000,4.1821708984375,-0.0022796671837568283,-0.0004290626384317875,-0.0008503389544785023
1772522645487167700,4.192167724609375,0.00009027961641550064,-0.001361168920993805,0.0005347710102796555
1772522645497165000,4.2021650390625,-0.0010275058448314667,-0.00021014083176851273,0.00003017392009496689
1772522645507161900,4.212161865234375,-0.00018088705837726593,-0.0008386466652154922,0.0017300695180892944
1772522645517160000,4.222159912109375,0.0020449436269700527,-0.00034965015947818756,-0.0004695220850408077
1772522645527156700,4.23215673828125,0.0009812768548727036,0.0001233275979757309,0.003415763843804598
1772522645537154000,4.242154052734375,0.0005326559767127037,-0.0013527018018066883,-0.0005041379481554031
1772522645547150800,4.25215087890625,0.0029220436699688435,0.0008084536530077457,0.0004673833027482033
1772522645557149000,4.26214892578125,0.000014695338904857635,0.0003078170120716095,0.0011847764253616333
1772522645567145700,4.272145751953125,-0.0006044898182153702,0.002153121866285801,-0.0003161812201142311
1772522645577143000,4.28214306640625,0.0018199034966528416,-0.000565181951969862,0.0021839463151991367
1772522645587139800,4.292139892578125,-0.0010243523865938187,-0.0006354893557727337,0.00009629456326365471
1772522645597138000,4.302137939453125,-0.0005999216809868813,-0.0005555348470807076,-0.0019420403987169266
1772522645607134700,4.312134765625,-0.00155706238001585,0.00008202577009797096,0.00032084714621305466
1772522645617132000,4.322132080078125,-0.0020796405151486397,-0.0003609759733080864,-0.0006657768972218037
1772522645627128800,4.33212890625,-0.000378679484128952,-0.0011394177563488483,-0.00034566503018140793
1772522645637127000,4.342126953125,0.0005687428638339043,0.0009854533709585667,0.0023638871498405933
1772522645647123700,4.352123779296875,0.0014047087170183659,0.001110089011490345,0.0005641225725412369
1772522645657121000,4.36212109375,-0.0006521604955196381,-0.0002242722548544407,0.0011021974496543407
1772522645667117800,4.372117919921875,-0.0019405977800488472,0.0003552315756678581,-0.00022352393716573715
1772522645677116000,4.382115966796875,-0.0009405454620718956,0.0004893969744443893,0.001026336569339037
1772522645687112700,4.39211279296875,-0.00078634824603796,0.0010172352194786072,-0.000591533724218607
1772522645697110000,4.402110107421875,-0.0011045243591070175,-0.0005868431180715561,-0.0020997426472604275
1772522645707106800,4.41210693359375,-0.0010850830003619194,0.001020108349621296,0.002134417649358511
1772522645717105000,4.42210498046875,-0.0007076719775795937,0.0014672032557427883,0.003581012599170208
1772522645727102000,4.43210205078125,-0.0008996864780783653,-0.0010284450836479664,-0.00003635929897427559
1772522645737099000,4.44209912109375,-0.00018338393419981003,-0.00027674948796629906,-0.0007508713752031326
1772522645747095800,4.452095703125,-0.000978071242570877,0.00027425866574048996,-0.0013194563798606396
1772522645757094000,4.462093994140625,-0.00046849995851516724,-0.0019158138893544674,-0.00034998729825019836
1772522645767091000,4.472091064453125,-0.00028820428997278214,-0.00047850562259554863,-0.0027415063232183456
1772522645777088000,4.482087890625,0.0005560731515288353,0.00019396329298615456,-0.000881886575371027
1772522645787084800,4.492084716796875,0.0008066771551966667,0.0014981129206717014,-0.00044672563672065735
1772522645797083000,4.502082763671875,-0.0011169016361236572,0.0009813890792429447,-0.00021452177315950394
1772522645807080000,4.512079833984375,-0.0011861436069011688,-0.0005368790589272976,0.002469944767653942
1772522645817077000,4.522076904296875,-0.0014238785952329636,-0.0014318632893264294,0.0009039822034537792
1772522645827073800,4.53207373046875,-0.001829477958381176,0.0018299762159585953,-0.0005775345489382744
1772522645837072000,4.54207177734375,0.0025055971927940845,-0.0027562344912439585,-0.0008364403620362282
1772522645847069000,4.55206884765625,-0.000983409583568573,0.0015868484042584896,-0.0010492270812392235
1772522645857066000,4.56206591796875,-0.00004797615110874176,0.000020535197108983994,0.0024003111757338047
1772522645867063000,4.57206298828125,-0.00031855329871177673,-0.0011278195306658745,-0.0003011990338563919
1772522645877059800,4.582059814453125,0.0015567168593406677,0.002063666470348835,0.0012154951691627502
1772522645887058000,4.592057861328125,-0.0012694299221038818,0.0001464574597775936,0.0005718087777495384
1772522645897055000,4.602054931640625,-0.004014012403786182,-0.0009199562482535839,-0.0012220912612974644
1772522645907052000,4.612052001953125,0.0005565043538808823,-0.00035323528572916985,-0.0014604441821575165
1772522645917049000,4.622049072265625,-0.0030667055398225784,0.0005972655490040779,0.0011368626728653908
1772522645927047200,4.632047119140625,0.00047956034541130066,0.002018328756093979,-0.001638950314372778
1772522645937044200,4.642044189453125,0.0003624008968472481,-0.0003004944883286953,-0.00018573179841041565
1772522645947041000,4.652041015625,0.0008031539618968964,-0.0007811947725713253,-0.0026632705703377724
1772522645957038000,4.6620380859375,-0.002571534365415573,0.001481901854276657,-0.0003760354593396187
1772522645967036200,4.6720361328125,0.0012293290346860886,0.0020731231197714806,0.00008788704872131348
1772522645977033200,4.682033203125,-0.00033336319029331207,-0.0010334714315831661,-0.00030797161161899567
1772522645987030000,4.692030029296875,0.0005859602242708206,0.0015141083858907223,-0.00040144845843315125
1772522645997027000,4.702027099609375,0.0016044648364186287,-0.001833353191614151,0.0006414246745407581
1772522646007025200,4.712025146484375,0.00028140656650066376,0.0003712116740643978,-0.0013743219897150993
1772522646017022200,4.722022216796875,-0.00031399819999933243,-0.001045461744070053,0.0009210924617946148
1772522646027019000,4.73201904296875,-0.0004913648590445518,0.002101595513522625,0.0014657089486718178
1772522646037016000,4.74201611328125,-0.0007832245901226997,0.0003944607451558113,0.000174820888787508
1772522646047014100,4.75201416015625,0.0005329092964529991,-0.0023547206073999405,0.002008939627557993
1772522646057011200,4.76201123046875,-0.0003441823646426201,0.00017581600695848465,0.0019582025706768036
1772522646067008000,4.772008056640625,-0.0005524419248104095,-0.0004223301075398922,0.0018961504101753235
1772522646077005000,4.782005126953125,0.002341402694582939,-0.0005664774216711521,0.0013029365800321102
1772522646087003100,4.792003173828125,-0.0003321440890431404,0.00033739907667040825,-0.0012164139188826084
1772522646097000200,4.802000244140625,0.00035865046083927155,-0.0009084823541343212,0.0005199243314564228
1772522646106997200,4.811997314453125,0.0012084650807082653,0.0007559936493635178,0.0024872017093002796
1772522646116994000,4.821994140625,-0.0013234028592705727,0.00036123674362897873,-0.0009821276180446148
1772522646126992100,4.8319921875,-0.0010107476264238358,0.0017655217088758945,-0.0003765248693525791
1772522646136989200,4.8419892578125,-0.0004771612584590912,0.0007955888286232948,-0.00019004382193088531
1772522646146986200,4.851986328125,0.00018676463514566422,0.001589211169630289,-0.0014670295640826225
1772522646156983000,4.861983154296875,0.0016122725792229176,-0.0017686663195490837,0.002119204495102167
1772522646166981000,4.871981201171875,-0.0004988154396414757,-0.00023495173081755638,0.0005276994779706001
1772522646176978200,4.881978271484375,-0.00007813144475221634,-0.0010572359897196293,-0.000055763404816389084
1772522646186975200,4.891975341796875,0.0018476005643606186,-0.0028961487114429474,-0.0015439377166330814
1772522646196972000,4.901971923828125,-0.0009145233780145645,-0.0029483584221452475,0.00213829567655921
1772522646206969000,4.911968994140625,0.0018793991766870022,-0.0011802855879068375,0.0020331009291112423
1772522646216967200,4.92196728515625,0.00009275972843170166,0.0009326301515102386,-0.0006583752110600471
1772522646226964200,4.931964111328125,-0.0007722349837422371,-0.001266341656446457,-0.0006953929550945759
1772522646236961000,4.9419609375,0.0001339362934231758,-0.00003826012834906578,0.0003622407093644142
1772522646246958000,4.9519580078125,0.0007829489186406136,-0.0022369660437107086,0.0007481328211724758
1772522646256956200,4.9619560546875,-0.0003022104501724243,-0.0017144586890935898,0.0014960491098463535
1772522646266953200,4.971953125,-0.00026599131524562836,0.0008938410319387913,-0.000994538888335228
1772522646276950000,4.981949951171875,0.0009942231699824333,-0.001318049617111683,0.002389690838754177
1772522646286947300,4.991947265625,-0.00017330609261989594,0.00010114908218383789,0.0028845062479376793
1772522646296945200,5.001945068359375,-0.00011540483683347702,0.00004156632348895073,-0.0012900806032121181
1772522646306942200,5.011942138671875,-0.0005271295085549355,0.0004466329701244831,-0.0018128594383597374
1772522646316939000,5.02193896484375,0.0016000033356249332,-0.0010316064581274986,-0.001043479423969984
1772522646326936300,5.031936279296875,-0.00033158715814352036,-0.0000457041896879673,-0.0000674310140311718
1772522646336934100,5.04193408203125,-0.0002029677852988243,-0.00037666596472263336,-0.003449548501521349
1772522646346931200,5.05193115234375,0.0014575128443539143,0.0010981922969222069,-0.0027491371147334576
1772522646356928000,5.061927978515625,-0.0017330097034573555,0.0018108561635017395,0.0014207460917532444
1772522646366925300,5.07192529296875,0.0021155248396098614,0.0005908617749810219,0.0020841392688453197
1772522646376923100,5.081923095703125,0.0008857334032654762,0.0007643629796802998,0.0005055442452430725
1772522646386920200,5.091920166015625,-0.00004131253808736801,-0.0030852362979203463,-0.00044493796303868294
1772522646396917000,5.1019169921875,-0.001036149449646473,-0.0011243713088333607,0.0006576050072908401
1772522646406914300,5.111914306640625,0.0013700160197913647,0.0014602267183363438,0.0001244405284523964
1772522646416912100,5.121912109375,0.000988522544503212,0.00005398504436016083,-0.0005655600689351559
1772522646426909200,5.1319091796875,-0.0016964767128229141,0.0013315030373632908,0.002024097368121147
1772522646436906000,5.141906005859375,0.0005616480484604836,0.0009943516924977303,0.0006139911711215973
1772522646446903300,5.1519033203125,-0.0012511657550930977,0.00024786777794361115,0.002267281524837017
1772522646456901000,5.161901123046875,0.0005708103999495506,-0.001149146817624569,0.00038227392360568047
1772522646466898200,5.171898193359375,-0.0015440061688423157,0.0011454327031970024,-0.000009210780262947083
1772522646476895000,5.18189501953125,-0.0017686150968074799,0.000944248866289854,-0.00016436446458101273
1772522646486892300,5.191892333984375,-0.0016575613990426064,-0.0006563109345734119,0.0011315299198031425
1772522646496890000,5.20189013671875,-0.0006532585248351097,-0.0016926941461861134,0.0004222937859594822
1772522646506887200,5.21188720703125,0.0005265222862362862,-0.0015390296466648579,-0.0008831876330077648
1772522646516884000,5.221884033203125,0.00019672513008117676,-0.0010032150894403458,-0.0015239459462463856
1772522646526881300,5.23188134765625,0.0000036461278796195984,-0.000989633146673441,-0.0014581657014787197
1772522646536879000,5.241879150390625,0.0016307355836033821,-0.001769165974110365,-0.0005040550604462624
1772522646546876200,5.251876220703125,-0.0010103210806846619,-0.0005707433447241783,0.000998500268906355
1772522646556873000,5.261873046875,-0.001936345361173153,-0.0005661980248987675,-0.001237957738339901
1772522646566870300,5.271870361328125,0.001055183820426464,-0.0025680961553007364,-0.0032214801758527756
1772522646576868000,5.2818681640625,-0.0010016756132245064,0.0014670128002762794,0.001260457094758749
1772522646586865200,5.291865234375,0.0012209992855787277,0.00036446424201130867,0.0011235703714191914
1772522646596862000,5.301862060546875,0.00173947773873806,-0.0002230098471045494,-0.0017583142034709454
1772522646606859300,5.311859375,0.0009194901213049889,0.0003229379653930664,-0.0027636573649942875
1772522646616857000,5.321857177734375,-0.00005202367901802063,0.00009016972035169601,-0.0000020726583898067474
1772522646626852000,5.33185205078125,0.0010872771963477135,-0.0007628407329320908,-0.0006513516418635845
1772522646636849200,5.34184912109375,-0.0016597239300608635,-0.002197596710175276,0.0007864697836339474
1772522646646846000,5.351845947265625,0.00035176146775484085,-0.0017192931845784187,0.00029937736690044403
1772522646656844000,5.361843994140625,0.00013403501361608505,-0.0013960911892354488,-0.0007373862899839878
1772522646666841000,5.371841064453125,-0.0011575985699892044,0.0010239235125482082,-0.00039543677121400833
1772522646676838100,5.381838134765625,-0.0007261671125888824,0.0001507652923464775,-0.00176994688808918
1772522646686835000,5.3918349609375,-0.0006859535351395607,-0.001594670582562685,-0.0023997845128178596
1772522646696833000,5.4018330078125,-0.0022131064906716347,-0.001988422591239214,-0.0034614952746778727
1772522646706830000,5.411830078125,-0.001545984297990799,0.00007153255864977837,0.00044882437214255333
1772522646716827100,5.4218271484375,-0.00026790890842676163,-0.00378788192756474,0.00019469624385237694
1772522646726824000,5.431823974609375,-0.00116060022264719,0.0004848935641348362,-0.0000154273584485054
1772522646736822000,5.441822021484375,-0.0025988351553678513,-0.0012986361980438232,0.00032927608117461205
1772522646746819000,5.451819091796875,-0.0006480701267719269,-0.001685593742877245,-0.003424715716391802
1772522646756816100,5.461816162109375,0.0004294067621231079,0.0012484588660299778,-0.0010170680470764637
1772522646766813000,5.47181298828125,-0.0012888647615909576,-0.002794219646602869,-0.001759823877364397
1772522646776810200,5.481810302734375,0.0008558984845876694,0.0006389813497662544,-0.003738128812983632
1772522646786808300,5.491808349609375,0.0010790713131427765,0.00015348708257079124,-0.0005940007977187634
1772522646796805000,5.50180517578125,-0.000016286037862300873,-0.0022169924341142178,0.002212438266724348
1772522646806802000,5.511802001953125,-0.0005071070045232773,0.0003335168585181236,0.00013490626588463783
1772522646816799200,5.52179931640625,0.00033360347151756287,-0.0030964300967752934,-0.000999367330223322
1772522646826797300,5.53179736328125,-0.0005004983395338058,0.00015475694090127945,0.0008142450824379921
1772522646836794000,5.541794189453125,-0.000809134915471077,0.002129967790096998,-0.0012577036395668983
1772522646846791000,5.551791015625,-0.0012493552640080452,-0.0009515760466456413,0.0012635104358196259
1772522646856788200,5.561788330078125,0.000934302806854248,0.0004798872396349907,0.003556381445378065
1772522646866786300,5.571786376953125,0.0004022028297185898,-0.0011678105220198631,-0.001833857037127018
1772522646876783000,5.581783203125,0.00009251385927200317,-0.0013027978129684925,0.0002267276868224144
1772522646886780000,5.59177978515625,-0.0010020453482866287,0.0015337346121668816,-0.0002907244488596916
1772522646896777200,5.601777099609375,-0.0010670265182852745,-0.0021816412918269634,-0.0009983261115849018
1772522646906775300,5.611775390625,-0.0006995098665356636,-0.0010098502971231937,-0.0006063091568648815
1772522646916771600,5.621771484375,0.0004719281569123268,-0.0010545053519308567,-0.0012448220513761044
1772522646926768600,5.6317685546875,0.0012730066664516926,-0.0010816692374646664,-0.0036453953944146633
1772522646936765700,5.641765625,-0.0008434131741523743,0.0004336480051279068,0.0016194246709346771
1772522646946763800,5.651763671875,-0.000992284156382084,-0.00034585921093821526,-0.00014412077143788338
1772522646956760600,5.661760498046875,-0.0005032587796449661,-0.0014078319072723389,-0.0006384328007698059
1772522646966757600,5.671757568359375,0.00015613995492458344,0.00045371800661087036,0.0019035548903048038
1772522646976754700,5.681754638671875,0.00044933706521987915,-0.0007664007134735584,0.0012219008058309555
1772522646986752800,5.691752685546875,-0.0009296471253037453,-0.0013520298525691032,-0.0009051654487848282
1772522646996749600,5.70174951171875,-0.0007942384108901024,-0.001347075216472149,-0.0013405871577560902
1772522647006746600,5.71174658203125,0.001759200356900692,-0.0004911352880299091,0.001994222868233919
1772522647016743700,5.72174365234375,-0.0008730050176382065,0.0005480418913066387,-0.0013231458142399788
1772522647026741800,5.73174169921875,-0.0006548920646309853,-0.0008866032585501671,0.0017293691635131836
1772522647036738600,5.741738525390625,-0.00012200698256492615,-0.0028404209297150373,-0.0010138368234038353
1772522647046735600,5.751735595703125,-0.0009465217590332031,-0.0002584862522780895,0.00005968334153294563
1772522647056732700,5.761732666015625,0.0001960182562470436,-0.000672629103064537,-0.0049556540325284
1772522647066730800,5.771730712890625,0.0017078947275876999,0.0006837188266217709,-0.0017183152958750725
1772522647076727600,5.7817275390625,0.0015407968312501907,-0.001768771093338728,-0.0006881565786898136
1772522647086724600,5.791724609375,-0.0006501851603388786,-0.0018523945473134518,-0.001398155465722084
1772522647096721700,5.8017216796875,0.001582746859639883,-0.0023663449101150036,-0.0010358630679547787
1772522647106719700,5.8117197265625,0.0001212041825056076,0.00026725511997938156,-0.0007676826789975166
1772522647116716500,5.821716552734375,-0.002108863554894924,-0.0024302618112415075,-0.0033404098358005285
1772522647126713900,5.8317138671875,-0.0009344099089503288,-0.00011411076411604881,-0.0021603628993034363
1772522647136710700,5.841710693359375,-0.00012041255831718445,-0.0007291929796338081,0.0011237524449825287
1772522647146708700,5.851708740234375,-0.0034901099279522896,-0.0005941707640886307,-0.0009180931374430656
1772522647156705500,5.86170556640625,-0.0002990197390317917,-0.0011716783046722412,0.000630709808319807
1772522647166702800,5.871702880859375,-0.0006353771314024925,0.0004270174540579319,-0.00010911654680967331
1772522647176699600,5.88169970703125,-0.00022955425083637238,0.0006747138686478138,-0.001520519144833088
1772522647186697700,5.89169775390625,0.0006594089791178703,0.000649147666990757,-0.0014896262437105179
1772522647196694500,5.901694580078125,0.0021202638745307922,0.0011882437393069267,0.0017537358216941357
1772522647206691800,5.91169189453125,-0.0006227921694517136,0.0011014249175786972,0.00046050501987338066
1772522647216688600,5.921688720703125,-0.001910591498017311,-0.001381042879074812,0.0009386097081005573
1772522647226686700,5.931686767578125,-0.001496204175055027,0.0013718665577471256,-0.0009221406653523445
1772522647236683500,5.94168359375,-0.0007098009809851646,0.0019397973082959652,0.0035026581026613712
1772522647246680800,5.951680908203125,-0.0029468564316630363,0.0007134117186069489,0.001172658521682024
1772522647256677600,5.961677734375,-0.0002593575045466423,0.0010078195482492447,-0.00019826926290988922
1772522647266675700,5.97167578125,0.001563310157507658,-0.0014129937626421452,-0.000016109086573123932
1772522647276672500,5.981672607421875,0.00019013229757547379,0.003909677732735872,-0.00030585192143917084
1772522647286669800,5.991669921875,-0.0010951096192002296,0.0030734450556337833,0.0026089781895279884
1772522647296666600,6.00166650390625,0.0009491024538874626,0.0027715377509593964,0.002909688279032707
1772522647306664700,6.011664794921875,0.00105216633528471,0.000915047712624073,0.0007394780404865742
1772522647316661500,6.02166162109375,0.0004059057682752609,0.00038637686520814896,-0.0008368794806301594
1772522647326658800,6.031658935546875,0.0004847357049584389,-0.00284084165468812,-0.0005636392161250114
1772522647336655600,6.041655517578125,-0.0000635078176856041,-0.002432718873023987,-0.000024281907826662064
1772522647346653700,6.05165380859375,0.0010603461414575577,-0.0027198076713830233,-0.0021015475504100323
1772522647356650500,6.061650390625,-0.00046650785952806473,-0.0005963570438325405,-0.002122194040566683
1772522647366647800,6.071647705078125,0.0009758602827787399,-0.0010861125774681568,-0.0011722445487976074
1772522647376644600,6.08164453125,-0.0011615799739956856,-0.0007778927683830261,-0.0010126139968633652
1772522647386641700,6.0916416015625,0.0027199778705835342,0.0003680652007460594,0.00031763454899191856
1772522647396639500,6.101639404296875,-0.000017583370208740234,0.0010791784152388573,-0.0016067801043391228
1772522647406636800,6.11163671875,0.00001544039696455002,-0.0012952960096299648,-0.0003771986812353134
1772522647416633600,6.121633544921875,0.0013979333452880383,0.0013557677157223225,-0.00007042195647954941
1772522647426631700,6.131631591796875,0.0007537147030234337,0.003587762825191021,0.0009820596314966679
1772522647436628500,6.14162841796875,-0.00009563751518726349,0.00032342877238988876,0.000398057047277689
1772522647446625800,6.151625732421875,0.0005443207919597626,0.000289074145257473,-0.0015250113792717457
1772522647456622600,6.16162255859375,0.0006602657958865166,0.0009364397265017033,-0.0006853025406599045
1772522647466619600,6.17161962890625,-0.000891026109457016,-0.0015466916374862194,-0.000751082319766283
1772522647476617500,6.181617431640625,0.0007495703175663948,0.0028318092226982117,-0.00173272006213665
1772522647486614800,6.19161474609375,-0.00004431791603565216,0.0017292611300945282,0.00015679281204938889
1772522647496611600,6.201611572265625,0.0006521083414554596,-0.0010248422622680664,0.0024851569905877113
1772522647506608600,6.211608642578125,0.0009762151166796684,0.000792232807725668,-0.002028901129961014
1772522647516606500,6.2216064453125,-0.0013652322813868523,0.0004935078322887421,-0.0009241164661943913
1772522647526603800,6.231603759765625,0.0007344037294387817,-0.0002995813265442848,-0.0009912285022437572
1772522647536600600,6.2416005859375,-0.0020305244252085686,-0.0013458752073347569,0.0003886725753545761
1772522647546598700,6.2515986328125,-0.0014920327812433243,-0.00020950473845005035,-0.00024009961634874344
1772522647556595500,6.261595458984375,0.0007834779098629951,0.0009120828472077847,-0.0011140815913677216
1772522647566592800,6.2715927734375,-0.0010546362027525902,-0.0014187158085405827,-0.0004919669590890408
1772522647576589600,6.281589599609375,0.0020125755108892918,0.0016169906593859196,-0.002276464831084013
1772522647586587600,6.291587646484375,-0.0008412674069404602,0.00013414258137345314,0.001545704435557127
1772522647596584400,6.30158447265625,0.0002579372376203537,-0.0003472771495580673,-0.0011780117638409138
1772522647606581800,6.311581787109375,0.000020650215446949005,0.0005374248139560223,0.00012640422210097313
1772522647616578600,6.32157861328125,0.0016012289561331272,0.0009481715969741344,0.001445947214961052
1772522647626575600,6.33157568359375,-0.0005085272714495659,-0.00018713390454649925,-0.0012068268842995167
1772522647636573400,6.341573486328125,-0.002413913607597351,0.0001602722331881523,0.001202868763357401
1772522647646570800,6.35157080078125,-0.0013435892760753632,0.000034038443118333817,-0.0019399276934564114
1772522647656567600,6.361567626953125,0.00032504182308912277,-0.0003936542198061943,-0.0013486891984939575
1772522647666564600,6.371564697265625,-0.001130376011133194,0.0009246105328202248,0.0015064855106174946
1772522647676562400,6.3815625,-0.00023407861590385437,-0.0011011306196451187,-0.0003021974116563797
1772522647686559700,6.391559814453125,-0.0004884107038378716,0.0010248706676065922,0.00039368681609630585
1772522647696556500,6.401556640625,0.00007002707570791245,0.000622069463133812,-0.0027569448575377464
1772522647706553600,6.4115537109375,0.00015977490693330765,-0.0022530790884047747,0.0013027782551944256
1772522647716551400,6.421551513671875,-0.0003034602850675583,-0.001476135104894638,0.00004964834079146385
1772522647726548700,6.431548828125,0.0003277091309428215,-0.0023491191677749157,-0.00032292818650603294
1772522647736545500,6.441545654296875,0.002663471270352602,0.0006995443254709244,-0.001657238695770502
1772522647746542600,6.45154248046875,-0.0020505907014012337,0.0013911672867834568,-0.0005192700773477554
1772522647756540400,6.46154052734375,-0.00006264448165893555,-0.0010252478532493114,0.0009776251390576363
1772522647766537700,6.471537841796875,0.0008590752258896828,0.006270748563110828,0.003153693862259388
1772522647776534500,6.481534423828125,0.000025707297027111053,0.015343951061367989,0.01248549297451973
1772522647786531600,6.491531494140625,0.00009814463555812836,0.013012886047363281,0.018480800092220306
1772522647796529400,6.501529296875,0.0009421259164810181,0.0006375610828399658,0.001360180787742138
1772522647806526700,6.511526611328125,0.0013959282077848911,-0.013586914166808128,-0.01851605623960495
1772522647816523500,6.5215234375,0.0008943043649196625,-0.014175130054354668,-0.015523296780884266
1772522647826520600,6.5315205078125,-0.0005022566765546799,-0.005229837726801634,-0.0033273505978286266
1772522647836518400,6.541518310546875,-0.0005324799567461014,0.002623216714709997,0.001832200214266777
1772522647846515700,6.551515625,0.0008347872644662857,0.004778512287884951,0.00017438223585486412
1772522647856512500,6.561512451171875,-0.0014155227690935135,0.003620282281190157,0.004440853372216225
1772522647866509600,6.571509521484375,-0.0007659783586859703,0.003332660999149084,0.007772200740873814
1772522647876507600,6.581507568359375,-0.00019981805235147476,0.007025278639048338,0.004566510673612356
1772522647886504700,6.591504638671875,-0.0008357809856534004,0.0027138874866068363,-0.0015515689738094807
1772522647896501500,6.60150146484375,-0.0012938156723976135,0.00007588136941194534,-0.0011645685881376266
1772522647906498600,6.61149853515625,0.0005288515239953995,0.0026050847955048084,-0.000753642525523901
1772522647916497000,6.621496826171875,0.003532801754772663,-0.0014615128748118877,0.00015980703756213188
1772522647926494000,6.631493896484375,-0.0013157492503523827,0.0007401225157082081,0.0011358554475009441
1772522647936490800,6.64149072265625,-0.000591374933719635,0.0012251711450517178,0.002314517740160227
1772522647946487800,6.65148779296875,-0.0020712940022349358,-0.0012057619169354439,0.0007520411163568497
1772522647956486000,6.66148583984375,-0.00036439672112464905,0.0007668505422770977,-0.0004644668661057949
1772522647966483000,6.67148291015625,-0.0008477605879306793,-0.0023844679817557335,0.0013560703955590725
1772522647976479700,6.681479736328125,-0.0006392057985067368,-0.0008226693607866764,0.0016519902274012566
1772522647986476800,6.691476806640625,0.0006476333364844322,0.0011254330165684223,0.001074084546416998
1772522647996475000,6.701474853515625,-0.0005984101444482803,-0.0003364887088537216,-0.0009930799715220928
1772522648006472000,6.711471923828125,0.0017741997726261616,-0.0011681937612593174,-0.00024020439013838768
1772522648016469000,6.721468994140625,-0.0007600095123052597,0.002504102885723114,0.0018251105211675167
1772522648026465800,6.7314658203125,0.0012320354580879211,0.0014486918225884438,0.0040389965288341045
1772522648036463900,6.7414638671875,-0.000464082695543766,0.00215538265183568,0.002373436465859413
1772522648046461000,6.7514609375,0.000674152746796608,0.0023508588783442974,0.0021894117817282677
1772522648056458000,6.7614580078125,-0.0009662574157118797,0.00030177365988492966,-0.00039650266990065575
1772522648066454800,6.771454833984375,0.0010042153298854828,-0.0034681973047554493,-0.0033978852443397045
1772522648076452900,6.781452880859375,0.00043626129627227783,-0.0018621874041855335,-0.003545090788975358
1772522648086450000,6.791449951171875,-0.0009730840101838112,-0.002084295265376568,-0.0017945952713489532
1772522648096447000,6.801447021484375,-0.000025750137865543365,0.00046726036816835403,-0.000040975864976644516
1772522648106443800,6.81144384765625,0.0010208729654550552,-0.00005605071783065796,-0.00024524005129933357
1772522648116441900,6.82144189453125,0.0018550371751189232,-0.0007663979195058346,-0.00023227324709296227
1772522648126439000,6.83143896484375,0.0026305499486625195,0.0016288491897284985,0.00030648428946733475
1772522648136436000,6.84143603515625,0.0009964695200324059,0.000035779550671577454,-0.0025720293633639812
1772522648146432800,6.851432861328125,0.0008768932893872261,0.0003223358653485775,0.0015851650387048721
1772522648156430800,6.861430908203125,0.0006058160215616226,0.002461980562657118,0.000662519596517086
1772522648166428000,6.871427978515625,0.0010316548869013786,0.0012025716714560986,0.004429560620337725
1772522648176425000,6.881425048828125,-0.0028849709779024124,0.001984665635973215,0.0015736650675535202
1772522648186421800,6.891421875,0.0018282909877598286,0.0028238273225724697,-0.00016458053141832352
1772522648196419800,6.901419921875,-0.0006797239184379578,0.00016138795763254166,0.0011729607358574867
1772522648206417000,6.9114169921875,-0.00027039553970098495,0.0015041539445519447,-0.0017021880485117435
1772522648216414000,6.9214140625,-0.0004172716289758682,-0.0032627973705530167,-0.0013678595423698425
1772522648226410800,6.93141064453125,-0.0016998499631881714,0.00024804798886179924,-0.0016120714135468006
1772522648236408800,6.941408935546875,0.0007596788927912712,0.0006280331872403622,-0.0023390999995172024
1772522648246406000,6.951406005859375,-0.0007732361555099487,-0.0021813353523612022,-0.0011108499020338058
1772522648256403000,6.96140283203125,-0.0014057978987693787,-0.0002151336520910263,-0.0013195062056183815
1772522648266399700,6.971399658203125,0.002101851161569357,-0.0003014202229678631,-0.0009783552959561348
1772522648276397800,6.981397705078125,-0.00015302561223506927,0.0004184688441455364,0.0012453217059373856
1772522648286395000,6.991394775390625,0.0006294110789895058,0.0009913146495819092,0.0026831617578864098
1772522648296392000,7.001391845703125,-0.0016840770840644836,-0.001025496982038021,-0.0005022450350224972
1772522648306388700,7.011388671875,-0.0015557128936052322,0.0005708015523850918,-0.004558505490422249
1772522648316386800,7.02138671875,-0.00011090096086263657,-0.0010844659991562366,-0.0027797995135188103
1772522648326383900,7.0313837890625,0.00029123667627573013,-0.0016557141207158566,-0.0013193218037486076
1772522648336381000,7.041380859375,-0.00015354063361883163,-0.0011005671694874763,-0.0015790238976478577
1772522648346377700,7.051377685546875,0.000913853757083416,0.00018067937344312668,-0.0007915273308753967
1772522648356375800,7.061375732421875,-0.0006960192695260048,-0.0007632318884134293,0.0016573029570281506
1772522648366372900,7.071372802734375,-0.0002970770001411438,-0.0001965113915503025,0.000954760704189539
1772522648376370000,7.081369873046875,0.0011156238615512848,-0.0003271377645432949,0.0009259311482310295
1772522648386366700,7.09136669921875,0.001535071525722742,0.00271046394482255,0.00015467964112758636
1772522648396364800,7.10136474609375,0.001983837690204382,0.002085628919303417,-0.0006016679108142853
1772522648406361900,7.11136181640625,0.0005081798881292343,-0.0008180155418813229,0.002321684267371893
1772522648416359000,7.12135888671875,-0.0011714622378349304,-0.0006584012880921364,-0.0005070194602012634
1772522648426355700,7.131355712890625,0.0001412099227309227,0.00025852490216493607,0.0009835516102612019
1772522648436354000,7.14135400390625,-0.0009370855987071991,0.0007368610240519047,-0.0019465205259621143
1772522648446350800,7.151350830078125,0.000807284377515316,-0.0004439842887222767,-0.0002945619635283947
1772522648456348000,7.161347900390625,0.000034213997423648834,-0.0020385324023663998,-0.00010123569518327713
1772522648466345000,7.171344970703125,0.0017146682366728783,-0.0002856398932635784,-0.0005427878350019455
1772522648476343000,7.181343017578125,0.000792182981967926,0.0005103168077766895,-0.000533051323145628
1772522648486339800,7.19133984375,0.0019447989761829376,-0.00027052173390984535,0.00008932920172810555
1772522648496337000,7.2013369140625,0.0009923866018652916,0.0008743084035813808,0.002736051566898823
1772522648506334000,7.211333984375,-0.00006675254553556442,0.001649022102355957,-0.000502884853631258
1772522648516332000,7.22133203125,0.001237429678440094,-0.0021344064734876156,0.0008990475907921791
1772522648526328800,7.231328857421875,-0.0016544964164495468,0.0007870811969041824,0.0018788245506584644
1772522648536326000,7.241325927734375,0.0005376739427447319,-0.0010697795078158379,0.00023459410294890404
1772522648546323000,7.251322998046875,-0.00044236890971660614,0.00023490330204367638,0.0005592331290245056
1772522648556321000,7.261321044921875,-0.00004075933247804642,0.00015785032883286476,-0.00107216602191329
1772522648566317800,7.27131787109375,0.0008181100711226463,-0.0005343053489923477,-0.00009451992809772491
1772522648576315000,7.28131494140625,-0.0008840346708893776,-0.00013162102550268173,0.00004374701529741287
1772522648586312000,7.29131201171875,0.0004342300817370415,0.0005269786342978477,-0.0008771740831434727
1772522648596310000,7.30131005859375,0.0005684280768036842,0.00003151176497340202,-0.0002521742135286331
1772522648606306800,7.311306884765625,0.00045364536345005035,-0.0022092722356319427,0.00013984320685267448
1772522648616303900,7.321303955078125,0.0005081454291939735,-0.00019037211313843727,-0.0006707846187055111
1772522648626301000,7.331301025390625,0.00011559482663869858,-0.0007946435362100601,-0.000697416253387928
1772522648636299000,7.341299072265625,-0.0009086830541491508,0.0012872968800365925,-0.001592547632753849
1772522648646295800,7.3512958984375,-0.00039549265056848526,0.001642029732465744,0.0002445005811750889
1772522648656292900,7.36129296875,0.0008081356063485146,0.0017965985462069511,-0.0008628466166555882
1772522648666291000,7.371291015625,-0.00033542606979608536,0.0003664810210466385,-0.002479385584592819
1772522648676288000,7.3812880859375,0.0011340314522385597,-0.0005746884271502495,0.0007605920545756817
1772522648686284800,7.391284912109375,-0.0007469598203897476,0.00011001015082001686,-0.0016330573707818985
1772522648696281900,7.40128173828125,-0.0008231261745095253,-0.00010677101090550423,0.00094594806432724
1772522648706279000,7.41127880859375,-0.0008982270956039429,0.0023452015593647957,-0.0010160026140511036
1772522648716277000,7.421277099609375,-0.00016334746032953262,-0.0005121231079101562,-0.0004975334741175175
1772522648726273800,7.431273681640625,-0.001541532576084137,-0.001912945881485939,-0.0014879629015922546
1772522648736270800,7.441270751953125,-0.001234748400747776,0.0021210266277194023,-0.0015386170707643032
1772522648746269000,7.45126904296875,-0.000291191041469574,0.002277088351547718,-0.0005039786919951439
1772522648756266000,7.461265869140625,0.000915825366973877,-0.0013635572977364063,0.0002479720860719681
1772522648766262800,7.4712626953125,0.002016776707023382,0.0010572560131549835,0.0005142884328961372
1772522648776259800,7.481259765625,0.00083943922072649,0.0007996158674359322,0.0006977608427405357
1772522648786257000,7.4912568359375,0.0009102793410420418,-0.000799878966063261,-0.000385879073292017
1772522648796255000,7.5012548828125,-0.0009999312460422516,0.0009594126604497433,0.0023715817369520664
1772522648806252000,7.511251953125,0.0002288511022925377,-0.0007492713630199432,0.001467971596866846
1772522648816248800,7.521248779296875,-0.0018069054931402206,-0.002398601733148098,-0.0005795639008283615
1772522648826247000,7.531246826171875,-0.000978662632405758,0.0001021064817905426,0.0014564231969416142
1772522648836244000,7.541243896484375,0.0017812568694353104,-0.0012621330097317696,0.0006938246078789234
1772522648846241000,7.551240966796875,-0.002091512084007263,-0.0011846348643302917,-0.0014454927295446396
1772522648856237800,7.56123779296875,-0.0009861346334218979,-0.0009786337614059448,0.001051685307174921
1772522648866236000,7.57123583984375,0.0006296047940850258,-0.000007645227015018463,0.0008926945738494396
1772522648876233000,7.58123291015625,0.0005409447476267815,0.00047965720295906067,-0.0008343751542270184
1772522648886230000,7.59122998046875,0.0000748923048377037,-0.00012328242883086205,-0.0006889663636684418
1772522648896226800,7.601226806640625,-0.0027315784245729446,0.0005546347238123417,-0.000299123115837574
1772522648906225000,7.611224853515625,0.0023257643915712833,-0.0002568303607404232,-0.0005084476433694363
1772522648916222200,7.62122216796875,-0.001307941973209381,-0.0007623364217579365,-0.0004926961846649647
1772522648926219500,7.631219482421875,0.0015930389054119587,0.001494426280260086,-0.0008572828955948353
1772522648936216300,7.64121630859375,-0.0009253229945898056,-0.00015700934454798698,-0.0000011008232831954956
1772522648946214400,7.65121435546875,0.000406789593398571,-0.002197523135691881,-0.000428804662078619
1772522648956211500,7.66121142578125,0.0002818424254655838,-0.0002037673257291317,0.0012484737671911716
1772522648966208500,7.67120849609375,-0.0005277581512928009,-0.0005893930792808533,0.0007619140669703484
1772522648976205300,7.681205322265625,-0.001275738701224327,-0.0011382075026631355,-0.0006355489604175091
1772522648986203400,7.691203369140625,-0.0005817189812660217,0.0012924596667289734,-0.0006446037441492081
1772522648996200400,7.701200439453125,0.00028973352164030075,-0.0009728404693305492,-0.0015957965515553951
1772522649006197500,7.711197509765625,0.0019949558191001415,0.002118024043738842,0.000727545004338026
1772522649016194300,7.7211943359375,-0.0005023637786507607,0.003485332243144512,0.0008118273690342903
1772522649026192400,7.7311923828125,0.0005176272243261337,0.000025352928787469864,-0.0017461390234529972
1772522649036189400,7.741189453125,-0.0009739557281136513,0.00014337850734591484,0.0010663759894669056
1772522649046186500,7.7511865234375,-0.0001920517534017563,0.0003476426936686039,-0.0002518887631595135
1772522649056183300,7.761183349609375,-0.0003945911303162575,-0.0003414205275475979,0.0011220471933484077
1772522649066181400,7.771181396484375,0.0020528538152575493,0.00003435136750340462,-0.0005333735607564449
1772522649076178400,7.781178466796875,0.00007207691669464111,0.0006375485099852085,-0.0017099459655582905
1772522649086175500,7.791175537109375,0.0018641185015439987,0.001528109423816204,0.0019028983078897
1772522649096172300,7.80117236328125,-0.0018385611474514008,0.0007793828845024109,0.0009444975294172764
1772522649106170400,7.81117041015625,-0.0009099170565605164,-0.00211414135992527,0.0012923064641654491
1772522649116167400,7.82116748046875,0.00008522626012563705,0.00024029426276683807,-0.0016971793957054615
1772522649126164500,7.83116455078125,0.0003605969250202179,0.0003873007372021675,-0.0005706623196601868
1772522649136161300,7.841161376953125,-0.0005307914689183235,-0.0012406343594193459,0.0015318654477596283
1772522649146159400,7.851159423828125,0.0000620279461145401,0.0007399586029350758,0.0006375759840011597
1772522649156156400,7.861156494140625,0.0004214346408843994,-0.0006806217133998871,-0.0001784716732800007
1772522649166153500,7.871153564453125,0.00022622570395469666,-0.00019486108794808388,-0.00010443571954965591
1772522649176150300,7.881150390625,0.00021154340356588364,0.00025761639699339867,0.0014102337881922722
1772522649186148400,7.8911484375,0.0029460773803293705,0.000689314678311348,0.0009540342725813389
1772522649196145400,7.9011455078125,-0.0003003813326358795,0.0016447985544800758,0.0006639747880399227
1772522649206142500,7.911142578125,-0.0006141010671854019,0.0005941814742982388,-0.001064416952431202
1772522649216139300,7.92113916015625,0.0002033337950706482,-0.0002916022203862667,-0.00013284850865602493
1772522649226137300,7.931137451171875,0.0010395664721727371,0.000931854359805584,0.0010573184117674828
1772522649236134700,7.941134765625,-0.0020445464178919792,-0.0004106620326638222,-0.0014293701387941837
1772522649246131500,7.95113134765625,0.000019136816263198853,-0.00239764666184783,0.0008937050588428974
1772522649256128300,7.961128173828125,0.0003924807533621788,0.00032096216455101967,-0.00036914367228746414
1772522649266126300,7.971126220703125,-0.00034441612660884857,0.00046557188034057617,0.0011688321828842163
1772522649276123600,7.98112353515625,0.0020019207149744034,0.0010169115848839283,0.0009577292948961258
1772522649286120400,7.991120361328125,0.0004013609141111374,-0.0001785815693438053,0.0017939619719982147
1772522649296117500,8.001117431640624,-0.0015535857528448105,0.0004938156343996525,0.000814944040030241
1772522649306115300,8.011115234375,0.0016456698067486286,0.0016198004595935345,0.00196702778339386
1772522649316112600,8.021112548828125,-0.000017406418919563293,0.0003586187958717346,-0.002412223257124424
1772522649326109400,8.031109375,-0.00004856567829847336,-0.0008560488931834698,0.00011804606765508652
1772522649336106500,8.0411064453125,0.0015393332578241825,0.0015830816701054573,0.0015595769509673119
1772522649346104300,8.051104248046874,0.00003198347985744476,-0.00020416546612977982,0.0016506565734744072
1772522649356101600,8.0611015625,-0.0018600011244416237,-0.0011627459898591042,-0.001324423123151064
1772522649366098400,8.071098388671874,-0.0006836829707026482,0.002208282705396414,-0.0017563882283866405
1772522649376095500,8.081095458984375,0.00039226096123456955,-0.002190981525927782,-0.0026388992555439472
1772522649386093300,8.09109326171875,-0.00003650784492492676,0.002641857136040926,0.0007933825254440308
1772522649396090600,8.101090576171876,0.000654720701277256,-0.0008945348672568798,0.00023853546008467674
1772522649406087400,8.11108740234375,-0.0013580964878201485,-0.00022102147340774536,-0.0004522884264588356
1772522649416084500,8.12108447265625,0.001540997065603733,-0.0010302988812327385,-0.0001920885406434536
1772522649426082300,8.131082275390625,-0.0007852744311094284,-0.003166952868923545,-0.00008289888501167297
1772522649436079600,8.14107958984375,0.0012475177645683289,0.000023890286684036255,0.000753483735024929
1772522649446076400,8.151076416015625,-0.0009716935455799103,-0.0009470982477068901,-0.0004968703724443913
1772522649456073500,8.161073486328124,-0.0010997699573636055,-0.004121487028896809,0.000681951642036438
1772522649466071300,8.1710712890625,-0.0020760847255587578,-0.0010250299237668514,0.001758933998644352
1772522649476068600,8.181068603515625,0.001104596070945263,0.0001892009750008583,0.00003264378756284714
1772522649486065400,8.1910654296875,-0.00173912663012743,-0.0022939303889870644,0.0010105562396347523
1772522649496062500,8.2010625,0.004700030665844679,0.0024870233610272408,0.002101905643939972
1772522649506060300,8.211060302734374,0.0021394011564552784,-0.0013063829392194748,-0.000919717364013195
1772522649516057600,8.2210576171875,-0.00020109675824642181,0.0028405538760125637,-0.0013387007638812065
1772522649526054400,8.231054443359374,-0.00006980355829000473,-0.0003997143357992172,-0.00017410051077604294
1772522649536052500,8.241052490234376,-0.0016437787562608719,-0.0013073161244392395,0.0008343085646629333
1772522649546049300,8.25104931640625,0.00041937269270420074,0.00016594445332884789,0.00005959533154964447
1772522649556046600,8.261046630859376,0.00016737449914216995,0.0003936644643545151,0.00035032443702220917
1772522649566043400,8.27104345703125,0.0013104029931128025,-0.0013831965625286102,0.0011351578868925571
1772522649576041500,8.28104150390625,-0.0008987328037619591,0.0018209675326943398,-0.0017455634661018848
1772522649586038300,8.291038330078125,0.0008048908784985542,0.0006039026193320751,-0.0015175966545939445
1772522649596035600,8.30103564453125,-0.0004416275769472122,0.001485008280724287,0.0001698499545454979
1772522649606032400,8.311032470703125,-0.001114342361688614,-0.000629807822406292,-0.0007657185196876526
1772522649616030500,8.321030517578125,0.002135460264980793,-0.0013846131041646004,-0.000585989560931921
1772522649626027300,8.33102734375,-0.0005266359075903893,-0.001001384574919939,0.0008678301237523556
1772522649636024600,8.341024658203125,-0.0020806770771741867,-0.0014820117503404617,-0.0023360298946499825
1772522649646021400,8.351021484375,-0.000866008922457695,-0.00048332614824175835,-0.001655858475714922
1772522649656019500,8.36101953125,-0.000613432377576828,-0.0007242062129080296,-0.001138604711741209
1772522649666016300,8.371016357421874,0.0011810055002570152,-0.0012152930721640587,0.0031996844336390495
1772522649676013600,8.381013671875,0.0016317353583872318,0.002565225586295128,-0.0030006817542016506
1772522649686010400,8.39101025390625,0.0014730109833180904,0.002265353687107563,-0.0001391153782606125
1772522649696008400,8.401008544921876,0.0006391089409589767,0.0003084782510995865,-0.0011663846671581268
1772522649706005200,8.411005126953125,0.0007919743657112122,-0.002207676414400339,-0.0005812882445752621
1772522649716002600,8.42100244140625,-0.003126012161374092,-0.0003386004827916622,0.0011569913476705551
1772522649725999400,8.430999267578125,0.0005153277888894081,-0.001258989330381155,-0.000046224333345890045
1772522649735997400,8.44099755859375,-0.0029412703588604927,0.00004397192969918251,0.0008734571747481823
1772522649745994200,8.450994140625,-0.0012509627267718315,-0.0012412695214152336,0.0008561466820538044
1772522649755991600,8.460991455078124,0.0010362081229686737,-0.00011417688801884651,-0.0007396084256470203
1772522649765988400,8.47098828125,0.002015452366322279,0.0010160687379539013,-0.0006669042631983757
1772522649775986400,8.480986328125,0.0007642712444067001,-0.0034657204523682594,0.0009296638891100883
1772522649785983200,8.490983154296876,0.00027851108461618423,0.001998287159949541,0.00044496869668364525
1772522649795980500,8.50098046875,0.001805533654987812,-0.0018502422608435154,-0.0004614647477865219
1772522649805977300,8.510977294921876,0.0011895447969436646,0.001284298487007618,-0.001991717144846916
1772522649815975400,8.520975341796875,0.0028483858332037926,0.0015703300014138222,0.00045350799337029457
1772522649825972200,8.53097216796875,-0.0019394448027014732,0.0001186407171189785,0.0004732152447104454
1772522649835969500,8.540969482421875,0.0003605363890528679,0.0012247259728610516,-0.0007887249812483788
1772522649845966300,8.55096630859375,0.0018609617836773396,-0.00020512519404292107,-0.000483526848256588
1772522649855964400,8.56096435546875,-0.000896119512617588,0.00022896658629179,0.0003843293525278568
1772522649865961200,8.570961181640625,0.00025436654686927795,-0.000005391892045736313,-0.0004891874268651009
1772522649875958500,8.58095849609375,0.0006720172241330147,0.00011206045746803284,-2.277083694934845e-7
1772522649885955300,8.590955322265625,0.0005399240180850029,-0.00009966082870960236,-0.0005411156453192234
1772522649895953400,8.600953369140624,-0.001066167838871479,0.000481549184769392,0.0027216183952987194
1772522649905950500,8.610950439453125,-0.002053135074675083,0.001546813640743494,0.0013255900703370571
1772522649915947000,8.620947021484374,-0.001864839345216751,-0.0010363529436290264,-0.0018117832951247692
1772522649925943800,8.63094384765625,-0.0005058282986283302,0.00045821303501725197,-0.0018722373060882092
1772522649935942000,8.64094189453125,-0.0006256513297557831,0.0005946587771177292,-0.0012172968126833439
1772522649945939000,8.65093896484375,0.00021883752197027206,-0.001252243760973215,0.0010213563218712807
1772522649955936000,8.66093603515625,0.0000026337802410125732,0.0008172285743057728,0.0005905446596443653
1772522649965932800,8.670932861328126,0.00047401338815689087,0.0012505250051617622,0.0025378474965691566
1772522649975931000,8.680930908203125,0.00045267026871442795,0.0005646571516990662,-0.000360619742423296
1772522649985928000,8.690927978515624,0.001536577008664608,-0.00047077983617782593,-0.0032040767837315798
1772522649995925000,8.700925048828125,0.0005431352183222771,-0.0017112400382757187,0.0006191735155880451
1772522650005921800,8.710921875,-0.0008960375562310219,-0.0002499637193977833,0.002343038097023964
1772522650015919900,8.720919921875,-0.0018257033079862595,-0.0006451983936131,0.001105502713471651
1772522650025917000,8.7309169921875,-0.0015729693695902824,-0.00003506802022457123,0.0023412099108099937
1772522650035914000,8.7409140625,-0.00044191256165504456,-0.00023820903152227402,-0.0027644424699246883
1772522650045910800,8.750910888671875,0.001491541974246502,-0.00022755656391382217,0.00009179767221212387
1772522650055908900,8.760908935546874,-0.00037273671478033066,0.0009929058142006397,-0.0011715409345924854
1772522650065906000,8.770906005859375,-0.00029523856937885284,0.00023550307378172874,-0.0005829823203384876
1772522650075903000,8.780903076171874,0.00044415611773729324,-0.00309367710724473,0.0016806959174573421
1772522650085900800,8.79090087890625,-0.002058415673673153,-0.001039048656821251,0.0003792084753513336
1772522650095897900,8.80089794921875,-0.0010345838963985443,-0.002619073260575533,0.002123766578733921
1772522650105895000,8.81089501953125,0.0008876863867044449,0.002211102284491062,0.00235626008361578
1772522650115892000,8.82089208984375,0.0008764658123254776,0.0008530323393642902,-0.0013358993455767632
1772522650125889800,8.830889892578124,0.0002522207796573639,0.0007422449998557568,0.00018423283472657204
1772522650135886800,8.840886962890625,-0.0006101634353399277,0.0022420668974518776,0.0002558259293437004
1772522650145884000,8.8508837890625,-0.0007425220683217049,0.0008585546165704727,0.0008033718913793564
1772522650155881000,8.860880859375,0.00027799978852272034,-0.0005754195153713226,0.0006307340227067471
1772522650165878800,8.870878662109375,0.0001248680055141449,0.0009638876654207706,-0.0026185885071754456
1772522650175875800,8.880875732421876,-0.00020383019000291824,-0.0018509677611291409,0.0009597842581570148
1772522650185873000,8.890872802734375,0.0003514392301440239,-0.0026576390955597162,-0.0010666148737072945
1772522650195870000,8.900869873046876,0.00030828826129436493,-0.00020681042224168777,-0.004529038444161415
1772522650205867800,8.91086767578125,0.00020176172256469727,0.0014603282324969769,0.0001842239871621132
1772522650215864800,8.92086474609375,0.0007708538323640823,0.005626744125038385,0.0017463010735809803
1772522650225862000,8.93086181640625,0.001983657479286194,-0.00010677520185709,0.003762580920010805
1772522650235859000,8.94085888671875,0.0012931982055306435,-0.001124777365475893,-0.0011827293783426285
1772522650245857000,8.95085693359375,-0.000658632256090641,0.000704547856003046,-0.0024298876523971558
1772522650255853800,8.960853759765625,-0.0008612433448433876,-0.0015224935486912727,0.0014561065472662449
1772522650265851000,8.970850830078126,-0.0006178310140967369,0.002312458585947752,0.0011849966831505299
1772522650275848000,8.980847900390625,-0.001008233055472374,-0.0019271788187325,0.0013355747796595097
1772522650285846000,8.990845947265624,-0.00022100284695625305,-0.0013066623359918594,-0.0015949681401252747
1772522650295842800,9.0008427734375,0.0004173414781689644,-0.002279417123645544,-0.00022978940978646278
1772522650305839900,9.01083984375,-0.0010609794408082962,-0.0001507522538304329,0.0017263023182749748
1772522650315837000,9.0208369140625,0.0006771832704544067,-0.0004824022762477398,0.001790167298167944
1772522650325835000,9.0308349609375,-0.00005545280873775482,0.0008776737377047539,-0.00044715404510498047
1772522650335831800,9.040831787109376,3.1851232051849365e-7,0.001383320428431034,-0.0037586409598588943
1772522650345828900,9.050828857421875,0.00014226511120796204,0.0028813485987484455,-0.0012952168472111225
1772522650355826000,9.060825927734374,0.0017562713474035263,0.002173928078263998,0.0007306677289307117
1772522650365824000,9.070823974609375,-0.002209708094596863,-0.0002191886305809021,-0.0005902601405978203
1772522650375820800,9.08082080078125,-0.0021958332508802414,0.0006848243065178394,-0.0016745515167713165
1772522650385818000,9.090818115234375,0.0014553605578839779,-0.00044835079461336136,-0.0018915990367531776
1772522650395816000,9.10081591796875,0.000751914456486702,-0.0005269874818623066,-0.0015984782949090004
1772522650405813000,9.11081298828125,-0.001462770625948906,0.000899667851626873,0.000013533048331737518
1772522650415809800,9.120809814453125,0.002946131397038698,-0.0018639634363353252,-0.001127159222960472
1772522650425807000,9.13080712890625,-0.0017018839716911316,0.0028090854175388813,-0.00031010154634714127
1772522650435805000,9.140804931640625,-0.0009692348539829254,0.0005547436885535717,0.0005566547624766827
1772522650445802000,9.150802001953124,-0.000286666676402092,-0.0000948016531765461,0.0014631953090429306
1772522650455798800,9.160798828125,-0.0005626007914543152,0.0021994169801473618,-0.001260069664567709
1772522650465796000,9.170796142578125,0.0006541972979903221,0.0006920681335031986,-0.0015687299892306328
1772522650475794000,9.1807939453125,0.0009635249152779579,-0.0013642306439578533,-0.00033057574182748795
1772522650485791000,9.190791015625,0.0012455540709197521,0.001469639129936695,0.0011000744998455048
1772522650495787800,9.200787841796876,-0.0012175552546977997,-0.00233095558360219,-0.0011140168644487858
1772522650505785000,9.21078515625,0.002710341475903988,-0.0000315825454890728,-0.0004239915870130062
1772522650515783000,9.220782958984374,-0.0011466611176729202,0.0009532058611512184,0.00024625472724437714
1772522650525780000,9.230780029296875,-0.0016601178795099258,0.0005920808762311935,-0.0003630765713751316
1772522650535776800,9.24077685546875,-0.0005283746868371964,-0.0017047435976564884,-0.0008345888927578926
1772522650545774000,9.250774169921876,0.000762193463742733,-0.0001955302432179451,0.0002834061160683632
1772522650555772000,9.26077197265625,-0.0003516906872391701,-0.0020795981399714947,0.0015503549948334694
1772522650565769000,9.27076904296875,-0.002132812514901161,-0.0006332355551421642,0.0012038778513669968
1772522650575765800,9.280765869140625,0.0029544332064688206,-0.0006365301087498665,-0.0004047723487019539
1772522650585763000,9.29076318359375,-0.0007513556629419327,0.0005331304855644703,0.00026234984397888184
1772522650595761000,9.300760986328125,-0.001052255742251873,0.0012579206377267838,0.004109841771423817
1772522650605758000,9.310758056640625,-0.0010248254984617233,-0.0005639479495584965,0.0009910138323903084
1772522650615754800,9.320754638671875,0.00010664481669664383,0.0011851796880364418,0.0011396300978958607
1772522650625752000,9.330751953125,-0.0014891214668750763,0.00006159162148833275,-0.0005599996075034142
1772522650635750000,9.34075,0.00024928338825702667,0.0006256219930946827,0.0021948134526610374
1772522650645747000,9.350746826171875,0.00020853709429502487,-0.00028011947870254517,-0.0013983240351080894
1772522650655743700,9.36074365234375,-0.0003996901214122772,-0.002159921918064356,-0.002677022945135832
1772522650665741000,9.370740966796875,-0.00009981822222471237,-0.0003409828059375286,-0.001820816658437252
1772522650675739000,9.38073876953125,-0.002201228402554989,-0.002365804510191083,-0.0011823587119579315
1772522650685736000,9.39073583984375,-0.0018672682344913483,0.0014020358212292194,-0.0029325883369892836
1772522650695732700,9.400732666015625,0.0013896073214709759,0.001273373607546091,-0.00011403625831007957
1772522650705730800,9.410730712890626,-0.0017553195357322693,0.0007266267202794552,0.0016473783180117607
1772522650715728000,9.420727783203125,-0.0008778255432844162,0.0009125969372689724,-0.0016264403238892555
1772522650725725000,9.430724853515626,-0.0031843893229961395,0.001532847061753273,-0.001520446501672268
1772522650735721700,9.4407216796875,0.0010921768844127655,0.0007084575481712818,-0.0010993457399308681
1772522650745719800,9.4507197265625,0.00001732446253299713,0.0005001979880034924,0.0016200076788663864
1772522650755716900,9.460716796875,0.0001683700829744339,-0.0015280540101230145,0.0002509467303752899
1772522650765714000,9.4707138671875,-0.000691831111907959,-0.001113932579755783,0.0014120852574706078
1772522650775710700,9.480710693359375,-0.0003584837540984154,-0.0004307841882109642,0.0011834199540317059
1772522650785708800,9.490708740234375,-0.0010213442146778107,0.002005742397159338,-0.000008611008524894714
1772522650795705900,9.500705810546876,-0.0008906861767172813,-0.0005590594373643398,-0.0015419544652104378
1772522650805703000,9.510702880859375,-0.002106952480971813,-0.00020059803500771523,-0.0011278330348432064
1772522650815699700,9.52069970703125,-0.00019163824617862701,-0.0020747329108417034,0.0011946787126362324
1772522650825697800,9.53069775390625,-0.0008987067267298698,-0.002176998183131218,0.0013997419737279415
1772522650835694800,9.54069482421875,0.001791653223335743,0.00027794111520051956,0.0014837337657809258
1772522650845692000,9.55069189453125,-0.0013034725561738014,-0.0012107659131288528,-0.0016779708676040173
1772522650855688700,9.560688720703125,0.00154971145093441,0.0005536647513508797,0.0009886915795505047
1772522650865686800,9.570686767578126,-0.002139831893146038,0.0005672471597790718,0.0001721661537885666
1772522650875683800,9.580683837890625,0.0008374331519007683,0.00022085336968302727,-0.00021277973428368568
1772522650885681000,9.590680908203124,-0.0007601967081427574,-0.0010992754250764847,0.00043223798274993896
1772522650895677700,9.600677734375,0.0019294978119432926,-0.0007069865241646767,0.0001383768394589424
1772522650905675800,9.61067578125,-0.0014556460082530975,-0.0002939305268228054,-0.0016704420559108257
1772522650915672800,9.6206728515625,-0.0002557216212153435,0.0014266646467149258,-0.0008818255737423897
1772522650925669600,9.630669677734375,0.0023224852047860622,0.00025034602731466293,0.0009038238786160946
1772522650935666700,9.640666748046876,-0.003287539817392826,-0.0009371228516101837,0.00025513116270303726
1772522650945664800,9.650664794921875,0.00014713872224092484,0.0011507952585816383,0.003528689034283161
1772522650955661800,9.660661865234376,-0.0016808947548270226,-0.0020360643975436687,-0.00016986578702926636
1772522650965658600,9.67065869140625,-0.001599934883415699,0.001452676486223936,0.0005281483754515648
1772522650975655700,9.68065576171875,0.00008275732398033142,0.0011560991406440735,-0.0007191994227468967
1772522650985653800,9.69065380859375,-0.0002208435907959938,0.0003499602898955345,0.000942612998187542
1772522650995652600,9.700652587890625,0.00002808310091495514,0.0006754281930625439,0.00003491993993520737
1772522651005650000,9.71064990234375,-0.0002645980566740036,-0.001776810735464096,-0.0012724255211651325
1772522651015646700,9.720646728515625,0.000532045029103756,-0.001999286934733391,0.0007135756313800812
1772522651025644800,9.730644775390624,0.0009352480992674828,0.002034070435911417,0.00006536254659295082
1772522651035641600,9.7406416015625,-0.0006204321980476379,0.0014707474038004875,0.0014137979596853256
1772522651045639000,9.750638916015625,-0.0006838161498308182,0.0031599905341863632,-0.00009008869528770447
1772522651055636700,9.76063671875,-0.0010607196018099785,0.0006977966986596584,0.0023955288343131542
1772522651065633800,9.7706337890625,0.0008921762928366661,-0.0024612450506538153,0.0025097778998315334
1772522651075630600,9.780630615234376,0.0010644160211086273,0.00157843716442585,0.00008647236973047256
1772522651085628000,9.7906279296875,0.001591188833117485,0.0005637728609144688,-0.00030368100851774216
1772522651095626000,9.8006259765625,0.0015220483765006065,-0.00002611568197607994,-0.001444786787033081
1772522651105622800,9.810622802734375,0.0005087153986096382,-0.0010932441800832748,-0.002058379352092743
1772522651115619600,9.82061962890625,-0.0006567351520061493,-0.0024412081111222506,-0.00030563678592443466
1772522651125617000,9.830616943359376,-0.00010146666318178177,-0.000877932645380497,-0.0020281695760786533
1772522651135615000,9.840614990234375,0.0019526300020515919,-0.0024111061356961727,0.001776076853275299
1772522651145611800,9.85061181640625,-0.0009885653853416443,-0.0012148143723607063,0.00048391101881861687
1772522651155608600,9.860608642578125,0.0012344270944595337,0.0011199326254427433,0.0013954383321106434
1772522651165606000,9.87060595703125,-0.000491834245622158,-0.001719529740512371,-0.000032815150916576385
1772522651175604000,9.88060400390625,0.0007752245292067528,-0.0006520915776491165,-0.0017914241179823875
1772522651185600800,9.890600830078125,0.0007973285391926765,-0.0010867193341255188,0.0024600462056696415
1772522651195597600,9.90059765625,-0.0014189602807164192,-0.0008332193829119205,-0.00037723174318671227
1772522651205595000,9.910594970703125,-0.0006514368578791618,0.0016805380582809448,0.00091573316603899
1772522651215593000,9.920593017578126,0.0012106625363230705,-0.0009363624267280102,0.0005670320242643356
1772522651225589800,9.93058984375,-0.0009805867448449135,-0.0002758987247943878,-0.0007392484694719315
1772522651235586600,9.940586669921874,0.002739701885730028,-0.0002547414042055607,0.00041174236685037613
1772522651245584000,9.950583984375,0.0016786986961960793,0.0013724500313401222,0.0006109466776251793
1772522651255582000,9.96058203125,-0.0010120701044797897,0.0018952456302940845,-0.0010606157593429089
1772522651265578800,9.970578857421875,0.0017091473564505577,0.0004835044965147972,-0.00010214420035481453
1772522651275575800,9.980575927734375,0.00024007540196180344,0.001681312918663025,0.0007820692844688892
1772522651285572900,9.99057275390625,0.0007950784638524055,0.0001681051217019558,0.0013501215726137161
1772522651295571000,10.000571044921875,0.0009346138685941696,0.0002536722458899021,0.0009395098313689232
1772522651305567700,10.010567626953126,0.0003162277862429619,-0.001332772895693779,0.0005924999713897705
1772522651315564800,10.020564697265625,0.0004029925912618637,0.0008058669045567513,0.0022255699150264263
1772522651325561900,10.030561767578124,-0.0010835835710167885,-0.0029542502015829086,-0.0010770163498818874
1772522651335560000,10.040559814453125,0.0005229925736784935,0.0006767204031348228,0.0017748121172189713
1772522651345556700,10.050556640625,-0.0019577424973249435,-0.00020079128444194794,0.0011713402345776558
1772522651355553800,10.0605537109375,-0.0016680005937814713,-0.001625728327780962,0.000936286523938179
1772522651365551600,10.070551513671875,0.0006345687434077263,0.000982571393251419,-0.001224336214363575
1772522651375549000,10.080548828125,-0.00005069747567176819,-0.0009277667850255966,0.0020279614254832268
1772522651385545700,10.090545654296875,0.0018830238841474056,-0.0027589560486376286,-0.0018631834536790848
1772522651395542800,10.100542724609374,0.002569026779383421,-0.0016944785602390766,-0.0006725611165165901
1772522651405540600,10.11054052734375,-0.0015120012685656548,0.00031727319583296776,0.000357016921043396
1772522651415538000,10.120537841796875,-0.0017442349344491959,0.005650244187563658,0.005014787428081036
1772522651425534700,10.13053466796875,0.0018060249276459217,0.0039785779081285,0.004596671089529991
1772522651435531800,10.14053173828125,-0.000791279599070549,0.0009351265616714954,-0.0014627953059971333
1772522651445529600,10.150529541015626,-0.002986523322761059,-0.0014603869058191776,-0.0014950195327401161
1772522651455527000,10.16052685546875,-0.0016056522727012634,0.0015480155125260353,0.003010350279510021
1772522651465523700,10.170523681640624,0.00021355226635932922,0.0025720009580254555,0.005421043373644352
1772522651475520800,10.180520751953125,-0.0005116946995258331,-0.0014264555647969246,-0.003319162642583251
1772522651485518600,10.1905185546875,-0.00019318051636219025,-0.0054542203433811665,-0.0054291849955916405
1772522651495516000,10.200515869140625,-0.0006139054894447327,-0.004456661641597748,-0.0017384770326316357
1772522651505512700,10.2105126953125,-0.002835514023900032,-0.002751972060650587,-0.005742806009948254
1772522651515509800,10.220509765625,0.0012709195725619793,0.0009415955282747746,0.0010837428271770477
1772522651525507600,10.230507568359375,0.000586220994591713,0.003266002517193556,0.006506737321615219
1772522651535505000,10.2405048828125,0.00006803683936595917,0.0019121458753943443,0.0016075572930276394
1772522651545501700,10.250501708984375,-0.0012297211214900017,-0.0027097698766738176,-0.0029999776743352413
1772522651555498800,10.260498779296874,0.0009913993999361992,-0.0008888030424714088,-0.004734118469059467
1772522651565496600,10.27049658203125,0.0009663654491305351,-0.00030423933640122414,0.004927829839289188
1772522651575494000,10.280493896484375,-0.0004342971369624138,0.006731898989528418,0.00567382900044322
1772522651585490700,10.29049072265625,-0.0009815767407417297,-0.0018687797710299492,-0.0025470824912190437
1772522651595488800,10.30048876953125,-0.00038763508200645447,-0.0038559851236641407,-0.00623143557459116
1772522651605485600,10.310485595703126,0.00009359791874885559,0.0006988192908465862,-0.0002073654904961586
1772522651615483000,10.32048291015625,0.001412208192050457,0.0034442832693457603,0.0031035011634230614
1772522651625479700,10.330479736328124,-0.0001089898869395256,0.0023846114054322243,0.0034590335562825203
1772522651635477800,10.340477783203125,0.0009502023458480835,-0.0003295191563665867,-0.002901744097471237
1772522651645474600,10.350474609375,-0.000010133720934391022,-0.0015311376191675663,-0.00248123100027442
1772522651655471900,10.360471923828126,-0.0007254853844642639,0.0028639151714742184,0.002442228142172098
1772522651665468700,10.37046875,-0.0003406582400202751,0.001515822485089302,0.0031072194688022137
1772522651675466800,10.380466796875,0.0016182661056518555,0.0017161169089376926,0.0038600810803472996
1772522651685463600,10.390463623046875,-0.0008622026070952415,0.000879618339240551,-0.001695007085800171
1772522651695460900,10.4004609375,-0.001859797164797783,-0.00045176921412348747,-0.0004981923848390579
1772522651705457700,10.410457763671875,0.00059457216411829,-0.0008664233610033989,0.004348228685557842
1772522651715455700,10.420455810546875,-0.001968574710190296,-0.00014329934492707253,0.00005227839574217796
1772522651725452500,10.43045263671875,0.001945206429809332,-0.002100988756865263,0.0014573624357581139
1772522651735449900,10.440449951171875,0.0010033175349235535,-0.003074691630899906,-0.002564455848187208
1772522651745446700,10.45044677734375,-0.00012399815022945404,0.0001322869211435318,0.0003932504914700985
1772522651755444700,10.46044482421875,0.0006305435672402382,-0.0016274768859148026,0.00396851496770978
1772522651765441500,10.470441650390624,-0.0014057094231247902,0.00273611256852746,0.0035887486301362514
1772522651775438800,10.48043896484375,-0.0022376924753189087,0.0011643515899777412,-0.0022606723941862583
1772522651785435600,10.490435546875,-0.0018147826194763184,-0.0009669763967394829,-0.002716605318710208
1772522651795433700,10.500433837890625,-0.0018746256828308105,0.0021411655470728874,0.0009705657139420509
1772522651805430500,10.510430419921875,0.0018785675056278706,0.00024446239694952965,0.0028837802819907665
1772522651815427800,10.520427734375,-0.0017150817438960075,0.002894463948905468,0.0015620440244674683
1772522651825424600,10.530424560546875,-0.00005113799124956131,0.00031093182042241096,0.0020214393734931946
1772522651835422700,10.540422607421876,-0.0021665291860699654,-0.0009691817685961723,0.0006440719589591026
1772522651845419500,10.55041943359375,-0.001146804541349411,0.0009895730763673782,-0.0015117567963898182
1772522651855416800,10.560416748046874,-0.0003655776381492615,-0.0006122123450040817,-0.0010323836468160152
1772522651865415000,10.570414794921875,-0.00022203288972377777,-0.002094794064760208,0.0015154625289142132
1772522651875411700,10.58041162109375,-0.0008099721744656563,-0.00023300014436244965,0.0006400425918400288
1772522651885408800,10.59040869140625,-0.0006600366905331612,0.00023864535614848137,0.001992129720747471
1772522651895405800,10.60040576171875,0.0010810615494847298,0.0016182581894099712,0.003730201628059149
1772522651905404000,10.61040380859375,0.0014333976432681084,0.0018361047841608524,0.0002992507070302963
1772522651915401500,10.6204013671875,-0.0019308952614665031,0.0014851978048682213,-0.000973566435277462
1772522651925398500,10.6303984375,-0.0009282147511839867,0.0026836199685931206,0.0026419414207339287
1772522651935395600,10.6403955078125,0.0006821230053901672,0.0003497358411550522,0.004563504364341497
1772522651945393700,10.6503935546875,0.00010980945080518723,0.00555541692301631,0.0049017262645065784
1772522651955390500,10.660390380859376,0.002777255605906248,0.0017496268264949322,0.0034295208752155304
1772522651965387500,10.670387451171875,-0.0012760758399963379,0.0024795997887849808,0.003643372096121311
1772522651975384600,10.680384521484376,-0.002110876142978668,0.0010754386894404888,0.0031344573944807053
1772522651985382700,10.690382568359375,-0.001013386994600296,0.0016932920552790165,0.001525108702480793
1772522651995379500,10.70037939453125,-0.0010152608156204224,0.00013239122927188873,0.00023209070786833763
1772522652005376500,10.71037646484375,0.00044814683496952057,-0.00127402413636446,-0.0032404048833996058
1772522652015373600,10.72037353515625,-0.0022290730848908424,-0.0031209622975438833,-0.0020046643912792206
1772522652025371600,10.73037158203125,0.0007547326385974884,-0.0013076160103082657,-0.0031612750608474016
1772522652035368400,10.740368408203125,-0.0014124643057584763,-0.0025372758973389864,-0.0019523887895047665
1772522652045365500,10.750365478515626,-0.00007156282663345337,-0.003226235508918762,-0.0014583724550902843
1772522652055362600,10.760362548828125,0.00038342177867889404,-0.001590123400092125,-0.0024919938296079636
