time,seconds_elapsed,z,y,x
1772561525793105000,0.07210498046875,0.10414426508545875,0.00005538801562506705,-0.018772925134282557
1772561525803133700,0.0821337890625,0.1156663605749607,-0.013027590981894172,-0.04794159034295007
1772561525813163800,0.092163818359375,0.1104249527901411,0.01112710025596898,-0.016887431048089638
1772561525823192800,0.10219287109375,0.11880465860068798,-0.0010449424756690858,0.03482043475951068
1772561525833222000,0.112221923828125,0.11596095960736275,-0.012810020974767394,0.0222070460351184
1772561525843252000,0.122251953125,0.11790566393435001,0.009464838732709176,-0.017625937923090532
1772561525853280800,0.13228076171875,0.106381814879179,-0.000053963243518956,-0.0453151782289613
1772561525863309800,0.142309814453125,0.09949497797489165,-0.016765156375290826,-0.009653826532745734
1772561525873339000,0.1523388671875,0.11191548360884189,-0.0018073964818380772,0.03497509559825994
1772561525883368700,0.16236865234375,0.11655658741295337,-0.0021108683738624676,0.031833208242803814
1772561525893397800,0.172397705078125,0.11895488072633742,-0.01105225862120278,-0.015037254870450123
1772561525903426800,0.1824267578125,0.11461305212974547,0.008185763274179771,-0.03707435116614215
1772561525913455600,0.19245556640625,0.11371698007285594,-0.0029133027639705687,-0.02536835961025208
1772561525923485700,0.202485595703125,0.12015256607830524,-0.013925297873443923,0.03019563363622874
1772561525933514800,0.2125146484375,0.12180150232911109,0.010414682236872613,0.03281446523196064
1772561525943543800,0.222543701171875,0.11865911265015601,-0.006433663476421498,-0.0076236724120099094
1772561525953574000,0.232573974609375,0.11850830600261687,-0.011498920109891331,-0.03188460963647812
1772561525963602700,0.242602783203125,0.11251871019899845,0.0009175760692218319,-0.008666486862674355
1772561525973631700,0.2526318359375,0.11102291868329048,0.0014111500061349943,0.018062785837240514
1772561525983661000,0.2626611328125,0.11715630687177181,-0.011037915002019144,0.02988243036805652
1772561525993690600,0.272690673828125,0.12299217341840267,-0.00024710662886500356,-0.010332766973925754
1772561526003719700,0.2827197265625,0.10802607495486735,-0.002050676318956539,-0.03397253095959313
1772561526013749000,0.2927490234375,0.11191489908695221,-0.004460134913749061,-0.018801658038422465
1772561526023777800,0.30277783203125,0.11805179440677166,-0.0003850492282537743,0.021015324633056297
1772561526033808000,0.312807861328125,0.10787643735110759,0.008918251400347799,0.02226687733042054
1772561526043837000,0.3228369140625,0.11820084748864174,-0.004297920956206507,0.0001112235558219254
1772561526053866000,0.332865966796875,0.11939736379683016,0.0025068271551979705,-0.031148175987554712
1772561526063896000,0.34289599609375,0.10174012655317782,-0.0011214965769089757,-0.018194632055982946
1772561526073925400,0.35292529296875,0.11760288159549236,-0.005923873623646795,0.02124209172679111
1772561526083954200,0.3629541015625,0.1155097087085247,0.0029872219501296056,0.027010637791408224
1772561526093983200,0.372983154296875,0.1150607958972454,0.0016409036413999273,-0.0001727444847114384
1772561526104013300,0.383013427734375,0.10697919625043868,-0.012644030457828193,-0.024502792289480567
1772561526114042400,0.39304248046875,0.108172205427289,0.009658913699816913,-0.009513093754649161
1772561526124071200,0.4030712890625,0.11325988395512103,0.0032503800980746744,0.01094214931023307
1772561526134100200,0.413100341796875,0.12074351770877838,-0.009722247559879906,0.027972925218613817
1772561526144130300,0.42313037109375,0.12104513100385665,-0.0061302783493651074,-0.0009143383659422397
1772561526154159400,0.433159423828125,0.11595511438846587,-0.0013007027684478088,-0.03161835991572588
1772561526164188200,0.443188232421875,0.11251111141443251,-0.01551605592991691,-0.013646056240377947
1772561526174218200,0.45321826171875,0.11714929260909557,-0.002236357917054556,0.006127506436966359
1772561526184247300,0.463247314453125,0.11400982553958892,0.004668886860180646,0.021439760590204967
1772561526194276000,0.473276123046875,0.11266133354008197,-0.003482421588548459,0.0007838621203787625
1772561526204305200,0.48330517578125,0.11804711823165416,-0.004184875336056575,-0.01607718324428424
1772561526214335200,0.493335205078125,0.11624971342086791,0.0030642966411774976,-0.014893005827860906
1772561526224364300,0.5033642578125,0.11535305684208869,-0.003857031621178612,0.01567790912785567
1772561526234393000,0.51339306640625,0.10637830774784088,0.007508220205642282,0.023039377806568517
1772561526244423200,0.523423095703125,0.10907295365929603,-0.001504162051831372,0.00016045125871896743
1772561526254452200,0.5334521484375,0.11026946996748446,-0.005800626269890926,-0.020558904368756337
1772561526264481300,0.543481201171875,0.11819909392297268,-0.00164159776114393,-0.019356131849717347
1772561526274510000,0.553510009765625,0.11341010608077048,-0.004977258689608424,0.009960645725904032
1772561526284540200,0.5635400390625,0.12223638661503791,-0.005318952833325602,0.020389904477400703
1772561526294569200,0.5735693359375,0.1268774904191494,0.0028460827466566113,-0.0045611978351604195
1772561526304598000,0.583597900390625,0.10742343288660049,-0.005004671852919273,-0.019676933902455493
1772561526314628000,0.593628173828125,0.10801906069219112,-0.0039027019603876394,-0.016284770713513717
1772561526324657200,0.6036572265625,0.11624562176764011,0.0005705253303749486,0.0069764057507272804
1772561526334686200,0.613686279296875,0.10816577568650244,-0.0024932141883764413,0.016397391641978173
1772561526344715000,0.623715087890625,0.11056289995610713,-0.005504451768333092,0.0013451309986412525
1772561526354745000,0.6337451171875,0.11744564520716666,0.004240989437466487,-0.0185213980586268
1772561526364774100,0.643774169921875,0.11340426086187362,-0.0024660932860104366,-0.015194865718111395
1772561526374803200,0.65380322265625,0.11953823357224463,-0.0005304581814678385,0.0040437589654698965
1772561526384833000,0.6638330078125,0.11624795985519885,0.003348616308160126,0.012543885418446733
1772561526394862000,0.673862060546875,0.10846680445969104,0.00835809220036026,-0.004181980126071721
1772561526404891100,0.68389111328125,0.10846446637213229,-0.014628943497617728,-0.018720802221400663
1772561526414920200,0.693920166015625,0.11579670895636081,-0.003918461218522861,-0.016976835497748106
1772561526424950000,0.703949951171875,0.1135533139437437,-0.0007688746138010174,0.005331442422140389
1772561526434979300,0.713979248046875,0.1134095215588808,-0.004107741279504262,0.01239915231866762
1772561526445008400,0.72400830078125,0.11385901889204979,-0.004646204670914448,0.00223353120572865
1772561526455038200,0.7340380859375,0.10622750110030174,-0.0026028485753107813,-0.020406271090311928
1772561526465067300,0.7440673828125,0.1069739355534315,-0.003676167762093246,-0.00870098278732039
1772561526475096300,0.754096435546875,0.1199929916024208,-0.002025258749909699,0.010864681893540546
1772561526485125400,0.76412548828125,0.10997194832563399,-0.00016425065100193021,0.011449733506189658
1772561526495155200,0.7741552734375,0.10922726743817329,-0.0020166096525732428,0.002363742589810863
1772561526505184300,0.784184326171875,0.10668518173992633,0.00011333331451751291,-0.01340251154177822
1772561526515213300,0.79421337890625,0.10369184514284133,0.00529330236883834,-0.014689446079777553
1772561526525243400,0.804243408203125,0.11625965029299258,-0.005895770907169208,0.003755397877609357
1772561526535272200,0.814272216796875,0.11446692165732383,0.0011408542979275808,0.013009822429763153
1772561526545301200,0.82430126953125,0.11925707854330539,-0.005248641243204474,0.003131137632578611
1772561526555330300,0.834330322265625,0.11476678138673305,-0.00881710171396844,-0.012421948672365396
1772561526565360400,0.8443603515625,0.11581249104738235,-0.008077288797870279,-0.011522058956883846
1772561526575389200,0.85438916015625,0.11251871019899845,0.0016696685115806758,-0.0013026161643210797
1772561526585418200,0.864418212890625,0.11356909603476524,-0.0059078814700711515,0.006658023983938619
1772561526595448300,0.8744482421875,0.11656301715373993,-0.0009795262563740833,-0.0031349278917070476
1772561526605477000,0.88447705078125,0.11790975558757781,0.006173733898601494,-0.007844283759593963
1772561526615506200,0.894506103515625,0.11506313398480415,-0.003558537298371084,-0.00884419978344813
1772561526625536300,0.904536376953125,0.11416530836224555,-0.007787900230125524,0.0015821911575272679
1772561526635565300,0.9145654296875,0.11476385877728462,0.0006036832478828728,0.00666002414477989
1772561526645594000,0.924593994140625,0.11671090119183063,0.002368172169756144,0.0099388357528951
1772561526655624200,0.934624267578125,0.11386661767661571,-0.002255112849874422,-0.009500919259665534
1772561526665653200,0.9446533203125,0.11072188991010189,-0.0028780442209215833,-0.01240428515151143
1772561526675682300,0.954682373046875,0.10907529174685478,-0.00507965505158063,0.0021646306879818437
1772561526685711000,0.964711181640625,0.11491057377159594,-0.0037555485746590418,0.00949987808004953
1772561526695741200,0.9747412109375,0.12269289821088314,-0.0017840932380640878,0.006993229021364822
1772561526705770200,0.984770263671875,0.11191840621829033,-0.008687945209234021,-0.014184738827496766
1772561526715799000,0.994799072265625,0.12074527127444744,0.0015008147506974637,-0.012823570009507238
1772561526725829000,1.0048291015625,0.11041852304935455,-0.006257708687894046,-0.0007594674646388739
1772561526735858200,1.014858154296875,0.11580547678470611,-0.003752132774866186,0.009437736096652225
1772561526745887200,1.02488720703125,0.12463526445031166,-0.011746871555550023,0.0022103877921588718
1772561526755917300,1.034917236328125,0.11939911736249922,0.0008524840769125148,-0.005482824458414688
1772561526765946000,1.044946044921875,0.11700550022423267,0.0012474884436000139,-0.00903208703836426
1772561526775975200,1.05497509765625,0.11610592103600502,0.003131808919436298,-0.0032814876223914323
1772561526786004200,1.065004150390625,0.11505962685346603,0.0020468266943236813,0.0030465189558919518
1772561526796034000,1.075033935546875,0.12434008089601993,-0.0057556911496212705,0.005417184476833791
1772561526806063000,1.08506298828125,0.11207155095338821,-0.011524059117725118,-0.012320524991350248
1772561526816092200,1.095092041015625,0.1065343750923872,0.00382206533907447,-0.016740962648950516
1772561526826122200,1.105122314453125,0.10728139406740665,-0.0037086406930116936,-0.0038401170189958063
1772561526836151000,1.115151123046875,0.11117138724327087,-0.002318789203232154,0.005545085172820836
1772561526846180000,1.12518017578125,0.1066822591304779,-0.004422159257228486,0.0001473360488191247
1772561526856210200,1.135210205078125,0.11596154412925243,-0.004841608512005768,-0.010663505898788572
1772561526866239200,1.1452392578125,0.1277829148262739,-0.008673587890318595,-0.015736534846760332
1772561526876268000,1.15526806640625,0.12523849104046822,0.010130248405458404,0.0006434581358451396
1772561526886298000,1.165298095703125,0.11521218706667423,0.00321431783742737,0.012164329782640562
1772561526896327200,1.1753271484375,0.12149755094647406,-0.0095030564178247,0.004916733274562284
1772561526906356200,1.185356201171875,0.12284545842409134,0.014193671052623539,0.0012396704633254557
1772561526916386000,1.195385986328125,0.11222118855714798,-0.00661414830959402,-0.005046314470982179
1772561526926415000,1.2054150390625,0.11386603315472602,-0.0039034052132861687,0.0005441442135255784
1772561526936444200,1.215444091796875,0.11252221733033656,0.003679533329536207,-0.003038783174008131
1772561526946473200,1.22547314453125,0.10818740299642085,0.00032329083734657614,0.008440907079027966
1772561526956503000,1.2355029296875,0.1134223810404539,-0.0012635627955663949,0.0010297814391553401
1772561526966532400,1.245532470703125,0.1156663605749607,-0.0014174290498718618,-0.017819871326303107
1772561526976561400,1.2555615234375,0.10848434011638164,-0.009226636929507367,-0.00164674429371953
1772561526986591000,1.265591064453125,0.11057692848145961,-0.0023865024108905343,0.005615912786172702
1772561526996620300,1.275620361328125,0.10997896258831023,0.004349153386522084,0.0010585691422224045
1772561527006649300,1.2856494140625,0.11177402931153774,-0.0016882042486919089,0.00039310923712328075
1772561527016679200,1.29567919921875,0.12209785492718218,0.0020410408409312366,-0.007332671842491254
1772561527026708200,1.305708251953125,0.11341770486533641,0.002449101052014157,-0.01058903415678069
1772561527036737300,1.3157373046875,0.11266951684653759,-0.005308719133678823,0.012743682306865229
1772561527046767400,1.325767333984375,0.11820727722942828,-0.005173991404683329,0.0034140827598050233
1772561527056796400,1.33579638671875,0.11521627871990203,0.00007343969554640353,-0.006682044180342927
1772561527066825200,1.3458251953125,0.11297113014161586,-0.002202364315907471,-0.0013065982196945696
1772561527076854800,1.355854736328125,0.11581190652549266,0.005434729266678914,-0.007658442331291735
1772561527086883600,1.365883544921875,0.10997720902264117,0.004291824575560167,0.007499224048433825
1772561527096912600,1.37591259765625,0.11641104146242141,-0.0070517634087242185,0.004444046862050891
1772561527106942700,1.385942626953125,0.11356968055665492,-0.0021267052638111635,-0.006969583284296095
1772561527116971800,1.3959716796875,0.10728548572063445,0.005068457804131322,-0.006381198070244863
1772561527127000600,1.40600048828125,0.10743804593384265,0.0005028349556028842,0.004912038833135739
1772561527137030700,1.41603076171875,0.11910977902710437,-0.0011608787392266093,0.001272650284320116
1772561527147059700,1.426059814453125,0.12090659931600094,0.004574258246133104,0.0008719605289399623
1772561527157088800,1.4360888671875,0.11492051064372062,-0.004193414835538715,-0.0013838829732965678
1772561527167117600,1.44611767578125,0.11536942345499991,-0.0074196605727775014,-0.006937297583045438
1772561527177147600,1.456147705078125,0.11447042878866195,0.00220170216220431,0.0018469247746281325
1772561527187176700,1.4661767578125,0.11746084277629852,-0.0014769635176518931,0.007430588392168283
1772561527197205500,1.47620556640625,0.12374503761231899,0.007353714630519971,0.0009494096793234348
1772561527207235600,1.486235595703125,0.11102817938029766,0.0018280511107994243,-0.010493318697344512
1772561527217264600,1.4962646484375,0.11461889734864235,-0.0037288980297511443,-0.009857861204864456
1772561527227293700,1.506293701171875,0.12000643560588359,-0.005435364020918496,-0.006844824393466115
1772561527237323800,1.51632373046875,0.11013210732340813,-0.0036236703898757695,-0.005390561331389472
1772561527247352600,1.5263525390625,0.10818740299642085,-0.005045419421838596,0.0006590666969306766
1772561527257381600,1.536381591796875,0.11926058567464351,0.005614638711116276,-0.0024351547250524162
1772561527267411700,1.54641162109375,0.10728548572063445,-0.00488947080830112,-0.00027395810317248107
1772561527277440500,1.5564404296875,0.09980477457642555,-0.0034772156904684377,0.002749326107604429
1772561527287469600,1.566469482421875,0.10923486622273922,0.0006555915316333994,0.003708270800253376
1772561527297499600,1.576499755859375,0.12764146052896977,0.0016815233461558818,-0.0005487381902523339
1772561527307528700,1.58652880859375,0.1189607259452343,-0.002068431171355769,-0.006488996693119406
1772561527317557500,1.5965576171875,0.10998246971964835,-0.005997870441619307,0.0005887688065413385
1772561527327587600,1.606587646484375,0.11940730066895484,-0.00045569874509237705,-0.008632009204337373
1772561527337616600,1.61661669921875,0.11521861680746077,0.0031065146479755637,0.0013994367354549467
1772561527347645700,1.626645751953125,0.11925824758708477,0.0030076162841869516,-0.0012707779876422137
1772561527357675500,1.636675537109375,0.11880991929769515,0.013228155055292882,-0.007555676076561212
1772561527367704600,1.64670458984375,0.11701368353068828,0.0014547608189983293,-0.005207523781526833
1772561527377733600,1.656733642578125,0.11507073276937008,-0.0007646733627188951,-0.0029753899484407154
1772561527387763700,1.666763671875,0.12075696171224116,-0.0005356549463933334,0.0064835533330217
1772561527397792500,1.67679248046875,0.10759002162516117,-0.0007097465713974088,0.008512273548496886
1772561527407821600,1.686821533203125,0.11088380247354507,0.00915657193455845,0.000781935024773702
1772561527417851600,1.6968515625,0.12120938165485859,0.0030724936473648995,-0.004682641390897333
1772561527427880700,1.706880615234375,0.11133271528482437,0.0008267559806117787,-0.006118254551431164
1772561527437909500,1.716909423828125,0.11417582975625991,-0.00036591070294380185,0.011460483229067175
1772561527447939600,1.726939697265625,0.11911445520222186,-0.0058255004162434485,0.003284766424866393
1772561527457968600,1.73696875,0.1201625029504299,0.002577604536199942,-0.01090581762152724
1772561527467997400,1.74699755859375,0.11806757649779319,0.0038627946416847406,0.0036658564306329936
1772561527478027500,1.757027587890625,0.10953881760537623,0.0008608363467268645,-0.0018568433804437518
1772561527488056600,1.767056640625,0.11298048249185084,-0.0008021512623177841,0.0026703425872605293
1772561527498085600,1.777085693359375,0.11971242109537124,-0.007195770422718488,-0.003459319274174049
1772561527508115700,1.78711572265625,0.12150631877481936,-0.0034123428938677533,0.0021547577479388564
1772561527518144500,1.79714453125,0.1188116728633642,0.004277147596236318,-0.0010096702328883111
1772561527528174600,1.807174560546875,0.12315350145995616,-0.0023018974339356645,0.0007214826749637722
1772561527538203600,1.81720361328125,0.11821721410155296,0.0005360020062653348,0.0021825499371625483
1772561527548232400,1.827232421875,0.10938859547972679,-0.00013577347518876193,0.0024209618029184636
1772561527558262500,1.837262451171875,0.1090910738378763,-0.0036730579229770225,-0.009356441888213158
1772561527568291600,1.84729150390625,0.10549918682575225,-0.003303795352322049,0.0032631756475660946
1772561527578320600,1.857320556640625,0.11552607532143593,0.0006078753658104687,0.0025821163145359604
1772561527588350700,1.867350830078125,0.11178338166177272,-0.0026012502732686697,0.002976695989537984
1772561527598379500,1.877379638671875,0.11372925503253936,0.0008184539431473239,0.0007923285546246916
1772561527608408600,1.88740869140625,0.10879062958657741,-0.005281904191989452,0.005653112124558538
1772561527618438700,1.897438720703125,0.11163374405801296,-0.011244817484659142,-0.0016822174658998846
1772561527628467500,1.907467529296875,0.10968962425291538,0.0029522465348709374,-0.0006381700393743812
1772561527638496500,1.91749658203125,0.11343056434690951,-0.00030013829062227156,-0.0015543167699128388
1772561527648526600,1.927526611328125,0.10400339531004428,-0.006227085220767184,-0.001343852357007563
1772561527658555600,1.9375556640625,0.11073708747923373,0.012467450048215686,-0.00671719769211486
1772561527668584700,1.947584716796875,0.11328268030881881,0.0008935832722811028,-0.008091929244576022
1772561527678614500,1.957614501953125,0.11762041725218296,-0.004520833858731203,-0.004293167149275541
1772561527688643600,1.9676435546875,0.11971534370481968,0.0013907785049639642,0.0032038649420719593
1772561527698673000,1.9776728515625,0.11283201393187045,0.004767200702079572,0.0031841555946040896
1772561527708702500,1.987702392578125,0.11642506998777388,0.0007536770446691662,-0.002833926517982036
1772561527718731500,1.9977314453125,0.11807342171669005,0.0056505548412911595,-0.006723243840411305
1772561527728760800,2.0077607421875,0.1231605157226324,-0.0010605145041365175,0.0017690280996728687
1772561527738790700,2.017790771484375,0.12106383570432662,0.002276694494020194,0.0030271840677596625
1772561527748819700,2.02781982421875,0.11388123072385788,0.0006218445256585255,-0.00262055776193738
1772561527758849500,2.037849609375,0.11807108362913131,-0.0029967067311052233,0.009430922763375565
1772561527768878600,2.047878662109375,0.12166238611936568,-0.0018919786259066313,0.009004651042167097
1772561527778907600,2.05790771484375,0.1046036992907524,0.0034143339215544984,0.008627305629756301
1772561527788937500,2.0679375,0.11148761358559131,0.003302859203983098,-0.007915732427453621
1772561527798966500,2.077966552734375,0.11747311773598193,-0.00011365754150319844,0.001059436791902408
1772561527808995800,2.087995849609375,0.11268529893755912,-0.0011903011965332551,-0.005547213197825476
1772561527819025700,2.098025634765625,0.11343524052202701,-0.006461665728199295,-0.006173985060350969
1772561527829054700,2.1080546875,0.11493103203773498,-0.004389914655173197,0.0032239578820299356
1772561527839083800,2.118083740234375,0.10760054301917553,-0.0023070987654384223,0.002901100869523361
1772561527849113600,2.128113525390625,0.11089023221433163,0.0016446893339511007,-0.0018280830768402664
1772561527859142700,2.138142578125,0.11836977431476116,0.0011149481051135808,-0.0017188596818596123
1772561527869171700,2.148171630859375,0.12225976749062538,-0.0033242992842337114,-0.0035327407034114002
1772561527879201500,2.158201416015625,0.11582476600706576,-0.007195756722986698,0.0027854477337561547
1772561527889230800,2.16823095703125,0.11776830129027366,0.0018329236487392335,0.00630745698059909
1772561527899259600,2.178259765625,0.10953881760537623,0.0028412969736848026,-0.0016253087800461798
1772561527909289500,2.18828955078125,0.11717150444090366,-0.0039003730059834194,-0.00521499470192939
1772561527919318800,2.19831884765625,0.11537526867389679,0.005164049965981393,0.00031574228513054546
1772561527929348600,2.2083486328125,0.12240823605060577,0.0006390148561680689,0.0022038575866725296
1772561527939377700,2.218377685546875,0.11342881078124045,-0.002677507546986453,0.0007939451229758561
1772561527949406700,2.22840673828125,0.10864216102659702,0.009556156578240915,0.008790378103824333
1772561527959436500,2.2384365234375,0.11118600029051304,-0.004862258574389852,-0.004516162250190973
1772561527969465900,2.2484658203125,0.10849369246661662,-0.0055485603381181135,-0.0028180530954152344
1772561527979494700,2.25849462890625,0.11807225267291069,-0.00014898001663386822,-0.00197021322757937
1772561527989524500,2.2685244140625,0.11313538079261778,0.0007316067767562344,-0.0038011184491682794
1772561527999553800,2.2785537109375,0.113884737855196,-0.003655928691662848,0.002337840963574126
1772561528009582800,2.288582763671875,0.11882394782304763,0.0017822985731996595,-0.010852616996411234
1772561528019612700,2.29861279296875,0.11164134284257889,-0.0021830842267023397,0.0014672686741221696
1772561528029641700,2.308641845703125,0.11463351039588451,-0.0016589279218576847,0.006919204803928733
1772561528039671600,2.318671630859375,0.1179237841129303,-0.0008156409315532073,-0.00013447656724601984
1772561528049700900,2.328700927734375,0.10565408512651919,-0.009195744034321978,-0.0012629874068312346
1772561528059729700,2.338729736328125,0.12121639591753482,0.0026238456975668668,-0.0014416227762121705
1772561528069759500,2.348759521484375,0.11762567794919013,-0.0037920172606827687,-0.002288658926449716
1772561528079788300,2.358788330078125,0.11463351039588451,0.0017219466880895196,-0.0038912170185707506
1772561528089817300,2.3688173828125,0.1162806930810213,0.001592753650736995,0.0009816588479559867
1772561528099847400,2.378847412109375,0.10446107594966887,-0.0019485676513519136,-0.0031988599733915176
1772561528109876500,2.38887646484375,0.11703180370926856,-0.0023986677727196363,-0.00123925947137177
1772561528119905300,2.3989052734375,0.12226795079708098,0.0028200989220291376,0.006295373817160725
1772561528129935400,2.408935302734375,0.1096972230374813,-0.00046500086297746745,-0.0033459950928110627
1772561528139964400,2.41896435546875,0.12136954065263271,-0.004325548748648725,-0.001898161771520972
1772561528149994500,2.428994384765625,0.11523556794226168,-0.0023480929295299573,-0.0004792896832339465
1772561528160023300,2.439023193359375,0.11104688408076763,-0.006992571434238926,-0.001223011589469388
1772561528170052400,2.44905224609375,0.11493629273474215,-0.0017857828716514631,-0.0014315580399241298
1772561528180082400,2.45908251953125,0.11478548608720301,-0.0032912829306209457,0.0015515311577823012
1772561528190111500,2.469111572265625,0.12002455578446387,0.004789028941397555,0.00046738918288610873
1772561528200140300,2.479140380859375,0.11269172867834568,-0.00671603321491275,0.0008685812617652117
1772561528210170400,2.48917041015625,0.12062252167761325,0.000973096515587531,-0.004710323982266709
1772561528220199400,2.499199462890625,0.11089724647700785,-0.0015911644818494095,0.005176945980172604
1772561528230229500,2.5092294921875,0.10820260056555271,-0.013491066608065738,-0.004803500424744561
1772561528240258300,2.51925830078125,0.11987374913692474,-0.0012448489619418979,0.0010735383824910967
1772561528250287400,2.529287353515625,0.12062193715572357,0.002989509805338457,-0.006429201930435374
1772561528260317400,2.5393173828125,0.1138888295084238,-0.004772018441092223,-0.001292240900779143
1772561528270346200,2.54934619140625,0.11029635797441005,0.000323391302046366,0.003259641116764396
1772561528280375300,2.559375244140625,0.11224281586706637,0.00009104841747321188,-0.0023589659499935805
1772561528290405400,2.5694052734375,0.11194295613765716,0.003273742707353085,0.005944304490322246
1772561528300434400,2.579434326171875,0.11673311302363872,-0.0025359756178688258,0.004035758322104811
1772561528310464300,2.58946435546875,0.10745558159053326,0.008126233372977004,0.0018648805564269422
1772561528320493300,2.599493408203125,0.10790683248937129,-0.004649383008689619,0.0007491743994876742
1772561528330522400,2.6095224609375,0.11688508871495723,0.0008163487510289997,-0.0006051171531435102
1772561528340552400,2.619552490234375,0.11748480817377567,-0.0014339874590281396,-0.002928920458210632
1772561528350581200,2.629581298828125,0.12092471949458121,-0.004114842307148501,-0.004982619851315394
1772561528360610300,2.6396103515625,0.11494096890985965,0.0027957681983709335,0.00018244389481842516
1772561528370640400,2.649640380859375,0.12481588171422481,-0.0005729273500153794,-0.00013760923924855886
1772561528380669400,2.65966943359375,0.11344400835037231,0.0012201666118344292,0.0019710900104138998
1772561528390699300,2.66969921875,0.11464110918045044,-0.007194094488862901,0.0026608532397076486
1772561528400728300,2.679728271484375,0.1105991403132677,-0.002414111937023699,0.0018085015935357658
1772561528410757400,2.68975732421875,0.11194704779088496,0.002177398838009685,-0.004437799784354865
1772561528420787500,2.699787353515625,0.12167349203526973,0.00015833236686885356,-0.007154009073646739
1772561528430816300,2.709816162109375,0.12182663677036762,-0.0014346907119266688,0.0065923748692031945
1772561528440845300,2.71984521484375,0.10850947455763817,0.002519453741330653,-0.0037257516580168158
1772561528450875400,2.72987548828125,0.11000526607334613,0.002422934564296156,-0.0035704606316052374
1772561528460904400,2.739904541015625,0.11987900983393192,-0.0021885869523044672,-0.009875643456727265
1772561528470934300,2.749934326171875,0.1150865148603916,-0.00456457710233517,-0.0032102764165494587
1772561528480963300,2.75996337890625,0.11882687043249607,-0.002942327929055318,0.006336409080447629
1772561528490992400,2.769992431640625,0.11568448075354099,-0.0027327174660982563,0.006176277482137084
1772561528501022500,2.7800224609375,0.11478782417476177,-0.004770867663621902,0.004189624576410278
1772561528511051300,2.79005126953125,0.11044833366572857,-0.0019461610651342197,-0.0025211159754544494
1772561528521080300,2.800080322265625,0.11553425862789153,0.004860550674493425,0.004505147665832192
1772561528531110400,2.8101103515625,0.11463643300533294,0.008617976112407631,-0.001507966010691598
1772561528541139500,2.820139404296875,0.10326689772903919,-0.0011579013308510183,0.0068748268060851835
1772561528551169300,2.830169189453125,0.11030220319330691,-0.0019327261948259547,-0.0001026931894943118
1772561528561198300,2.8401982421875,0.11554244193434715,0.0037586812466615807,-0.004114120787940919
1772561528571227400,2.850227294921875,0.12033026073276996,-0.006546339203813113,-0.007749728210782632
1772561528581257200,2.86025732421875,0.11823358071446419,-0.0022849919649073854,-0.0036434984683524816
1772561528591286300,2.870286376953125,0.1164373449474573,0.00000735218939371407,0.008494947954360395
1772561528601315300,2.8803154296875,0.11867898639440536,0.0013460488806711509,0.002508731417916715
1772561528611345400,2.890345458984375,0.11194412518143654,-0.004049750314839184,-0.00213145907074213
1772561528621374500,2.90037451171875,0.11628303116858005,0.011619637579843401,0.0023671766559127715
1772561528631404300,2.910404296875,0.10865326694250106,0.0038037898968672377,0.0036932924268301575
1772561528641433300,2.920433349609375,0.11000175894200802,-0.00007812043724115938,0.007629115772107615
1772561528651462400,2.93046240234375,0.11374445260167121,0.0014466825438197702,-0.009243026375304907
1772561528661492200,2.9404921875,0.11359539951980113,0.0042148183831712226,-0.0009438110555987805
1772561528671521300,2.950521240234375,0.1092570780545473,-0.0023027376841520887,0.0024433471646625547
1772561528681551000,2.960551025390625,0.11778700599074363,0.005727131775417365,0.00042516660951077935
1772561528691580400,2.970580322265625,0.120781511631608,0.0001924583987565711,0.005030249252170324
1772561528701609500,2.980609375,0.11718845557570456,0.00502883361321874,-0.0038634339625015853
1772561528711639000,2.99063916015625,0.11838438736200332,0.0010995907057775184,-0.0005636069658212364
1772561528721668400,3.00066845703125,0.11658698255121708,-0.0020566631017485634,0.0021625757282134144
1772561528731698200,3.0106982421875,0.10775602584183215,0.006035827831830829,-0.0024992238040547816
1772561528741727200,3.020727294921875,0.11164543449580669,0.009277252871892414,0.0035855212034191933
1772561528751756300,3.03075634765625,0.10850187577307224,0.0026695708357030523,-0.001710055320896208
1772561528761786000,3.0407861328125,0.11224340038895607,-0.004344970401749014,-0.008252216106513515
1772561528771815400,3.0508154296875,0.114638186571002,0.00115134829247836,0.0018953396267723291
1772561528781844500,3.060844482421875,0.12002397126257419,-0.00048386082707438616,0.004072829796327278
1772561528791874000,3.0708740234375,0.12017536243200301,0.0004125993888825178,0.0032876525016967205
1772561528801903400,3.0809033203125,0.1026695163577795,0.004683563839504495,-0.009149393275100738
1772561528811933200,3.09093310546875,0.11583879453241824,0.005651929381047375,-0.0005013553845696151
1772561528821962200,3.100962158203125,0.1147907467842102,0.006501732877106405,-0.007100342657649889
1772561528831991300,3.1109912109375,0.12152502347528933,0.0027229952231049535,-0.004023300699330866
1772561528842021000,3.121021240234375,0.11629121447503567,0.0027160266262013463,-0.0025925189775414764
1772561528852050400,3.131050537109375,0.11344926904737948,-0.0050750565082766114,-0.0014719448492396623
1772561528862080300,3.141080322265625,0.1119540620535612,0.006407410223735496,-0.00207043133219704
1772561528872109000,3.151109130859375,0.1095581068277359,-0.00047257681465707715,-0.0006113733639940619
1772561528882138400,3.161138427734375,0.12931143956780433,0.0025859294065507126,-0.0031002219045069067
1772561528892168200,3.171168212890625,0.12198036602735518,0.006134831226896494,-0.0012718922324944286
1772561528902197200,3.181197265625,0.11913842059969901,-0.0018969242290826514,-0.004379402394313365
1772561528912226300,3.191226318359375,0.11405249563753604,-0.0006488238641293719,0.000050634208694100375
1772561528922256100,3.201256103515625,0.11749357600212096,0.001059308927739039,0.004174609670368954
1772561528932285200,3.21128515625,0.11360416734814643,0.005702910649613477,0.007092835204629227
1772561528942315300,3.221315185546875,0.11345452974438666,-0.00701520795773249,0.0074966210993938145
1772561528952344000,3.231343994140625,0.1127075107693672,-0.007786196896806359,0.0053230033873580395
1772561528962373400,3.241373291015625,0.11465279961824416,0.0019484397871885448,-0.004930798332532868
1772561528972403200,3.2514033203125,0.11061433788239955,0.0007526769642485305,-0.0042065574449021365
1772561528982432300,3.261432373046875,0.10896890876293182,-0.000043391617154702544,-0.00018921156232245266
1772561528992462300,3.27146240234375,0.1146551377058029,-0.0031449469622224567,0.0000982362100854516
1772561529002491100,3.2814912109375,0.12094050158560275,-0.0032829945928882806,-0.005424710196163505
1772561529012520200,3.291520263671875,0.11720073053538799,-0.0019420146129792554,-0.0035217535185161977
1772561529022550300,3.30155029296875,0.11615151374340056,0.007169416705332696,0.0063986241290811445
1772561529032579000,3.3115791015625,0.11211246748566626,-0.00640554706021212,0.0001787541003897786
1772561529042609200,3.321609130859375,0.11480535983145236,0.0006683368487749249,0.00032535949684679504
1772561529052638200,3.33163818359375,0.12303659708201885,0.002092423968296498,0.007087748037558048
1772561529062667300,3.341667236328125,0.11854746896922588,-0.00530861410240177,-0.0090208715246059
1772561529072697300,3.351697265625,0.1160018761396408,0.00596439286370296,0.003977945453952998
1772561529082726100,3.36172607421875,0.10942015966176986,-0.0016986206114292144,-0.0026325130612123754
1772561529092756200,3.371756103515625,0.11271335598826408,-0.005007553363172337,0.0017980167321395128
1772561529102785000,3.381784912109375,0.11899871986806392,0.005413056290987879,0.002156894906098023
1772561529112814000,3.39181396484375,0.11585749923288821,-0.004872245678864419,-0.007522961117047816
1772561529122844200,3.40184423828125,0.11166589276194572,0.0009673426282359286,-0.006501710044220089
1772561529132873200,3.411873291015625,0.12019582069814204,-0.000036779213277623055,-0.0018739315125625578
1772561529142903000,3.421903076171875,0.11615618991851806,0.0028491195205366236,0.003937732174573466
1772561529152932000,3.43193212890625,0.1170563536286354,-0.0012648277374682948,-0.0028331958656199275
1772561529162961200,3.441961181640625,0.12034838091135025,0.0010447506794240325,-0.0046420079864095895
1772561529172991200,3.4519912109375,0.1110737720876932,0.007531696979352273,-0.000016823270637542008
1772561529183020000,3.46202001953125,0.11137363181710243,0.007299838151969015,0.005415449177473783
1772561529193050000,3.472050048828125,0.11601473562121391,0.0019225883933017029,-0.0005681918093934655
1772561529203079200,3.4820791015625,0.11736264309883117,-0.002294193618092686,-0.0010847447630949318
1772561529213108200,3.492108154296875,0.11885843461453914,-0.006348702306440099,0.0015750307643786071
1772561529223138000,3.502137939453125,0.10883213064074515,0.004201552476221696,-0.0021564291152171788
1772561529233167000,3.5121669921875,0.11691314576566218,0.0020483610642841083,-0.001593068744568154
1772561529243197200,3.522197265625,0.11077683496773243,-0.0012943460928974673,0.001341468603676185
1772561529253226200,3.532226318359375,0.12379472197294235,-0.0002680169861530885,-0.007070111916167661
1772561529263255000,3.542255126953125,0.1208031389415264,0.000827952423854731,0.0001794756195973605
1772561529273285000,3.55228515625,0.10763386076688766,0.0009108769003767519,-0.001804154211981222
1772561529283314200,3.562314208984375,0.11676292364001273,0.0028047232563840224,-0.0017563330148812383
1772561529293344300,3.57234423828125,0.1169125612437725,-0.00042489261487498877,-0.0012004892304074018
1772561529303373000,3.582373046875,0.11122457873523235,-0.0003349264762131497,-0.005267492074146866
1772561529313402000,3.592402099609375,0.11511690999865531,-0.0040225700469687575,0.0018807174463756381
1772561529323432200,3.60243212890625,0.12993337085843085,0.0015637513185385614,0.007839881579112262
1772561529333461200,3.612461181640625,0.11437164458930492,-0.0035837539380183443,0.007516376112634316
1772561529343491300,3.6224912109375,0.11526947021186351,-0.0010560894907684997,0.0013349840639624744
1772561529353520000,3.63252001953125,0.1143728136330843,0.000420033776666969,-0.005323131251521408
1772561529363549200,3.642549072265625,0.11646774008572101,0.0008435929509811103,0.002085007846821099
1772561529373579300,3.652579345703125,0.11511924808621406,-0.002314880213094875,0.003947824310325086
1772561529383608000,3.662608154296875,0.11391980916857719,-0.0074698929226724425,0.008598992850724607
1772561529393638100,3.67263818359375,0.11556523828804492,-0.0014723512746160849,-0.0013414868699852377
1772561529403667200,3.682667236328125,0.1106254437983036,-0.0031414717969251793,-0.007940373678365722
1772561529413696300,3.6926962890625,0.11316694497466087,0.0009884767478099093,-0.0009088036742992699
1772561529423726000,3.70272607421875,0.11062193666696547,-0.0028238343822304156,0.0001108947622589767
1772561529433755100,3.712755126953125,0.12229483880400657,-0.0007146465088007972,0.0019877306179609147
1772561529443785200,3.72278515625,0.12034838091135025,-0.0036515173780266195,-0.002853526267595589
1772561529453814300,3.732814208984375,0.11436229223906993,0.0014183012661291286,-0.008169615856977178
1772561529463844400,3.74284423828125,0.10553542718291282,-0.0031740086599253117,0.005158944532601162
1772561529473873200,3.752873046875,0.12319617155790329,-0.001928903969656676,0.002158082216186449
1772561529483902200,3.762902099609375,0.12394552862048148,0.0026586293165804815,-0.0073890873380005355
1772561529493932300,3.772932373046875,0.10973112530708312,-0.003863507027737796,-0.001185666120611131
1772561529503961000,3.782961181640625,0.10598901616930961,0.005073407973884604,-0.005730323812924325
1772561529513991200,3.7929912109375,0.10703706391751766,0.002880313809821382,-0.00014094284065067767
1772561529524020200,3.803020263671875,0.1206552549034357,0.003523657781234942,0.000771066570887342
1772561529534049300,3.81304931640625,0.11048398950099944,0.0012173809997038916,-0.005515877344645559
1772561529544079400,3.823079345703125,0.10973580148220062,0.000299398505105637,0.010007307012379169
1772561529554108200,3.833108154296875,0.11617080296576023,0.008095815401826984,0.004169960894715041
1772561529564138200,3.84313818359375,0.11916472408473491,0.001838421807764098,0.00028783136489801106
1772561529574167300,3.853167236328125,0.11587386584579944,0.003722829048568383,0.006309466274594887
1772561529584196000,3.863196044921875,0.11782207730412482,-0.0031166204834589734,0.006938987216632813
1772561529594226200,3.87322607421875,0.1079459954559803,-0.003202120509557426,0.007864495430560782
1772561529604255200,3.883255126953125,0.11183598863184452,0.004889233346283436,-0.0005295676989015191
1772561529614285300,3.893285400390625,0.11288345185816287,0.0013759234291268513,-0.0026822339544538406
1772561529624314400,3.903314453125,0.11677286051213741,-0.003067050287267193,0.0026802703262306746
1772561529634343200,3.91334326171875,0.12305471726059913,0.005821847154432907,-0.0030848690717481075
1772561529644373200,3.923373291015625,0.1202110182672739,0.003727290594554506,0.0022504001421388238
1772561529654402300,3.93340234375,0.11347674157619475,-0.000044976219465024764,-0.0010732278552372009
1772561529664432400,3.943432373046875,0.12170797882676124,-0.0003221583261853084,-0.0032539237620308995
1772561529674461200,3.953461181640625,0.1149737021356821,0.008075836626300587,-0.004766173222195357
1772561529684491300,3.9634912109375,0.1061462525576353,-0.010683776935259811,0.0007250902710016817
1772561529694520300,3.973520263671875,0.12200842307806015,-0.004189820939232595,-0.000025152707565575835
1772561529704549400,3.98354931640625,0.12230769828557968,-0.0037786828550742937,-0.0011851911965757608
1772561529714579200,3.9935791015625,0.10943769531846045,-0.008288246401119977,-0.009483940725401043
1772561529724606200,4.003606201171875,0.11676993790268897,-0.005977562872529961,-0.008107766134524717
1772561529734636300,4.01363623046875,0.1236526831537485,0.013343698593205772,-0.010843867434374987
1772561529744665000,4.0236650390625,0.1214087036192417,-0.007399864460341632,-0.0026956505584530533
1772561529754694100,4.033694091796875,0.11736615023016929,-0.0006776983321644365,0.001108353967545554
1772561529764724200,4.04372412109375,0.12050912443101405,0.010023198701255023,0.002404923983570188
1772561529774753000,4.0537529296875,0.11362637917995452,-0.007412408848083578,0.0060443855976220215
1772561529784783000,4.063783203125,0.10285364075303077,-0.006116373121598735,0.002951095757400617
1772561529794812200,4.073812255859375,0.11213000314235687,0.010040300533105619,0.006256685774587095
1772561529804842200,4.08384228515625,0.11377601678371428,-0.0015918677347479388,0.0003307480580173433
1772561529814871300,4.093871337890625,0.11213058766424655,0.006716626869956962,-0.0037857747495640068
1772561529824900000,4.103900146484375,0.11856325106024741,0.0035892246975796297,-0.0005522727210540324
1772561529834930200,4.11393017578125,0.10838789400458335,-0.007057051505194976,0.00514988444331102
1772561529844959200,4.123959228515625,0.11212708053290843,0.0018968831298872828,0.002494529362628236
1772561529854989300,4.1339892578125,0.11527063925564289,0.009286888349917716,-0.00001496010711416602
1772561529865018000,4.14401806640625,0.10718903960883616,-0.0010207761487923562,-0.0026258093257900328
1772561529875047200,4.154047119140625,0.1254436582237482,-0.0019793600818375123,-0.007188030074257403
1772561529885077200,4.1640771484375,0.12454583260118961,0.01372192535502836,0.0011420370414387433
1772561529895106300,4.174106201171875,0.11033259833157062,-0.004379114699945784,0.0014515596483368426
1772561529905136000,4.18413623046875,0.12454933973252773,-0.0015278306217864155,-0.0037227194507140665
1772561529915165200,4.194165283203125,0.12305471726059913,0.007481090170121751,0.001082936398498714
1772561529925195300,4.2041953125,0.11437573624253272,0.0059227685119491065,-0.005458813395164907
1772561529935224300,4.214224365234375,0.12200725403428077,0.0017861253649462012,-0.0006361242127604782
1772561529945253000,4.224253173828125,0.11587269680202007,0.0016231487890006973,0.012304962096037342
1772561529955283200,4.234283203125,0.11737141092717647,-0.003978137250198051,0.0016187968408688902
1772561529965312300,4.244312255859375,0.11138415321111679,0.0004197826149174943,-0.0015671123194042592
1772561529975342300,4.25434228515625,0.11153437533676623,0.009238432398578151,0.004804194544488564
1772561529985371100,4.26437109375,0.10524959597885608,-0.0003265376737806946,-0.001036065049469471
1772561529995400200,4.274400146484375,0.10704524722397327,-0.0028132399229798466,0.007482218114705756
1772561530005430300,4.28443017578125,0.11228314787745475,-0.004503654395067133,0.004977916276734322
1772561530015459300,4.294459228515625,0.11961305237412452,-0.007122458591335453,0.00022335129394195972
1772561530025489200,4.3044892578125,0.12290449513494968,0.005036806857120245,0.0015111078158486634
1772561530035518200,4.314518310546875,0.11153495985865593,0.0008101108064875007,-0.004088191762240604
1772561530045548300,4.32454833984375,0.11333178014755248,0.00017127861340995878,0.0025956242500804363
1772561530055577300,4.334577392578125,0.1058498999595642,0.0016460045082028955,0.005209962333785369
1772561530065606100,4.344606201171875,0.10644845037460327,-0.004606452615838498,0.0008838610292878002
1772561530075636200,4.35463623046875,0.10779577333033084,0.0053987309381132945,-0.003937659109337255
1772561530085666000,4.364666015625,0.12425766330957412,-0.00023375395694747567,-0.0004943228555843234
1772561530095695600,4.374695556640625,0.11857143436670303,0.004185459857946262,0.003756018932117149
1772561530105725000,4.384724853515625,0.12126491123437881,-0.0024000925448257474,-0.0020887707064859568
1772561530115754800,4.394754638671875,0.11303542754948138,0.0019887535312678663,-0.007169243175396695
1772561530125783800,4.40478369140625,0.11438391954898834,0.008163610807876103,-0.0027080533822998404
1772561530135812900,4.414812744140625,0.11797639108300208,-0.0011381097849924116,-0.005248202851787209
1772561530145842700,4.4248427734375,0.11753040088117123,-0.007960722346650436,-0.0010285667296033353
1772561530155871700,4.434871826171875,0.11513795278668403,-0.0004600735261105001,0.0002752093453425914
1772561530165901800,4.44490185546875,0.11274608921408652,-0.003131028034724295,0.005885660505108535
1772561530175930600,4.4549306640625,0.11035013398826121,-0.0068128126868512474,0.0008836692330427467
1772561530185960700,4.464960693359375,0.11603577840924262,0.002276543796970509,-0.010056635179976
1772561530195989800,4.47498974609375,0.11244506044089793,-0.00278033773379866,-0.007191939064394682
1772561530206018800,4.485018798828125,0.12232289585471152,-0.0007296340153785422,-0.0009196173292584717
1772561530216048600,4.495048583984375,0.11873276240825652,0.002502749201701954,-0.0005964132568798959
1772561530226077700,4.50507763671875,0.12083061147034167,-0.001130848927143961,-0.0007374382959213108
1772561530236107800,4.515107666015625,0.1184375788539648,-0.0014829457338666543,0.009569353986531496
1772561530246136800,4.52513671875,0.11993278584778308,0.009379567035473883,0.0056815162351354954
1772561530256165600,4.53516552734375,0.1158931550681591,0.007138478144374676,0.006009250352159142
1772561530266195700,4.54519580078125,0.10586802013814449,0.003736633811634965,-0.001272832947410643
1772561530276224800,4.555224853515625,0.11858780097961424,0.002002361931512132,0.0052317723067943
1772561530286254800,4.5652548828125,0.12786708597838878,0.009205237948452122,0.0029433051765896377
1772561530296283600,4.57528369140625,0.11290332560241222,0.003343825968611054,-0.004070354711450636
1772561530306313700,4.585313720703125,0.12367957116067409,0.0002786982103716582,0.002324196030711755
1772561530316342800,4.5953427734375,0.11933891160786152,0.0003947258054744452,0.00474192469692789
1772561530326371800,4.605371826171875,0.10213292526304721,-0.0026470302103320134,0.006042348904162645
1772561530336402000,4.61540185546875,0.10677227550148963,-0.0001860834568971768,0.0025205953856464475
1772561530346430700,4.6254306640625,0.1250251405507326,0.0017539172955090179,-0.0009500216006767004
1772561530356460800,4.635460693359375,0.12143383806049823,-0.0027657155534019694,0.00026876133824698626
1772561530366489900,4.64548974609375,0.11709610111713409,0.0007781493322225287,-0.0035714926780667155
1772561530376520000,4.65552001953125,0.11036299346983432,0.0006450336050009355,0.0008180201183073222
1772561530386549800,4.6655498046875,0.12203355751931666,0.005244914916157722,0.00956343570239842
1772561530396578800,4.675578857421875,0.1156008941233158,0.000010055603133514523,0.005350137989455834
1772561530406609000,4.68560888671875,0.11290741725564002,0.004599607316520996,-0.001495517521072179
1772561530416638000,4.695637939453125,0.10976444305479525,0.008851383009483106,0.0019551617889199406
1772561530426666800,4.705666748046875,0.10692366667091846,-0.0024695364852668714,-0.0003138243226800114
1772561530436696800,4.71569677734375,0.10512918446958064,-0.005428235593810677,-0.0014317315698601305
1772561530446726000,4.725725830078125,0.11186112307310103,-0.003474585341964848,0.00008641790812835097
1772561530456756000,4.735755859375,0.11635200475156307,-0.0013087947433581574,0.008398081717453897
1772561530466784800,4.74578466796875,0.11680267112851142,0.014276527030486612,0.006649831544328481
1772561530476813800,4.755813720703125,0.11665420256853103,-0.004467130910116248,0.009591529285721481
1772561530486844000,4.765843994140625,0.10932137546241283,-0.0004207141966791823,0.005941135285701602
1772561530496873000,4.775873046875,0.1148562132358551,0.005838953552860766,-0.002250692403083667
1772561530506903000,4.785903076171875,0.10483166282773017,-0.00801233836945612,0.0034743067807517943
1772561530516931800,4.795931884765625,0.11381108809709549,-0.0024231994257774203,0.0004934095401316881
1772561530526962000,4.8059619140625,0.11530687961280345,0.0003589466726174578,0.002122965237032622
1772561530536991000,4.815990966796875,0.1076759463429451,0.0038355641414644192,-0.002193235727958381
1772561530547019800,4.826019775390625,0.10902151573300362,0.005706819639750756,0.005086007160553708
1772561530557049900,4.8360498046875,0.11949497895240783,0.005505566013185307,0.005334931287169456
1772561530567079000,4.846078857421875,0.1003425347149372,-0.0014863661002367733,0.00037006628825329244
1772561530577108700,4.856108642578125,0.11440963851213455,0.004484392572171055,0.0017465788058470934
1772561530587138000,4.866137939453125,0.11126724883317947,0.010954291839175857,-0.00457426737928763
1772561530597167600,4.876167724609375,0.10992109492123127,-0.0036063082631211728,0.00464558818298392
1772561530607197000,4.886197021484375,0.1156096619516611,-0.00009681600455660373,0.006458555889083072
1772561530617226000,4.89622607421875,0.11471300537288188,0.006911199593986384,0.004038534801080823
1772561530627255800,4.906255859375,0.11127075596451759,-0.002535528093297034,0.012212470640148966
1772561530637284900,4.916284912109375,0.12099661568701267,0.003575935957743786,0.004425597889907658
1772561530647314700,4.926314697265625,0.1103723458200693,0.006753346717730164,-0.0005277319348417222
1772561530657343700,4.93634375,0.10812485915422439,-0.0010466184095246716,0.0047898554918821895
1772561530667373800,4.946373779296875,0.10872399409115314,0.0011881092394469305,0.0008024480898398905
1772561530677402600,4.956402587890625,0.10992226396501063,0.007821688335295765,0.004607703858008608
1772561530687432000,4.966431884765625,0.10663023668229579,0.0024378261727513745,-0.0028072394404560328
1772561530697461800,4.976461669921875,0.11560732386410236,0.0021926283731823785,0.0052570437453687184
1772561530707490800,4.98649072265625,0.10603051722347735,0.002966192861832678,-0.0012044256200082599
1772561530717520600,4.996520751953125,0.11306231555640697,0.006850660479208454,0.0003463292196393013
1772561530727549700,5.0065498046875,0.11964637012183665,0.008829719166946597,-0.002651902748271823
1772561530737578800,5.016578857421875,0.1168038401722908,-0.0006668070453917607,-0.0030214119140990077
1772561530747608800,5.02660888671875,0.11560790838599204,-0.000951565103791654,0.001477580005582422
1772561530757637600,5.0366376953125,0.11141864000260829,0.0006075328725157305,0.002571010398631915
1772561530767667700,5.046667724609375,0.11561083099544048,0.0006015643560327589,0.0014808314085938035
1772561530777696800,5.05669677734375,0.11022563082575797,0.0009867734144907445,0.009800121401948855
1772561530787726800,5.066726806640625,0.11741057389378547,-0.0004340897014830261,0.0027504494856111705
1772561530797755600,5.076755615234375,0.11756079601943492,-0.0022978468799032268,0.00020155958724208176
1772561530807784700,5.08678466796875,0.11561609169244766,0.0011537411789642646,0.005940075839776546
1772561530817814800,5.096814697265625,0.11142857687473297,0.014608850557659751,0.004312620768416673
1772561530827843800,5.10684375,0.10349953744113445,0.0024341500780545172,0.00510633756252937
1772561530837874000,5.1168740234375,0.10110767386853695,0.004300893798004836,0.005550574198691174
1772561530847902700,5.12690283203125,0.11307985121309756,-0.0015275109613779932,0.0042666170690674335
1772561530857932800,5.136932861328125,0.10619476787447929,-0.003930165356048383,0.008882842160249128
1772561530867961900,5.1469619140625,0.11098024858534336,0.00780992026568856,0.003310056129749864
1772561530877990700,5.15699072265625,0.10200374592542648,0.004496763429976999,-0.005455772054707631
1772561530888020700,5.167020751953125,0.11876608015596866,0.002743613319448195,0.003995417178561911
1772561530898049800,5.1770498046875,0.11846563590466976,0.008205006830766796,0.009939986530365421
1772561530908079900,5.187079833984375,0.1057452705413103,-0.004215416604792699,0.013147002410748973
1772561530918109000,5.19710888671875,0.10903729782402515,-0.004491388568538241,0.00612808182570152
1772561530928137700,5.2071376953125,0.10769172843396663,0.011818694682745262,0.004270252064568922
1772561530938167800,5.217167724609375,0.11098550928235053,0.002668885849113576,-0.0033994331799447534
1772561530948196900,5.22719677734375,0.11053601194918156,-0.007942835063510574,0.0009599767391104251
1772561530958227000,5.23722705078125,0.10574936219453811,0.005708491007029078,0.003014909108076244
1772561530968255700,5.247255859375,0.11083704072237015,0.0031376724046422166,0.0001674563882406801
1772561530978285800,5.257285888671875,0.1255003568470478,-0.0008795912795467302,0.008156180986668914
1772561530988315000,5.26731494140625,0.12654548198580742,0.013058429078152403,0.006711480337381362
1772561530998343700,5.27734375,0.11337737285494803,0.005620045538595877,0.000408489469345659
1772561531008373800,5.287373779296875,0.10903671330213546,-0.006253959527960978,0.0009774484637193382
1772561531018402800,5.29740283203125,0.1036497595667839,0.001941768017807044,0.0027190314340405164
1772561531028433000,5.307432861328125,0.11113222427666186,-0.0018943395463516934,0.007054932613344863
1772561531038462000,5.3174619140625,0.11996142742037773,0.006352761993627064,0.003048263388406485
1772561531048490800,5.32749072265625,0.11457505820691585,0.007781707951356656,0.0047855811755638565
1772561531058520800,5.337520751953125,0.11158230613172053,-0.000006986863212659955,0.001180487621994689
1772561531068550000,5.3475498046875,0.11008359200656413,-0.008785354868834838,0.008927603750582784
1772561531078580000,5.357580078125,0.10559446389377117,0.0018981435052119195,0.005837610979145392
1772561531088609000,5.367609130859375,0.10858721596896648,0.0021680875869700684,-0.0015717793613672256
1772561531098638000,5.37763818359375,0.1241495267599821,-0.002690704955277033,0.004542949792416766
1772561531108668200,5.387668212890625,0.11711889747083186,-0.005213912423118017,0.00639370135879144
1772561531118697200,5.397697265625,0.1130786821693182,0.0024349811951164153,-0.0006366539357230067
1772561531128727000,5.40772705078125,0.10664484972953796,0.00124915067772381,0.0017453732294496148
1772561531138756000,5.417756103515625,0.10709493158459663,-0.000983841671887785,0.008376956731034443
1772561531148786200,5.4277861328125,0.10859130762219428,-0.00005583097361959517,0.00027630532388575374
1772561531158815200,5.437815185546875,0.1073924532264471,0.002421363661717623,0.001248529623216018
1772561531168844000,5.447843994140625,0.12265724237561225,0.001488370827655308,0.0026795853396411984
1772561531178874000,5.4578740234375,0.11786942357718944,-0.00017458481534849852,0.001801076338905841
1772561531188903200,5.467903076171875,0.09722001878023147,-0.0030233846754767,0.00029684578841552135
1772561531198933200,5.477933349609375,0.11188333490490912,0.0057862415515119205,-0.0011273509289603679
1772561531208962000,5.487962158203125,0.11532558431327343,-0.000008850026736035942,0.003374755396414548
1772561531218991000,5.4979912109375,0.11278116052746773,0.000010968918586149812,0.0036173228474799543
1772561531229021200,5.508021240234375,0.11727028864026069,0.012772789670340717,0.0010888546826317905
1772561531239050200,5.51805029296875,0.1045516768425703,0.010109260416356847,0.01036160034276545
1772561531249080000,5.528080078125,0.1006610991448164,0.0032889265767531467,0.000984928517276421
1772561531259109000,5.538109130859375,0.10515198082327842,0.005258916042046621,0.00602037453437224
1772561531269138200,5.54813818359375,0.1068003325521946,0.0023998368164990097,0.009132195545127614
1772561531279168300,5.558168212890625,0.11218787080943583,0.0040497046490665526,0.007220452772825956
1772561531289197000,5.568197021484375,0.10620470474660396,0.007068426849157549,0.0017533373401965944
1772561531299227000,5.578226806640625,0.10261398677825927,0.00029347565439529714,-0.0008786459980532526
1772561531309256200,5.588256103515625,0.10246376465260981,-0.0018772377145010977,-0.004169750832160935
1772561531319286000,5.5982861328125,0.11383563801646232,0.004959896562853828,0.00182186339860782
1772561531329315000,5.608315185546875,0.10590367597341536,0.002814418099913746,0.010117434589657932
1772561531339344100,5.61834423828125,0.09782324537038803,0.007010906241950578,0.0036827436333522197
1772561531349374000,5.6283740234375,0.10904606565237045,0.005326738847559318,-0.003606783187156543
1772561531359403000,5.638403076171875,0.111292383274436,-0.0019991150950780137,0.0003970273604150861
1772561531369433000,5.64843310546875,0.10650164186656474,-0.0017186587524600325,0.008901903053745627
1772561531379462000,5.6584619140625,0.11428162821829319,0.000760686740768142,0.006540251956321299
1772561531389491200,5.6684912109375,0.10575111576020717,0.0023194467903580513,-0.0049213181181345135
1772561531399521000,5.67852099609375,0.11652560775279998,0.0020865878825541587,0.0006822192436549813
1772561531409550000,5.688550048828125,0.12759703686535356,0.001201347746932879,0.006624578372063115
1772561531419580000,5.698579833984375,0.11622457897961139,0.0064139038966037325,0.006458053565584123
1772561531429609000,5.70860888671875,0.1091921961247921,0.0006050440879072994,0.0067838331875391305
1772561531439638000,5.718637939453125,0.11936579961478709,-0.0008153989029582589,0.0007824921471998095
1772561531449668000,5.728668212890625,0.10933891111910342,-0.0002515362088102847,-0.005401365853194147
1772561531459697000,5.73869677734375,0.11831892091035842,0.004828634866001084,0.0074491012963932
1772561531469727000,5.74872705078125,0.09871814838349818,-0.0034269194084918125,0.002782223730208352
1772561531479756000,5.758756103515625,0.10859364570975304,-0.004826986331609077,0.014014670357061549
1772561531489784800,5.768784912109375,0.11353227115571499,0.004620709470054134,0.004005655444785952
1772561531499815000,5.77881494140625,0.10979250010550022,0.0028372190201887857,0.002968512683082372
1772561531509844000,5.788843994140625,0.11308335834443568,0.0071168599676107985,0.006896700711175799
1772561531519874000,5.7988740234375,0.10230828182995319,0.006347072038357146,-0.0018809823078569023
1772561531529903000,5.808903076171875,0.10560030911266803,-0.0015589335795259103,0.0015723456169478595
1772561531539932000,5.818931884765625,0.1118845039486885,-0.0033669556824490426,0.005546939203189685
1772561531549962000,5.8289619140625,0.11876724919974803,0.000794694041647017,0.011663476721569895
1772561531559991000,5.838990966796875,0.11173311277925968,0.003894920512731187,-0.003950883917091414
1772561531570021000,5.849021240234375,0.11098609380424022,0.0014963029723614454,0.009095461997622624
1772561531580050000,5.8590498046875,0.11188391942679882,0.006444573029503226,0.00563780495757237
1772561531590079000,5.869078857421875,0.11457798081636428,0.0019126423880225047,0.0006886946502141654
1772561531600109000,5.879109130859375,0.10440379280447959,0.0003138243226800114,-0.006363653280399739
1772561531610138000,5.88913818359375,0.11652619227468967,-0.001581474204896949,0.005250175613164902
1772561531620168000,5.89916796875,0.11413315965831279,-0.0006222646507667377,0.005597774341283366
1772561531630197000,5.909197021484375,0.10934358729422092,0.01015289862868376,0.0017742431309074162
1772561531640226000,5.91922607421875,0.11293547430634499,0.003012438589776866,0.0013691968608181924
1772561531650256100,5.929256103515625,0.10470482157766818,0.0025357153229648246,0.001273426602454856
1772561531660285000,5.939284912109375,0.1124853924512863,0.011604691172461025,0.015314016852062195
1772561531670315000,5.94931494140625,0.10425590876638889,0.009125592274405061,-0.0051742973653599615
1772561531680344000,5.959343994140625,0.10216156683564186,-0.0016214363225270062,0.005302910447400063
1772561531690373000,5.969373046875,0.11428045917451381,0.007283320842008106,0.0018101090287324041
1772561531700403000,5.97940283203125,0.10874620592296123,0.0029533425134140997,0.0028417444982565938
1772561531710432000,5.989431884765625,0.1065033954322338,-0.000042154074716381726,0.0008568086255807429
1772561531720462000,5.999462158203125,0.11517945384085178,0.0026595152325695377,0.002412029577791691
1772561531730491100,6.0094912109375,0.12401041055023669,0.0038613424701150504,0.004104238714743406
1772561531740520000,6.01952001953125,0.11024375100433825,0.002156735075893812,0.0008649371331091969
1772561531750550000,6.029550048828125,0.1177273847579956,-0.0014417141077574342,0.0047859465017449105
1772561531760579000,6.0395791015625,0.1085994909286499,0.004096206105337478,0.010186216376395895
1772561531770609200,6.049609130859375,0.10740355914235114,-0.0002845662621548399,0.003711768798436969
1772561531780638000,6.059637939453125,0.11323884116709232,0.0009915728871943428,0.016568455626256764
1772561531790667000,6.0696669921875,0.1085994909286499,0.009254625481553376,0.007535884530702606
1772561531800697000,6.079697021484375,0.11398761370778084,0.0035882657163543623,0.002378309971280396
1772561531810726100,6.08972607421875,0.11189151821136474,0.007238107160525396,0.008342588670551777
1772561531820755000,6.0997548828125,0.11488719289600849,0.003540083759650588,0.00760298581700772
1772561531830785000,6.109784912109375,0.113239425688982,-0.002710848127584904,0.006834759657178073
1772561531840814000,6.11981396484375,0.1112917987525463,0.01192690429757349,0.004199734978470951
1772561531850844200,6.12984423828125,0.11608020207285881,0.004644588102563284,0.008008223883341997
1772561531860873000,6.139873046875,0.09767536133229732,-0.0013973909088410435,0.005597372482484206
1772561531870902000,6.149902099609375,0.1065033954322338,0.004588072142354212,-0.0010368779002223162
1772561531880932000,6.15993212890625,0.10306173054575919,0.00018589622722938655,0.0010960424752440303
1772561531890961200,6.169961181640625,0.11323825664520264,-0.00521121357595548,-0.0018013959993142634
1772561531900991000,6.179990966796875,0.120419692581892,0.008418380153388716,-0.0032203228865284473
1772561531911020000,6.19002001953125,0.11293722787201405,0.013329784232284873,0.0004964234811253845
1772561531921049000,6.200049072265625,0.11189093368947506,0.0014188949211733416,0.011601745730126276
1772561531931079200,6.2100791015625,0.11009528244435786,0.002634134196140803,-0.00005951163489371538
1772561531941108000,6.22010791015625,0.11099427711069583,0.002906996320770122,0.005341625889437273
1772561531951138000,6.230137939453125,0.10845160689055919,-0.0005216355541953816,0.008380957052716985
1772561531961167000,6.2401669921875,0.10994856745004654,-0.005431336299772374,0.008860365466959773
1772561531971196200,6.250196044921875,0.11488543933033943,0.003609787994995713,0.012963773064641282
1772561531981226000,6.26022607421875,0.10725509058237075,0.006585397139145061,-0.0033505982026923445
1772561531991255000,6.270255126953125,0.11324059473276138,0.0045538091131486,-0.001965062128426507
1772561532001284000,6.2802841796875,0.11473638624846935,0.0009287185177439823,0.002213419999461621
1772561532011314200,6.290314208984375,0.11189268725514412,-0.0013384637958370148,0.006821817977214231
1772561532021343000,6.300343017578125,0.11787702236175536,-0.0024452559939585625,0.008797036173474044
1772561532031373000,6.310373046875,0.11293839691579341,0.0014434220076538621,0.00674997658370994
1772561532041402000,6.320402099609375,0.11668109057545661,0.0036519694691756737,0.0037584666175302117
1772561532051431200,6.33043115234375,0.11069733999073504,0.0017969664193689821,0.006740907361265271
1772561532061461000,6.3404609375,0.11144961966276168,0.0030726078117964788,0.008934544948022812
1772561532071490000,6.350489990234375,0.12087854226529597,0.0016360996021190658,0.003920159985264763
1772561532081520000,6.36052001953125,0.10396949304044246,0.0004954553667455911,0.0046517987280618395
1772561532091549000,6.370548828125,0.11264905858039856,0.003393702125479467,0.0011629336989950388
1772561532101578000,6.380577880859375,0.10651450134813785,-0.0006521026666043326,0.010631850385200231
1772561532111608000,6.390608154296875,0.11040566356778145,0.004197465389571152,0.008823768916772678
1772561532121637000,6.40063720703125,0.10830898354947566,-0.0044042856738204135,0.0017254081536550074
1772561532131666000,6.410666015625,0.10905775609016417,0.004015469019324518,0.002928144140075892
1772561532141696000,6.420696044921875,0.11190087056159972,0.011965510141756385,0.0009926003670785576
1772561532151725000,6.43072509765625,0.11070435425341128,0.002350467549706809,0.004324512135609984
1772561532161755100,6.440755126953125,0.1092050556063652,0.0061789397966815155,0.013880760045396163
1772561532171784000,6.450783935546875,0.11249708288908004,0.009582281966763547,0.010601299983309581
1772561532181813000,6.46081298828125,0.12102467273771762,0.004390316513972357,0.002143259106390178
1772561532191843000,6.470843017578125,0.1115969191789627,0.0027708164202049374,0.0001525693463627249
1772561532201872100,6.4808720703125,0.10366554165780544,-0.007725374654238112,0.0014804934818763286
1772561532211901000,6.49090087890625,0.11428864248096943,-0.0019658156136749313,-0.00037810346423648294
1772561532221931000,6.500930908203125,0.1039630632996559,0.0006011305311927572,0.008995691417576744
1772561532231960000,6.5109599609375,0.11009937409758568,0.0008415060251718387,-0.0030928879814222454
1772561532241990100,6.520990234375,0.11383914514780044,0.006836645653587765,-0.0034596572008915244
1772561532252019000,6.53101904296875,0.11234276911020279,0.007294476990262046,0.005372550750663504
1772561532262048000,6.541048095703125,0.10785305647552013,-0.0012814592118607832,0.008028709548944607
1772561532272078000,6.551078125,0.10531213982105254,0.0028651071075350043,-0.002373268469981849
1772561532282107100,6.561107177734375,0.11443886460661888,0.0006272467865608632,0.00044889454497024415
1772561532292137200,6.57113720703125,0.11668109057545661,0.0005943400308024137,0.003295324351498857
1772561532302166000,6.581166015625,0.11323825664520264,0.0026486376455286515,-0.00032969774524681266
1772561532312195000,6.591195068359375,0.10889935065805911,-0.0011332235473208128,0.010139043633267283
1772561532322225200,6.60122509765625,0.10919804134368896,0.004162015050277114,0.0006978917368222027
1772561532332254000,6.61125390625,0.11757774715423583,0.01288474387852475,-0.00005223251073621213
1772561532342283000,6.621282958984375,0.10680734681487083,0.0010180499021662398,0.0022872615538071838
1772561532352313000,6.63131298828125,0.11922902149260044,-0.0015704367876518517,0.008652138676913454
1772561532362342100,6.641342041015625,0.10905249539315699,0.006293186426651664,0.005695809621969238
1772561532372372200,6.651372314453125,0.10605974331796168,-0.001230747371353209,0.005943993963068351
1772561532382401000,6.661401123046875,0.1147387243360281,0.004204470519092865,0.00547220259970054
1772561532392430000,6.67143017578125,0.11788111401498318,0.008632799222203903,-0.000850936007220298
1772561532402460200,6.681460205078125,0.11593524064421654,0.004949982523615472,0.005658418487338349
1772561532412489000,6.691489013671875,0.11399053631722926,-0.0015029930080519987,0.01229424890577793
1772561532422518000,6.70151806640625,0.10516016412973403,0.010759376621851696,-0.0010637659071478993
1772561532432548000,6.711548095703125,0.10366437261402606,0.0016876471262658014,0.010159803293505684
1772561532442577200,6.7215771484375,0.10560966146290302,0.004266877363971434,-0.0009290062121115625
1772561532452607000,6.73160693359375,0.11593465612232684,0.000004890804248861968,0.006681514457380399
1772561532462636000,6.741635986328125,0.11428922700285911,0.009066340934415348,0.01139553736723028
1772561532472665000,6.7516650390625,0.1115969191789627,0.0011704548517474905,0.008011091693863272
1772561532482695200,6.761695068359375,0.12326748322844505,0.013194650077912956,0.004502161124302074
1772561532492724000,6.771723876953125,0.11533785927295684,0.014970290581462905,-0.0020207652378827334
1772561532502753000,6.7817529296875,0.11892916176319121,0.0022423994987737384,0.0007347622816450893
1772561532512783000,6.791783203125,0.11234686076343059,0.005589157209987752,0.01071386611284688
1772561532522812200,6.801812255859375,0.11234569171965121,0.005562059140508063,0.007836136985756456
1772561532532841000,6.811841064453125,0.10830430737435817,-0.007443890831735916,0.008864046128233894
1772561532542871000,6.82187109375,0.11264379788339138,0.006533685218216851,0.00008056355607695877
1772561532552900000,6.831900146484375,0.11414017392098903,0.007703582947538234,0.01102990065892227
1772561532562930200,6.84193017578125,0.11159808822274207,-0.0009738363011041655,0.015800174667499958
1772561532572959000,6.851958984375,0.10695873798429965,0.013560524248238653,-0.0008733031026553362
1772561532582988000,6.861988037109375,0.10740706627368926,-0.0009360661405604332,0.0022288276311475783
1772561532593018000,6.87201806640625,0.11488777741789817,0.0038275406652130183,0.000346502749575302
1772561532603047200,6.882047119140625,0.11204407842457294,0.005005365972663276,0.0048248354737181216
1772561532613076000,6.892075927734375,0.11174304965138435,-0.004143753307801671,0.007482428177259862
1772561532623106000,6.90210595703125,0.11189268725514412,0.0071003609239589415,-0.000026458748662844297
1772561532633135000,6.912135009765625,0.11652969940602778,0.007432730116904713,0.005660181186161935
1772561532643165200,6.922165283203125,0.09752513920664786,0.002729498029127717,0.00042621692228130996
1772561532653194000,6.932194091796875,0.11877367894053459,0.00615437617758289,0.0014821831154637037
1772561532663223000,6.94222314453125,0.10410802472829818,0.0022371479349210855,0.004476597424782812
1772561532673253000,6.952253173828125,0.10755027413666247,-0.00148656246305909,-0.0080644384494517
1772561532683282200,6.9622822265625,0.11398527562022208,0.004583743027108721,0.0005252568499650806
1772561532693311000,6.97231103515625,0.11219196246266365,-0.0037763310677837577,0.0026209870202001185
1772561532703341000,6.982341064453125,0.10695581537485122,0.0010409238876774906,-0.002685010433429852
1772561532713370000,6.9923701171875,0.11354045446217059,0.006075132362334989,0.004262516282685101
1772561532723399000,7.00239892578125,0.11338964781463146,0.01169637891075108,0.004080090654175728
1772561532733429000,7.012428955078125,0.11548398974537849,0.002683950987504795,0.008983772650919854
1772561532743458000,7.0224580078125,0.11503507693409919,0.003047528169467114,0.010445214372454211
1772561532753488100,7.032488037109375,0.11398702918589114,0.011292624982027336,-0.000595098082628101
1772561532763517200,7.04251708984375,0.10515841056406497,0.00562373076644726,0.0031260504655074325
1772561532773546000,7.0525458984375,0.11413900487720965,-0.0028933605210622773,0.0053700391331687565
1772561532783576000,7.062576171875,0.10949907011687755,0.0018862749709049238,0.009947037325659765
1772561532793605000,7.072605224609375,0.11697978126108646,-0.0004115582092665136,0.01256715669617988
1772561532803634000,7.082634033203125,0.11323884116709232,0.004513148309197277,0.005329780188016593
1772561532813664000,7.0926640625,0.10037059176564216,0.008600125361885876,0.004005801575258374
1772561532823693000,7.102693115234375,0.10171908376514911,0.0020847566850716245,0.0021309658803977073
1772561532833722000,7.11272216796875,0.11234043102264403,0.004212416363530792,0.01008160522445105
1772561532843752200,7.122752197265625,0.10575345384776591,0.01146853867135942,0.00630317353112623
1772561532853781000,7.132781005859375,0.11188567299246788,0.0005707490926608443,0.0001113788194488734
1772561532863811000,7.14281103515625,0.12101473586559294,-0.0030003462931839746,0.0050413643012288956
1772561532873840000,7.152840087890625,0.11921674653291701,0.01018373672494199,0.009991241793567314
1772561532883869000,7.162868896484375,0.11008885270357131,0.007054663185286335,0.0037453605407848953
1772561532893899000,7.17289892578125,0.11023732126355171,-0.0010743603663984685,-0.0020520919579081237
1772561532903928000,7.182927978515625,0.11113456236422062,0.002701029986469075,0.005658537218347192
1772561532913957000,7.19295703125,0.11053484290540218,0.0067398707482265304,0.004546109863882884
1772561532923987200,7.2029873046875,0.10499942061007023,0.0014389741613995283,-0.008220469261379912
1772561532934016000,7.21301611328125,0.1097889929741621,-0.0001299647889100015,0.003179424620559439
1772561532944045000,7.223045166015625,0.10216039779186248,0.009359556293906644,0.005912009655917063
1772561532954075100,7.2330751953125,0.11009002174735069,0.005354823297727853,0.004924998779408633
1772561532964104000,7.24310400390625,0.10484978300631045,0.00706365477591753,0.0044689986402168865
1772561532974134000,7.253134033203125,0.11472644937634467,0.007624772957130335,0.014324293428659438
1772561532984163000,7.2631630859375,0.11966273673474788,0.0062483974368544295,0.007484346139710396
1772561532994192100,7.273192138671875,0.1151741931438446,-0.0002308404806535691,0.004620627271663397
1772561533004222000,7.283221923828125,0.10559680198132991,0.003412534690112807,0.006232428116165101
1772561533014251000,7.2932509765625,0.11128127735853195,0.001486151471105404,-0.004456221357034519
1772561533024280000,7.303280029296875,0.11442308251559734,-0.0014334988352609798,0.0038235312103759495
1772561533034310100,7.31331005859375,0.11262684674859046,0.0036988864839775488,0.009032132704136893
1772561533044339000,7.3233388671875,0.1096317565858364,-0.00441086611165665,0.0061773186617530874
1772561533054368000,7.333367919921875,0.11935820083022117,-0.003875457760435529,-0.006737098835827782
1772561533064398000,7.343398193359375,0.10544248820245265,0.011315293471561743,0.005540984386438503
1772561533074427100,7.35342724609375,0.1073883615732193,0.010271049682213925,0.007990578628797084
1772561533084455200,7.363455078125,0.11382277853488922,0.008686191643564961,0.011302525321533903
1772561533094485200,7.3734853515625,0.11187690516412258,0.008612158292974344,0.0015045136782806366
1772561533104514300,7.383514404296875,0.11292378386855124,0.003926644524978474,0.00589463839600794
1772561533114543400,7.39354345703125,0.110529582208395,-0.0006171957500046119,0.007174878331739455
1772561533124573200,7.4035732421875,0.1030482865422964,-0.0017599451774964108,0.006677048344817012
1772561533134602200,7.413602294921875,0.11142857687473297,-0.0016143718275008722,-0.004182080590771511
1772561533144632300,7.42363232421875,0.12399755106866359,0.006148832352785393,0.0021230931011959908
1772561533154661400,7.433661376953125,0.10739011513888835,0.004159284237073734,0.0044981151368469
1772561533164690200,7.443690185546875,0.10544365724623203,-0.0026125799514586105,0.009354660923080519
1772561533174720300,7.45372021484375,0.09990472781956196,0.0048110626766923814,0.00032609928236342967
1772561533184749300,7.463749267578125,0.10409399620294571,0.0009393860422307625,0.006612093349825591
1772561533194778400,7.4737783203125,0.11486731915175914,0.006135447714827023,0.0018801237913314251
1772561533204808200,7.48380810546875,0.1124731174916029,0.002320620400714688,0.002002179268421605
1772561533214837200,7.493837158203125,0.10184709405899048,0.0038076897538499906,-0.0019308949973434208
1772561533224866300,7.5038662109375,0.10079904631078243,0.0067006758155766875,-0.0026638032486196606
1772561533234896400,7.513896484375,0.1064858597755432,0.006495636496460065,0.003994905721908435
1772561533244925200,7.52392529296875,0.11247077940404414,0.005621666673524305,-0.00387163553526625
1772561533254954200,7.533954345703125,0.10379062934219836,0.008633064083685167,0.0031024869268294424
1772561533264984300,7.543984375,0.10932780520319937,0.004116102682473138,0.004263603128073737
1772561533275013000,7.55401318359375,0.10902560738623142,0.0019065140413353219,0.00009631824763491749
1772561533285042200,7.564042236328125,0.11082008958756923,0.010654267712985164,0.007577321652788668
1772561533295072300,7.574072265625,0.11052022985816001,0.012586482451157644,-0.00015867942674085498
1772561533305101300,7.584101318359375,0.1154571017384529,0.0020144770609913393,0.008349155408656224
1772561533315130000,7.594130126953125,0.12398702967464924,0.01270884845550172,0.010278214641939848
1772561533325160200,7.60416015625,0.11201543685197829,0.006215682477341033,-0.0046070828035008156
1772561533335189200,7.614189208984375,0.10902268477678298,0.009435471074329689,-0.013082504073483868
1772561533345219300,7.62421923828125,0.10946984402239322,-0.0005062553219730034,-0.006028101183101535
1772561533355248000,7.634248046875,0.10707564236223698,0.001026772064738907,0.004368132081627845
1772561533365277200,7.644277099609375,0.1123117894500494,0.007200090404809453,0.01330748106893152
1772561533375307300,7.654307373046875,0.11006605634987354,0.0070576040610438205,0.010444273657537997
1772561533385336300,7.66433642578125,0.11395721856951713,0.006953175572189502,0.006361315192840993
1772561533395365000,7.674365234375,0.10752163256406784,0.0017707222998375072,-0.0067092061819043
1772561533405395200,7.684395263671875,0.1153004498720169,-0.001986251046927646,0.0017530268129426986
1772561533415424300,7.69442431640625,0.10617080247700214,0.006235684085753746,-0.0018742146403528748
1772561533425453300,7.704453369140625,0.1212871230661869,0.003039596024760976,-0.0011534717509057372
1772561533435483100,7.714483154296875,0.10467618000507355,0.0017689870004775,0.011781915469467639
1772561533445512200,7.72451220703125,0.10332885704934597,-0.0037776416754582895,-0.006220819876762106
1772561533455541200,7.734541259765625,0.11006254921853542,0.003834641692857258,-0.002627891685022041
1772561533465571300,7.7445712890625,0.10422551362812518,0.0027115468139061703,0.005875842363992706
1772561533475600100,7.75460009765625,0.11155892525613308,-0.001759045561775565,0.002926774166896939
1772561533485629400,7.76462939453125,0.11230594423115253,-0.003889614149951376,-0.004163211493520066
1772561533495659300,7.7746591796875,0.10886194125711918,0.0074754230477381495,0.0037547402904834597
1772561533505688300,7.784688232421875,0.11290274108052253,0.0027724558214424176,-0.0025105580488219855
1772561533515717400,7.79471728515625,0.10826163727641105,0.004089712432469241,-0.0025330986741930244
1772561533525747200,7.804747314453125,0.11484510731995105,0.002794959914195351,-0.008179470530711113
1772561533535776300,7.8147763671875,0.10915829385519027,-0.003373851214116439,0.003825686634844169
1772561533545805300,7.824805419921875,0.11559095725119113,0.010383990271086803,0.0010149765956681221
1772561533555835100,7.834835205078125,0.1102028344720602,-0.003275788533966988,0.00243572098063305
1772561533565864400,7.844864501953125,0.10900573364198207,-0.0029959852118976414,0.0017173435782082379
1772561533575893500,7.8548935546875,0.12112462598085402,0.0028245833009015765,0.0033928299092222
1772561533585923300,7.86492333984375,0.10167056844830512,0.0019763689737301317,0.0011984525369480251
1772561533595952400,7.874952392578125,0.12471417490541935,0.0021248649331741033,-0.002982596007362008
1772561533605982200,7.884982177734375,0.10825286944806575,-0.002767756813438609,0.0026134795671794563
1772561533616011300,7.89501123046875,0.10855331369936466,-0.004247588141611777,0.00030811610110104083
1772561533626040300,7.905040283203125,0.1066080248504877,0.0006919140871847048,-0.002021943414816633
1772561533636070100,7.915070068359375,0.11618892314434051,0.0035709629551041867,0.004230705505469814
1772561533646099500,7.925099365234375,0.11903262213766574,0.0047334080303320656,-0.0013348835992626844
1772561533656128500,7.93512841796875,0.10466565861105918,-0.002746403498155996,-0.003088220939459279
1772561533666158300,7.945158447265625,0.11094868440330027,-0.00030377328612376,-0.0022871976217254996
1772561533676187400,7.9551875,0.10780395663678645,-0.0009464916364522651,0.007184650807082652
1772561533686216400,7.965216552734375,0.11229600735902785,-0.003332825083984062,0.0036896208987105637
1772561533696246300,7.975246337890625,0.1060153196543455,-0.0022923258879920467,-0.00044520475054159756
1772561533706275300,7.985275390625,0.11544073512554168,0.004075633674766868,-0.004487977335322648
1772561533716304400,7.995304443359375,0.11439327189922333,-0.002124490473838523,0.006847144214715808
1772561533726333400,8.00533349609375,0.120380529615283,0.0010805754780536516,0.007704619560576975
1772561533736362200,8.0153623046875,0.10556874493062496,0.00834937917094212,0.006971884839236736
1772561533746392300,8.025392333984374,0.10990765091776847,0.0068944813546258955,0.0001018986050505191
1772561533756421400,8.03542138671875,0.11783844391703605,-0.0007058604141464456,-0.005073777866642922
1772561533766450400,8.045450439453125,0.11589023245871066,0.0047906318100169295,0.0063303446658421305
1772561533776480500,8.05548046875,0.1081067389756441,0.004304437461961061,0.0045450686842668795
1772561533786509300,8.06550927734375,0.10810966158509254,-0.0005778364205732942,0.006070524685876443
1772561533796538400,8.075538330078125,0.108856680560112,0.006684268103470094,0.005113808482931926
1772561533806568400,8.085568359375,0.11633563813865185,0.0018709038718370719,0.0030556155778001994
1772561533816597200,8.09559716796875,0.11259352900087832,-0.0032165782931726423,-0.008827833170536904
1772561533826626300,8.105626220703124,0.11678162834048271,0.00594371996843256,-0.004096932191122323
1772561533836656400,8.115656494140625,0.1060071363478899,0.0015763824712485073,0.0014683555195108054
1772561533846685400,8.125685546875,0.10855039108991622,-0.006029283926612697,-0.004643880283087491
1772561533856714200,8.13571435546875,0.10690320840477943,0.008718153117829933,-0.006656690543377771
1772561533866744300,8.145744384765624,0.10630348894596099,0.0038288604060420766,0.00965606415560469
1772561533876773400,8.1557734375,0.10824702422916889,-0.0035783790765795856,0.007758751767454669
1772561533886802400,8.165802490234375,0.109893622392416,0.0031779267832171172,-0.007176230038609355
1772561533896832300,8.175832275390626,0.10510463455021381,-0.005049858134938403,-0.00317852043826133
1772561533906861300,8.185861328125,0.10705109244287013,-0.003504341159411706,0.00899940861146897
1772561533916890400,8.195890380859375,0.10630290442407131,0.0047176898713922125,0.0035291239742189645
1772561533926920400,8.20592041015625,0.1091436808079481,0.0033526942616561427,-0.0018006470806431025
1772561533936949200,8.21594921875,0.11737257997095585,-0.005211469304282218,0.0058686454382259395
1772561533946978300,8.225978271484376,0.11123802273869514,0.007569754834263585,0.0009275631736963987
1772561533957008400,8.23600830078125,0.11198562623560428,0.0019514948273776098,-0.0040916166951879855
1772561533967037400,8.246037353515625,0.11707272024154662,-0.004393001661403105,-0.008736949149845168
1772561533977066200,8.256066162109375,0.11692308263778686,0.009456253567454404,-0.0015172087630722672
1772561533987096300,8.266096435546874,0.10300444740056991,0.000775181057001464,0.007000069754105061
1772561533997125400,8.27612548828125,0.11407704555690287,-0.006925100255175494,-0.0007741809765808284
1772561534007154200,8.286154296875,0.11632160961329936,0.008153308609570377,0.0037362273862585425
1772561534017184300,8.296184326171876,0.11108546252548694,-0.0022824849139899015,-0.006844714795611799
1772561534027213300,8.30621337890625,0.11826806750595568,-0.006701899658283219,-0.006964614848233759
1772561534037242400,8.316242431640624,0.1077887590676546,0.008050916814175434,-0.005366239740885794
1772561534047272200,8.326272216796875,0.11407120033800601,-0.001213303046207875,-0.005483783439639955
1772561534057301200,8.33630126953125,0.1037456211566925,-0.008238557473919354,0.007872359076607972
1772561534067330300,8.346330322265626,0.10494213746488093,0.009417665989580564,0.002621699406253174
1772561534077360400,8.3563603515625,0.10763269172310828,0.003958153908094391,0.009091342944931238
1772561534087389700,8.3663896484375,0.10523790554106235,-0.0070886019875062625,0.0032044677302706984
1772561534097418800,8.376418701171875,0.10523907458484172,0.00653272167041432,-0.0032939087125472724
1772561534107448800,8.38644873046875,0.10464052416980266,0.0006795523625332862,-0.002378035976644605
1772561534117478000,8.396477783203125,0.11481471218168735,-0.00768195563761983,0.004176235371874645
1772561534127506700,8.406506591796875,0.11196984414458275,0.0034403086130274456,-0.0008366882861591875
1772561534137536800,8.416536865234375,0.10957622700631618,-0.00029007812091149385,0.0027104462687857446
1772561534147565800,8.42656591796875,0.11271803216338157,-0.0020016221459954976,0.008721852045413106
1772561534157595000,8.436594970703124,0.10463409442901611,0.0033343411876354365,0.007799001579452305
1772561534167624700,8.446624755859375,0.11136486398875713,-0.002640335608064197,0.007402293879445642
1772561534177653800,8.45665380859375,0.11450725366771221,0.005084714819188229,-0.0032847572917118666
1772561534187682800,8.466682861328126,0.10926935301423073,0.0032261681054253128,0.012340289137745276
1772561534197713000,8.476712890625,0.11375672756135463,-0.002389881678065285,0.0005075841959565878
1772561534207741700,8.48674169921875,0.1037327616751194,-0.002438597924308851,-0.004202904183091595
1772561534217770800,8.496770751953125,0.10942074418365955,0.006305301556130871,-0.0008342223344370722
1772561534227800800,8.50680078125,0.11166530824005604,-0.0015754691557958722,0.0005210007999558001
1772561534237830000,8.516829833984374,0.11480711339712142,-0.006642936012661084,-0.002828419225802645
1772561534247858700,8.526858642578125,0.10837152739167213,-0.0010788264789618552,-0.008898779514897615
1772561534257888800,8.536888671875,0.10836918930411338,-0.0022537474432727323,0.004076875783782452
1772561534267917800,8.546917724609376,0.11106325069367885,-0.0021779513938585296,-0.00011208207234740257
1772561534277946600,8.556946533203124,0.11899229012727737,0.002907484944537282,-0.0027575733461417257
1772561534287976700,8.566976806640625,0.11315583905875683,-0.0017498621748993173,0.005526827996922656
1772561534298005800,8.577005859375,0.10986614986360073,-0.002140044235996902,-0.005508662152569741
1772561534308034800,8.587034912109376,0.11301087763011455,-0.0019774238530779254,0.008564387328224256
1772561534318065000,8.59706494140625,0.10433189661204814,-0.00021093477036338297,0.01143192385486327
1772561534328093700,8.60709375,0.10987024151682853,0.009011962132365442,0.0010279456750955432
1772561534338122800,8.617122802734375,0.11121522638499737,0.005909598503122106,0.00014081497648730872
1772561534348152800,8.62715283203125,0.10762275485098362,-0.0058490685214987025,0.002417135011171922
1772561534358181600,8.637181640625,0.10507774654328822,0.003415671928692609,0.008640977962082252
1772561534368213000,8.647212890625,0.12034195117056369,-0.003622163419378921,-0.0015229078514967112
1772561534378242800,8.657242919921876,0.1110655887812376,-0.0048106379850069055,0.0067681150285992765
1772561534388271900,8.66727197265625,0.11016893220245838,0.005070617795176804,-0.0007497406550683081
1772561534398301000,8.677301025390625,0.1031353803038597,-0.0030681188663467763,-0.011605462924018501
1772561534408331000,8.6873310546875,0.09998831444978713,-0.0026522315418347716,-0.006612102482980117
1772561534418359800,8.69735986328125,0.11360650543570518,0.005057986642466858,0.00021008082041516898
1772561534428388900,8.707388916015624,0.11315876166820525,0.002771245678467676,0.004055476802727207
1772561534438419000,8.7174189453125,0.1083686047822237,0.0015375939639750867,0.0022615973895881323
1772561534448448000,8.727447998046875,0.11106266617178916,0.006283532682317309,-0.004177020823163911
1772561534458476800,8.737476806640625,0.11450608462393283,0.0036566182448295875,-0.005365837882086635
1772561534468507000,8.7475068359375,0.11839841588735579,-0.002605378459114581,0.006851455063652247
1772561534478536000,8.757535888671875,0.10238894585072994,0.00832977028817404,0.013005155387800187
1772561534488564700,8.767564697265625,0.1195966857612133,0.0023362746275728567,0.0014614873873069882
1772561534498593800,8.77759375,0.1113660330325365,0.0027713461431674658,-0.0002792644659522921
1772561534508624000,8.787623779296876,0.10313479578197002,0.0029432138450443744,0.00008502966864034532
1772561534518653000,8.79765283203125,0.11929390342235564,-0.003720742122759111,0.005300572359841316
1772561534528681700,8.807681640625,0.11390987229645251,0.0048416404780466105,-0.004246122270310297
1772561534538711800,8.8177119140625,0.10597966381907463,0.011240292006591334,0.0010812102322932332
1772561534548740900,8.827740966796876,0.11495792004466056,0.005381478409213014,-0.006127223309176043
1772561534558770000,8.83777001953125,0.11406009442210197,0.0005725163580616936,-0.0011446491236332802
1772561534568799700,8.8477998046875,0.11166764632761478,0.005636325386539101,0.004509632044704631
1772561534578828800,8.857828857421875,0.10268880558013915,-0.008807388604129664,-0.00005926503972150385
1772561534588857900,8.86785791015625,0.11196867510080337,-0.0008044893498765304,0.00010874847094528377
1772561534598888000,8.877887939453124,0.11241700339019298,0.007156981915445067,0.001099092948855832
1772561534608916700,8.887916748046875,0.11645721869170665,-0.0020057959976140407,0.004212356998026371
1772561534618945800,8.89794580078125,0.11526128690540789,-0.004422647880995646,0.0006785751149989665
1772561534628975900,8.907975830078126,0.11032324598133564,0.016436139050056225,-0.0029218605297617615
1772561534639004700,8.918004638671874,0.1137666644334793,-0.004496658398699946,0.0001681687742937356
1772561534649033700,8.92803369140625,0.09580956746041774,-0.008145901621249504,-0.003412475324608385
1772561534659063800,8.938063720703125,0.11242109504342078,0.006180423934292048,-0.005765943115577102
1772561534669092900,8.9480927734375,0.116311088219285,-0.004048846132541075,-0.0025615119179245084
1772561534679121700,8.95812158203125,0.11227321100533008,-0.004690043812640942,0.002560699067171663
1772561534689151700,8.96815185546875,0.11691139219999312,0.0033076267106458544,0.0020644217165187
1772561534699180800,8.978180908203125,0.11945406242012976,0.004601781007298268,-0.0015379592901561409
1772561534709209900,8.9882099609375,0.11256897908151149,-0.003841409360361285,-0.0018409060257952659
1772561534719239700,8.99823974609375,0.11107260304391384,0.013894610474235377,0.0035229956275317814
1772561534729268700,9.008268798828125,0.11167232250273228,-0.0003373376290081069,0.006304516104841605
1772561534739297800,9.0182978515625,0.10164835661649703,-0.005882884026132524,-0.0023418321521021424
1772561534749328000,9.028327880859376,0.10972995626330374,0.005428007264947518,-0.0012611516427714377
1772561534759356700,9.038356689453124,0.11661211699247359,-0.0004577856709016487,-0.00010056516448967158
1772561534769385700,9.0483857421875,0.1058417166531086,0.00006231094675604253,0.009520464210351928
1772561534779414800,9.058414794921875,0.1124246021747589,0.0113148276806809,0.0016987028098199516
1772561534789444900,9.06844482421875,0.11541852329373359,0.0030784530306933447,0.008980420783208683
1772561534799473700,9.0784736328125,0.11526888568997383,-0.001913249742798507,-0.0002058521698694676
1772561534809502700,9.088502685546874,0.11871230414211749,0.006780677682650275,-0.0012067180417943745
1772561534819532800,9.09853271484375,0.11721709714829921,-0.0068614878338994455,0.003903537644026801
1772561534829561600,9.1085615234375,0.10554594857692717,0.0004758967163274064,0.0009458934148307889
1772561534839591000,9.1185908203125,0.11571955206692218,0.0059588262060191475,-0.0025955329185351726
1772561534849620700,9.128620849609375,0.1209562836766243,-0.004887023122888058,0.005047848840942606
1772561534859649800,9.13864990234375,0.11212649601101875,-0.00673018047127407,-0.0035251875846181065
1772561534869678800,9.148678955078125,0.11497077952623366,0.0023975489612901584,-0.0027215339183807373
1772561534879708700,9.158708740234376,0.114520697671175,0.005538609766261652,-0.004138962968252599
1772561534889737700,9.16873779296875,0.11018062264025211,0.004566933456202969,-0.004604817781178281
1772561534899767000,9.17876708984375,0.11945815407335758,0.010496067776856943,-0.0008794771151151507
1772561534909796600,9.188796630859375,0.11317220567166805,-0.006674454528931528,-0.0008237740056589245
1772561534919826000,9.198825927734376,0.10898176824450492,-0.006538808917906135,0.002724739655619487
1772561534929855000,9.20885498046875,0.12125438984036445,0.0029959212798159568,-0.001361917736660689
1772561534939884800,9.218884765625,0.11153086820542811,0.003244964137440547,0.0020118238796014336
1772561534949913900,9.228913818359375,0.10509469767808914,0.002709473587828688,-0.0012713625095319002
1772561534959943000,9.23894287109375,0.10748773029446601,-0.0012928162895143032,0.002733388752955943
1772561534969972000,9.248971923828124,0.10972878721952438,-0.003102952717710286,0.006448975209984928
1772561534980002000,9.259001953125,0.10883037707507609,0.001933794773905538,-0.0011771448874380438
1772561534990030800,9.26903076171875,0.11765899569690227,0.00009427698759827763,0.003604965689405799
1772561535000060000,9.279059814453126,0.1104769752383232,0.0013166127236327156,0.007407088785571977
1772561535010090000,9.289090087890624,0.11257073264718055,0.0007018692256184295,0.0058423784858081486
1772561535020118800,9.299118896484375,0.10987725577950477,0.01008320352649316,-0.0036379272440914064
1772561535030147800,9.30914794921875,0.10912789871692657,-0.005438300330098718,-0.005032779135974124
1772561535040178000,9.319177978515626,0.10373977593779564,0.0034543599712662395,-0.0018292703869286925
1772561535050207000,9.32920703125,0.12169570386707781,0.002176024298253469,0.007082048949133605
1772561535060235800,9.33923583984375,0.11062252118885517,-0.0012166229478782042,-0.0004219608722720295
1772561535070265900,9.349265869140625,0.1025432596296072,0.002052544049057178,0.006094435284426435
1772561535080295000,9.359294921875,0.11271861668527125,0.004620691203745082,0.005992034355876967
1772561535090323700,9.36932373046875,0.11960019289255142,0.0037452920421259476,-0.0013886961457319556
1772561535100353800,9.379353759765625,0.11750643548369406,0.005778268307610414,-0.004451225521508604
1772561535110382800,9.3893828125,0.11945113981068134,0.0008414694925537332,0.0003998860377818346
1772561535120411600,9.39941162109375,0.1128647471576929,-0.0022942118844017385,0.0002528787825256586
1772561535130441700,9.409441650390624,0.11121873351633547,0.005852580219414085,0.0034106395605485885
1772561535140470800,9.419470703125,0.10837445000112056,0.003509469425678253,0.000010320464614778756
1772561535150499600,9.42949951171875,0.10672551375031471,-0.009884918175148777,0.0027207576002459973
1772561535160529700,9.43952978515625,0.11121347281932831,0.0022929469424998387,0.0021497893118765203
1772561535170558700,9.449558837890624,0.10762217032909392,0.007185454524680971,0.0015152451348491012
1772561535180587800,9.459587890625,0.10837035834789276,0.007973029272374697,-0.0020580924404319375
1772561535190616600,9.469616455078125,0.11151157898306846,0.00044219994270242746,0.007336991824582219
1772561535200646700,9.479646728515625,0.11435293988883495,-0.0017273991813417523,0.0010620214746333658
1772561535210675700,9.48967578125,0.11360358282625675,-0.001313306521694176,-0.006797277191001922
1772561535220704800,9.499704833984374,0.10208031829297542,0.003901391352713108,-0.007631097666639834
1772561535230734600,9.509734619140625,0.10641980880200862,-0.0010964580337749794,0.0008072429959662258
1772561535240763600,9.519763671875,0.10163432809114456,-0.001383298451406881,-0.003207974861608818
1772561535250792700,9.529792724609376,0.11824176402091979,0.004143913138005882,-0.004028661861037835
1772561535260822800,9.53982275390625,0.10552373674511908,0.004978450566274113,-0.004447088202508167
1772561535270851600,9.5498515625,0.10313011960685252,0.0018253613967914133,0.01040690078921616
1772561535280880600,9.559880615234375,0.10896715519726276,0.007691531750140711,0.006296844255039468
1772561535290910700,9.56991064453125,0.10762158580720424,-0.0037074259834596886,-0.0024506354219745842
1772561535300939800,9.579939697265624,0.10627426285147666,-0.0012663803737377748,-0.00115804746132344
1772561535310968600,9.589968505859375,0.10238719228506088,0.005764851703611202,-0.0039931704225484276
1772561535320997600,9.59999755859375,0.10792319910228251,-0.0058658598260954015,0.005059338349336758
1772561535331027700,9.61002783203125,0.11510463503897189,0.00030923491253051906,-0.002350673045683652
1772561535341056500,9.620056396484374,0.11046703836619853,-0.004130816194415092,0.00004638729183934629
1772561535351085600,9.63008544921875,0.10508008463084698,0.000053730348078534,0.0007140300208702683
1772561535361115600,9.64011572265625,0.11345862139761448,-0.0006576419248245656,-0.007259323478490114
1772561535371144700,9.650144775390626,0.10971651225984096,0.003953139806259423,-0.0037204178957734257
1772561535381173500,9.660173583984376,0.11629939778149127,-0.0006997822998091578,-0.0009700597417075186
1772561535391203600,9.67020361328125,0.10387772310376167,0.0011571569787571206,0.002109813494514674
1772561535401232600,9.680232666015625,0.10746961011588572,0.009539397239685058,-0.001685304472129792
1772561535411261700,9.69026171875,0.10552432126700878,-0.004211402583378367,-0.002064266452891752
1772561535421291500,9.70029150390625,0.11584990044832229,-0.003125954567384906,-0.007628038059873506
1772561535431320600,9.710320556640625,0.1128559793293476,0.004222426300891675,0.004747212793398649
1772561535441349600,9.720349609375,0.09804185655713081,-0.0020554301258875057,0.002569457762362435
1772561535451378700,9.730378662109375,0.11465338414013385,0.005648659711726941,-0.004532072205375879
1772561535461408500,9.740408447265626,0.10612228716015815,0.003553564295731485,0.005855539361480623
1772561535471437600,9.7504375,0.11988719314038752,0.0050566166692879045,0.0017534469380509107
1772561535481467000,9.760466796875,0.11899053656160831,-0.0031981749868020414,-0.004280079338839277
1772561535491496700,9.77049658203125,0.11180734705924987,0.0035225481029599903,-0.0009520308946724981
1772561535501525800,9.78052587890625,0.11240765103995799,-0.006529447434516623,0.0018033413612283766
1772561535511554800,9.790554931640624,0.1010351931542158,-0.006412387792952359,-0.007595131304115057
1772561535521584600,9.800584716796875,0.104777886813879,0.0014662092281971127,0.0005964863221161067
1772561535531613700,9.81061376953125,0.11211305200755596,0.011326125392829999,0.006788372365338727
1772561535541642800,9.820642822265626,0.11001578746736049,0.00623130473815836,0.0035032771469093857
1772561535551672600,9.830672607421874,0.10911620827913283,-0.006348656640667468,0.009230185160040856
1772561535561702000,9.840701904296875,0.1110609126061201,0.007569668069295585,-0.0009914861222263425
1772561535571730700,9.850730712890625,0.1136053363919258,0.0037337020690320056,0.0017713479209225623
1772561535581759700,9.860759765625,0.10777005436718463,0.0044431152802892025,-0.006220454550581052
1772561535591789800,9.870789794921874,0.11240706651806831,0.01059117588151712,-0.0017361670096870511
1772561535601819000,9.88081884765625,0.10851298168897629,-0.0016702028011204675,0.0021385372655000536
1772561535611847700,9.89084765625,0.11225392178297042,0.0013519991308450698,-0.0004295779231470078
1772561535621877800,9.900877685546876,0.10881167237460612,-0.0006894527020398527,-0.0010808175066486
1772561535631906800,9.91090673828125,0.10581892029941081,-0.009590296309860422,-0.0010519384720362721
1772561535641935600,9.920935546875,0.2355284192740917,0.00895357844205573,-0.023589805630408228
1772561535651965700,9.930965576171875,0.08243804471194743,0.006913542248122394,0.02161457830099389
1772561535661994800,9.940994873046876,0.022133505874872207,-0.005035624113609083,0.023853580266283824
1772561535672023800,9.95102392578125,0.05656652135252952,-0.013352936779009178,0.006383106899540871
1772561535682054000,9.961053955078125,0.08935293866693973,-0.006577538059675135,-0.024554074952146038
1772561535692082700,9.971082763671875,0.11974340075552463,0.006139429770200513,-0.004117883647605776
1772561535702111700,9.98111181640625,0.1432376735895872,0.0030644427716499194,0.02724143260628916
1772561535712140800,9.991140869140626,0.15700024148225783,0.0046263263600878415,0.011737720134714618
