time,seconds_elapsed,z,y,x
1772482596767492400,0.077492431640625,-0.5890595331162214,-0.18152268832027912,-0.7074362486284226
1772482596777490200,0.087490234375,-0.6085936701476573,-0.16452829889953136,-0.6652509385235608
1772482596787488300,0.09748828125,-0.7123287699103354,-0.1628577353388071,-0.6484365818448364
1772482596797486300,0.107486328125,-0.826156516881287,-0.19692893176674842,-0.5630866682741791
1772482596807485200,0.117485107421875,-0.8628595231175422,-0.2489309216827154,-0.47224750963747497
1772482596817483300,0.127483154296875,-0.8006082341268658,-0.3225263192474842,-0.36221049671899525
1772482596827481300,0.1374814453125,-0.9089002665415405,-0.2830114704608917,-0.3478063064545393
1772482596837479200,0.147479248046875,-0.9444733919650316,-0.3029635406434536,-0.2928564995836466
1772482596847478300,0.157478271484375,-0.8553089616075158,-0.3937321913272142,-0.2703745821299031
1772482596857476400,0.167476318359375,-0.7463219326660037,-0.4619429732441902,-0.2526857441715896
1772482596867474400,0.177474365234375,-0.617227350719273,-0.5347352377325296,-0.22365210351943968
1772482596877472300,0.18747216796875,-0.5216717580199242,-0.6778191820651293,-0.2495017986395396
1772482596887470300,0.19747021484375,-0.39026539199948307,-0.7376818223536014,-0.241744626907818
1772482596897469200,0.20746923828125,-0.32300182780474423,-0.8601666307717561,-0.24879768722448498
1772482596907467000,0.217467041015625,-0.35009997034966944,-0.9613263270884752,-0.33686891551781445
1772482596917465000,0.227465087890625,-0.4510197204306721,-1.0505997707784176,-0.41130229827668513
1772482596927463200,0.237463134765625,-0.6007718904808164,-1.0948381409555672,-0.46911684692893174
1772482596937461200,0.247461181640625,-0.7134615733325481,-0.984866777151823,-0.5382025850495323
1772482596947460000,0.257460205078125,-0.8491139063596725,-0.8187930023759603,-0.6385893607649952
1772482596957458200,0.267458251953125,-0.9409563237547874,-0.7998615074127912,-0.8047854467462748
1772482596967456000,0.2774560546875,-1.1047919642150401,-0.759788440221548,-0.948980713321641
1772482596977454000,0.2874541015625,-1.3273217857062816,-0.6851607769995928,-1.1073251359544694
1772482596987452200,0.2974521484375,-1.4700652460381387,-0.6257686768323183,-1.2576786328986287
1772482596997451300,0.307451171875,-1.5987492013573645,-0.6246002175748347,-1.255027095476538
1772482597007449000,0.317448974609375,-1.6527373966544865,-0.5362035567194223,-1.248880409415066
1772482597017447200,0.327447265625,-1.5423983685821294,-0.45705169407129287,-1.1589394417271017
1772482597027445200,0.3374453125,-1.2717284933000803,-0.3784206404268741,-1.1310600126113741
1772482597037444000,0.347444091796875,-1.259725920817256,-0.3722007429987192,-1.0035115641281007
1772482597047442200,0.357442138671875,-1.1185136155754327,-0.3635439738124609,-0.9911465880736708
1772482597057440300,0.367440185546875,-0.8488800976037979,-0.37848143070340157,-0.9338640274062752
1772482597067438000,0.37743798828125,-0.8167381156727671,-0.47848669628798957,-0.8479573567356914
1772482597077436200,0.387436279296875,-0.8658172038793563,-0.5625824450790882,-0.7699079023715109
1772482597087435300,0.397435302734375,-0.9688216512799263,-0.7385024910867214,-0.5086073284592479
1772482597097433300,0.407433349609375,-1.3236390055403113,-0.7527624871075153,-0.23650721944468095
1772482597107431200,0.41743115234375,-1.8897969710186122,-0.4732090481460094,-0.07268084000311792
1772482597117429200,0.42742919921875,-2.0274691194355485,-0.245632464659214,-0.12597610286632552
1772482597127427000,0.437427001953125,-1.9563643696427344,-0.2407920388907194,-0.16900696041723712
1772482597137426200,0.44742626953125,-1.6808564066797493,-0.39196985782980914,-0.21340446667885407
1772482597147424300,0.45742431640625,-1.4044853971466422,-0.6533920122951269,-0.2239297148844227
1772482597157422300,0.46742236328125,-1.2453943208649754,-0.8214414710581303,-0.18867400311334057
1772482597167420200,0.477420166015625,-1.1412383653417228,-0.8932593375563621,-0.11824167268937454
1772482597177418200,0.487418212890625,-1.1738082172960043,-0.8213263202458619,0.010488204130809753
1772482597187417300,0.497417236328125,-1.2068132457971572,-0.740047382441163,0.1686634259428829
1772482597197415200,0.507415283203125,-1.188305529204011,-0.6924333983510732,0.28038696717619893
1772482597207413200,0.517413330078125,-1.2168673145607114,-0.6503320402026176,0.37594033138584343
1772482597217411300,0.527411376953125,-1.225055297191441,-0.4951128369182348,0.4919188631825149
1772482597227409200,0.5374091796875,-1.0852294778719545,-0.3071802815556526,0.5850219846958294
1772482597237408300,0.547408203125,-0.7012345444440842,-0.2599935829669237,0.6181913734458386
1772482597247406300,0.55740625,-0.27674013510644435,-0.23581074334681032,0.641940278628096
1772482597257404400,0.567404296875,0.09043021250963211,-0.20326982522606848,0.6243719617769121
1772482597267402200,0.57740234375,0.3336857189044356,-0.1647878266185522,0.5476628161057829
1772482597277401000,0.587401123046875,0.3493485674604773,-0.14885551347136497,0.5193402828650548
1772482597287399200,0.597399169921875,0.20966478696018456,-0.07743629090189934,0.5999036928115412
1772482597297397200,0.607397216796875,0.019986556974053382,-0.04703180028796196,0.632982115342468
1772482597307395300,0.617395263671875,-0.1614981374233961,-0.03308101634681224,0.7249230246759951
1772482597317393400,0.627393310546875,-0.31850539316833015,0.005737082347273826,0.7976434660371392
1772482597327392000,0.63739208984375,-0.33658582426011563,0.04057517149448395,0.8312338201455771
1772482597337390000,0.64739013671875,-0.3031061639845371,0.08196165937185287,0.8565634186480194
1772482597347388200,0.65738818359375,-0.3929606224328279,0.1820984423816204,0.6726325732074677
1772482597357386200,0.66738623046875,-0.5225993942588567,0.2560848850905895,0.4412089589037001
1772482597367384300,0.67738427734375,-0.5527385119348764,0.2815396443426609,0.21095460757501422
1772482597377383200,0.687383056640625,-0.37713819940090176,0.44176703117787836,0.07998582925423979
1772482597387381200,0.69738134765625,-0.053155836126208306,0.6052531275480986,-0.08159173008091747
1772482597397379000,0.707379150390625,0.3335007177263498,0.6887906579345464,-0.3136443630032241
1772482597407377200,0.717377197265625,0.7017778575405478,0.6539134058207273,-0.43776926677860317
1772482597417375200,0.727375244140625,0.9272831877112389,0.6077765085458755,-0.44344599724076683
1772482597427374000,0.7373740234375,0.9048223495781421,0.47956572369635103,-0.2685625277392566
1772482597437372200,0.7473720703125,0.7385474992722273,0.24296003057956694,0.05184124639630317
1772482597447370200,0.757370361328125,0.4795961188346147,-0.03275777574181556,0.35563429666645824
1772482597457368000,0.7673681640625,0.20542788004279136,-0.33217619112432,0.5674002936895937
1772482597467366100,0.7773662109375,-0.05699731398522854,-0.6328367155224085,0.5958528465181588
1772482597477365200,0.787365234375,-0.26193010398745536,-0.8633984522998333,0.5300226030621678
1772482597487363000,0.797363037109375,-0.38074294589459895,-1.019732923349738,0.45210291255749757
1772482597497361200,0.807361083984375,-0.43978842458128925,-1.1205723016709088,0.328030834947899
1772482597507359200,0.817359130859375,-0.3896200798332691,-1.1685516119420527,0.15719284144490955
1772482597517357000,0.827357177734375,-0.4055272585391998,-1.1228291406869888,-0.06931896235458553
1772482597527356200,0.837356201171875,-0.49340486395657057,-0.9629618193358183,-0.32904483429603276
1772482597537354200,0.847354248046875,-0.5635603502005339,-0.7643862894058228,-0.6029547144126147
1772482597547352300,0.857352294921875,-0.6160305421501397,-0.6193833597093821,-0.8709565395291894
1772482597557350100,0.86735009765625,-0.6410434028536081,-0.5607938080966473,-1.0374554809145629
1772482597567349200,0.877349365234375,-0.6702554688125848,-0.5010048175662756,-1.1352625788677484
1772482597577347300,0.887347412109375,-0.6322784971177577,-0.4645446801751852,-1.1623852713320404
1772482597587345200,0.89734521484375,-0.5540443338364363,-0.4157505463898182,-1.1288766772229224
1772482597597343200,0.90734326171875,-0.4384975079879164,-0.3268120337426662,-1.1008538941137491
1772482597607341300,0.91734130859375,-0.3212032539501786,-0.23040742299854755,-0.9861785904027521
1772482597617340400,0.92734033203125,-0.26612171045839783,-0.24376257913410662,-0.8896395396240055
1772482597627338200,0.937338134765625,-0.2563537651598453,-0.32287118716239926,-0.7873104342017322
1772482597637336300,0.94733642578125,-0.2330500464618206,-0.4170610444664955,-0.5684096899278461
1772482597647334100,0.957334228515625,-0.10855506726503372,-0.5465355656415224,-0.2600612413756549
1772482597657332200,0.967332275390625,0.01163023203909397,-0.6868558904796839,0.03430076740011573
1772482597667331300,0.977331298828125,0.03756634506732225,-0.7675444611757993,0.2525122142355889
1772482597677329700,0.98732958984375,-0.03707300859242677,-0.814097538036108,0.37897352506928145
1772482597687327500,0.997327392578125,-0.16777736382335423,-0.8100117300271987,0.4174352846063673
1772482597697325600,1.00732568359375,-0.2966565494537353,-0.8760504286020994,0.4867070833509788
1772482597707323600,1.01732373046875,-0.3709025198817253,-0.9201075969934462,0.4364806882727891
1772482597717322200,1.027322265625,-0.4475628579750657,-0.8907546612590551,0.30329164008665827
1772482597727320300,1.0373203125,-0.44422845285534857,-0.8436556409537792,0.14615235545989125
1772482597737318400,1.047318359375,-0.37081571838110683,-0.8877829519718885,-0.1448295458909124
1772482597747316500,1.05731640625,-0.17557196322232485,-0.9794996971607207,-0.5114622429663315
1772482597757314600,1.067314453125,0.026964579293131827,-0.9766618433862924,-0.9128891900472342
1772482597767313400,1.0773134765625,0.11583937905430793,-0.9524275658398866,-1.1589472597073762
1772482597777311500,1.0873115234375,0.1523351722806692,-0.9128431589484214,-1.1351539308615028
1772482597787309300,1.097309326171875,0.16648147879391909,-0.8065279795646667,-1.0413619868338106
1772482597797307400,1.107307373046875,0.25433248846530915,-0.7359393626004457,-0.88970347170569
1772482597807305500,1.117305419921875,0.26209084750711914,-0.5744733738809824,-0.7829365299664437
1772482597817304300,1.12730419921875,0.1093076391980052,-0.5036088625848293,-0.7403717920899391
1772482597827302400,1.137302490234375,-0.081368369653821,-0.3024520839899778,-0.666964099116996
1772482597837300500,1.147300537109375,-0.0524894811719656,-0.20018530321419237,-0.6681306586783379
1772482597847298300,1.15729833984375,-0.042971418981254096,-0.11512567782700062,-0.6911755072444677
1772482597857296400,1.16729638671875,-0.1556722077488899,-0.0978378584176302,-0.5334573267512023
1772482597867295500,1.17729541015625,-0.35828707619756456,-0.1380219847679138,-0.42057529966514556
1772482597877293300,1.187293212890625,-0.44702655914127826,-0.07510112595260143,-0.22493695569820701
1772482597887291400,1.19729150390625,-1.244464638799429,0.473235936152935,-0.0996356650872156
1772482597897289500,1.20728955078125,-0.9746358905166387,1.1459095720231531,0.04196948453024961
1772482597907287300,1.217287353515625,-1.3830395812749863,2.565917824733257,-0.043450306805688885
1772482597917286400,1.227286376953125,-1.0123030656099319,3.1297961548417805,0.3077331296654418
1772482597927284500,1.237284423828125,-1.9820280954703688,3.1899539786845446,0.4962313926193863
1772482597937282600,1.247282470703125,-3.021761019797623,3.360468366256356,1.0192092648018152
1772482597947280400,1.2572802734375,-2.7866531640231607,3.164160196736455,1.171404663285613
1772482597957279500,1.267279541015625,-2.2156275925084947,2.438359366312623,1.4561550863683224
1772482597967277600,1.277277587890625,-0.9610819969385862,1.1257114181250334,1.2713542531602084
1772482597977275400,1.287275390625,-0.4635004318192601,0.5954921965122223,0.3208278812991455
1772482597987273500,1.2972734375,-0.016800620414316653,0.5135229383558034,-0.09523684560637921
1772482597997271600,1.307271484375,0.4650625665694475,0.17446341745853422,-0.5070231645403429
1772482598007270700,1.317270751953125,0.49208062961548565,-0.03407879521250724,-0.8011066121030599
1772482598017268500,1.3272685546875,0.3267081349767744,-0.21590426587164402,-0.9439520715046673
1772482598027266600,1.3372666015625,0.14508388597816227,-0.2766641472607851,-0.6945711410321295
1772482598037264600,1.3472646484375,0.08791326125264168,-0.21107611506283283,-0.03490466984370723
1772482598047262500,1.357262451171875,0.1502472600907087,-0.3027455139786005,0.5380288724504411
1772482598057261600,1.367261474609375,0.012606968116760254,-0.3855167361676693,0.9630829614974558
1772482598067259600,1.377259765625,-0.1994401839353144,-0.558351091119647,1.1901419508509337
1772482598077257500,1.387257568359375,-0.523944525257498,-0.7912930010318756,1.279471508642286
1772482598087255600,1.397255615234375,-0.9259732741564511,-1.020814873367548,1.4072140914581714
1772482598097253600,1.407253662109375,-1.154440669003129,-1.1974731705218553,1.7372494711615145
1772482598107252500,1.41725244140625,-1.2496464253515005,-1.143705339977145,2.04469907117784
1772482598117250600,1.42725048828125,-0.9228905057102441,-1.0896966864138842,2.1699653270080685
1772482598127248600,1.43724853515625,-0.34605566339492794,-0.9851192906081676,2.111049466050416
1772482598137246500,1.44724658203125,-0.11942834345698355,-0.711824327519536,1.9625987339876592
1772482598147244500,1.45724462890625,-0.1550590442866087,-0.24076515088379383,1.9220221011884508
1772482598157243400,1.467243408203125,-0.15304492798522115,0.024904139631986618,1.6307172880262135
1772482598167241500,1.477241455078125,-0.27253566915392874,0.13074410271942616,1.126928173503652
1772482598177239300,1.4872392578125,-0.3737468033969402,0.1590852310627699,0.780025757086277
1772482598187237400,1.4972373046875,-0.5323568181633949,0.11195756918489932,0.5530258044436573
1772482598197235700,1.507235595703125,-0.6577284340642392,0.017056348741054533,0.40770332393664865
1772482598207234300,1.517234375,-0.8378869944244622,-0.08643208278417587,0.1259176689436659
1772482598217232400,1.527232421875,-0.9482989416025578,-0.2539543028026819,-0.05225468603540211
1772482598227230500,1.53723046875,-0.8934528143018483,-0.4389414523631334,-0.015254413885623215
1772482598237228300,1.547228271484375,-0.8282885604739189,-0.6287082374155522,-0.04569127239920199
1772482598247226400,1.557226318359375,-0.7641945662260055,-0.7906979577481746,-0.06287322028130292
1772482598257225500,1.5672255859375,-0.6250600901715457,-0.9430360526382923,0.0014100403278600423
1772482598267223300,1.577223388671875,-0.3226249573163688,-1.1125789648294448,0.11138049994930624
1772482598277221400,1.587221435546875,-0.43632177138403055,-1.0129343492507934,0.2232735890632495
1772482598287219500,1.597219482421875,-0.33658144034594295,-0.9115501965284347,0.25667316983994093
1772482598297217300,1.60721728515625,-0.21972806194350122,-0.7788479454785585,0.16628065899219363
1772482598307216400,1.61721630859375,-0.21828648483306168,-0.7219476621270179,-0.01843951019514352
1772482598317214500,1.62721435546875,-0.2671630362048745,-0.7700099745064973,-0.17636897708522156
1772482598327212500,1.637212646484375,-0.31387992532476783,-0.9462468313783406,-0.35340525897275654
1772482598337210400,1.64721044921875,-0.4183841097638011,-1.1121078401863573,-0.5093714446995407
1772482598347208400,1.65720849609375,-0.47434009800255295,-1.246344461196661,-0.49730230978652834
1772482598357207600,1.66720751953125,-0.4903960375294089,-1.3162252221524715,-0.3337431481800973
1772482598367205400,1.677205322265625,-0.4886589846037328,-1.32042442740798,-0.09907183892568573
1772482598377203500,1.687203369140625,-0.4069306955963373,-1.2715502141237258,0.1225870449499227
1772482598387201500,1.697201416015625,-0.23408859572932122,-1.1650140854656696,0.2597575274550356
1772482598397199400,1.707199462890625,-0.03888414966762066,-1.024792544826865,0.34961401346363125
1772482598407198500,1.717198486328125,0.20341537117660044,-0.9226941063553095,0.3676858228575438
1772482598417196500,1.727196533203125,0.4354093327142298,-0.8118190717101097,0.35116613827645776
1772482598427194400,1.7371943359375,0.5764078490749002,-0.6988964568853377,0.3375903616601601
1772482598437192400,1.7471923828125,0.626086072218418,-0.5552846892863512,0.29459556180331853
1772482598447190500,1.7571904296875,0.5578802587375045,-0.3761696466296911,0.1980864677714184
1772482598457189600,1.767189697265625,0.3553619825311005,-0.2255728424489498,0.14917762156520037
1772482598467187500,1.7771875,0.1880460987396538,-0.12657763068974018,0.040606279018800706
1772482598477185500,1.787185546875,0.06566577360928058,-0.0943383258640766,-0.04623489602291956
1772482598487183600,1.79718359375,-0.052272477420419454,-0.18793021727502346,-0.09209922343408689
1772482598497181400,1.807181396484375,-0.14157704690098763,-0.3872714708805084,-0.19899079619999974
1772482598507180500,1.8171806640625,-0.31186639354526996,-0.5602163004696369,-0.4081540268462151
1772482598517178600,1.8271787109375,-0.531647062458843,-0.6496995875179767,-0.7331462247505783
1772482598527176400,1.837176513671875,-0.6250291105113923,-0.6719646108180284,-1.0182785598229616
1772482598537174500,1.847174560546875,-1.0922609839439392,-0.412977574545145,-1.3336625330351293
1772482598547172600,1.857172607421875,-1.0822672670654951,-0.4647440021395683,-1.4164400388345122
1772482598557171500,1.86717138671875,-1.1504536451935767,-0.5521323627352714,-1.4908520134791732
1772482598567169500,1.87716943359375,-1.2644511957734823,-0.5199602779269218,-1.481667128765583
1772482598577167600,1.887167724609375,-1.2005980245441197,-0.39952071160078045,-1.4120838894516228
1772482598587165400,1.89716552734375,-1.3616963489949703,-0.005818330889940261,-1.552080389162898
1772482598597163500,1.90716357421875,-1.4024180893532932,0.4042226056814193,-1.6671686575889586
1772482598607162400,1.917162353515625,-1.6205713031955062,1.0453449189901352,-1.830699177622795
1772482598617160400,1.927160400390625,-1.57372932639122,1.6683464691966772,-1.9213284198358653
1772482598627158500,1.937158447265625,-1.4896667492173612,2.218900622829795,-1.934152830095589
1772482598637156600,1.947156494140625,-1.2845074569828807,2.5894325558334588,-1.9343515675380825
1772482598647154700,1.95715478515625,-1.0082505753487347,2.6322400164246558,-1.963855017659068
1772482598657153300,1.9671533203125,-0.79430138906762,2.4528964257091284,-1.8706711225271224
1772482598667151400,1.9771513671875,-0.5590658152602612,2.1385452296108007,-1.7562689366690813
1772482598677149000,1.98714892578125,-0.2952273934334516,1.7365093203186988,-1.5744633397541938
1772482598687147000,1.99714697265625,-0.06936229003965855,1.2318664385110139,-1.103610060954094
1772482598697144800,2.007144775390625,0.24679011026173828,0.5415647914916276,-0.5041409236349165
1772482598707143700,2.017143798828125,0.6587295739307999,-0.09656827687323093,-0.11679448782205581
1772482598717141800,2.027141845703125,0.9727532916404307,-0.6034720893502235,0.18869725612476468
1772482598727139800,2.037139892578125,1.2425719569206237,-1.0201946956425905,0.4509261969283223
1772482598737138000,2.047137939453125,1.5295643137112258,-1.3703309063494205,0.5411540187336504
1772482598747136000,2.057135986328125,1.6721641277886927,-1.4873539422303437,0.5726933585964143
1772482598757134800,2.067134765625,1.7466534054532645,-1.4457827454358338,0.5965894902296364
1772482598767132700,2.077132568359375,1.8425959516435861,-1.3785668197751044,0.5631044231265783
1772482598777130800,2.087130859375,1.7208809585541485,-0.9677350250869989,0.5638561182767152
1772482598787128800,2.09712890625,1.4067679551258683,-0.17273206362128257,0.4725872629858553
1772482598797126700,2.107126708984375,1.055322707647085,0.6445803448081017,0.39372722289115186
1772482598807125800,2.117125732421875,0.8571838155686855,1.3450538417518139,0.30872663421481844
1772482598817123800,2.127123779296875,0.6057165072761476,2.03503926242888,0.3336985783860087
1772482598827121700,2.13712158203125,0.24588921589925883,2.5594547661989924,0.486408429197967
1772482598837119700,2.14711962890625,-0.020282178919762372,2.8052643409907816,0.7323796242922544
1772482598847117800,2.157117919921875,0.00599485650062561,2.6487983525156973,0.7664882301211356
1772482598857117000,2.167116943359375,0.0890178614936769,2.3854238949388265,0.9265462517388164
1772482598867114800,2.17711474609375,0.2844249905206263,1.939313281598687,1.0974183667071162
1772482598877112800,2.18711279296875,0.5204191276103258,1.4341495907872914,1.3187388124085961
1772482598887111000,2.19711083984375,0.6372371424384414,0.9582283610731362,1.4089511443838476
1772482598897108700,2.207108642578125,0.6913533480294048,0.5218336705833673,1.4518337160378694
1772482598907107800,2.21710791015625,0.696806352738291,0.09013561347723006,1.4099845790848136
1772482598917106000,2.22710595703125,0.6144565708316863,-0.32106501452326774,1.3090554766535758
1772482598927103700,2.237103759765625,0.4549081061713397,-0.6717962685137987,1.1956892097145317
1772482598937101800,2.247101806640625,0.21893165086880326,-0.9511649985581636,1.0027753588080406
1772482598947100000,2.257099853515625,-0.022566052073240278,-1.0863953067809342,0.7894158089831471
1772482598957099000,2.26709912109375,-0.2940390604317188,-1.0076999557286501,0.5947609596282243
1772482598967096800,2.277096923828125,-0.5302769431494176,-0.8490823421776295,0.42002720079571004
1772482598977095000,2.287094970703125,-0.7250437284462153,-0.679307959318161,0.2822366866961121
1772482598987092700,2.2970927734375,-0.8207083344779909,-0.5668447786986828,0.08574322373718023
1772482598997090800,2.3070908203125,-0.9463559908412397,-0.4639736022889614,-0.07360942609012126
1772482599007090000,2.31708984375,-0.9855379544116556,-0.5002782568573951,-0.12381430345624685
1772482599017088000,2.327087890625,-0.9756574886493384,-0.6526707122832537,-0.15180939484089612
1772482599027085800,2.3370859375,-0.9152971279717981,-0.8153057447820902,-0.16821341715306043
1772482599037084000,2.347083984375,-0.8395183950185775,-0.9940922861367464,-0.1862920946791768
1772482599047082000,2.35708203125,-0.7250017890006303,-1.1702858883887528,-0.15594985564649105
1772482599057080800,2.367080810546875,-0.5347381603419781,-1.3735890313625334,-0.1205655307933688
1772482599067079000,2.377078857421875,-0.3544920678287744,-1.5575807401448487,-0.08583294784724711
1772482599077077000,2.387076904296875,-0.14261515777707098,-1.715585774755478,-0.10874883627146482
1772482599087074800,2.39707470703125,0.023449703039973974,-1.8077064245700836,-0.17202771474421022
1772482599097073000,2.407072998046875,0.18672668670415876,-1.8173896141946315,-0.2541913264289498
1772482599107072000,2.417072021484375,0.23472411715388297,-1.7227128501564264,-0.3221761906355619
1772482599117070000,2.427070068359375,0.16915961196199059,-1.5628770929872988,-0.362374345511198
1772482599127068000,2.43706787109375,-0.004766045358031988,-1.3364362355321644,-0.2777586644992232
1772482599137066000,2.44706591796875,-0.12323577291592955,-1.08384796038568,-0.2117693580240011
1772482599147063800,2.457063720703125,-0.026493454650044438,-0.7026052482753992,-0.2541609312906861
1772482599157062700,2.467062744140625,0.2471601126179099,-0.1737280889213085,-0.34396073694229123
1772482599167060700,2.477060791015625,0.5021097100682557,0.4088245465189218,-0.2665060336008668
1772482599177058800,2.487058837890625,0.978776497452706,1.1655664586514234,-0.21670652216523884
1772482599187057000,2.497056884765625,1.2510830340258776,1.6360861215829847,0.07775047141760587
1772482599197055000,2.507054931640625,1.1895401855655015,1.7821657406002283,0.41027474532723424
1772482599207053800,2.5170537109375,1.112136481758952,1.8659405868738888,0.5059808524131775
1772482599217051600,2.5270517578125,0.8472368604414164,1.853771425652504,0.43740795918554065
1772482599227049700,2.5370498046875,0.40021556199714536,1.7707126186937092,0.3042956660300493
1772482599237047800,2.5470478515625,0.13096329842805862,1.806937193763256,0.19256606038212776
1772482599247045600,2.557045654296875,-0.46851460671946404,1.8789637345761059,-0.033816929405927655
1772482599257043700,2.567043701171875,-1.0362534116484223,1.837708179602027,-0.3476876485109329
1772482599267042800,2.577042724609375,-1.3863758860908448,1.7530869456321,-0.374122066450119
1772482599277041000,2.587041015625,-1.3740689238339663,1.5535405248433352,-0.11856909627914428
1772482599287038700,2.597038818359375,-1.0854553955823183,1.23454062615633,0.23168284976184367
1772482599297036800,2.607036865234375,-0.8233331300236284,0.8645803555607795,0.3825999719381332
1772482599307034600,2.61703466796875,-0.5892781443029642,0.6088584585636854,0.5036515326827764
1772482599317033700,2.62703369140625,-0.37638402003273363,0.4470136996597051,0.5287321979254483
1772482599327031800,2.63703173828125,-0.3968158365562558,0.3585451426118612,0.4722510167688131
1772482599337030000,2.64702978515625,-0.5229986227095127,0.2792074020028114,0.34441432592868804
1772482599347027700,2.65702783203125,-0.7181329261444509,0.22660510810613632,0.17163550055623053
1772482599357025800,2.66702587890625,-0.9528937220469117,0.18660978232622147,-0.0064151277393102646
1772482599367025000,2.67702490234375,-1.2040075407266617,0.125281745660305,-0.20245500171184538
1772482599377022700,2.687022705078125,-1.4347865735165775,0.060302200749516484,-0.37832185622751713
1772482599387020800,2.697020751953125,-1.6383854845665395,-0.013801730859279632,-0.5152729968935251
1772482599397019000,2.707018798828125,-1.8484002540081739,-0.10917992116510868,-0.6195400115758181
1772482599407016700,2.7170166015625,-2.0080264600798485,-0.2216647290945053,-0.6951905881047249
1772482599417015800,2.727015869140625,-2.119976722741127,-0.3749456577926874,-0.7419675368487835
1772482599427014000,2.737013916015625,-2.1827565656505525,-0.5960942540585994,-0.7589385453939438
1772482599437012000,2.747011962890625,-2.2063833788231015,-0.8772463603883981,-0.7376356451243161
1772482599447009800,2.757009765625,-2.1154507697492835,-1.169856849321723,-0.579451746815443
1772482599457007900,2.7670078125,-2.0561527776062487,-1.4942840337544678,-0.42549920246601103
1772482599467007000,2.777007080078125,-2.040769330513477,-1.7861819905042646,-0.2760200041383505
1772482599477004800,2.7870048828125,-1.9817767510578035,-2.027425864815712,-0.11060498553216457
1772482599487003000,2.7970029296875,-1.9825728698715566,-2.1662065589964388,-0.04625760104507207
1772482599497001000,2.8070009765625,-2.0351262100599703,-2.1911966233462095,-0.01630932976603508
1772482599506998800,2.816998779296875,-2.124744229403883,-2.1206576907426116,-0.005478139150142669
1772482599516998000,2.826997802734375,-2.2704132217936217,-1.9767337884545324,-0.05483750560283661
1772482599526996000,2.836995849609375,-2.414477555465698,-1.8076193308085202,-0.13488777839541435
1772482599536993800,2.846993896484375,-2.565444362002611,-1.596571857318282,-0.23294044860750435
1772482599546991900,2.856991943359375,-2.7164211054116487,-1.4374158991068602,-0.33516865093857046
1772482599556990000,2.866989990234375,-2.872719336104393,-1.2799930482983588,-0.47258828589916224
1772482599566989000,2.876989013671875,-2.966583030194044,-1.183303190872073,-0.5698381152957678
1772482599576987000,2.88698681640625,-3.070641370561719,-1.0955021578222512,-0.7277911274582147
1772482599586985000,2.89698486328125,-3.197075208866596,-1.020370636731386,-0.9198512841448188
1772482599596983000,2.906983154296875,-3.283459360855818,-0.9362240345358848,-1.0853510584250092
1772482599606980900,2.91698095703125,-3.356128291225433,-0.8688438582241534,-1.2506857052713631
1772482599616979700,2.926979736328125,-3.4060838700056073,-0.8924041820317506,-1.3485031054228545
1772482599626978000,2.93697802734375,-3.4205426034688946,-0.9752496385008096,-1.3112214225158094
1772482599636975900,2.946975830078125,-3.4443981108307837,-1.0707032321304082,-1.1278031297072768
1772482599646974000,2.956973876953125,-3.433631217622757,-1.2687217126995325,-0.9756646490424871
1772482599656972000,2.966971923828125,-3.417054761353135,-1.4186539154917002,-0.942201063118875
1772482599666970600,2.976970703125,-3.479226847627759,-1.4808914682179688,-0.9219096779793501
1772482599676968700,2.98696875,-3.5506221047997473,-1.4631518133878707,-0.6685159316688776
1772482599686966800,2.996966796875,-3.571405949631333,-1.3978151256024838,-0.4099222786277532
1772482599696964900,3.00696484375,-3.622697745451331,-1.2524702506005763,-0.31673429184257984
1772482599706963000,3.016962890625,-3.740553140503168,-1.030436103671789,-0.2982686608254909
1772482599716961000,3.0269609375,-3.8490637841045854,-0.7863584672391414,-0.2916735003441572
1772482599726959900,3.0369599609375,-3.8917917497187853,-0.530884992045164,-0.2566214761853218
1772482599736957700,3.046957763671875,-3.8859722497850653,-0.335766324570775,-0.20562486391961574
1772482599746955800,3.056955810546875,-3.8129713109821077,-0.1858370443880558,-0.051633741125464434
1772482599756953900,3.066953857421875,-3.689871585536003,-0.1412719264745712,0.11022329273819922
1772482599766951700,3.07695166015625,-3.5951486442685123,-0.19701953265964983,0.23498598296046255
1772482599776950800,3.08695068359375,-3.4199358697474,-0.33161329654455185,0.4957762692630291
1772482599786948900,3.096948974609375,-3.2760967231333256,-0.4483849880129099,0.7231599605262279
1772482599796947000,3.106947021484375,-3.12429521933794,-0.5461223086655139,1.0051005868852139
1772482599806944800,3.11694482421875,-2.965290067774057,-0.629430121949315,1.2509516627311705
1772482599816942800,3.12694287109375,-2.8771120181053873,-0.6849468419879674,1.4391624505132437
1772482599826942000,3.13694189453125,-2.787230671650171,-0.6947124491989612,1.5799351952940224
1772482599836939800,3.146939697265625,-2.7520915537297723,-0.6945557973325253,1.637290821197629
1772482599846937900,3.156937744140625,-2.744285848414898,-0.5604080236494541,1.6768687983483075
1772482599856936000,3.16693603515625,-2.810705655261874,-0.3606453297615051,1.6579869877457618
1772482599866933800,3.176933837890625,-2.8766771338194608,-0.12157996853291987,1.5950912633717058
1772482599876932900,3.186932861328125,-2.988267038735747,0.18147651109099386,1.4885399371445178
1772482599886931000,3.196930908203125,-3.1196973701536654,0.5124935953080654,1.381672969096899
1772482599896928800,3.2069287109375,-3.1961183465331793,0.6959060428977012,1.2885557094603777
1772482599906926800,3.2169267578125,-3.2178368418663736,0.9277046279937028,1.2332330506891012
1772482599916925000,3.226925048828125,-3.2183465449541804,1.0687310552746057,1.1876608015596866
1772482599926924000,3.236924072265625,-3.0719284877628086,0.9990075307071208,1.23418640589118
1772482599936921900,3.246921875,-2.795983302426338,0.7967460057407617,1.4193413132339716
1772482599946920000,3.256919921875,-2.4965245550334454,0.48499651657342907,1.6040291875869035
1772482599956918000,3.26691796875,-2.192033074170351,0.15517828675210474,1.7217039653748274
1772482599966915800,3.276915771484375,-1.980378866958618,-0.086944708481431,1.7789982164800167
1772482599976914000,3.286913818359375,-1.8620622841358183,-0.1885118165552616,1.7492770319551227
1772482599986913000,3.2969130859375,-1.8931896821968257,-0.09706745856702327,1.5723504392534493
1772482599996910800,3.306910888671875,-2.0552064366668463,0.23555998345613477,1.2640911302894353
1772482600006909000,3.316908935546875,-2.3596089240722358,0.785973267313838,0.8365209667682647
1772482600016907000,3.326906982421875,-2.6912235357910395,1.4321037641733885,0.47058512938320635
1772482600026904800,3.33690478515625,-3.0265754343420266,2.2342034059017895,-0.007559621599316596
1772482600036904000,3.346904052734375,-3.3606893155306574,3.025552521035075,-0.4774070843577385
1772482600046902000,3.356902099609375,-3.604533143207431,3.5623639805197715,-0.8038169670403004
1772482600056899800,3.36689990234375,-3.5008331147581337,3.5182939526468515,-0.7288543727755546
1772482600066898000,3.37689794921875,-3.0001731651067733,2.764437240561843,-0.3023071225613356
1772482600076896000,3.38689599609375,-2.3679165875598787,1.6688550032407043,0.29889059211611746
1772482600086895000,3.39689501953125,-1.7149547833755612,0.6476315490722656,0.9630828153669834
1772482600096893000,3.406892822265625,-1.092666057613492,-0.1459656372487545,1.5033049600780009
1772482600106891000,3.41689111328125,-0.31577275333404536,-0.634387452095747,1.8305156377494334
1772482600116889000,3.42688916015625,2.141175870375335,-0.5479524467021226,2.2445856837064024
1772482600126887000,3.436886962890625,2.4070541274666786,-0.18129881643652915,2.4142758954137564
1772482600136885800,3.4468857421875,2.374277647024393,0.22787527417242526,2.064550019073486
1772482600146883800,3.4568837890625,3.1536870257779954,0.7181973696827888,0.9300795404314994
1772482600156882000,3.4668818359375,4.504775179257988,1.6141875935077665,-0.23194822269976137
1772482600166880000,3.4768798828125,5.339558362448215,2.378085807135701,-1.364692023679614
1772482600176878000,3.486878173828125,5.381811111766099,2.7821850786983964,-2.8004887971520422
1772482600186876700,3.496876708984375,4.38656848655045,2.605511583974957,-2.8224668202042578
1772482600196874800,3.506874755859375,3.1931635883808136,1.937963036033511,-1.6258891372174025
1772482600206872800,3.516872802734375,2.0558646083146335,1.298633451360464,-0.33456922374069686
1772482600216871000,3.526870849609375,1.1283090334028005,0.8459580726772546,0.5132675022900104
1772482600226869000,3.536868896484375,0.15417583171129226,0.4316822750151157,0.5992524258285761
1772482600236867800,3.546867919921875,0.07072362325442955,0.46550914129316806,0.8380038988023996
1772482600246866000,3.556865966796875,-0.08627192378640175,0.36306115873157974,0.502110148459673
1772482600256863700,3.56686376953125,-0.17441439068503678,0.42153848214149475,0.15109657039642332
1772482600266861800,3.57686181640625,-0.3314835326850414,0.4741717556983232,0.2708849793374538
1772482600276860000,3.58685986328125,-0.3736205466687679,0.35903614099919795,0.40051089168190956
1772482600286857700,3.596857666015625,-0.4362929836809635,0.15350246249437333,0.5909060377657414
1772482600296856800,3.60685693359375,-0.22535788452401756,-0.040377018573880194,0.6142009886354207
1772482600306855000,3.61685498046875,-0.19151289806738495,-0.20803777028024195,0.8744014923512935
1772482600316852700,3.626852783203125,-0.3497451655626297,-0.2750836000710726,1.2886883959293365
1772482600326850800,3.636850830078125,-0.5273008499480784,-0.4862199208885431,1.9016577969431876
1772482600336849000,3.646848876953125,-0.619164310131222,-0.6275602364242077,2.4131267253786324
1772482600346847700,3.65684765625,-0.602850158059597,-0.5884399399131536,2.5835861678928134
1772482600356845800,3.666845703125,-0.47019773750081656,-0.5106500132679939,2.313422488567233
1772482600366844000,3.676843994140625,-0.2760371014036238,-0.40068274111747737,2.037856657937169
1772482600376841700,3.686841796875,-0.05971373333707451,-0.2561199564039707,1.7354758856177328
1772482600386839800,3.69683984375,0.2030547211706638,-0.06802490395605564,1.3540180694520472
1772482600396839000,3.7068388671875,0.5011947871804238,0.08227554762661457,0.8598468972980976
1772482600406837000,3.7168369140625,0.7683165415268391,0.17444471275806425,0.45778293095529077
1772482600416834800,3.726834716796875,0.8847486988425254,0.20082360111773012,0.14941197831034658
1772482600426833000,3.7368330078125,0.8477939828675239,0.15642974811792373,-0.006413958695530891
1772482600436831000,3.7468310546875,0.7156359947621822,0.11870879701077937,0.010887304717302322
1772482600446829800,3.756829833984375,0.46620516073331236,0.03429682187736034,0.04852642275989055
1772482600456828000,3.766827880859375,0.1455038649559021,-0.08321896595656872,0.06455109036564827
1772482600466826000,3.776825927734375,-0.1462532950837165,-0.24659400316774843,0.03223638221621513
1772482600476823800,3.78682373046875,-0.24657836720719933,-0.5470335782915353,-0.19487901349961756
1772482600486822000,3.79682177734375,0.08261515484452248,-0.9013058658897877,-0.5762053122401237
1772482600496820000,3.806820068359375,0.39592707102298735,-1.2379466352075337,-0.7937935856759548
1772482600506818800,3.81681884765625,0.34202830757498737,-1.4929378798425197,-0.6848211697816848
1772482600516817000,3.82681689453125,0.19364859492182732,-1.686771183681488,-0.5689706848114728
1772482600526815000,3.83681494140625,0.03112842097431421,-1.8555647388100622,-0.4802028525561094
1772482600536812800,3.846812744140625,-0.09059154055118561,-2.053908798071742,-0.4443202227920294
1772482600546811000,3.856810791015625,-0.1007468777321279,-2.245716733562946,-0.5565373196959496
1772482600556810000,3.86681005859375,0.06571414279565214,-2.39192670096159,-0.7821604310274124
1772482600566808000,3.87680810546875,0.26488573892265554,-2.443126142323017,-0.989838720345497
1772482600576806000,3.886805908203125,0.46148353903889655,-2.427527006652951,-1.1852315285861492
1772482600586804000,3.896803955078125,0.5782182594977319,-2.253147175824642,-1.3149234919041395
1772482600596802000,3.906802001953125,0.4999674373425543,-1.9098364272236823,-1.3931699301451443
1772482600606801000,3.91680078125,0.2714928821027279,-1.591083196774125,-1.3901479519754647
1772482600616799000,3.926799072265625,0.067209203658998,-1.41759125469625,-1.4787451038390398
1772482600626797000,3.936797119140625,-0.1468061797261238,-1.416261467397213,-1.5940397084921598
1772482600636795000,3.946794921875,-0.38408334236368535,-1.6161995178520678,-1.630037489068508
1772482600646793000,3.95679296875,-0.6025403614580631,-1.9510913976758717,-1.5585627369195223
1772482600656791000,3.966791015625,-0.7775054448284209,-2.1846727745354175,-1.3696347407788036
1772482600666790000,3.976789794921875,-0.7352176241971552,-2.270232166138291,-1.3414917653560638
1772482600676788000,3.9867880859375,-0.4085420763157308,-2.1284534591853617,-1.6734721416473388
1772482600686785800,3.996785888671875,0.053826282733678815,-1.3993886585295199,-2.2991671687215565
1772482600696782800,4.006782958984375,0.7561690806806087,-0.3137058839321136,-2.4682506467074155
1772482600706782000,4.016781982421875,1.1411283290959895,0.483342319625616,-2.352453353229165
1772482600716779800,4.02677978515625,1.0248495357111096,1.2035942837506532,-2.0510580848157405
1772482600726777900,4.03677783203125,0.5520772715471685,1.800226882469654,-1.8225719852685927
1772482600736776000,4.04677587890625,-0.09052154405489564,2.3362626814067364,-1.585633699196577
1772482600746773800,4.056773681640625,-0.6285246244769543,2.6411995679497715,-1.4429846391499042
1772482600756772900,4.06677294921875,-1.0259889880698174,2.5134078852951527,-1.427993990767002
1772482600766771000,4.07677099609375,-1.2594400896131992,2.3205577472746373,-1.5808768600583076
1772482600776768800,4.086768798828125,-1.103012679582834,2.431253333699703,-1.7664041078448294
1772482600786766800,4.096766845703125,-0.3112824927100912,2.786576591655612,-1.652837349897623
1772482600796765000,4.106764892578125,0.579433042114973,2.8878695589631795,-1.6130425151258707
1772482600806763800,4.116763671875,0.8814625167787075,2.481165073338151,-1.6617425408869981
1772482600816761900,4.126761962890625,0.9492739971797913,1.7540286103963851,-1.432419990515709
1772482600826760000,4.136760009765625,0.9715898738842457,1.1244687245875595,-0.9112491677552461
1772482600836757800,4.1467578125,0.7531669031899422,0.5793465328752995,-0.3122083388507366
1772482600846755800,4.156755859375,0.33337957556471226,0.1143026710063219,0.25894319713115693
1772482600856754000,4.16675390625,-0.12682130325250326,-0.23251930058598516,0.7386135502457618
1772482600866752800,4.176752685546875,-0.5061271290160715,-0.492624527233839,1.04861824157238
1772482600876750600,4.18675048828125,-0.8277519693791866,-0.7146475682467222,1.2730746472120285
1772482600886748700,4.196748779296875,-1.1094599560260772,-0.8599830908983945,1.3905682232141494
1772482600896746800,4.206746826171875,-1.2967267409563064,-0.8772826007455586,1.3733411940813063
1772482600906744800,4.216744873046875,-1.384304486644268,-0.721940063342452,1.1752893957644701
1772482600916743700,4.22674365234375,-1.4372867197692394,-0.43729368515610695,0.8788964656829833
1772482600926741800,4.23674169921875,-1.4643582665681838,-0.13996201291978358,0.691594609439373
1772482600936739600,4.246739501953125,-1.4630816707611083,0.20111001684367655,0.4369453101098537
1772482600946737700,4.256737548828125,-1.4144634780645369,0.5621265180051327,0.1421615687906742
1772482600956735700,4.26673583984375,-1.3180664661049841,0.8557511524170637,-0.015655249771475793
1772482600966734600,4.276734619140625,-1.148530568176508,0.9838140532284975,0.034873160460591315
1772482600976732700,4.286732666015625,-0.9688789344251155,0.8781319110512733,0.2587660869985819
1772482600986730800,4.296730712890625,-0.7695991286832838,0.6049526832967996,0.6693529670149088
1772482600996728600,4.306728515625,-0.5328150833249092,0.2447662032186985,1.1431781012326478
1772482601006726700,4.3167265625,-0.47583004429936404,-0.17816461006402967,1.5154881498247383
1772482601016724700,4.326724853515625,-0.5505880559027194,-0.5618272427976131,1.8016519468367098
1772482601026723800,4.336723876953125,-0.6066577336490154,-0.8485971890091896,2.0339947218120096
1772482601036721700,4.3467216796875,-0.6612649376273155,-0.9993722723662852,2.1887381242781876
1772482601046719700,4.3567197265625,-0.7364601716041564,-1.0452923120200632,2.2536989644885064
1772482601056717800,4.3667177734375,-0.8073264364659786,-0.9642869304597377,2.289309791573882
1772482601066715600,4.376715576171875,-0.8874515280604361,-0.7938836020469665,2.2062954082787036
1772482601076714800,4.38671484375,-0.99317166416049,-0.5892857430875301,2.043718243446946
1772482601086712800,4.396712890625,-1.0417126999676227,-0.40204292355477805,1.8601432987719773
1772482601096712000,4.4067119140625,-1.0422563053250313,-0.27398645248413084,1.6869003630191086
1772482601106709800,4.416709716796875,-1.0172083733081818,-0.2244476378113031,1.5816992823570966
1772482601116707800,4.426707763671875,-0.968206734251976,-0.30402327882945535,1.5780220551490782
1772482601126705700,4.43670556640625,-0.8337573472738266,-0.4202198007583618,1.5919214011639355
1772482601136703700,4.446703857421875,-0.6635048255085945,-0.5178028076320886,1.5620605159074068
1772482601146702800,4.456702880859375,-0.5579916101574898,-0.6177770935565233,1.4249573995500802
1772482601156701000,4.466700927734375,-0.5209294152200221,-0.7127835279405117,1.2698317197680473
1772482601166698800,4.47669873046875,-0.532798716711998,-0.7921019793272018,1.134652849471569
1772482601176696800,4.48669677734375,-0.5657447085022926,-0.8582727798491716,1.024212699112296
1772482601186695000,4.49669482421875,-0.5883095915317536,-0.9002391134411096,0.8837450747579335
1772482601196693800,4.50669384765625,-0.609015694952011,-0.8743453782498836,0.6771919900774955
1772482601206691800,4.51669189453125,-0.643760845118761,-0.8099164529591798,0.4216699995666742
1772482601216690000,4.52668994140625,-0.6967676281630992,-0.7004922016441821,0.12193301975429058
1772482601226687700,4.536687744140625,-0.7523626741349697,-0.5700999811023474,-0.1922813982218504
1772482601236685800,4.546685791015625,-0.8129284942567347,-0.42257834658324717,-0.5143342547386884
1772482601246684700,4.5566845703125,-0.8704758433401584,-0.29337036738991734,-0.8373778758585453
1772482601256682800,4.566682861328125,-0.9063841920673846,-0.17558219235539435,-1.1751192998945712
1772482601266680800,4.576680908203125,-0.86508304438591,-0.10219371553957461,-1.4674199922263622
1772482601276679000,4.586678955078125,-0.823733965909481,-0.14359773907363413,-1.6282669722646474
1772482601286676700,4.5966767578125,-0.8401029169082641,-0.28314474145174023,-1.6134376519232987
1772482601296675600,4.606675537109375,-0.903996420148015,-0.5643956319808959,-1.4521294841140509
1772482601306673700,4.616673583984375,-0.9949345821797847,-0.924666283211112,-1.214290449810028
1772482601316671700,4.626671630859375,-1.048012092372775,-1.3219202189236878,-1.0039601846784352
1772482601326669600,4.636669677734375,-1.0620926401734352,-1.6615741985827683,-0.8655360488504171
1772482601336668000,4.64666796875,-1.1295517269402742,-1.6909616211086511,-1.021476552146673
1772482601346666000,4.656666015625,-1.2490513820677995,-1.1453075144767761,-1.6363450647801159
1772482601356664600,4.66666455078125,-1.4581019826523958,-0.23700024539232253,-2.592852008888125
1772482601366662700,4.67666259765625,-1.562973539099097,0.742856010121107,-3.7188100952506065
1772482601376660700,4.68666064453125,-1.4247867191582917,1.5321604676842688,-4.556781845349073
1772482601386658600,4.696658447265625,-0.9856512785930186,1.9038637825548648,-5.071352246931195
1772482601396656600,4.70665673828125,-0.4182710047781467,1.6017407843887805,-5.198084191399812
1772482601406655700,4.71665576171875,0.04032748034372925,0.7124263850659132,-4.564219301873445
1772482601416653800,4.72665380859375,0.2935516422409564,-0.3019517332524061,-3.4116450112640857
1772482601426651600,4.736651611328125,0.22852058633863925,-0.9963666608095169,-2.3643512962937354
1772482601436649700,4.746649658203125,-0.07709887564107776,-1.3102964166253805,-1.5926842022299765
1772482601446647600,4.7566474609375,-0.42598311352543533,-1.425483469250798,-1.1138210738450287
1772482601456645600,4.766645751953125,-0.5510176064264029,-1.4025409850805997,-0.7018319258153438
1772482601466644700,4.776644775390625,-0.27933300114385784,-1.180619650876522,-0.29928280630409715
1772482601476642800,4.786642822265625,0.17210370258986948,-0.7944336371451616,-0.07144435701072216
1772482601486640600,4.796640625,0.46436640099883075,-0.34150282239615914,-0.013869535398483275
1772482601496638700,4.806638671875,0.7525480406392365,0.2610609199374914,0.0019511340677738189
1772482601506636800,4.81663671875,0.9405823028106242,0.9247147985279559,-0.08929565552175045
1772482601516635600,4.8266357421875,0.9962077439207583,1.511798063135147,-0.17944646656811236
1772482601526633700,4.8366337890625,0.8349263910531998,1.7111697118788955,-0.32183015367686746
1772482601536631800,4.8466318359375,0.4708960219632834,1.7455121264636515,-0.32938276101350783
1772482601546629600,4.856629638671875,0.16995733821094036,1.6933189978897571,-0.1968038440823555
1772482601556627700,4.866627685546875,-0.089676727261208,1.6053928771555424,0.06476619442105293
1772482601566625800,4.876625732421875,-0.24486849454939363,1.4910487050950527,0.43657004705667496
1772482601576625000,4.886625,-0.32894027794301506,1.3606903868228197,0.6508107636302709
1772482601586622700,4.896622802734375,-0.3516863627582788,1.3291326345205305,0.7579016035616397
1772482601596620800,4.906620849609375,-0.3815880914818495,1.345329736083746,0.935479353648424
1772482601606618600,4.91661865234375,-0.42627716456856574,1.3048860820144415,1.166311139538884
1772482601616616700,4.92661669921875,-0.4384919550299644,1.1964765606999397,1.3599638261139393
1772482601626615800,4.93661572265625,-0.3484755109529942,1.0459463920146226,1.6944301740020513
1772482601636614000,4.94661376953125,-0.17864048394747079,0.8276759815335273,2.1288602864205837
1772482601646611700,4.95661181640625,-0.018691840988397598,0.5935673659294843,2.491742581453919
1772482601656609800,4.96660986328125,0.13799688685927539,0.37214462889730926,2.836120082503557
1772482601666607900,4.97660791015625,0.1913438251107931,0.11774842754602431,3.004268909987807
1772482601676607500,4.986607421875,0.09296060777008533,-0.1465361306130886,2.994396335271001
1772482601686605600,4.99660546875,-0.05827040266096591,-0.3340805634409189,2.932990557193756
1772482601696603600,5.006603759765625,-0.25785825143866237,-0.45558746673762796,2.7501421732276676
1772482601706601700,5.016601806640625,-0.41620939607322216,-0.4633014021158218,2.4653128396898505
1772482601716599800,5.026599853515625,-0.5383288783103227,-0.3356196095764637,2.129920609128475
1772482601726597600,5.03659765625,-0.6305225933611392,-0.16099544859826564,1.8377070105582474
1772482601736596500,5.046596435546875,-0.7038783369511366,-0.0034866730719804763,1.5483780275136232
1772482601746594600,5.056594482421875,-0.7580132472425699,0.056312838852405546,1.3375900817424058
1772482601756592600,5.066592529296875,-0.7990724028617143,0.03342062356472015,1.2107798113405703
1772482601766590700,5.0765908203125,-0.8312076627910137,-0.06514321103990077,1.1884101586222648
1772482601776588800,5.0865888671875,-0.8245260661352425,-0.19803367813825606,1.2767004364937544
1772482601786587400,5.09658740234375,-0.8146002268612385,-0.34679274549782274,1.354979023438692
1772482601796585500,5.10658544921875,-0.8186335009653121,-0.47836979191005224,1.3920295279383659
1772482601806583600,5.11658349609375,-0.7970312524229287,-0.574882539203763,1.383586109241843
1772482601816581400,5.126581298828125,-0.7492746449917554,-0.6192448280215263,1.283470953541994
1772482601826579500,5.136579345703125,-0.7160948444455861,-0.5911351703464984,1.141186050632596
1772482601836577500,5.14657763671875,-0.6650843497850001,-0.5252577998131513,1.0075678537815809
1772482601846576600,5.15657666015625,-0.5895167753644287,-0.4451975901484489,0.8530454005897045
1772482601856574500,5.166574462890625,-0.49359614874497054,-0.3755687581270933,0.6918062063634395
1772482601866572500,5.176572509765625,-0.31108415712639687,-0.33670039055049417,0.4100444437026977
1772482601876570600,5.186570556640625,0.0627063392817974,-0.27219606193602086,-0.02788987744450569
1772482601886568400,5.196568359375,0.6730905461080372,-0.19845628746449948,-0.6813701525449752
1772482601896567600,5.206567626953125,1.4772458051919937,-0.12869009279906748,-1.3386205938339233
1772482601906565600,5.216565673828125,1.94324302226305,-0.13393851484656333,-1.7591075210958718
1772482601916563500,5.2265634765625,1.988402014416456,-0.19139117138385772,-1.9231693715274334
1772482601926561500,5.2365615234375,1.6937796011388302,-0.2909159599751234,-1.8287416138142347
1772482601936559600,5.2465595703125,1.2270080386944116,-0.34598084459304806,-1.8481161763697862
1772482601946558500,5.256558349609375,0.7673084604628384,-0.2952916908413172,-2.138809433504939
1772482601956556500,5.266556640625,0.5516663526587188,-0.06923720235526562,-2.370122280910611
1772482601966554600,5.2765546875,0.283023014768213,0.2539543028026819,-2.35938169118762
1772482601976552400,5.286552490234375,-0.23167115932404994,0.6048579907506704,-2.0860645162671805
1772482601986550500,5.296550537109375,-0.7641501425623893,0.8528741356760263,-1.8326625866502522
1772482601996548600,5.306548583984375,-1.2530419130086898,0.931844796538353,-1.7771464511334896
1772482602006547700,5.316547607421875,-1.5962112073123453,0.9183107767045497,-1.577246394601464
1772482602016545500,5.326545654296875,-1.711073850288987,0.8033464269191026,-1.2727929076611995
1772482602026543600,5.336543701171875,-1.703382711264491,0.6754881087690592,-0.9496808974802493
1772482602036541700,5.346541748046875,-1.6178864480257034,0.6483855823099612,-0.7332453012108803
1772482602046539500,5.35653955078125,-1.4866180291712283,0.7325321845054626,-0.6248743583410978
1772482602056538600,5.36653857421875,-1.3922335260778664,0.8253700426787137,-0.5543126293838024
1772482602066536700,5.37653662109375,-1.4123931015312672,0.8952402822405099,-0.4816933833748102
1772482602076534500,5.386534423828125,-1.4896522823005913,0.9205798906803131,-0.44270109715759753
1772482602086532600,5.39653271484375,-1.5516636250555513,0.8877379437863826,-0.3771972361117601
1772482602096530700,5.40653076171875,-1.6631331184625624,0.8175555695354938,-0.346154447594285
1772482602106528500,5.416528564453125,-1.6076187365114687,0.7230985857278108,-0.1557861895173788
1772482602116527600,5.426527587890625,-1.6077566836774349,0.6556511893987655,-0.07949263890981674
1772482602126525700,5.436525634765625,-1.561705711120367,0.5867869120091199,0.1116536178022623
1772482602136523500,5.4465234375,-1.574670991155505,0.36348318353593345,0.3364841174513101
1772482602146521600,5.456521484375,-1.5555577098846434,0.37078093932867046,0.3870528596937656
1772482602156519700,5.466519775390625,-1.5815315245747565,0.2581435711860657,0.4745516949266195
1772482602166518800,5.476518798828125,-1.6895055770814418,0.08993979864418507,0.3797995275646448
1772482602176516600,5.4865166015625,-1.9293050978034734,-0.013458616510033607,0.1771001957029104
1772482602186514700,5.4965146484375,-2.377238834917545,-0.056474166893959045,-0.02555237440764904
1772482602196512800,5.5065126953125,-2.8919758252382275,-0.1047346321940422,-0.20395546940267084
1772482602206510600,5.516510498046875,-3.432506597507,-0.172608144980669,-0.35415129156708713
1772482602216508700,5.5265087890625,-3.890373115092516,-0.2263824052661657,-0.3249123376011848
1772482602226507800,5.5365078125,-4.222500790899992,-0.3240682879924774,-0.2601724466651678
1772482602236505600,5.546505615234375,-4.443521376872062,-0.4148685028582811,-0.23337504063248632
1772482602246503700,5.556503662109375,-4.581279157745838,-0.5391261661678552,-0.2973036151856184
1772482602256501800,5.566501708984375,-4.581276527397335,-0.6293260770529508,-0.3207733381003141
1772482602266499600,5.57649951171875,-4.560529799705743,-0.6931897696763276,-0.3946960679233074
1772482602276498400,5.58649853515625,-4.539060310697555,-0.797946613702178,-0.540823617735505
1772482602286496500,5.59649658203125,-4.445042302829027,-0.9331132090389728,-0.5837316160917282
1772482602296494600,5.60649462890625,-4.328924691355228,-1.0341764592438936,-0.5278016390770673
1772482602306492700,5.61649267578125,-4.209571166700124,-1.132961243122816,-0.4256044164061546
1772482602316490800,5.62649072265625,-4.063284042412042,-1.2470534862488507,-0.3597966039776802
1772482602326488600,5.636488525390625,-3.9217338835179802,-1.350965696144104,-0.3679652973860502
1772482602336487400,5.6464873046875,-3.768423436464369,-1.4291700488090515,-0.3819938227385282
1772482602346485500,5.656485595703125,-3.6608734545886517,-1.4262433477073908,-0.4461111978620291
1772482602356483600,5.666483642578125,-3.6199884864926335,-1.3158470364898442,-0.6402613125652075
1772482602366481700,5.676481689453125,-3.6165386382997036,-1.1064975990891457,-0.8843278430819511
1772482602376479700,5.686479736328125,-3.619150282102823,-0.859163591209054,-1.1118985813498496
1772482602386478600,5.696478515625,-3.64349444976449,-0.6019628538310527,-1.2899813583493231
1772482602396476400,5.706476318359375,-3.7034231410264966,-0.3813461724847555,-1.4057944339185953
1772482602406474500,5.716474609375,-3.71305839985609,-0.25769524289667606,-1.3514239613056183
1772482602416472600,5.72647265625,-3.6870857542097566,-0.22349720521867275,-1.157575459897518
1772482602426470400,5.736470458984375,-3.624236791586876,-0.2631622761309147,-0.924345380693674
1772482602436468500,5.746468505859375,-3.5332299482330676,-0.2809013464391231,-0.7304477794468403
1772482602446467600,5.756467529296875,-3.418930492097139,-0.26119068379700183,-0.6206061795026063
1772482602456465400,5.76646533203125,-3.2766181166589257,-0.2040928320467472,-0.5551385588139295
1772482602466463500,5.77646337890625,-3.090135760104656,-0.16115502307415008,-0.4628793773114681
1772482602476461600,5.786461669921875,-2.8702783726930616,-0.18665771312117577,-0.351076121905446
1772482602486459400,5.79645947265625,-2.6675933616176244,-0.22441198197603224,-0.2496457919538021
1772482602496458500,5.80645849609375,-2.4649533587276933,-0.28439444925189017,-0.14815350268185137
1772482602506456600,5.81645654296875,-2.2500246598899363,-0.360240840613842,0.014552841487526893
1772482602516454700,5.82645458984375,-2.05730662381649,-0.4308540074974298,0.17399930707812308
1772482602526452500,5.836452392578125,-1.8851941533982752,-0.48397944848537444,0.36141105343699453
1772482602536450600,5.846450439453125,-1.7384253830730914,-0.5095300693273545,0.5256611199170351
1772482602546448600,5.85644873046875,-1.611747799140215,-0.5430705198794603,0.7339841368794441
1772482602556447500,5.866447509765625,-1.536430984610319,-0.530284688064456,0.8827560637205839
1772482602566445600,5.876445556640625,-1.4844330863475799,-0.4451332927405834,0.9826192904859781
1772482602576443600,5.886443603515625,-1.4768576826572417,-0.2988824088096618,0.9923469037741423
1772482602586441500,5.89644140625,-1.5262486132919788,-0.11785188792049885,0.9064075729429721
1772482602596439600,5.906439453125,-1.5723182905495166,0.09085165279209613,0.7395020235180855
1772482602606438700,5.916438720703125,-1.6243571053445338,0.29670798738002774,0.6081108550667762
1772482602616436500,5.9264365234375,-1.6334043351531027,0.5177139603048563,0.5099848273575306
1772482602626434600,5.9364345703125,-1.6569044532060622,0.7412474058806896,0.37951778801381586
1772482602636432600,5.9464326171875,-1.6560604035973547,0.8749392524898052,0.27786709330976006
1772482602646430500,5.956430419921875,-1.6567758583903311,0.8896429006248712,0.20319792903363704
1772482602656428500,5.966428466796875,-1.6306652655780314,0.8160656232386827,0.2639455354630947
1772482602666427600,5.976427734375,-1.590223365074396,0.7049310608744621,0.41544133431017394
1772482602676425000,5.986425048828125,-1.5521218902170657,0.6061135437697172,0.5598848765581846
1772482602686423000,5.996423095703125,-1.4714379956960677,0.551191282492876,0.7108972758024931
1772482602696420900,6.0064208984375,-1.351381291207671,0.5136293213397264,0.8593781107425689
1772482602706419000,6.0164189453125,-1.2370704368948935,0.5089677592694759,0.9546896655529737
1772482602716418000,6.02641796875,-1.1344792464703322,0.547082678130269,1.064092289558053
1772482602726416100,6.036416015625,-1.066613916990161,0.7019073291391134,1.0504045404672622
1772482602736414000,6.0464140625,-1.0510603740274906,0.9953396558493375,0.9447200602024793
1772482602746412000,6.056412109375,-0.9874733063884079,1.3427251065433023,0.7749480154305696
1772482602756410000,6.06641015625,-0.9008674744725227,1.7076304318368434,0.6246002175748347
1772482602766408000,6.076407958984375,-0.7700678421735763,1.9986551128834484,0.5199760600179434
1772482602776407000,6.086406982421875,-0.642346813602373,2.2094775454461573,0.433774278858304
1772482602786405000,6.096405029296875,-0.4837800534557551,2.3057728505969046,0.47197044626176354
1772482602796403000,6.10640283203125,-0.2388091945104301,2.2194307841837406,0.5573626646041869
1772482602806401000,6.116401123046875,0.09569500117003917,1.9493325713098049,0.6279010126858949
1772482602816399000,6.126399169921875,0.5621785404533147,1.5986580159425734,0.6493681636065244
1772482602826398000,6.13639794921875,2.251293218521029,1.3041191892951727,0.6490495991766453
1772482602836396000,6.14639599609375,2.5420412745833394,1.0489327143490315,0.45113808611333367
1772482602846394000,6.15639404296875,1.9132709317170082,0.8798153340935707,0.035922377252578734
1772482602856392000,6.166391845703125,2.0664064605951307,0.8414046471565961,-0.11125965004861355
1772482602866390000,6.17639013671875,2.344314470437169,0.661319882684946,-0.36149756267666816
1772482602876388000,6.18638818359375,2.58161516008079,0.3371335212707519,-0.8997118746966123
1772482602886387200,6.19638720703125,2.4151538472920655,0.20717852310240267,-0.9230278683543205
1772482602896385000,6.206385009765625,1.8922633611321449,0.035625440132617946,-0.5511766694456338
1772482602906383000,6.216383056640625,1.3604723601579665,-0.21420856786966322,-0.05546469759047031
1772482602916381200,6.226381103515625,0.8039431507032364,-0.28774726681113244,0.5527817665547132
1772482602926379000,6.23637890625,0.36956411088481544,-0.23773557392954825,0.9429711707085371
1772482602936378000,6.246378173828125,0.2311409979701042,-0.08753390654623508,1.1153040058791637
1772482602946376200,6.256376220703125,0.29738705568537116,0.06874737301170826,1.011308793875575
1772482602956374000,6.2663740234375,0.4882533264122903,0.1355079561203718,0.8511918816775083
1772482602966372000,6.2763720703125,0.6660356591604649,0.14857260487675666,0.787002610361576
1772482602976370200,6.2863701171875,0.8108088717542589,0.08859306021034717,0.8592471778392792
1772482602986368000,6.296367919921875,0.9803532452501356,0.04912088152170181,1.125557104346156
1772482602996367000,6.3063671875,1.0853891984783113,-0.045126843449473375,1.3221183718442917
1772482603006365200,6.316365234375,1.1582022134937344,-0.06180325296223163,1.5221271494477986
1772482603016363000,6.326363037109375,1.1305847232498227,0.052179684570431706,1.783302051153779
1772482603026361000,6.336361083984375,1.0210615416049957,0.21117606830596922,1.6387036106050012
1772482603036359200,6.346359130859375,0.8510952894352376,0.3231237006187439,1.383045426493883
1772482603046357000,6.35635693359375,0.6933516822397708,0.41745618126392364,1.1790052014172077
1772482603056355800,6.36635595703125,0.6190275320090353,0.4366752609968185,0.8914017269909381
1772482603066354000,6.37635400390625,0.6155740305542946,0.313149419093132,0.621507512256503
1772482603076352000,6.38635205078125,0.5897722114302217,0.03318623028695583,0.2806932566463947
1772482603086350000,6.39635009765625,0.35010406200289723,-0.24741350285708902,-0.13960136291384695
1772482603096348200,6.40634814453125,-0.004219225130230188,-0.4438473445832729,-0.5784101288080216
1772482603106347000,6.416346923828125,-0.4068997159361839,-0.6090846685349941,-0.9232476485848427
1772482603116344800,6.4263447265625,-0.8205340008243918,-0.7040390804708003,-0.9402999056726693
1772482603126343000,6.436343017578125,-1.0547918156407774,-0.8083896817833185,-0.8460773151427506
1772482603136341000,6.446341064453125,-1.0288824444890021,-0.975782137942314,-0.7495014394849538
1772482603146338800,6.4563388671875,-0.7557237480659037,-1.1522294226944445,-0.6252490368723869
1772482603156337000,6.4663369140625,-0.47970432844944294,-1.3954887284815312,-0.5061024329662323
1772482603166336000,6.4763359375,-0.3463268815517425,-1.7413514996528625,-0.4950011932373047
1772482603176333800,6.486333740234375,-0.28710195464491844,-1.9956243668854234,-0.4713444233179092
1772482603186332000,6.496331787109375,-0.28597623855061827,-2.167824515587091,-0.5619529150038958
1772482603196330000,6.506330078125,-0.3710125561274588,-2.2812188395768405,-0.6967395711123943
1772482603206327800,6.516327880859375,-0.37763738109469414,-2.348109771066904,-0.8061334272891283
1772482603216327000,6.526326904296875,-0.29237792228646575,-2.3178046491742132,-0.8279770103067159
1772482603226325000,6.536324951171875,-0.20534027482457456,-2.241819726124406,-0.8421709553539752
1772482603236323000,6.546322998046875,-0.24313538714647293,-2.1532401099175216,-0.8686036197274922
1772482603246321000,6.55632080078125,-0.32730895041413605,-2.0835890660643575,-0.8984569061994552
1772482603256319000,6.566319091796875,-0.2656488322496414,-1.9756968466222284,-0.9612567689836025
1772482603266316800,6.57631689453125,-0.011463643300533293,-1.8430179764479397,-1.040070777979493
1772482603276316000,6.58631591796875,0.151249642066285,-1.6792413726985453,-1.0769716448754072
1772482603286314000,6.59631396484375,0.18175832370705902,-1.3688316077023743,-1.1139257032632828
1772482603296312000,6.60631201171875,0.34601715801544486,-0.832137637117505,-1.5227555104792116
1772482603306310000,6.616309814453125,0.7893921358466148,-0.11193827996253966,-1.941853613731265
1772482603316308000,6.626307861328125,1.1465876174151897,0.631287732514739,-2.3151351377040146
1772482603326306000,6.63630615234375,1.085437275403738,1.2601964609384535,-2.6010534355223176
1772482603336305000,6.646304931640625,0.7765338233172893,1.8577187019735573,-2.5851550246447323
1772482603346303000,6.656302978515625,0.468207878857851,2.348046058180928,-2.567200850281119
1772482603356301000,6.666301025390625,0.21512973783519118,2.8011545675843954,-2.4407138204842806
1772482603366299000,6.676298828125,0.08542904322147368,2.978964957383275,-2.1697955233991144
1772482603376297000,6.686296875,-0.008318897267710417,2.8549411028295753,-1.7987082946002482
1772482603386296000,6.696296142578125,-0.02803016269803047,2.6253397355169055,-1.55360599129498
1772482603396294100,6.706294189453125,0.007379004335403442,2.218777288711071,-1.2348591905862092
1772482603406292000,6.7162919921875,0.01761632071137428,1.770719048434496,-0.7714157496511935
1772482603416290000,6.7262900390625,-0.03296818535579368,1.3129127366036175,-0.3650684069007635
1772482603426288000,6.7362880859375,-0.15758123797429724,0.8568909701019525,0.03180675862729549
1772482603436286000,6.746285888671875,-0.34568975269198415,0.4308031540930271,0.37801790484488007
1772482603446285000,6.75628515625,-0.5563385822534561,0.025374095231294632,0.7454922038435936
1772482603456283100,6.766283203125,-0.7573088983654975,-0.3367681950896978,1.0951040984153746
1772482603466281000,6.776281005859375,-0.9285434169054031,-0.5470943685680627,1.2855232098966836
1772482603476279000,6.786279052734375,-1.0686275949001312,-0.5289344424992799,1.160324466344714
1772482603486277000,6.796277099609375,-1.1369278086662291,-0.36965515016913414,0.9988491252750158
1772482603496276000,6.80627587890625,-1.174761572498083,-0.1100678099155426,0.8321779691278934
1772482603506274000,6.816274169921875,-1.2557786444962025,0.2755447878420353,0.6053355451345444
1772482603516272000,6.826272216796875,-1.338018536287546,0.6844499983817338,0.34240766228139397
1772482603526270000,6.83627001953125,-1.4236907406151293,1.0345657508224249,0.1825344957113266
1772482603536268000,6.84626806640625,-1.4715046311914919,1.2131178988993168,0.17986673780679702
1772482603546266000,6.85626611328125,-1.4703262350618838,1.1993173370838164,0.2743044323921203
1772482603556265200,6.86626513671875,-1.4418822308659553,1.0353998635590076,0.3852051860004663
1772482603566263000,6.876262939453125,-1.4147288510024547,0.809511379289627,0.45679625800549983
1772482603576261000,6.88626123046875,-1.4355822539389134,0.5448451283365487,0.48331192448735233
1772482603586259200,6.89625927734375,-1.4528841018736363,0.35934886021018025,0.5342687892645597
1772482603596257000,6.906257080078125,-1.4461585930109022,0.3090022362858057,0.5438572863429785
1772482603606255000,6.916255126953125,-1.379473997747898,0.3106184393107891,0.597184387382865
1772482603616254200,6.926254150390625,-1.274630644482374,0.2855786906003952,0.7597282344669103
1772482603626252000,6.936251953125,-1.1672037044644354,0.2492360421091318,0.9707838912636041
1772482603636250000,6.94625,-1.0916799691855907,0.2016922006458044,1.2209417243927716
1772482603646248200,6.956248291015625,-0.9867220496296882,0.097079149004817,1.4315104744553566
1772482603656246000,6.96624609375,-0.8792880953490734,0.008089782953262329,1.649993066382408
1772482603666244900,6.976244873046875,-0.783998167848587,-0.1428624105364084,1.8540514116376636
1772482603676243000,6.986242919921875,-0.6702057844519614,-0.2911854245662689,1.999414991340041
1772482603686241000,6.996240966796875,-0.5382230798482894,-0.3596089724510908,2.114099355140328
1772482603696238800,7.00623876953125,0.012589395927451551,-0.45206455330848694,2.3780402144283053
1772482603706237000,7.01623681640625,0.4320411714553833,-0.5068593888133764,2.4733400788009163
1772482603716235000,7.026235107421875,0.5212883116602898,-0.5421317777246236,2.347643322598934
1772482603726233900,7.03623388671875,0.5273229521820322,-0.5139543155103922,2.098402019792795
1772482603736231700,7.046231689453125,0.48431500058267263,-0.5092144275069237,1.9041665648937225
1772482603746229800,7.056229736328125,0.2755319283604622,-0.5162994173318147,1.6208026277333496
1772482603756227800,7.066227783203125,-0.16393270762655884,-0.42813831879794595,1.1655384016007184
1772482603766226000,7.076225830078125,-0.5361912452271208,-0.300989610221982,0.8252928857892751
1772482603776224000,7.08622412109375,-0.6859867064297199,-0.14748714772760868,0.6107306821763515
1772482603786222800,7.096222900390625,-0.758290895140171,-0.04087093957066536,0.3800590552836656
1772482603796220700,7.106220703125,-0.8422329877395183,0.05383095890879631,0.11101882703006268
1772482603806218800,7.11621875,-0.9121955086946487,0.09402385308742522,-0.08456219725906848
1772482603816216800,7.126216796875,-1.0669278052449225,-0.04862403791546821,-0.23644494959712026
1772482603826215000,7.13621484375,-1.223895313501358,-0.21885668593645094,-0.4356470869928598
1772482603836213800,7.1462138671875,-1.181863513457775,-0.3644499827414751,-0.5742629460006952
1772482603846211800,7.1562119140625,-1.1414426557421684,-0.47618660265207285,-0.5239654219150542
1772482603856209700,7.166209716796875,-1.1918167521953582,-0.5333621958136558,-0.3923118031352758
1772482603866207700,7.176207763671875,-1.2819903595954178,-0.6357137322634459,-0.3363140215814113
1772482603876205800,7.186205810546875,-1.3809294572532176,-0.693172234019637,-0.7104606379508972
1772482603886203600,7.19620361328125,-1.154619532701373,-0.7237257777154446,-1.327520523148775
1772482603896202800,7.20620263671875,-0.7182587444812059,-1.0481547157138587,-1.6268606125980614
1772482603906200800,7.216200927734375,-0.518382068824768,-1.4589619604825972,-1.6359008281439542
1772482603916198700,7.22619873046875,-0.4587134898036718,-1.9544617508918045,-1.63165603018105
1772482603926196700,7.23619677734375,-0.6762918263673782,-2.3787340419113634,-1.6772107436537742
1772482603936194800,7.24619482421875,-1.0158774169653653,-2.4549942747712135,-1.7802981931626796
1772482603946192600,7.256192626953125,-1.4777052393972874,-2.0252187101602552,-2.250452529913187
1772482603956191700,7.266191650390625,-1.6143968523442744,-1.3083143028974533,-2.651107798501849
1772482603966189800,7.27618994140625,-1.4123849182248114,-0.6510539247363806,-2.753080564767122
1772482603976188000,7.28618798828125,-0.9389099126189947,-0.09953940163850784,-2.639613760063052
1772482603986185700,7.296185791015625,-0.35969372812509537,0.46969022637009616,-2.405240356042981
1772482603996183800,7.306183837890625,0.20012509745955467,1.1239853249847889,-2.1220874312847853
1772482604006183000,7.316182861328125,0.545329696983099,1.8979238711118698,-1.641592902305722
1772482604016180700,7.3261806640625,0.6859189018905162,2.402597732579708,-0.9672469493091106
1772482604026178800,7.3361787109375,0.6935282078504562,2.593727038156986,-0.33922026441693304
1772482604036177000,7.346177001953125,0.7871136695206165,2.5042899283379314,0.36960605033040045
1772482604046174700,7.3561748046875,0.7572153748631477,2.6556851894199847,0.9480810610681771
1772482604056172800,7.3661728515625,0.7794055793613195,2.501971130001545,1.3387936123132704
1772482604066172000,7.376171875,0.873046570611,2.0835463959664104,1.5335972224891186
1772482604076169700,7.386169677734375,1.148647472554445,1.3812731561243534,2.014197549930215
1772482604086167800,7.396167724609375,1.7504279555559157,0.7672153753519058,2.5498352894604204
1772482604096166000,7.406165771484375,2.489195235058665,0.5145014279991388,2.7599913670688867
1772482604106163700,7.416163818359375,2.65215058555305,0.720920072644949,2.289619588175416
1772482604116161800,7.426161865234375,2.1520815875321624,0.8564052324116229,1.5972276908785104
1772482604126161000,7.436160888671875,1.4949544803619383,0.3721288468062877,0.7266594930797815
1772482604136159000,7.446158935546875,0.6393161406695842,0.9092261374950409,0.0841997936874628
1772482604146156800,7.45615673828125,0.3428244263887405,1.3697902236014603,-0.4326929133623838
1772482604156155000,7.46615478515625,0.40983050869107246,1.2141466574251651,-0.7404238145381212
1772482604166153000,7.476153076171875,0.5288321511685848,0.6938128700107336,-0.5499947661846876
1772482604176150800,7.48615087890625,0.5649462516009808,-0.027007249391078948,-0.3837397896230221
1772482604186150000,7.49614990234375,0.7313947049081325,-0.8819453318595886,-0.7982108175963163
1772482604196148000,7.50614794921875,0.967630395668745,-1.5334195278346539,-1.3411059809088706
1772482604206145800,7.516145751953125,1.2168810508251189,-1.9509400065064428,-1.4314847554922103
1772482604216144000,7.526143798828125,1.3554033863306045,-1.9913778153568504,-1.3279226742088794
1772482604226142000,7.536141845703125,1.3743804740011691,-1.6255308252990246,-1.003779567414522
1772482604236140800,7.546140869140625,1.2815373551309108,-0.9820131412863731,-0.28586452180445193
1772482604246139000,7.556138916015625,1.1035446675676852,-0.06343816068768501,0.2092687733799219
1772482604256137000,7.566136962890625,1.0084884757578372,0.4107476235359907,0.5961421848535537
1772482604266134800,7.576134765625,0.7721323004227131,0.47330783234536644,1.186977495470643
1772482604276132900,7.5861328125,0.34012868449874223,0.3177145350515842,1.7488579297602176
1772482604286131000,7.596130859375,0.13707045619674027,0.12510638909339905,2.104906579381227
1772482604296130000,7.606130126953125,0.004193360036611557,-0.10517828430831432,2.0427350776284934
1772482604306128000,7.6161279296875,-0.3918109409410506,-0.38832068767249583,1.9688836594760417
1772482604316126000,7.6261259765625,-0.7393652453958988,-0.7129296584129333,1.7567156575232743
1772482604326124000,7.6361240234375,-1.0216402182757853,-0.9230459885329008,1.4530723179221152
1772482604336121900,7.646121826171875,-1.1600946761768312,-1.0564835681200027,1.1282459050387144
1772482604346120000,7.656119873046875,-1.1451707363545893,-1.0670207442253827,0.71547232863307
1772482604356119000,7.666119140625,-1.0120797782480717,-0.9430845679551363,0.3092711163550615
1772482604366116900,7.676116943359375,-0.6792506761729716,-0.8852285913139581,0.03574702068567276
1772482604376115000,7.686114990234375,-0.1719593256831169,-0.9123229344666004,-0.12490706712901592
1772482604386113000,7.696113037109375,0.30543723728060723,-0.9383131157696246,-0.27933307420909403
1772482604396110800,7.70611083984375,0.5812357076227664,-1.0072615643113851,-0.41718379406332967
1772482604406109000,7.71610888671875,0.5270880109149962,-1.0908078625261783,-0.5115764804631472
1772482604416107800,7.726107666015625,0.29952304480075836,-1.1602250976234674,-0.4766659106016159
1772482604426105900,7.73610595703125,0.04409874251075089,-1.3134808918803929,-0.42574703974723815
1772482604436104000,7.74610400390625,-0.14918514728453008,-1.5152753838568924,-0.39533728843629357
1772482604446102000,7.75610205078125,-0.1442225929737091,-1.8335382004410028,-0.32227614387869835
1772482604456099800,7.766099853515625,0.028337584679387507,-2.0440876612812278,-0.2841571333646774
1772482604466098000,7.776097900390625,0.24703878779318184,-2.0608301217675207,-0.44883156273663044
1772482604476096800,7.7860966796875,0.42785829628016797,-1.972734489685297,-0.6697866822570562
1772482604486094800,7.7960947265625,0.5374480038225651,-1.8436738100081682,-0.8811550582647323
1772482604496092700,7.8060927734375,0.6423088927447795,-1.73596629948318,-1.159948034247756
1772482604506090800,7.8160908203125,0.7377671625494957,-1.6454197671175002,-1.480316883200407
1772482604516088800,7.8260888671875,0.892106587324664,-1.7969564824968576,-1.6098223840355872
1772482604526087700,7.836087646484375,0.9409996514398604,-3.7259155433416367,-0.5666805280476809
1772482604536085800,7.846085693359375,1.569562854361534,-3.7715538434445857,0.14455810853838919
1772482604546083800,7.856083740234375,2.095842982959747,-2.0049182649314403,-0.05197568643093109
1772482604556081700,7.86608154296875,2.20661923340559,0.09398059846758842,-1.0343354491978882
1772482604566079700,7.876079833984375,2.2067279544770715,1.7591577899783848,-2.3773417107701302
1772482604576077800,7.886077880859375,1.8125404205977915,3.095311116915941,-2.8996242941647767
1772482604586076700,7.89607666015625,0.88822777312994,3.162431180986762,-2.333139580950141
1772482604596074800,7.90607470703125,0.23572248054146766,2.5094424887955187,-1.1381354308903218
1772482604606072800,7.91607275390625,-0.3414449547290802,1.0566507413804531,-0.3363648749858141
1772482604616070700,7.926070556640625,-0.8254547983527183,-0.34652795708179474,-0.26562837398350236
1772482604626068700,7.93606884765625,-0.8124701560299843,-0.9912713834971189,-0.8928075021356344
1772482604636066800,7.94606689453125,-0.7041852840084583,-0.7840542819499969,-1.7081874811977147
1772482604646066000,7.95606591796875,-0.670072513461113,-0.024629998865723608,-2.708568638345599
1772482604656063700,7.966063720703125,-0.5106454101581126,0.8923311167955398,-3.598918810456991
1772482604666061800,7.976061767578125,-0.12684475719332694,2.354830019232631,-4.1558921834826466
1772482604676060000,7.986059814453125,0.31881924489047375,3.2131466382235288,-3.9879058530837295
1772482604686057700,7.9960576171875,0.692142890971899,3.295340352785587,-3.1901012782007454
1772482604696055600,8.0060556640625,0.9727683430790901,2.622706464403868,-2.173660966655612
1772482604706053600,8.0160537109375,0.8885971909642219,1.7207406733006239,-1.1949462823927401
1772482604716051700,8.0260517578125,0.4440753081202507,0.8754355115741491,-0.4539209948301315
1772482604726049500,8.036049560546875,-0.217547356903553,0.20873101324141025,0.24005904844105241
1772482604736047900,8.0460478515625,-0.8169207787632942,-0.332899829223752,0.8851526034682988
1772482604746046700,8.056046630859376,-1.347090316015482,-0.7641010427236556,1.514174144616723
1772482604756044800,8.066044921875,-1.4570692786037922,-0.8797977984368801,1.86362588019073
1772482604766042600,8.076042724609374,-1.2636509853065012,-0.4809744214504957,1.859841685476899
1772482604776040700,8.086040771484376,-1.1662585325688124,-0.020025135418772697,1.719078293046355
1772482604786038800,8.096038818359375,-1.2380138552248476,0.35975977909862994,1.785031066903472
1772482604796036600,8.10603662109375,-1.2642729165971278,0.6375210739463567,1.9659867689907549
1772482604806035700,8.11603564453125,-1.2284750425070523,0.712501203867793,2.035394067215919
1772482604816033800,8.12603369140625,-1.6202099225372075,0.6286649827957153,1.9786364072054623
1772482604826031600,8.136031494140624,-2.0626789645045993,0.5016898772209882,1.9063819028556346
1772482604836029700,8.14602978515625,-2.3542262081205845,0.6697755763411521,2.0273791030645367
1772482604846027800,8.15602783203125,-2.5892893479704857,0.11994739889502525,2.3866169041156766
1772482604856025600,8.166025634765624,-2.535574708917737,-0.7752572275102138,2.790815544399619
1772482604866024700,8.176024658203126,-2.485712069118023,-1.1776602165490389,2.941071572318673
1772482604876022800,8.186022705078125,-1.9420552737832069,-1.1565712512910364,3.413772086420655
1772482604886020600,8.1960205078125,0.45602468911111355,-0.11372867051064968,4.422671773327886
1772482604896018700,8.206018798828126,2.397963058516383,1.721070343646407,4.374677557748556
1772482604906016800,8.216016845703125,3.7755914283975955,3.154008220556378,3.0330154042616484
1772482604916014600,8.2260146484375,4.586549791625142,3.025461335620284,1.2201403448820114
1772482604926013700,8.236013671875,3.736849025288224,2.9526521199971434,0.23991131053343415
1772482604936011800,8.24601171875,2.919273289747536,2.592639242920279,0.9371993093088269
1772482604946009900,8.256009765625,2.9341923341989515,2.297566163265705,2.0242061721168456
1772482604956007700,8.266007568359376,3.7149586805194614,1.0474304930925369,2.1098878749251364
1772482604966005800,8.276005859375,3.6188156433209775,-0.7940963680148124,2.2745473989889025
1772482604976003600,8.286003662109374,1.7583809603869913,-3.5565684459835287,2.8770804539233445
1772482604986002700,8.296002685546876,-0.9840209739774465,-5.163738854205608,3.1238042209506034
1772482604996000800,8.306000732421875,-2.022546860602498,-4.541445744529367,2.4170120423793793
1772482605005998800,8.315998779296875,-2.791863592147827,-3.435547280377149,1.8408862251162528
1772482605015996700,8.32599658203125,-4.501711115512252,-1.349195763862133,1.2053729838609695
1772482605025994800,8.335994873046875,-5.7392269580870865,0.2282218956530094,0.5531875708766282
1772482605035992800,8.345992919921875,-5.928403960552811,0.3384340824753046,0.002952858456224203
1772482605045991700,8.35599169921875,-5.617725315487385,-0.791226950058341,-0.7857263068154454
1772482605055989800,8.36598974609375,-5.02022353271842,-1.613756216353178,-1.772048543472588
1772482605065987800,8.37598779296875,-3.5539494956567883,-1.5749720199286936,-3.7602480210542675
1772482605075985700,8.385985595703126,-2.271010164773464,-1.6536773078531026,-4.793126257181167
1772482605085983700,8.395983642578125,-1.2099649878263472,-2.15704710098505,-4.279574384991824
1772482605095984600,8.405984619140625,1.7889426873892544,2.093577376115322,-1.0621619790825991
1772482605105982700,8.415982666015625,3.214216897803545,1.3462035963088272,-0.5225595737051218
1772482605115980800,8.425980712890626,5.068509716981649,3.912401991549134,-1.2540762244924901
1772482605125978600,8.435978515625,5.086494286483526,3.381967081359029,-0.8760422452956438
1772482605135976700,8.445976806640624,3.2597762874513863,1.4522534027546643,0.18514559152517468
1772482605145975800,8.455975830078126,1.0620869410850107,0.672118340075016,0.604408347287029
1772482605155973600,8.4659736328125,-0.3242383838623762,-0.2022106715619564,0.349263556058146
1772482605165971700,8.4759716796875,-1.1323451570510863,-0.4555909738689661,0.1879440996699035
1772482605175969800,8.4859697265625,-1.728828702688217,-0.16583587436676026,0.11431965867374091
1772482605185967600,8.495967529296875,-1.7957184651345013,0.3844873931199312,0.34812216747067865
1772482605195965700,8.505965576171874,-1.554055488628149,1.037333461970091,0.6654954148039222
1772482605205964800,8.51596484375,-1.3254039693862198,1.672102606859803,0.8972302139487117
1772482605215962600,8.525962646484375,-1.107838638434559,2.2417238645344972,1.3965391143172978
1772482605225960700,8.535960693359375,-0.8209861285060643,2.0651105755656958,1.4441443305790425
1772482605235958800,8.545958740234376,-0.3507866374395788,1.5336568437218665,1.1882448119927198
1772482605245956600,8.55595654296875,0.061401248032599685,0.9342232161074876,0.8757677392031997
1772482605255955700,8.565955810546875,0.2133949864644557,0.5557330175757408,0.6252523248080164
1772482605265953800,8.575953857421876,-0.017052987740188836,0.3014069588512182,0.44275750351995224
1772482605275951900,8.585951904296875,-0.40170989220812914,0.15812661516368387,0.34874932292569427
1772482605285949700,8.59594970703125,-0.5886341473110019,0.14519348383247851,0.46221667561903595
1772482605295947800,8.60594775390625,-0.5459340926170348,-0.0569464605808258,0.6659748688839375
1772482605305945900,8.61594580078125,-0.4109492835879326,-0.36107086169719693,0.9048636314366012
1772482605315944700,8.62594482421875,-0.35904373978376386,-0.5861807628095149,1.169140517745912
1772482605325942800,8.63594287109375,-0.30743045692443843,-0.6842161896258592,1.3578414271324872
1772482605335940900,8.64594091796875,-0.17415354779176412,-0.6717576900690794,1.3217659051448105
1772482605345938700,8.655938720703125,0.06932714566104113,-0.5681891790449619,1.5045834555812179
1772482605355936800,8.665936767578126,0.31516609267778695,-0.40175300069749353,1.7193085946708917
1772482605365934800,8.675934814453125,0.42554194562919434,-0.22841771048605441,1.7498560008868573
1772482605375933700,8.68593359375,0.33819680312070993,0.0014396774142980575,1.5268164763078094
1772482605385931800,8.695931884765624,0.11154376421961933,0.27565993865430355,1.0004400477282702
1772482605395929900,8.705929931640625,0.09288286635875702,0.593079290151596,0.7577084190770983
1772482605405927700,8.715927734375,0.2296779031476006,1.1537228761225937,0.617930530552566
1772482605415925800,8.72592578125,0.3009013474166393,1.3767203151255845,0.5066136704239994
1772482605425923800,8.735923828125,0.09367547804117202,1.0479343509614467,0.2549629683885723
1772482605435923000,8.7459228515625,0.3339583983659744,0.35303953093290324,-0.2782757106432691
1772482605445920800,8.755920654296874,1.1997346857130526,-0.5405810411512851,-0.7277182083524764
1772482605455918800,8.7659189453125,0.9495628240585327,-2.3803812245965004,-1.0366051476955414
1772482605465917000,8.7759169921875,-0.05603230487797409,-5.666387347325682,-1.6089422402001916
1772482605475914800,8.785914794921876,1.8235200797736644,-3.4006156677275894,-2.179727427087724
1772482605485912800,8.795912841796875,2.8586183300375936,0.42869127650558947,-2.343083905728906
1772482605495912000,8.805911865234375,2.1377672309756277,3.28979557814002,-1.8362546197928487
1772482605505909800,8.81590966796875,1.3597528137117623,3.8015491687357423,-1.3143869008094071
1772482605515907800,8.825907958984375,1.0666834750950336,1.8062626555025576,-0.9369149394094943
1772482605525906000,8.835906005859375,0.6503501603811979,0.076771104991436,-0.9079694884974508
1772482605535903700,8.84590380859375,-0.2402560323178768,-0.5179910236805677,-0.7036610409386456
1772482605545901800,8.85590185546875,-1.2361579982250928,-0.678681351852417,-0.26276416192511093
1772482605555901000,8.86590087890625,-2.127065804219246,-0.9896277079433202,0.20690783466855062
1772482605565898800,8.875898681640624,-1.4563877260804174,-1.080722521841526,0.623894699653983
1772482605575896800,8.885896728515625,0.31601635283157226,-1.0434960762530565,1.2925091232612729
1772482605585895000,8.89589501953125,1.4227389928482472,-0.9913134690731763,1.7238479916661977
1772482605595892700,8.905892822265624,1.3541858272343874,-1.2943828081786632,1.4629437235951424
1772482605605890800,8.915890869140625,1.0971151459768413,-1.6498276466876267,0.8147938497371972
1772482605615889700,8.9258896484375,0.5156862538695335,-0.8311047869384288,0.5691540054891259
1772482605625887700,8.9358876953125,-0.4354740685135126,0.4297258802503347,0.6449362455736846
1772482605635885800,8.9458857421875,-1.109322301121056,0.26412147655189033,0.06295640505272895
1772482605645884000,8.9558837890625,-0.7474456759989261,0.18103227445483205,-0.5950045591257512
1772482605655881700,8.9658818359375,-0.007311784318089484,0.3588286357283592,-0.7604398898676037
1772482605665879800,8.9758798828125,0.31882717246860265,-0.06204582954645157,-0.9436866985667496
1772482605675878700,8.985878662109375,0.40470922015458344,0.10742577097415923,-0.8533741941526531
1772482605685876500,8.99587646484375,0.3463461707741022,0.3642927463531494,-0.36618126351349056
1772482605695874600,9.00587451171875,0.36849341291338206,1.2022896308928728,-0.32761399777531625
1772482605705872600,9.01587255859375,0.2525453127875924,0.9694476742237805,-0.23446079004257916
1772482605715870500,9.025870361328124,0.34859921039789915,0.49817339353263373,-0.23650201354660091
1772482605725868500,9.03586865234375,0.0014303250640630722,-0.22293898681402205,-0.5612888250719755
1772482605735867400,9.045867431640625,-0.383821914948523,-1.1096247911989687,-0.526269643736817
1772482605745865500,9.055865478515624,-0.8568833713173866,-1.0147866991192103,-0.20664087256174532
1772482605755863600,9.065863525390625,-1.4497557407200337,-0.7829723319321871,0.2858294504910707
1772482605765861600,9.075861572265625,-1.2735855193436145,-0.04025660706460476,1.2548498392134904
1772482605775859500,9.085859375,-1.4383929274454712,-0.14619827696084975,1.3744406797558069
1772482605785857500,9.095857421875,-1.234490357273817,-0.7138830136150122,1.3225085402056573
1772482605795856400,9.1058564453125,-1.0125684385478495,-0.8051163592010736,1.5527200022406875
1772482605805854500,9.1158544921875,-0.8615759130477905,-1.1047270822852848,1.9771704263061285
1772482605815852300,9.125852294921875,-0.7367173612356186,-0.9488391859591007,2.5223770814314483
1772482605825850400,9.135850341796875,-0.6821703630119562,-0.628296149483323,2.892092729616165
1772482605835848400,9.145848388671874,-0.36587037093341346,-0.37034722408652304,2.981868862131238
1772482605845846500,9.155846435546875,-0.15538140810877082,-0.9777595754951238,3.1090736848086116
1772482605855845400,9.165845458984375,-0.06867898395061492,-0.39836686539053917,2.3708609704487023
1772482605865843500,9.175843505859374,-0.3226797562435269,-0.0893587838858366,2.2331940827287733
1772482605875841300,9.18584130859375,-0.7240081017881631,-0.11277999148368835,1.9186780514575539
1772482605885839400,9.19583935546875,-0.584117985060811,0.05745674819052219,0.985287852108106
1772482605895837400,9.20583740234375,-0.005953647707402706,0.5735001449346542,0.3966186334837228
1772482605905835300,9.215835205078125,0.2681348038464784,0.39512452246844765,0.37787944622226055
1772482605915834400,9.22583447265625,0.5744786345779895,0.407352720400691,0.17168613476492464
1772482605925832400,9.23583251953125,0.8327367720544337,1.0281097065508364,0.4892579003449529
1772482605935830300,9.245830322265626,0.8044517578125,1.2131295893371103,0.470585348578915
1772482605945828400,9.255828369140625,0.3489329723969102,0.8583300629943609,0.4196699117906391
1772482605955826400,9.265826416015624,-0.23008125978410243,0.3577098608314991,0.3426342375788837
1772482605965824300,9.27582421875,-0.9190493201121688,-0.7672650597125291,0.5992298486705869
1772482605975823400,9.2858232421875,-0.6911760917663574,-0.33484044189751144,-0.08387231529876589
1772482605985821400,9.295821533203124,-0.5004734871685504,0.513725182929635,0.8348467499457299
1772482605995819500,9.305819580078126,-0.7037932890161871,-0.2975555441200733,1.2869582111358642
1772482606005817300,9.3158173828125,-0.41901802375316616,-0.5219377154797316,0.7986001091748476
1772482606015815400,9.3258154296875,-0.3676835578352213,-0.5827426050543785,0.7483931129168718
1772482606025813500,9.3358134765625,-0.552953615990281,-0.5654933640897274,0.8064894741851836
1772482606035812400,9.345812255859375,-0.8565101540908217,-0.7713748331189155,0.6227755594309419
1772482606045810400,9.355810546875,-0.9967071448102592,-0.934371684667468,0.24185959505699572
1772482606055808500,9.36580859375,-1.094122686162591,-0.6404658952265978,0.2529901339456439
1772482606065806300,9.375806396484375,-1.1244441746681928,-0.8074743205040693,0.602675824405998
1772482606075804400,9.385804443359374,-0.2741264454767108,0.038008535876870156,0.2854761800739914
1772482606085802500,9.395802490234376,-0.4985436881497502,3.8623645797044035,0.14815540237799285
1772482606095801300,9.40580126953125,-4.547728478060662,-1.6403227362394333,0.34450689958296715
1772482606105799400,9.41579931640625,1.146544070534408,-2.8919518598407503,0.6501213931266218
1772482606115797500,9.425797607421876,2.975863191975653,-0.5047615397512912,1.5132229813717304
1772482606125795300,9.43579541015625,1.381796010954678,0.15065291828215122,0.6871656140159815
1772482606135793400,9.44579345703125,0.6400394865080714,0.8184305988043546,0.5043730518903583
1772482606145791500,9.45579150390625,-0.3597393208324909,1.4116092576771975,0.8608254600066692
1772482606155790600,9.46579052734375,-1.7362600217327475,1.5263964973300694,0.5881270745716989
1772482606165788400,9.475788330078124,-2.9754496427387,1.0313958886146546,-0.034874439102225006
1772482606175786500,9.485786376953126,-2.6426252168387174,0.16809563599228858,-0.44655130631234496
1772482606185784600,9.49578466796875,-1.108132506814599,-0.09698211837112904,-1.1330462910577654
1772482606195782400,9.505782470703124,0.536937131690979,0.48351300001740455,-1.9193702715054153
1772482606205780500,9.515780517578126,2.4781670605659483,0.4563356547564268,-2.1261970585606993
1772482606215779600,9.525779541015625,1.6935846630886195,0.9212333861529827,-0.9138523359909653
1772482606225777400,9.53577734375,0.711177261787653,0.903791252964735,0.13664780120472422
1772482606235775500,9.545775390625,0.6592439531937241,-0.5967261222213507,0.5369732989829034
1772482606245773600,9.555773681640625,0.2086808904893696,-0.5189204134851694,0.9613710430130362
1772482606255771400,9.565771484375,-0.3578551145210862,-0.2501221772938967,0.6970047248546034
1772482606265769500,9.57576953125,-0.6992049383126199,-0.383786551374197,0.24607710315417497
1772482606275768600,9.5857685546875,-0.7064886655800044,-0.7410948456674814,0.35651352718640117
1772482606285766400,9.595766357421875,-0.48308045381903647,-0.9803542681634425,0.3628955198410898
1772482606295764500,9.605764404296876,0.04504267229735851,-0.8149550316482782,0.42028753223232923
1772482606305762600,9.615762451171875,0.48083705880641936,-0.4867506667643785,0.5936893483413384
1772482606315760400,9.625760498046875,0.8405157354928553,-0.43265433491766453,0.5957916909154504
1772482606325758500,9.635758544921876,0.8898536207661032,-0.4093348341286182,0.5762346844650804
1772482606335757600,9.645757568359375,0.6329150414556265,-0.33177813171744347,0.47584151554144916
1772482606345755600,9.655755615234375,0.15628887834250926,-0.2914437832415104,0.23360749768149106
1772482606355753500,9.66575341796875,-0.27505466623753305,-0.10251052640378475,0.5646235224526375
1772482606365751600,9.67575146484375,-0.8707578751519321,0.23717326387166976,0.7172296936944127
1772482606375749400,9.685749267578124,-1.1200327879667282,0.30348727225661276,0.3888639642363414
1772482606385747500,9.69574755859375,-0.9758379597827792,0.31387422623634337,0.07011391212455928
1772482606395746600,9.70574658203125,-0.4851432315677404,0.2003624133467674,-0.1347355835083872
1772482606405744600,9.71574462890625,-0.052993631301820276,0.10935878486335276,-0.3473324053324759
1772482606415742500,9.725742431640626,0.08094342224001884,0.1587146441847086,-0.6003258272137493
1772482606425740500,9.735740478515625,0.019170856676995755,0.24570845250487325,-0.7460314983520656
1772482606435738600,9.745738525390625,-0.260854583710432,0.23928338789343834,-0.4460305338412523
1772482606445736400,9.755736328125,-0.520599744874239,-0.03421265072524547,0.1732093074779026
1772482606455735600,9.765735595703125,-0.5766966028884053,-0.2677618788808584,0.3939055751327425
1772482606465733600,9.775733642578125,-0.3762950265750289,-0.5520616355866194,0.47859439444616436
1772482606475731500,9.7857314453125,-0.15551175649017096,-0.8912064966797828,0.3872729687178507
1772482606485729500,9.7957294921875,-0.34052053336054083,-0.9185399092853068,0.10651504933740943
1772482606495727600,9.8057275390625,-0.5076932092890143,-0.6915776583045721,-0.12103892045877873
1772482606505725400,9.815725341796876,-0.25344489197582004,-0.2591483643144369,-0.2695381313057616
1772482606515723500,9.8257236328125,0.26459055536836384,0.12707447429597377,-0.22844987745629622
1772482606525722600,9.83572265625,0.9102677555024623,0.8077835325837135,-0.24822611614791676
1772482606535720400,9.845720458984376,0.8688152166515588,0.4961106157839298,-0.39505087271034717
1772482606545718500,9.855718505859375,0.5234066189885139,0.19220014967918395,-0.422527347048372
1772482606555716600,9.865716552734375,0.21085838065892457,0.24781916104853152,-0.06729437945811077
1772482606565714400,9.87571435546875,-0.03272387347221374,-0.12133330029547214,0.07248277841405942
1772482606575712500,9.88571240234375,-0.26693711849451063,-0.40596272734701633,0.07205626009767875
1772482606585711400,9.89571142578125,-0.483741548076272,-0.3954840034306049,0.2159037726812996
1772482606595709400,9.90570947265625,-0.598263999313116,-0.15577859073281286,0.5072277837343514
1772482606605707500,9.91570751953125,-0.5477312051668762,-0.01220890870988369,0.5235901588618755
1772482606615705600,9.92570556640625,-0.32011779680103064,-0.047996261405944825,0.2835008614130318
1772482606625703700,9.93570361328125,-0.042783495193719864,-0.15904022287726402,0.17468591936910524
1772482606635701500,9.945701416015625,0.0341615050598979,-0.14533610717356205,0.17007970421528443
1772482606645700400,9.955700439453125,-0.04206833266168832,-0.03590893324911594,0.08825369045445695
1772482606655698400,9.965698486328124,-0.01583177538216114,-0.030889059260487555,0.07382257565045729
1772482606665696300,9.9756962890625,0.05179506916701793,-0.12521335659921168,0.17097243353761732
1772482606675694600,9.985694580078125,-0.1189560497701168,-0.06730418846607208,0.2246753273536451
1772482606685693200,9.995693115234374,-0.25039514901638027,-0.044102761098742484,0.17411124301999806
1772482606695691300,10.005691162109375,-0.19118220480829476,-0.03394493969976902,0.08302289539519697
1772482606705690000,10.015690185546875,-0.09733692315816879,0.1056365494698286,0.014445435590296983
1772482606715688200,10.025688232421874,0.025869185271859167,0.14797756159305572,-0.04723963435236364
1772482606725686300,10.035686279296876,0.2060445506364107,-0.008700023806095122,-0.04906202747393399
1772482606735684000,10.04568408203125,0.43788317548185585,-0.3105412824213505,-0.0303715747250244
1772482606745682200,10.05568212890625,0.3186681825146079,-0.17974691081941127,0.051701563930977135
1772482606755680300,10.06568017578125,-0.02883972551524639,0.101471246483922,0.05402127558281645
1772482606765679400,10.075679443359375,-0.16007190401256083,0.181871647888422,-0.08755113167567179
1772482606775677200,10.08567724609375,-0.12229074715077877,0.12546294744610786,-0.20164237015470862
1772482606785675300,10.09567529296875,-0.014522446349263191,0.06180266844034195,-0.2376583439748734
1772482606795673300,10.10567333984375,0.13684125055074692,-0.08157762849032879,-0.16681799900559707
1772482606805671200,10.115671142578124,0.2109814225167036,-0.10161153173744678,-0.013148710310645401
1772482606815669200,10.125669189453125,0.14186843106299638,-0.06598901421427726,0.10785274594826623
1772482606825668400,10.13566845703125,-0.06844429841190576,0.0759042590290308,0.13688695285599678
1772482606835666200,10.145666259765624,-0.35213410652577876,0.18027356504201889,0.07294624947365373
1772482606845664300,10.155664306640626,-0.33263679437339305,0.08822890307307243,0.24132130519552156
1772482606855662300,10.165662353515625,0.04345803345441818,0.039593174719810484,0.35772030916027725
1772482606865660200,10.17566015625,0.44453123519420623,0.06250877088308333,0.1767669634268619
1772482606875658200,10.185658203125,0.5951408988565207,0.09598375498354435,0.12866473916210233
