time,seconds_elapsed,z,y,x
1772608968707043300,0.074043212890625,0.011739537632465363,-0.12389584425985813,0.023280009028874338
1772608968717041400,0.08404150390625,0.07005085682570934,-0.21251140856295822,-0.12369133466370404
1772608968727039200,0.094039306640625,-0.15508827038109302,-0.29709479474052786,-0.21752401256058365
1772608968737037300,0.104037353515625,-0.17592706027030944,-0.23425372316315768,-0.25268610949777065
1772608968747035400,0.114035400390625,-0.2149152548342943,-0.18790844383463262,-0.23024010360762476
1772608968757032400,0.124032470703125,-0.3334995486825704,-0.18228505099490283,-0.09108553461320698
1772608968767030500,0.134030517578125,-0.28242870213687415,-0.026098025591671466,0.03539448092095554
1772608968777028400,0.1440283203125,-0.2375105330020189,-0.0699026805266738,0.12823949948735536
1772608968787026400,0.1540263671875,-0.1514806012779474,-0.15463219717666507,0.13788663141783325
1772608968797024500,0.1640244140625,-0.01617079807817936,-0.21632716745883226,-0.09295125541985035
1772608968807022300,0.174022216796875,-0.0283078105956316,-0.3606780629873276,-0.29165673187244684
1772608968817020400,0.1840205078125,-0.12874445333480833,-0.3212912244945764,-0.3859697406321764
1772608968827017200,0.194017333984375,-0.05958966856598854,-0.26591391292661426,-0.153281586285308
1772608968837015300,0.204015380859375,0.07118833642303943,-0.2965323385521769,-0.2353421759869903
1772608968847013400,0.214013427734375,0.09161854551136493,-0.3408548798814416,-0.2840429324004799
1772608968857011200,0.22401123046875,0.22250234896242618,-0.3775146314978599,-0.3512578716805205
1772608968867009300,0.23400927734375,0.17798866897523402,-0.23865356555730102,-0.3116102268271148
1772608968877007400,0.24400732421875,-0.060980246141552924,-0.12715075440257786,-0.20271332385446875
1772608968887005400,0.25400537109375,-0.18120704649984837,-0.15611410629749298,-0.1589482337448746
1772608968897003500,0.26400341796875,-0.16418752263784409,-0.1273980071619153,-0.08987436872515826
1772608968907000300,0.274000244140625,-0.01587619904577732,-0.024672084441781043,-0.026587453076429665
1772608968916998400,0.283998291015625,0.3359422656595707,-0.08108867592960596,-0.03645392684601247
1772608968926996500,0.29399658203125,0.915451295620203,-0.33972119967639447,-0.13413498726673423
1772608968936994300,0.303994384765625,1.1247580629229545,-0.31707068419009443,-0.17262860324680804
1772608968946992400,0.313992431640625,0.698784228682518,0.04458323809206485,-0.11190320864915847
1772608968956990500,0.323990478515625,0.6104033499181271,0.13061404659897088,-0.07063479419350624
1772608968966988300,0.33398828125,0.7312590958297253,0.30671470987051724,-0.012538250262103975
1772608968976986400,0.343986328125,0.7089999177485704,0.45086102273762224,-0.0062515346754342315
1772608968986983400,0.3539833984375,0.7515607101023196,0.47058103772997856,-0.059166182456910604
1772608968996981500,0.3639814453125,0.8309551493346691,0.49355508608222004,-0.1459234603411518
1772608969006979600,0.3739794921875,0.9069406569063663,0.4067155915409326,-0.1661885237293318
1772608969016977400,0.383977294921875,1.0027648374140261,0.38520752408802506,-0.17241331652831285
1772608969026975500,0.3939755859375,0.9941595061540603,0.3688166535183787,-0.14084429391333833
1772608969036973600,0.4039736328125,0.9949188000887632,0.27288141385167836,-0.13184684893009252
1772608969046971400,0.413971435546875,1.0930524265825747,0.2429895489349961,-0.12131782873170449
1772608969056968400,0.423968505859375,1.354395086070895,0.17716040145754813,-0.3053344344932586
1772608969066966500,0.433966552734375,1.3136708614945412,0.11026917770653963,-0.43960269275084135
1772608969076964400,0.44396435546875,1.102985207054019,0.18804653713107108,-0.37096860738787796
1772608969086962400,0.45396240234375,1.2065735918223857,0.4678530740708112,0.02497963428730145
1772608969096960300,0.463960205078125,1.366012458628416,0.668559770810604,0.32483960115853694
1772608969106958300,0.473958251953125,1.5722072313904762,0.6835743845909833,0.5006579038247466
1772608969116956400,0.483956298828125,1.8930191479355096,0.7178411035910248,0.6821069423869252
1772608969126954200,0.493954345703125,1.9452876798331737,0.9524135373145342,0.8396684710137545
1772608969136951600,0.50395166015625,2.0203934819608924,1.0706447799414396,0.3466387605125084
1772608969146949600,0.51394970703125,1.9590864880830048,1.0014774279519916,0.07504819018896669
1772608969156947500,0.523947509765625,1.3990291775673627,1.5345926632672546,0.45979927574638274
1772608969166945500,0.533945556640625,1.4409920040279627,1.6445856543809174,1.217673004920408
1772608969176943400,0.543943359375,1.1175456473261118,0.862869167728722,0.15310601052269338
1772608969186941400,0.55394140625,-0.22950082954764364,-0.28628450078219175,0.13883903677184134
1772608969196939500,0.563939453125,0.6239747791528701,-0.031008886247873305,0.6956599591821432
1772608969206937300,0.573937255859375,0.405336704403162,0.39093320825845,0.7087422897256911
1772608969216934400,0.583934326171875,-0.17921499589979648,0.5582572753563523,1.09334812159352
1772608969226932500,0.593932373046875,-0.3232704156130552,0.5765726842477917,1.3791850978039204
1772608969236930300,0.603930419921875,-0.2986404167473316,0.7109180263295769,1.3336948278695344
1772608969246928400,0.613928466796875,-0.13952011437118053,0.7775558598414063,1.0421860165677963
1772608969256926200,0.62392626953125,0.19579086764752865,0.6354907371625304,0.5522990976043045
1772608969266924300,0.63392431640625,0.5397469284147024,0.1998275758177042,-0.10640391711313277
1772608969276922400,0.64392236328125,0.6079331604123115,-0.47693917458504437,-0.5159175418747589
1772608969286920200,0.653920166015625,0.3555769404560327,-0.9818816238611936,-0.3133968910481781
1772608969296917500,0.66391748046875,-1.1209925729095935,-1.4580819627776742,0.15247370396852492
1772608969306915600,0.67391552734375,-0.9495300908327102,-1.3288380354881286,0.2217383788526058
1772608969316913400,0.683913330078125,-1.6125316429942846,-0.7286357615888118,0.385458758902736
1772608969326911500,0.693911376953125,-2.5843898854911327,-0.8669730959162115,0.6253703251644969
1772608969336909600,0.70390966796875,-3.2239053481251,-0.8063821413531899,0.9035776102140546
1772608969346907400,0.713907470703125,-4.039047426778078,-0.6589356178969145,1.2762395409837364
1772608969356905500,0.723905517578125,-4.636738010117411,-0.523122833611071,1.604987657355517
1772608969366902300,0.73390234375,-5.209617977327108,-0.5702472806185483,1.5742742469228803
1772608969376900400,0.743900390625,-6.1464160123586655,-0.4333800188437104,1.391015820851177
1772608969386898400,0.7538984375,-6.033942894867062,-0.25381752468049523,0.3381850761502981
1772608969396896300,0.763896240234375,-5.580021900036931,-1.2553022591561078,-0.2303293893262744
1772608969406894300,0.773894287109375,-4.975009595507383,-1.3710896157622336,-0.5212368737339973
1772608969416892400,0.783892333984375,-5.4038335584819315,-0.931732860596478,-0.9469098253317176
1772608969426890500,0.793890380859375,-7.147339605820179,0.4299176034301519,-1.154141978317499
1772608969436888600,0.803888671875,-8.038329244878888,0.6607882600262761,-2.24944437578395
1772608969446885400,0.813885498046875,-7.91018100387156,-0.6152829386532306,-2.051972130920738
1772608969456883500,0.823883544921875,-3.8141035298824306,-0.2858686134576797,-1.4759643870793282
1772608969466881500,0.833881591796875,-1.5115765293389558,-1.133459255772829,-0.5673601808749139
1772608969476879400,0.84387939453125,-0.39912499028146264,-2.12219936722666,0.12980266628400422
1772608969486877400,0.85387744140625,0.2962269258648157,-2.164233943749219,-0.41434981274642047
1772608969496875500,0.86387548828125,0.8867273054391145,-1.7569786923736332,-1.1732632236991076
1772608969506873300,0.873873291015625,1.5471505315452814,-1.1142105115540324,-1.4463497316688299
1772608969516871400,0.883871337890625,2.2348428728491068,-0.6685168084517121,-1.1595455178614704
1772608969526868200,0.8938681640625,3.216611099463701,-0.5040997148416936,-0.8293994443252682
1772608969536866300,0.9038662109375,4.318592682433128,-0.5443344023354352,-0.8035076088301837
1772608969546864400,0.913864501953125,5.191413627594709,-0.5627493260785937,-1.0725177342064678
1772608969556862500,0.923862548828125,5.684485898596048,-0.44745866694822906,-1.5672072311460972
1772608969566860500,0.933860595703125,5.806483215758204,-0.3671118954271078,-2.089284355096519
1772608969576858600,0.943858642578125,5.614361976534128,-0.3597562719672918,-1.8615572572231291
1772608969586856400,0.9538564453125,5.281803508093953,0.014935411064326762,-1.2525129206985235
1772608969596853500,0.963853515625,4.965017193803191,0.3530760635510087,-0.4255187839493155
1772608969606851300,0.973851318359375,4.878621351376176,0.41135479564890265,0.34285701348409053
1772608969616849000,0.983848876953125,5.066019653731584,0.382467869991064,0.7614406644079834
1772608969626847000,0.993846923828125,5.392379852053523,0.37281551389619705,0.7885435561932623
1772608969636845000,1.003844970703125,5.779274306315183,0.3742053608193993,0.597628039497137
1772608969646843000,1.0138427734375,6.257363527718186,0.27214477014020083,0.25700126928314565
1772608969656841000,1.023841064453125,6.731612440305948,0.13856295977681873,-0.1393808885635808
1772608969666839000,1.033839111328125,7.111694291943311,-0.07768588174879551,-0.5742849751694128
1772608969676836000,1.043836181640625,7.181199205324053,-0.23805779162123797,-0.909678119046241
1772608969686834200,1.053834228515625,6.818390560048818,-0.2575336225941777,-0.933430750555545
1772608969696832000,1.06383203125,6.017359424334765,-0.33687092481181025,-0.8224977021127938
1772608969706830000,1.073830078125,4.857876084989309,-0.36508886516690253,-0.5464080302717164
1772608969716828200,1.083828125,3.0136119078725576,-0.17672054873555898,-0.32709706122912463
1772608969726826000,1.093825927734375,0.5609107124745846,-0.053645519339293235,0.0008812580802477895
1772608969736824000,1.103823974609375,-0.9556523731052875,-0.187894707570225,0.007290577133279293
1772608969746822100,1.113822265625,-1.58421097291708,-0.23935528408586978,-0.6350675433143973
1772608969756819000,1.12381884765625,-1.974213330066204,-0.12484247746020555,-1.3204358255848287
1772608969766817000,1.133817138671875,-1.8898638987749814,0.04362754480242729,-1.927622697674483
1772608969776814800,1.14381494140625,-2.1500024431705476,-0.22891075470000505,-2.4167744342312214
1772608969786813000,1.15381298828125,-3.2300399053573607,-0.7265089786931872,-2.3516741855502126
1772608969796811000,1.16381103515625,-5.2059419191628695,-1.0743211303666234,-1.2706776690728963
1772608969806808800,1.173808837890625,-7.270093294307589,-0.7317448335200548,0.1598250348457135
1772608969816807000,1.183806884765625,-8.72591403415501,0.3520154485821724,1.2920704395830631
1772608969826804000,1.193803955078125,-9.134825089913607,1.3150862812504172,1.6389204682260752
1772608969836802000,1.203802001953125,-8.832207001706957,1.3917504187360406,1.3186685236513613
1772608969846800100,1.213800048828125,-8.58613030041158,0.6539025921657681,1.069126557398215
1772608969856798000,1.2237978515625,-8.623902689445018,0.03075023531168699,1.1932238425143062
1772608969866796000,1.233796142578125,-8.804315370696782,0.11611205851584672,1.4357074877537785
1772608969876794000,1.243794189453125,-8.773236926344037,0.5176332962840795,1.649814202684164
1772608969886792000,1.2537919921875,-8.404279695311189,0.7088751223251223,1.7882735559560357
1772608969896790000,1.2637900390625,-7.480172799548506,0.6793631966367364,1.862244801095873
1772608969906787000,1.273787109375,-6.051591364282369,0.49925826615989205,1.79823410121724
1772608969916785000,1.283784912109375,-4.570823230183124,0.18299626800417898,1.4652083075262605
1772608969926783000,1.293782958984375,-3.2842730153262614,-0.14435878657400608,0.7353806327391416
1772608969936781000,1.303781005859375,-2.2268308313071725,-0.448275536289066,-0.27501075403057035
1772608969946779100,1.313779052734375,-1.1908879469126463,-0.6588523235276341,-1.0194465076237917
1772608969956777200,1.323777099609375,-0.09739069917201995,-0.8502680448308586,-1.0532201093446463
1772608969966775000,1.333775146484375,0.8756851024210452,-0.9939426485329865,-0.5824303973000496
1772608969976773000,1.343773193359375,1.551830213794112,-0.9329818377442657,0.3523806651653722
1772608969986770200,1.353770263671875,1.8431459867417812,-0.6294233999475837,1.2336749492377042
1772608969996768000,1.36376806640625,2.2539234208941457,-0.2772799410715699,1.50520874787271
1772608970006766000,1.37376611328125,2.7825094883471726,-0.15319968015551566,1.4139249872736632
1772608970016764000,1.383763916015625,3.49679289945662,-0.034885581550747155,1.056055332770571
1772608970026762000,1.393761962890625,4.205412293455004,0.08578194831237196,0.6414532988287508
1772608970036760000,1.403760009765625,4.86440110284388,0.16772271102666853,0.30008751028310504
1772608970046758000,1.4137578125,5.499468938419223,0.14169351288750767,0.16249675653930754
1772608970056756000,1.423755859375,5.9028048243939875,0.015976298419386147,0.18764776533814145
1772608970066753000,1.4337529296875,6.2345332717508075,0.014784750547260046,0.3173729185396805
1772608970076751000,1.443751220703125,6.599898615771532,0.11042816766053437,0.4593002036504447
1772608970086749200,1.453749267578125,6.865919788464903,0.07627908369079232,0.49467429937049745
1772608970096747000,1.4637470703125,6.9734484352916475,-0.019441051920503376,0.300621909420751
1772608970106745000,1.4737451171875,6.92111151433289,-0.08614289057925344,0.17676334669766947
1772608970116743200,1.4837431640625,6.481133704659342,-0.008337474104017018,0.16761660203738138
1772608970126741000,1.493740966796875,5.747442413246631,0.18228578164726494,-0.017773082175664603
1772608970136738000,1.503738037109375,5.013703191038966,0.3022473551981151,-0.14893778492733836
1772608970146736000,1.513736083984375,4.447641671672463,0.20047887933328745,-0.29009547390509394
1772608970156734000,1.52373388671875,4.124379439365864,-0.06582943973839282,-0.7837399553038179
1772608970166732000,1.53373193359375,3.9630385383307933,-0.30355478453487156,-1.252286126205325
1772608970176730000,1.543730224609375,3.624789749294519,-0.46589814061075446,-1.3517564081303775
1772608970186728000,1.55372802734375,2.9838989066541193,-0.6045052317902445,-1.0557989468567073
1772608970196726000,1.56372607421875,1.8667343676000832,-0.8213684058219194,-0.6642986062347889
1772608970206723800,1.573723876953125,-0.10707155070900916,-1.079435696901381,-0.32778058651387687
1772608970216721200,1.58372119140625,-2.8677660976111885,-1.2547644990175961,0.06352101666554809
1772608970226719200,1.59371923828125,-5.870138818588853,-1.2049918755888938,-0.041550482800044114
1772608970236717000,1.603717041015625,-8.57870921050012,-1.0653934352844954,-0.6114595809727906
1772608970246715100,1.613715087890625,-10.048575426834821,-0.7819888738527894,-1.5509076921217142
1772608970256713200,1.623713134765625,-9.349733915007114,-0.8032391671523451,-1.6419890620164572
1772608970266711000,1.6337109375,-6.9355603109240525,-0.8972025222241878,-1.1834869499411433
1772608970276709000,1.643709228515625,-4.271510613262653,-0.6958329776614904,-1.1002909995339811
1772608970286707000,1.65370703125,-3.556400688201189,-1.3071332764193415,-1.1033499487131833
1772608970296704000,1.6637041015625,-5.257042576324939,-2.3227853601962325,-1.7376780718371272
1772608970306702000,1.6737021484375,-8.259929092043638,-3.42366570392549,-3.0701231919065117
1772608970316700000,1.683699951171875,-11.078346344596147,-3.4023519900009034,-3.3130051888138055
1772608970326698000,1.693697998046875,-11.83383621084094,-2.1607167294085023,-2.276989531444013
1772608970336696000,1.703696044921875,-10.635579196465015,-0.8903361435860395,-0.5677193695761263
1772608970346694000,1.71369384765625,-8.688806246510147,-0.1337371470555663,0.9908118031613529
1772608970356692000,1.72369189453125,-6.179282509171962,0.09886632468253373,1.53300232533589
1772608970366689000,1.73368896484375,-3.6884459366470574,-0.47794835162758825,1.3328718210488557
1772608970376687000,1.74368701171875,-1.9454297186523675,-1.2127303608864546,0.8292206536922604
1772608970386685200,1.753685302734375,-0.6480728630989789,-1.2451669418498872,0.9034061261046678
1772608970396683000,1.76368310546875,0.46990942207872866,-0.8723132879003882,-0.055559755462780594
1772608970406681000,1.77368115234375,1.6057728163838385,-0.7544096697926521,-0.34068770662099124
1772608970416679200,1.78367919921875,2.56223825943768,-0.4598740580156445,-0.1307112233631313
1772608970426677000,1.793677001953125,3.490839544010162,-0.23507453802675007,-0.38877515344172714
1772608970436675000,1.803675048828125,4.2622792590588325,-0.2680798587888479,-0.3793731188461184
1772608970446672000,1.813671875,5.062423675066232,-0.20647154387682676,-0.4386740335986018
1772608970456670000,1.823669921875,5.82439413550198,0.012084113286435603,-0.23249007449150083
1772608970466668000,1.83366796875,6.37514994918704,0.3914320976912975,0.09922229851335286
1772608970476665900,1.843665771484375,6.599801585137843,0.741356711474061,0.5453470865093172
1772608970486664000,1.853663818359375,6.705502432015538,1.0582838955402374,0.8776713078022003
1772608970496662000,1.863662109375,7.054891039225459,1.316446171426773,1.145708496493101
1772608970506660000,1.87366015625,7.706501428800821,1.6477318434521555,1.3918606011122465
1772608970516658200,1.883658203125,8.517056764185428,1.8622429013997315,1.7279003357969223
1772608970526655000,1.893655029296875,9.15016528238654,1.8663392308026552,2.033792769499123
1772608970536653000,1.903653076171875,9.422918978205322,1.9033534949451685,2.020736742440611
1772608970546651100,1.913651123046875,9.260314340844749,1.9481009836882353,2.002519533226639
1772608970556649000,1.92364892578125,8.72726077258885,1.8583818420574068,2.0186768873013556
1772608970566647000,1.93364697265625,8.06415634457469,1.7739131683006881,2.049127116753161
1772608970576645000,1.94364501953125,7.599108391052484,1.7927824116826057,1.959659027273953
1772608970586643000,1.953642822265625,7.24979986334145,1.8825570828929543,1.6302593151256441
1772608970596641000,1.96364111328125,6.678507457584142,1.894452687869966,1.5327815221920609
1772608970606638000,1.97363818359375,5.9704807687819,1.8053864571899174,1.5349959833711384
1772608970616635600,1.9836357421875,5.154044558665156,1.707921815998852,1.2413675495669245
1772608970626633700,1.9936337890625,4.063448877584934,1.441826701286435,0.9427652728728949
1772608970636631800,2.0036318359375,2.886840800437331,1.0272995592117309,0.588645910814032
1772608970646629600,2.013629638671875,1.2464391537427901,0.3824991419121623,0.18573652488933876
1772608970656627700,2.023627685546875,-0.9233955326229333,-0.3583256546422839,0.022616430553607642
1772608970666625800,2.033625732421875,-2.953027967572212,-0.7818804450422525,-0.053204666536883445
1772608970676622600,2.04362255859375,-4.601030152398348,-0.9143374891594052,-0.15276108780885114
1772608970686620700,2.05362060546875,-6.148273622924089,-0.9522168456986546,-0.10967866446748376
1772608970696618500,2.063618408203125,-7.889353904420137,-1.297218031604588,-0.05991648936755955
1772608970706616600,2.073616455078125,-10.037470679974556,-2.4302304203927516,0.4830255818266421
1772608970716614700,2.08361474609375,-11.753451591527462,-3.510368420344591,2.0183321655169126
1772608970726612500,2.093612548828125,-11.888802311259507,-2.9792805992037055,3.2146424297392366
1772608970736610600,2.103610595703125,-11.399175212275981,-1.7425506463095546,4.010483887855709
1772608970746608600,2.113608642578125,-10.792203005850315,-1.6424173704311251,4.72724771760404
1772608970756605700,2.123605712890625,-9.603927287262678,-2.438232232801616,4.828156654030084
1772608970766603800,2.133603759765625,-8.641641759753227,-3.656733870565891,4.670839017161727
1772608970776601600,2.1436015625,-8.554591837331651,-4.418747001099586,4.180051057705283
1772608970786599700,2.153599609375,-8.9325775934726,-4.460003725117445,3.414855790004134
1772608970796597800,2.16359765625,-9.060342388120294,-4.159378272032738,2.5006208844363687
1772608970806595600,2.173595703125,-8.77599119348824,-3.943881417918205,1.4348416647046804
1772608970816593700,2.18359375,-8.338807398447393,-3.716138245692849,0.35228476704284545
1772608970826591700,2.193591796875,-7.877969756096601,-3.4343536866784095,-0.5869248226424679
1772608970836588500,2.203588623046875,-6.784588828212023,-2.9981255849272013,-1.501036722885072
1772608970846586600,2.213586669921875,-4.598535412973165,-2.3835598546326158,-2.182933091261238
1772608970856584400,2.22358447265625,-1.6777449966609477,-1.6542022085100412,-2.2060784045271573
1772608970866582500,2.23358251953125,1.203238309919834,-0.8483002518892288,-1.755269696498662
1772608970876580600,2.24358056640625,3.7505145625472065,-0.013610007679462433,-1.1257581798762082
1772608970886578400,2.253578369140625,5.680650850477814,0.9347405179798602,-0.5640391466934234
1772608970896576800,2.26357666015625,6.863947611609101,1.8077274673581123,-0.16843513361234216
1772608970906573800,2.27357373046875,7.368503984177112,2.42659703232646,0.11632798455515876
1772608970916571600,2.283571533203125,7.308769938704371,2.8572572708174584,0.27778237416837365
1772608970926569700,2.29356982421875,6.963061481311917,3.0922999524012207,0.39041915778908876
1772608970936567800,2.30356787109375,6.6214470152348275,3.20959128382951,0.2686079743161797
1772608970946565600,2.313565673828125,6.2025797981292,3.2481597916767,0.08760605846699326
1772608970956563700,2.323563720703125,5.923991989329457,3.329637759184837,-0.0010089578468352556
1772608970966561500,2.3335615234375,6.005232348689437,3.415084630323946,-0.04018712202496826
1772608970976559600,2.3435595703125,6.450196130082011,3.4454964274615048,-0.06164871998764574
1772608970986556700,2.353556640625,7.092554707187413,3.4618419975847003,-0.09235676012542098
1772608970996554500,2.363554443359375,7.69503310932517,3.4702111820012327,-0.1585627780912444
1772608971006552600,2.373552490234375,8.068636120337247,3.4170302114337683,-0.30707930539920925
1772608971016550700,2.383550537109375,7.968449068444967,3.273119168627262,-0.39092407510392363
1772608971026548700,2.393548828125,7.746168253278732,3.0781062996149062,-0.5331170254135504
1772608971036546800,2.403546875,7.679142297232151,2.919180058506131,-0.7890479985840618
1772608971046544600,2.413544677734375,7.461754514804482,2.8015654864728448,-1.1887614562779665
1772608971056542700,2.423542724609375,6.643686319571733,2.56925018402636,-1.6492437093198298
1772608971066539800,2.433539794921875,5.525157506427169,2.488087566077709,-1.901945966234803
1772608971076537600,2.44353759765625,4.196957768842577,2.44157306766212,-1.881884298197925
1772608971086535700,2.45353564453125,2.7367010923743247,2.084261266237497,-1.8760577840015291
1772608971096533800,2.46353369140625,1.6363497409552334,1.6965116564512253,-1.9634549124255776
1772608971106531600,2.473531494140625,0.9183575384557247,1.2235492765426634,-1.890141692803055
1772608971116529700,2.48352978515625,0.16348434280455112,0.6155138247996569,-1.7356018500849604
1772608971126527500,2.493527587890625,-0.9052005352407694,0.1174444761633873,-1.345705437528342
1772608971136524800,2.50352490234375,-2.4629449415147304,-0.3775678229898214,-0.6359725293301045
1772608971146523000,2.51352294921875,-4.128398611879349,-0.8415081075310706,-0.21763065127283335
1772608971156520700,2.523520751953125,-5.852150157433748,-1.2143828042685985,0.10083163340613245
1772608971166518800,2.533518798828125,-7.144294246774911,-1.7378467064023018,0.8333199787698685
1772608971176516900,2.543516845703125,-7.504055194917321,-2.2512772902995346,1.6372161485262213
1772608971186514700,2.5535146484375,-6.95050419755578,-2.2141659955233335,1.9574226465240119
1772608971196512800,2.5635126953125,-5.999026479786634,-1.762037144806981,1.4641856864802538
1772608971206510800,2.5735107421875,-5.13428538070619,-1.9997493378609417,0.8405141280576586
1772608971216507600,2.583507568359375,-4.911820441144704,-2.7754648305326697,0.30266952613294124
1772608971226505700,2.593505615234375,-5.813901967582106,-3.2565123172193764,-0.11776552481129765
1772608971236503600,2.603503662109375,-6.975840298864245,-3.1568367219805715,-0.06936886591091751
1772608971246501600,2.613501708984375,-7.352910693725943,-3.093064214771986,0.5472090809889137
1772608971256499700,2.623499755859375,-6.757172998020052,-3.158285167223215,1.2663362788677215
1772608971266497500,2.63349755859375,-5.4412721855163575,-3.0994355033695697,1.6096329989433287
1772608971276495600,2.64349560546875,-3.97831910957098,-2.6272400161802767,1.5104574621811508
1772608971286493700,2.65349365234375,-2.5591022994995116,-2.060391438089311,1.335297586891055
1772608971296490800,2.66349072265625,-1.2069932785391806,-1.5542957271248101,1.1189498150356114
1772608971306488800,2.67348876953125,0.1969774470835924,-1.0718556170359252,0.6370999259248376
1772608971316486700,2.683486572265625,1.6423206320583819,-0.6067319679290056,0.34645737606361504
1772608971326484700,2.693484619140625,2.9048037426292894,-0.10108400073200463,0.2392414484478533
1772608971336482800,2.70348291015625,3.733270582279563,0.37730829527080056,0.2171381185155362
1772608971346480600,2.713480712890625,4.143682690250873,0.7643944727122783,0.21785211200378835
1772608971356478700,2.723478759765625,4.345471921530366,1.1189312564656138,0.3470005430296063
1772608971366476800,2.733476806640625,4.468485722258687,1.37541361644119,0.5639077753987163
1772608971376473600,2.7434736328125,4.366632782980799,1.476189281876385,0.7667251806821673
1772608971386471700,2.7534716796875,4.056557949027419,1.5410928389415144,0.8998555209510027
1772608971396469500,2.763469482421875,3.8804461798399683,1.578499901793897,0.9353466671794652
1772608971406467600,2.773467529296875,4.061896387445927,1.4506731478258967,0.8758674732506274
1772608971416465700,2.783465576171875,4.699021155551075,1.1862094337075948,0.8648317730385809
1772608971426463500,2.79346337890625,5.7544584294885395,0.9497788048967718,0.8773574195474386
1772608971436461600,2.803461669921875,6.843200591656565,0.7446008079618215,0.9348094915628433
1772608971446458600,2.813458740234375,7.6602435354948035,0.5538385821312666,1.060457074860856
1772608971456456700,2.823456787109375,8.198331006264686,0.4532271673470735,1.0988896083034574
1772608971466454800,2.833454833984375,8.31578249669075,0.40687370471209283,1.068309030470252
1772608971476452600,2.84345263671875,7.841693158578872,0.30599837829470633,0.9698514327190816
1772608971486450700,2.85345068359375,6.926926922613382,0.2674927065506577,0.6928191097330302
1772608971496448800,2.86344873046875,5.970207797059416,0.1471127614572644,0.5286192756028846
1772608971506446600,2.873446533203125,5.003354815503955,-0.07349924371391535,0.6112147028336301
1772608971516444700,2.883444580078125,3.973937533485889,-0.1695890894204378,0.5830832351855934
1772608971526441500,2.89344140625,3.062410133311152,-0.2819029246971011,0.36258649042453617
1772608971536439600,2.903439453125,2.103666808453202,-0.5504091922044754,0.18738770789615808
1772608971546437600,2.913437744140625,1.1447212390214203,-0.8848208872959017,-0.18724292913060633
1772608971556435700,2.923435791015625,0.20200433533489703,-1.2808590174779295,-0.5877134522695094
1772608971566433800,2.933433837890625,-0.8833020071655512,-1.8977669269844888,-0.8076892784290015
1772608971576431900,2.943431884765625,-2.4295336703002453,-2.440413960754871,-1.0480351809874175
1772608971586429700,2.9534296875,-4.149795620173216,-2.68485312397629,-1.5023618340089917
1772608971596427800,2.963427734375,-5.602040255099535,-2.859388437627256,-2.1846426716580987
1772608971606424600,2.973424560546875,-6.889059256511926,-2.80115427532345,-2.6910125233888627
1772608971616422700,2.983422607421875,-8.410412498977779,-2.3133669589877126,-2.6324106968164442
1772608971626421500,2.99342138671875,-9.727893274149299,-2.176087024758756,-1.603769805998355
1772608971636419600,3.003419677734375,-10.245516049039363,-2.7546818624839187,-0.3405770493207499
1772608971646417700,3.013417724609375,-9.915455242633819,-2.1502830136775968,0.003559738308191299
1772608971656415500,3.02341552734375,-9.192806738761067,-1.1818386712774633,0.35726869293525815
1772608971666413600,3.03341357421875,-7.643788659778237,-1.5647367493793367,0.2660452111560851
1772608971676411600,3.04341162109375,-7.131545239838958,-2.4734651664853096,-1.3487339915692806
1772608971686408400,3.053408447265625,-9.652288290327787,-2.623267313157022,-2.721606983616948
1772608971696406500,3.063406494140625,-12.316821972113846,-1.3568912868008016,-3.2115362804174423
1772608971706404400,3.073404296875,-13.014390395265817,-0.1897013186007738,-2.6437957219228148
1772608971716402400,3.08340234375,-12.188836228191851,0.4344432641610503,-1.5346389866270125
1772608971726400500,3.093400390625,-9.960988328796624,0.6323752354905009,-0.9378148108586668
1772608971736398300,3.1033984375,-6.519532701158523,0.4085205951362848,-0.7360796478539705
1772608971746396400,3.113396484375,-2.9649229880273342,0.19521628262996674,-0.8661572494886816
1772608971756393500,3.1233935546875,0.06910626945197582,-0.06606061814576387,-1.063819902357459
1772608971766391600,3.1333916015625,2.3269103311717507,-0.2251394194677472,-1.23002271034047
1772608971776389600,3.1433896484375,3.7283307877898215,-0.18883155002892016,-1.2989054001696407
1772608971786387500,3.153387451171875,4.595723862683773,0.07589549120068549,-1.3519618675746023
1772608971796385500,3.163385498046875,5.000439804840088,0.4028761595085263,-1.441928554225713
1772608971806383600,3.173383544921875,5.238971497583389,0.6906789558991789,-1.6144675794929264
1772608971816381400,3.18338134765625,5.555844905635714,0.9428113039717078,-1.7250407085821031
1772608971826379500,3.193379638671875,5.748791489768028,1.1204723484277725,-1.6826004738681017
1772608971836376300,3.203376220703125,5.903651796612143,1.2817130039587616,-1.4110010626509786
1772608971846374400,3.21337451171875,6.2441094938695425,1.4443693715065717,-1.1279735909033566
1772608971856372500,3.22337255859375,6.726745126530528,1.5655550800248978,-0.8181609880827366
1772608971866370600,3.23337060546875,7.313984458482265,1.6449828370049595,-0.641844636233896
1772608971876368600,3.24336865234375,7.890349345198273,1.7217890133097766,-0.5991880553554744
1772608971886366700,3.25336669921875,8.10915810033977,1.6650182015568018,-0.6430119264476001
1772608971896364500,3.263364501953125,7.829136459344625,1.612237920744717,-0.8423258536547422
1772608971906362600,3.273362548828125,7.234961775171756,1.747503008019924,-0.8351958556443453
1772608971916359400,3.283359375,6.495293747437,1.9411904736474155,-0.815451948319748
1772608971926357500,3.293357421875,5.747223802059889,2.0713284271672365,-0.7367602505292743
1772608971936355600,3.30335546875,5.167660996085405,2.177170728342235,-0.5540186879385263
1772608971946353400,3.313353515625,4.759379470402002,2.0740777258753775,-0.2877982480796985
1772608971956351500,3.3233515625,4.6393163361728185,1.7227891302630305,0.11432097384799271
1772608971966349600,3.333349609375,4.878566990840435,1.1737082640528678,0.6171447139371186
1772608971976347400,3.343347412109375,5.355191400387882,0.7017974390238523,0.8840729184728116
1772608971986344400,3.353344482421875,5.278064321565628,0.3240226952850818,0.5561735644174739
1772608971996342800,3.3633427734375,4.133290475574135,-0.2940697478309274,0.014659388868231326
1772608972006340600,3.373340576171875,2.5511592315405607,-1.1738950187966226,-0.10422162290429696
1772608972016338700,3.383338623046875,0.9811714297652244,-1.5974010016188025,-0.10339615013189614
1772608972026336500,3.39333642578125,-1.2216110019564628,-2.1646984925210475,-0.02054895836347714
1772608972036334600,3.40333447265625,-4.203735884675384,-2.953615412071347,-0.13458397314324974
1772608972046332700,3.413332763671875,-8.419542730894685,-3.247430308358371,-0.8835981405679136
1772608972056330500,3.42333056640625,-11.460094083619117,-2.730993236121535,-1.5597823418423533
1772608972066327600,3.43332763671875,-11.3919025909245,-2.4061434423625467,-0.9616425534307956
1772608972076325600,3.44332568359375,-10.14828200173378,-3.99051574332118,1.409619837425649
1772608972086323500,3.453323486328125,-9.51490577250719,-4.829225744566321,2.794968864686787
1772608972096321500,3.463321533203125,-9.291512027662993,-3.5642087316036224,2.4531699819535016
1772608972106319400,3.4733193359375,-8.650603649365902,-3.360990928825736,2.73094647437036
1772608972116317400,3.4833173828125,-7.661539420524239,-3.407815223842859,2.215872945571691
1772608972126315500,3.4933154296875,-8.301922313642502,-3.457444639408588,1.4380989129349588
1772608972136313300,3.503313232421875,-9.788248666390777,-3.357518284279108,0.89883494573161
1772608972146310700,3.513310546875,-10.41111577656269,-3.257591344627738,0.774077223945409
1772608972156308700,3.523308837890625,-8.97394186951816,-3.3610245388343927,1.2304293914452193
1772608972166306600,3.533306640625,-6.169782274898886,-3.2039097310617564,1.8606879270426928
1772608972176304600,3.5433046875,-3.025923692435026,-2.5072555001452566,2.0878948004342615
1772608972186302500,3.553302490234375,0.034253567257523536,-1.882102617123723,1.7551034000210464
1772608972196300500,3.563300537109375,2.753419002941251,-1.4824199929594992,1.1525466719500719
1772608972206298600,3.573298583984375,4.79892179171741,-1.3110872747421265,0.7146845392562449
1772608972216296400,3.58329638671875,6.084640816447139,-1.0918868899345398,0.7816209173232317
1772608972226293500,3.59329345703125,6.602040303975343,-0.6299798647865653,0.9727033150188624
1772608972236291600,3.60329150390625,6.766362266647815,-0.05523614953160286,1.2306971024706959
1772608972246289400,3.613289306640625,6.804006060865521,0.46990533042550087,1.4338468084484337
1772608972256287500,3.62328759765625,6.583764642572403,0.857471984860301,1.5123510208427906
1772608972266285600,3.63328564453125,6.287405614760518,1.2291650705978274,1.4346480418287217
1772608972276283400,3.643283447265625,5.9912084995120765,1.5985440341740846,1.1494574737630783
1772608972286281500,3.653281494140625,5.79927313824892,1.798749795654416,0.904277136785537
1772608972296279600,3.663279541015625,5.55150833773613,1.8355042398169636,0.7595702674262225
1772608972306276600,3.673276611328125,5.244100092643499,1.8375968281820416,0.5716038097940385
1772608972316274700,3.683274658203125,5.081780701965093,1.8247580971360207,0.5008075414285064
1772608972326272500,3.6932724609375,5.110995106011629,1.7638015241309999,0.6269738148383796
1772608972336270600,3.7032705078125,5.315950107845664,1.727385225881636,0.7540043038621544
1772608972346268700,3.7132685546875,5.839785765901207,1.8466820519134401,0.7395301536340266
1772608972356266500,3.7232666015625,6.668508041617274,2.038460469049215,0.7342119542859494
1772608972366264600,3.7332646484375,7.436875509613752,2.1522087210431695,0.938677492102608
1772608972376261400,3.743261474609375,7.916312053972482,2.1444787113130093,1.0666793103765695
1772608972386259500,3.753259521484375,8.031046686655282,1.9349840202227233,1.0243520345177501
1772608972396257500,3.763257568359375,7.601178767585754,1.5572823417201638,0.8874173335298895
1772608972406255400,3.77325537109375,6.8533630892306565,1.353134564615786,0.2695376929143444
1772608972416253400,3.78325341796875,5.833129815143346,1.2752297794193028,-0.29871768323462455
1772608972426251800,3.793251708984375,4.526973567062616,1.1822481288611888,-0.3852923528272658
1772608972436249600,3.80324951171875,3.1458570628046987,1.2607549716040491,-0.22849605468558146
1772608972446247700,3.81324755859375,1.9416455239385366,1.397723063404858,0.05969517476707697
1772608972456244500,3.823244384765625,0.32228491170704365,1.2415522584840655,0.6070698215812445
1772608972466242600,3.83324267578125,-1.6371382609844207,0.8104314167439937,1.0849464231468737
1772608972476240600,3.84324072265625,-3.2153216441750523,0.4806348142325878,1.0798283494807779
1772608972486238500,3.853238525390625,-4.420198953473568,0.2502364513233304,0.8805646180909127
1772608972496236500,3.863236572265625,-5.727601986744999,-0.514363188572228,0.5399648820143192
1772608972506234600,3.873234619140625,-7.461743408888578,-1.2410732427954674,-0.5196467915309593
1772608972516232400,3.883232421875,-9.724348733410238,-1.5940750720664858,-1.9733477992780506
1772608972526230500,3.89323046875,-11.82896714349985,-1.9342431387275456,-2.164011094778776
1772608972536227600,3.9032275390625,-13.134662788331507,-2.061674463637173,-0.8627355314116925
1772608972546225700,3.9132255859375,-13.698851499563455,-1.3130232112407683,0.5830265730949118
1772608972556223700,3.9232236328125,-14.216942476487159,-0.8347051495179534,1.5983914739608764
1772608972566221600,3.9332216796875,-14.081799846547842,-1.1079115575402974,1.3835948770701885
1772608972576219600,3.9432197265625,-12.851200066971778,-2.0389415305644274,0.40056561754383146
1772608972586217700,3.9532177734375,-11.200613126349449,-3.3153339240223167,-0.6424040967475623
1772608972596215600,3.963215576171875,-9.384178036400675,-4.206453911462426,-1.9018838607840238
1772608972606213600,3.973213623046875,-7.588126978310942,-4.669961065283418,-2.8683506195008754
1772608972616210400,3.98321044921875,-5.857010456946492,-4.45915499933362,-2.704206643743813
1772608972626208000,3.9932080078125,-4.308625415170193,-3.5865380523115395,-1.6458255714394152
1772608972636206000,4.0032060546875,-2.686127089434862,-2.525766723869741,-0.4358284349091351
1772608972646204000,4.013203857421875,-1.2808172241628168,-1.5881033041805028,-0.09427366313003004
1772608972656202000,4.023201904296875,-0.39804070217609405,-0.9328571884512901,-0.12432723968075587
1772608972666199800,4.03319970703125,0.1919675099670887,-0.09953063381016254,0.060168984557595104
1772608972676198000,4.043197998046875,0.3178314394295215,0.9405328376457095,0.22104214021675286
1772608972686196000,4.053196044921875,-0.19393910230100153,1.7850170383781194,0.029124241545051336
1772608972696193000,4.063193115234375,-0.6281225464820861,1.9632310405418276,-0.1864736617911607
1772608972706191000,4.073191162109375,-0.04186638034880161,1.8856246537700294,0.13942717539072036
1772608972716189200,4.083189208984375,1.1913029574543237,2.0636162453547118,0.4939593560341745
1772608972726187000,4.09318701171875,2.603003985068202,2.3211647732570766,0.647452173917368
1772608972736185000,4.10318505859375,4.049651238378882,2.492630762465298,0.811878108420968
1772608972746183200,4.11318310546875,5.56993363674283,2.5998604263454674,1.1295806607738137
1772608972756181000,4.123180908203125,6.905857831099629,2.801576884649694,1.2488786558493972
1772608972766178000,4.133177978515625,7.763696311184764,2.91837984803915,1.1300369531739503
1772608972776175900,4.14317578125,8.184554409846664,2.8620918513670563,0.7227293870892375
1772608972786174000,4.153174072265625,8.693135215625166,2.6077190308913587,0.25221900344267484
1772608972796172000,4.163172119140625,9.475924007683991,2.3257339808687565,-0.0675615972932428
1772608972806170000,4.173170166015625,9.908341611236333,2.0942627280309796,-0.27895795728638767
1772608972816168200,4.183168212890625,9.857816708135605,1.9558938295215367,-0.4294099461689591
1772608972826166300,4.193166259765625,9.539763150388001,1.9620149427503346,-0.48952341941334304
1772608972836164000,4.2031640625,8.968818535155057,2.020499280422926,-0.41669820250347256
1772608972846161200,4.2131611328125,8.32665343479514,2.1539134791344403,-0.1540221755195409
1772608972856159000,4.223158935546875,7.770607698008417,2.288300906792283,0.15405099975522607
1772608972866157000,4.233156982421875,7.152090015217661,2.3255443035155534,0.24534352818261831
1772608972876155100,4.243155029296875,6.367493881475925,2.306184061746299,0.11059793473687023
1772608972886153000,4.253153076171875,5.606550426000356,2.2085443562492726,-0.13535115812346338
1772608972896151000,4.263151123046875,5.076464475378394,2.037111977049708,-0.4567593235285952
1772608972906149000,4.273149169921875,4.525517523035407,1.822737404963374,-0.7943369718376546
1772608972916147000,4.28314697265625,3.7529333141267296,1.5624483461812138,-1.3257143505096434
1772608972926144000,4.29314404296875,2.8567630575597285,1.031161787597835,-1.7021933553494513
1772608972936142000,4.30314208984375,2.2386592162668704,0.006769932526350021,-1.5241604088410734
1772608972946140200,4.31314013671875,1.8330588924914597,-1.5218781431227921,-1.5933409125730393
1772608972956138200,4.32313818359375,2.104512027105689,-3.340417511874437,-1.9751682927034795
1772608972966136000,4.333135986328125,2.746574251613021,-5.050018951523303,-2.042665081132203
1772608972976134100,4.343134033203125,2.9139146853238342,-6.021818741831183,-1.4524132694914935
1772608972986132200,4.35313232421875,0.7610942621231078,-5.72968931441307,-0.9249927386865019
1772608972996130000,4.363130126953125,-3.7207010235637425,-4.50789798745364,-1.4295115557231008
1772608973006127000,4.373127197265625,-8.971682107892631,-3.2030423005774615,-1.6416130683109162
1772608973016125000,4.383125,-14.062095613646507,-2.5764345425724984,0.2713282661255449
1772608973026123000,4.393123046875,-17.484518039512633,-1.956497640633583,2.302962030959874
1772608973036121000,4.40312109375,-18.07990969825983,-0.3689046240627765,2.67889421557188
1772608973046119000,4.413118896484375,-15.711076288115978,1.0898276193171739,2.8335151607021687
1772608973056117000,4.423116943359375,-12.485946366631984,1.422348678356409,2.9170100209906695
1772608973066115000,4.433114990234375,-10.525060135650634,0.9716665193170309,2.199890509672463
1772608973076113000,4.44311279296875,-9.93600352514386,0.14937778377979993,1.2252734699867665
1772608973086110200,4.453110107421875,-8.947537846717237,-0.679516633632779,0.653510597173497
1772608973096108000,4.46310791015625,-6.4822501414686435,-0.9560665068641304,0.6879295110605657
1772608973106106000,4.473106201171875,-3.4038077417671677,-0.6605225948274135,1.038171520229429
1772608973116104200,4.483104248046875,-0.9170376880288124,-0.12380085945278406,1.254290305634588
1772608973126102000,4.49310205078125,0.5745651438176631,0.4191653232693672,1.270336600550264
1772608973136100000,4.50310009765625,1.2760364196270704,0.9907572964951395,1.5090990333095191
1772608973146098200,4.51309814453125,1.3591782286942005,1.5432818734183906,2.048371914471686
1772608973156095000,4.523094970703125,0.9967395857751369,1.8974992159590125,2.6856629790544506
1772608973166093000,4.533093017578125,0.4597673827707767,2.004034175573289,3.1732708471700546
1772608973176091000,4.5430908203125,0.0818517692565918,1.8177248374983668,3.297291779114306
1772608973186089000,4.5530888671875,0.026529695007205006,1.3259627723127603,2.976476647698879
1772608973196087000,4.563087158203125,0.4450935452520847,0.7769599397748709,2.240638407385349
1772608973206084900,4.5730849609375,1.213885376140475,0.6078261929064989,1.1176504959400742
1772608973216083000,4.5830830078125,2.209019280284643,0.6944897463589906,-0.13616756167341953
1772608973226081000,4.5930810546875,3.2075831588774917,0.7387672795027495,-1.0986616447664797
1772608973236078000,4.603078125,3.9765217047601937,0.6499161528781056,-1.602906759428233
1772608973246076200,4.613076171875,4.621714043986797,0.5594058608695864,-1.833823154862225
1772608973256074000,4.623073974609375,5.187597868698835,0.5066612358927727,-1.9048789509467778
1772608973266072000,4.633072021484375,5.565052878963947,0.5673793239668011,-1.8635140903793275
1772608973276070100,4.643070068359375,5.731733971983194,0.7292743517532945,-1.6781116380162535
1772608973286068000,4.65306787109375,5.803237950226664,0.8162094156235457,-1.3936530374869704
1772608973296066000,4.663066162109375,5.964877541947365,0.8473100718080997,-1.2394281059369443
1772608973306064100,4.673064208984375,6.060658467835188,0.8968503477856516,-1.1860966940481215
1772608973316061000,4.68306103515625,6.353479384648799,1.108166116823256,-1.0649899690501392
1772608973326059000,4.69305908203125,6.748988522520661,1.4249357722401619,-0.9735233261648565
1772608973336056800,4.703056884765625,6.936458136546611,1.5539339080750942,-0.8671921454943716
1772608973346055000,4.713054931640625,6.769436267265677,1.5692448744535445,-0.687800331722945
1772608973356053000,4.723052978515625,6.345407137352228,1.5285583515390753,-0.6390937300905585
1772608973366051000,4.733051025390625,5.7006116884887215,1.2264607800751923,-0.6645351914696395
1772608973376049200,4.743049072265625,4.889029932665824,0.7478019420906901,-0.9040523150537162
1772608973386047200,4.753047119140625,3.7631688769370317,0.25655250260233875,-1.3245631346479056
1772608973396044000,4.7630439453125,2.2172984483301637,-0.2609475226908922,-1.93158648673892
1772608973406042000,4.7730419921875,0.7402326758801937,-1.111366081908345,-2.392852875895798
1772608973416040000,4.7830400390625,-0.313276260343194,-2.21488086579442,-2.5207503570124508
1772608973426038000,4.7930380859375,-1.1194552803397178,-3.1144711599379775,-2.438105391551554
1772608973436036000,4.8030361328125,-1.9760177491396664,-3.493974919426441,-2.1327266064599155
1772608973446034000,4.813033935546875,-3.28970263915956,-3.4457483563959594,-2.001882842758298
1772608973456032000,4.823031982421875,-4.911663204756379,-3.2737901997566223,-1.9846508451893925
1772608973466030000,4.833030029296875,-6.601034341803192,-3.677898239147663,-0.7526831382609903
1772608973476027100,4.843027099609375,-8.61526579400301,-4.556737421685457,1.0677859564442187
1772608973486025200,4.853025146484375,-10.259684859645366,-4.513427272269129,1.8427767150379717
1772608973496023000,4.86302294921875,-10.21517702487707,-3.3738381354391573,1.8852282017983495
1772608973506021000,4.873021240234375,-9.430137823542951,-2.7202392023950814,1.8962803416885434
1772608973516019200,4.883019287109375,-8.572863991603255,-2.5566741955697534,1.6288693220719694
1772608973526017000,4.89301708984375,-7.247582771813869,-3.08324600059092,2.3020345408514142
1772608973536015000,4.90301513671875,-5.74434795436263,-3.7447558528900142,3.4986440802812573
1772608973546013200,4.91301318359375,-4.188229687985777,-3.001387217071652,3.566118949139118
1772608973556010000,4.923010009765625,-2.7559856385588644,-2.1376579253822565,3.076929364790022
1772608973566008000,4.933008056640625,-1.1786550728052854,-1.4992401948571203,2.1515552255704997
1772608973576006000,4.943005859375,0.39769174260795115,-0.780967421850562,1.0533733271449803
1772608973586004000,4.95300390625,1.7504115889430045,0.1292740301668644,0.17786818440072238
1772608973596002000,4.963001953125,2.4145564659208056,0.9103834908366203,-0.15192651841454208
1772608973605999900,4.972999755859375,2.3519611857980487,1.5568915888369081,-0.29587296132799235
1772608973615998000,4.982998046875,2.147884135842323,2.051305337575078,-0.3996126276679337
1772608973625995000,4.9929951171875,2.0972657092392444,2.3968092123061417,-0.5879042256012559
1772608973635992800,5.002992919921875,2.056687030613422,2.444464697450399,-0.6351482073351741
1772608973645991000,5.012990966796875,1.951930186587572,2.2223098467513918,-0.5183014048039913
1772608973655989000,5.022989013671875,1.9399235224515199,2.03074887175858,-0.3396412663079798
1772608973665986800,5.03298681640625,2.0026760389626026,1.9187597383916377,-0.10172872837632894
1772608973675985000,5.04298486328125,2.078183992150426,1.8915251099854706,0.03821107271164655
1772608973685983000,5.05298291015625,2.2407278392344714,1.8496601909413932,-0.029598179199732837
1772608973695980800,5.062980712890625,2.5410271291047333,1.7346069938287139,-0.09295381270311773
1772608973705977900,5.072977783203125,2.9376456895232197,1.5630302377223968,-0.24997352607082574
1772608973715975700,5.0829755859375,3.37198637009263,1.4379562895938753,-0.45470925913099197
1772608973725973800,5.092973876953125,3.8478164143919944,1.3892869512319563,-0.6320868470031767
1772608973735971800,5.102971923828125,4.329990274760127,1.4335790974229574,-0.6628877165235578
1772608973745969700,5.1129697265625,4.833365328589082,1.6094503358528016,-0.6272374342106283
1772608973755967700,5.1229677734375,5.464901482906937,1.8004738429680465,-0.6400551224686205
1772608973765965800,5.1329658203125,6.114520406404138,1.9194176177784799,-0.6001326792618259
1772608973775964000,5.1429638671875,6.582067191004753,2.016085847894847,-0.5658785640150308
1772608973785961000,5.1529609375,6.713226888787746,2.065105899390578,-0.44549014335423703
1772608973795958800,5.162958740234375,6.314505218610167,2.0405559800237416,-0.2831424764294177
1772608973805956900,5.172956787109375,5.411637510231137,2.008577956482768,-0.03553067452125251
1772608973815955000,5.182954833984375,4.433171832293271,2.066947143343091,0.18496252657584844
1772608973825952800,5.192952880859375,3.6405443677872418,2.155616191399097,0.4155854920212179
1772608973835950800,5.202950927734375,2.791369671151042,1.790933568945527,0.7396960847854613
1772608973845949000,5.212948974609375,1.7712281670004129,1.0256459467858074,0.6660135934591292
1772608973855946800,5.22294677734375,0.5344540827035904,0.060144964361190795,0.2275434849347919
1772608973865943800,5.23294384765625,-0.7770335895329713,-1.1525403883397578,-0.13111490879319607
1772608973875941600,5.242941650390625,-2.071124721288681,-2.3384271659642457,-0.541820300622657
1772608973885939700,5.252939697265625,-3.2607629604011774,-3.1997447203367946,-0.7925907857574522
1772608973895937800,5.262937744140625,-4.629200600349903,-3.3338615143597123,-0.8326051084987819
1772608973905936000,5.272935791015625,-6.307216815167665,-2.9979081427842376,-0.32857641306668517
1772608973915934000,5.282933837890625,-7.75242029941082,-3.150308781516552,0.8808214423961936
1772608973925932000,5.29293212890625,-8.348299449414014,-3.711139999014139,2.412019056397676
1772608973935929900,5.302929931640625,-8.55935218360126,-3.3837031113713976,3.202170778439939
1772608973945927000,5.312927001953125,-8.396302725082636,-2.4847820947915316,3.3694691265746948
1772608973955924700,5.3229248046875,-7.208833646702766,-2.25160286899209,3.278721226418018
1772608973965921800,5.332921875,-5.425229982253909,-2.754932330113649,3.166218882831931
1772608973975919600,5.342919677734375,-4.501645649060607,-3.4464006828248497,3.065993252494931
1772608973985917700,5.352917724609375,-4.381043001127243,-4.141951920935512,2.8229414519786835
1772608973995915800,5.362915771484375,-3.9718461141645904,-4.387020321971177,2.492388185881078
1772608974005913900,5.372913818359375,-2.997314853066206,-4.003372302284837,2.16220404535681
1772608974015912000,5.382911865234375,-1.7023621360450982,-3.179280608978867,1.5988459397301076
1772608974025910000,5.392909912109375,-0.36732466139495373,-2.0837591619342564,1.0641812830157578
1772608974035907800,5.402907958984375,1.2347744349122047,-0.967982862368226,0.7362818924278021
1772608974045905000,5.41290478515625,2.748617155617475,-0.03308569252192974,0.5896130022805184
1772608974055902700,5.42290283203125,3.637129006385803,0.6283499254971743,0.28259189334195106
1772608974065900800,5.43290087890625,3.948534796682,1.0460586202174424,-0.5216324489228427
1772608974075899000,5.44289892578125,3.861800516080856,1.3088532320797444,-1.1295571337677537
1772608974085896700,5.452896728515625,3.3222727833747863,1.6044582266539333,-1.57306253304556
1772608974095894800,5.462894775390625,2.654075416135788,1.9054349773943422,-1.8258758491195737
1772608974105892900,5.472892822265625,2.0950012714385986,2.0089380219668147,-1.757349425382167
1772608974115890700,5.482890625,1.6931068164438008,2.099277049061656,-1.6820429861158133
1772608974125887700,5.4928876953125,1.3817553866833447,2.167296692320704,-1.3307511756330728
1772608974135885800,5.5028857421875,1.4061948314130306,2.2945322023972867,-0.6462056079223751
1772608974145884000,5.5128837890625,1.661908545103669,2.2893632753267883,0.07815609307643026
1772608974155882000,5.522882080078125,1.8490590101778506,2.1124369748860596,0.47282446927521377
1772608974165879800,5.5328798828125,2.068102743119001,2.018018569523096,0.7180605184953659
1772608974175878000,5.5428779296875,2.415992636203766,2.0416504972621796,0.783962146687135
1772608974185876000,5.5528759765625,2.749236748820543,2.081599938073754,0.5829177058929577
1772608974195872800,5.562872802734375,3.245954682847857,2.0709628087252376,0.4513508520811796
1772608974205870800,5.572870849609375,3.894069047001004,1.9493159124359487,0.5543101451657713
1772608974215869000,5.582868896484375,4.541542775163054,1.8142139067679643,0.826514828799665
1772608974225866800,5.59286669921875,5.055390707689523,1.759944556441903,1.1326331071469933
1772608974235864800,5.60286474609375,5.520020143538713,1.726967584991455,1.295885467826575
1772608974245862700,5.612862548828125,5.889369004237651,1.6928221542835236,1.3621046375349164
1772608974255860700,5.62286083984375,5.8321934110760685,1.532805487589538,1.3588663862660526
1772608974265858800,5.63285888671875,5.352109216463566,1.394084414641559,1.1766097576480359
1772608974275856000,5.64285595703125,4.59528196413517,1.2790087134361265,1.0073054765183478
1772608974285854000,5.65285400390625,3.8877544570267197,1.0294178665399552,0.8347031767565757
1772608974295852000,5.66285205078125,3.0494828471988438,0.6742956841140985,0.6430346497360616
1772608974305849900,5.672849853515625,2.100805573803186,0.23700024539232253,0.45669257843531663
1772608974315848000,5.682847900390625,1.2070493926405905,-0.4012999962329864,0.15708401077557355
1772608974325845800,5.692845703125,0.22413374955654142,-1.3008096263557671,-0.33252895008474587
1772608974335846000,5.702845947265625,-1.03584293115139,-2.4425743536591527,-1.1918819994512944
1772608974345843700,5.71284375,-2.306178508788347,-3.5961838325351474,-2.23636555237174
1772608974355841800,5.722841796875,-3.4101468816608187,-4.265508157977462,-3.423453814740479
1772608974365839600,5.732839599609375,-4.411978237617015,-4.321771896991134,-4.507777283683419
1772608974375837000,5.7428369140625,-5.337631778299809,-4.225538551160693,-4.342287154014408
1772608974385835000,5.7528349609375,-5.870142325720191,-4.350300072339177,-2.4903788918852805
1772608974395832800,5.762832763671875,-5.971085164415836,-4.263633011755347,-0.21827004515491424
1772608974405831000,5.772830810546875,-5.702973741444945,-3.079531363981962,0.699351945567876
1772608974415829000,5.7828291015625,-5.199010074073076,-2.181005484199524,1.3072569027990102
1772608974425826800,5.792826904296875,-3.9186195508897304,-2.300660037627816,1.973946788084507
1772608974435825000,5.802824951171875,-2.513882517069578,-2.77699393979609,2.3052903277769685
1772608974445822700,5.81282275390625,-2.15132112455368,-3.1717209873795507,2.2661973576642573
1772608974455819800,5.82281982421875,-2.3203408896535636,-3.445717961257696,1.8789564280524849
1772608974465817900,5.83281787109375,-2.2531834161818027,-3.594754091992974,1.2138349611274897
1772608974475815700,5.842815673828125,-2.012200238633156,-3.5586674640893934,0.6094446609538048
1772608974485813800,5.852813720703125,-1.8641607177197932,-3.273260038402676,-0.28480460095535964
1772608974495811800,5.862811767578125,-1.7558441353857517,-2.734331440633535,-1.3972529616750775
1772608974505809700,5.8728095703125,-1.4829782113641499,-1.8450386686205862,-2.13901226260066
1772608974515807700,5.882807861328125,-1.2051695702433585,-0.8770067064136267,-2.2131841448791323
1772608974525805800,5.892805908203125,-0.8575216692209243,0.1259194590419531,-1.8292320276796816
1772608974535803000,5.902802978515625,-0.6147866795688868,1.0037433270573615,-1.2549690816789865
1772608974545801000,5.912801025390625,-0.7196832243263721,1.6539923651516437,-0.5673160494722426
1772608974555798800,5.922798828125,-0.5803104094713926,2.253513086527586,0.2052491990076378
1772608974565796900,5.932796875,0.0594037906050682,2.729533100441098,0.8575377435728907
1772608974575795000,5.942794921875,1.0782459025949238,2.893217349731922,1.380138745266944
1772608974585792800,5.952792724609375,2.2871868080705404,2.8747172319233414,1.552303968785703
1772608974595790800,5.962790771484375,3.606126549878716,2.8517531204432247,1.17631040937528
1772608974605789000,5.972788818359375,4.669640747287869,2.634032160538435,0.588484436642006
1772608974615785700,5.98278564453125,5.317231379827857,2.3303502424925564,0.2062294056840241
1772608974625783800,5.99278369140625,5.440935500907898,2.102499225978553,0.2118043928047642
1772608974635782000,6.002781982421875,4.97971441219747,1.9888743081033229,0.2946855416417122
1772608974645779700,6.01277978515625,4.486940247359872,1.929984604500234,0.4765868905486539
1772608974655777800,6.02277783203125,4.197421294701099,2.035372732166946,0.6984665410354733
1772608974665775900,6.03277587890625,4.096603543689847,2.2125600216314196,0.7935531279835849
1772608974675773700,6.042773681640625,4.0830420513272285,2.2878598850265144,0.6295793211616575
1772608974685771800,6.052771728515625,4.051761362400651,2.1608917937144634,0.41423005882427094
1772608974695768600,6.0627685546875,4.127950868111848,1.9743255582690238,0.44203897998705505
1772608974705766700,6.0727666015625,4.351939071717858,1.89176885561347,0.5541008132640272
1772608974715764700,6.0827646484375,4.617610115799308,1.8564596418231725,0.674034548959881
1772608974725762600,6.092762451171875,4.731950780728459,1.7072884865313767,0.7364003311756998
1772608974735760600,6.1027607421875,4.566146470543742,1.497118380397558,0.8038917858421802
1772608974745758700,6.1127587890625,4.058302162346243,1.2757996882617473,0.7792161942690611
1772608974755756500,6.122756591796875,3.2683827877551317,0.8260369821548461,0.710242611286044
1772608974765753900,6.13275390625,2.203930432713032,0.3207873666256666,0.45221799030452964
1772608974775751700,6.142751708984375,0.9355395594030618,-0.3400964627295732,0.3621676439579576
1772608974785749800,6.152749755859375,-0.5934761805146932,-1.1659814691931008,0.24640133013986049
1772608974795747800,6.162747802734375,-2.1968214774906634,-2.152677215337753,-0.32496845170259475
1772608974805745700,6.17274560546875,-3.577040156126022,-3.340753027439117,-1.165205881710723
1772608974815743700,6.18274365234375,-4.470494723993539,-4.273841686558723,-2.0773899191632865
1772608974825741800,6.192741943359375,-4.8816859996438025,-4.783565232631564,-2.565584354995191
1772608974835739600,6.20273974609375,-5.259719686579704,-4.931705291309952,-2.052565566769242
1772608974845737700,6.21273779296875,-5.877052543500065,-5.080823839631677,-0.754234605486691
1772608974855734500,6.222734619140625,-6.316927477321029,-5.142655149644613,0.6822003197588026
1772608974865732600,6.232732666015625,-6.442412052077055,-4.156144696938991,0.9535274168405681
1772608974875730700,6.242730712890625,-6.447052571359277,-3.3615678519308565,0.992471260806173
1772608974885728500,6.252728515625,-6.132321436032653,-3.3597377138942477,1.1590120685718952
1772608974895726600,6.2627265625,-6.350667834359407,-3.805803903570771,0.9825050895217805
1772608974905724700,6.272724609375,-7.234869420713186,-4.029772817954421,0.4489872647549957
1772608974915722500,6.282722412109375,-7.793070874229073,-4.0233109284639355,-0.06157678726259619
1772608974925720600,6.292720458984375,-7.610345824381708,-3.949192968329787,-0.33957835713960227
1772608974935717600,6.302717529296875,-6.352836995092034,-3.7524130896449086,-0.27900364132532846
1772608974945715700,6.3127158203125,-4.420180833294987,-3.286090878403187,-0.2693331650518812
1772608974955713800,6.3227138671875,-2.299110470098257,-2.3214631716817618,-0.5809972592243925
1772608974965711600,6.332711669921875,-0.06758242088556289,-1.3415543091982602,-0.6764677674561739
1772608974975709700,6.342709716796875,1.9231570965677498,-0.3689584000766277,-0.593732237634994
1772608974985707800,6.352707763671875,3.3604783031284806,0.5410381372690201,-0.6750243637148291
1772608974995705600,6.36270556640625,4.219910189884901,1.2310422626465558,-0.8152847019940614
1772608975005703700,6.37270361328125,4.643990173202753,1.7574240980535745,-0.4975533254055306
1772608975015700500,6.382700439453125,4.633237893041968,2.190962230068445,0.1709525415270589
1772608975025698600,6.392698486328125,4.1067379842132326,2.6065049789264796,0.9732868139952421
1772608975035696600,6.402696533203125,3.400349710267782,3.041528088802099,1.4569035666480659
1772608975045694500,6.412694580078125,2.9743834748119116,3.2884619914487003,1.5941284096889197
1772608975055692800,6.42269287109375,2.795815544643998,3.286970583847165,1.561043447819352
1772608975065691000,6.43269091796875,2.8823844055503605,3.1942414467453957,1.366206227634847
1772608975075688700,6.442688720703125,3.268631209558248,3.0446847992673516,1.0729001576527952
1772608975085686800,6.452686767578125,3.7661739039719104,2.8480525123596188,0.823420296850428
1772608975095683600,6.46268359375,4.342642835584282,2.716568112666905,0.5471832158952951
1772608975105681700,6.472681640625,4.90354770283997,2.6250273085668683,0.3260372865105048
1772608975115679700,6.4826796875,5.347857404237986,2.5017981115221977,0.3127383540742099
1772608975125677600,6.492677490234375,5.684236307749152,2.4148899356588718,0.2901100138870999
1772608975135675600,6.502675537109375,5.769297102180123,2.324668105202913,0.22320258791996164
1772608975145673700,6.512673828125,5.698036285042763,2.2597692243129015,0.13769819617364554
1772608975155671600,6.522671630859375,5.589338009914756,2.0735896500974893,0.1045203135899268
1772608975165669600,6.532669677734375,5.2631888239949935,1.7845540970414875,0.08043084220853634
1772608975175666700,6.542666748046875,4.784958732816577,1.493616217495501,0.030795551741158122
1772608975185664800,6.552664794921875,4.580927860090136,1.2514184034600853,0.18166651723776012
1772608975195662800,6.562662841796875,4.3996500864416355,1.0656222756043077,0.37572646943945437
1772608975205660700,6.57266064453125,3.9479146189570424,0.8123878115087747,0.5314440507000312
1772608975215658800,6.58265869140625,3.3493758943557737,0.4135419304296374,0.5083126198289916
1772608975225656800,6.59265673828125,2.8577105675429104,-0.08585457515716552,0.4675939482105896
1772608975235654700,6.602654541015625,2.401278466674685,-0.829839881569147,0.5113787294013425
1772608975245652700,6.61265283203125,1.654472842144966,-1.8683239748790859,0.5171040117129683
1772608975255649500,6.6226494140625,0.7578443204164504,-2.8869077281937003,0.4688766449648887
1772608975265647600,6.632647705078125,0.17386019086837767,-3.70041402233839,0.598644888389483
1772608975275645700,6.642645751953125,-0.22736966273784637,-3.922947058700025,0.7727781971108167
1772608975285643500,6.6526435546875,-1.1400059009373187,-3.49717546903342,0.9271433408491313
1772608975295641600,6.6626416015625,-2.7457658578395843,-3.396852515801787,1.309984281936288
1772608975305639700,6.6726396484375,-4.197487930196523,-3.590551964128017,1.6159152940832078
1772608975315637500,6.682637451171875,-5.863838841661811,-3.6957790560141204,1.9913550190031528
1772608975325635600,6.692635498046875,-7.908640204170346,-3.370862626759708,2.184186452323198
1772608975335632600,6.702632568359375,-9.354033073505759,-2.389882043391466,1.651727635090053
1772608975345630700,6.712630615234375,-9.58398515395224,-1.3545683968111872,0.6817725958660245
1772608975355628800,6.72262890625,-8.704564372134207,-1.0083221792802215,0.38886224720329043
1772608975365626600,6.732626708984375,-8.482520872855186,-1.4294345449641346,1.3378776665121317
1772608975375624700,6.742624755859375,-9.445271679788828,-1.47327076408118,1.60175583582744
1772608975385622800,6.752622802734375,-9.99952702602744,-1.1048626913636923,1.137027908039838
1772608975395620600,6.76262060546875,-9.324137701457738,-1.2265274155706167,0.549283731838502
1772608975405618700,6.77261865234375,-7.519838454982638,-1.710370670455694,-0.11711140828412026
1772608975415615500,6.782615478515625,-5.542271722835302,-1.8824200125098227,-1.005471173763275
1772608975425613600,6.792613525390625,-3.6616473615705964,-1.1961784545361995,-1.9986049901314078
1772608975435611600,6.802611572265625,-1.502459741425514,-0.2320434997677803,-2.5318413676083087
1772608975445609500,6.812609375,0.8845131365209817,0.41304011838734145,-2.540989719703793
1772608975455607600,6.822607666015625,3.1866005766034124,0.8245335918545722,-2.484583649609983
1772608975465605600,6.832605712890625,5.518202864983677,1.2127449739336966,-2.074681244726479
1772608975475603500,6.842603515625,7.210064065280556,1.7709318144023418,-1.237809857085347
1772608975485601500,6.8526015625,7.503274858194589,2.4622008451491593,-0.2829181296216324
1772608975495598600,6.8625986328125,6.29980390856266,3.0211162921532986,0.49448615638725457
1772608975505596700,6.8725966796875,4.312343558910489,3.262829537542164,1.1201885630503297
1772608975515594800,6.8825947265625,2.1984049472898244,3.351879986131191,1.620217667452246
1772608975525592600,6.892592529296875,0.4098024516403675,3.384586323946714,1.952392835663259
1772608975535590700,6.902590576171875,-0.7101409044772387,3.3234640389859673,1.8372506450928747
1772608975545588700,6.912588623046875,-0.7537579278856515,3.2243533841535448,1.393576318988949
1772608975555586600,6.922586669921875,0.23453648562729357,2.9378099401742217,1.0313219465956092
1772608975565584600,6.932584716796875,1.6328262430042026,2.6754277085050937,0.8623189134348184
1772608975575581400,6.94258154296875,3.0804537395238873,2.6511250418975947,0.8544805479593575
1772608975585579500,6.95257958984375,4.206522885045409,2.7226635069325567,0.9335909095533191
1772608975595577600,6.96257763671875,5.025324655249714,2.7966724537342786,0.9065870942283422
1772608975605575700,6.97257568359375,5.577898332011699,2.7955606931000947,0.8102274186044931
1772608975615573800,6.98257373046875,5.697304463636875,2.638002817735076,0.5406659429557621
1772608975625572600,6.992572509765625,5.478463559791446,2.2837153325676915,0.12265932473484426
1772608975635570400,7.0025703125,5.346873653897643,1.9587930580943822,-0.34458847691919653
1772608975645568500,7.012568603515625,5.303394577655196,1.83925014834702,-0.8019014157425611
1772608975655565600,7.022565673828125,4.980139944133162,1.7050322320371865,-1.3087350125275552
1772608975665563600,7.032563720703125,4.459293531021475,1.5445526240065692,-1.4816151063174008
1772608975675561700,7.042561767578125,3.503523669016361,1.4231731464818118,-0.9951054087020457
1772608975685559600,7.0525595703125,2.0545120246618986,1.2734054866015911,-0.2739826530918479
1772608975695557600,7.0625576171875,0.44890112084150313,0.9543021275401115,0.34992066826000806
1772608975705555700,7.0725556640625,-1.0937409933686255,0.5703218071594834,0.508982006990537
1772608975715553500,7.082553466796875,-2.5975959885448217,0.16132774929255247,0.270781080571562
1772608975725551600,7.092551513671875,-3.8635844768881795,-0.3641010231733322,-0.22192995590195058
1772608975735549700,7.1025498046875,-4.836905193153023,-1.2515212793126702,-0.507790824444592
1772608975745546500,7.11254638671875,-5.418463556858897,-1.899544165790081,-1.334185826256871
1772608975755544600,7.122544677734375,-5.408636574849486,-2.480933018147945,-2.1038212683625517
1772608975765542400,7.13254248046875,-5.110644977399707,-3.1021514843299984,-1.8652767161376773
1772608975775540500,7.14254052734375,-4.955752521851658,-3.594455401307344,-0.6561959637999534
1772608975785538600,7.15253857421875,-5.166576123458147,-4.3120720484927295,1.3772430238254367
1772608975795536600,7.16253662109375,-5.356280949190259,-4.291174221892654,2.360407234843075
1772608975805534700,7.17253466796875,-5.088997793737054,-3.517767006163299,1.617113125565648
1772608975815532800,7.18253271484375,-4.45337407784462,-3.644798225839436,0.9475061837896704
1772608975825529600,7.192529541015625,-3.926568464067578,-4.1720276179865,0.4851037763401866
1772608975835527700,7.202527587890625,-4.34455013051033,-4.45614149673134,0.14642178351841867
1772608975845525500,7.212525390625,-5.395666618639231,-4.501171601808071,0.21415961416140197
1772608975855523600,7.222523681640625,-6.41075259296596,-4.2817710182532664,0.5532962188828736
1772608975865521700,7.232521728515625,-6.542129732891917,-3.621588030643761,0.8491364104524254
1772608975875519500,7.24251953125,-5.483032182881236,-2.5704998918265103,0.9245684488598257
1772608975885517600,7.252517578125,-3.631269174441695,-1.8877634193643926,0.8034404618781059
1772608975895515600,7.262515625,-1.6946914552867411,-1.4613167069151998,0.5344494065284728
1772608975905512400,7.272512451171875,0.07954758396744728,-1.1020353589832783,-0.00917027166634798
1772608975915510500,7.282510498046875,1.735510956931114,-0.6845590117141604,-0.6818220610309392
1772608975925508600,7.292508544921875,3.125871674874425,-0.26545594002604483,-1.202062763334438
1772608975935506700,7.302506591796875,3.8095220473110674,0.10947802732884883,-1.4579764565765856
1772608975945504800,7.3125048828125,3.6330396912455556,0.46396395767778154,-1.2614015989445149
1772608975955502600,7.322502685546875,2.9163533106476067,0.9362401088878511,-0.7785570727732032
1772608975965500700,7.332500732421875,2.0177251395344733,1.3511010129615664,-0.1681990963667631
1772608975975498800,7.342498779296875,1.1897604041874408,1.6419541368335484,0.3979602208184078
1772608975985495600,7.35249560546875,0.9681512046724557,1.8797876181796191,0.6553852319389581
1772608975995493600,7.36249365234375,1.6460463745832443,1.9695014991134403,0.6447984445381909
1772608976005491500,7.372491455078125,2.9488872145056724,1.7803367716073988,0.4794621537240222
1772608976015489500,7.382489501953125,4.201956015521287,1.555054728798568,0.08854691951368003
1772608976025487600,7.392487548828125,5.175225878381728,1.5493196922779082,-0.4092063123781234
1772608976035485400,7.4024853515625,5.935966504761576,1.6265490624308585,-0.6852985780350863
1772608976045483500,7.4124833984375,6.360265099266171,1.7314947070270776,-0.7276856212571263
1772608976055481600,7.422481689453125,6.385695893120765,1.94216107224524,-0.6597527794986963
1772608976065479400,7.4324794921875,5.940999238231778,2.1464920969620347,-0.4264141984190792
1772608976075476700,7.442476806640625,5.541126059931516,2.302005022495985,-0.20093783861454576
1772608976085474600,7.452474609375,5.482746936199069,2.3798922720357774,0.02446476183403283
1772608976095472600,7.46247265625,5.593156691420078,2.2976102946683765,0.2887522060699761
1772608976105470700,7.472470703125,5.677674465015531,2.1696204590931534,0.2980099733566865
1772608976115468500,7.482468505859375,5.514146283069253,1.9955574391290545,0.20293767066225407
1772608976125466600,7.492466552734375,4.526526992338895,1.683138087876141,0.4979018465822562
1772608976135464700,7.502464599609375,3.264880917114019,1.6149223375231028,0.77641830717884
1772608976145461500,7.51246142578125,2.2311375885903835,1.6250906803160905,0.7556107892107218
1772608976155459600,7.52245947265625,1.4146622155070303,1.2814555220663546,0.5294111201003193
1772608976165457400,7.53245751953125,0.5549561879843473,0.5952402675777674,0.2530588883329183
1772608976175455500,7.54245556640625,-0.3642459846019745,0.0147007255256176,-0.028372254133969543
1772608976185453600,7.55245361328125,-1.04712595718801,-0.4079021709769964,-0.5879558827232569
1772608976195451400,7.562451416015625,-1.1613514713048934,-0.7076169389575719,-1.090581506424397
1772608976205449500,7.572449462890625,-1.24395902736485,-1.0248229399651287,-1.0983771287366748
1772608976215447600,7.582447509765625,-1.8010779463410376,-1.374531865170598,-1.043404744707793
1772608976225445600,7.592445556640625,-2.741775326898694,-2.0402818392574784,-0.6469672399446368
1772608976235442700,7.602442626953125,-3.8083115024775265,-3.0127795487016438,0.4963031426813453
1772608976245440500,7.6124404296875,-5.215316481229663,-3.567112636351585,1.719960628838837
1772608976255438600,7.6224384765625,-6.6905404252052305,-3.164536628833413,1.7153863066606223
1772608976265436700,7.632436767578125,-7.052870347052812,-2.181885189643502,0.8699171865440904
1772608976275434500,7.6424345703125,-6.072744042426347,-1.9532371775329112,0.5863246282596141
1772608976285432600,7.6524326171875,-4.579998470285535,-2.683976633402705,0.592013560616225
1772608976295430700,7.6624306640625,-3.790954709485173,-3.6257886972039937,0.9379599184177816
1772608976305428500,7.672428466796875,-3.4547155067056416,-3.8746272644281383,1.4241520745165646
1772608976315425500,7.682425537109375,-3.357909913945198,-3.8949803166270254,2.061064515045285
1772608976325423400,7.69242333984375,-3.1074995673596857,-4.058284042167664,2.4092130590662357
1772608976335421400,7.70242138671875,-2.233715330123901,-3.9968396856456994,2.38409293859601
1772608976345419500,7.71241943359375,-1.6310089644491672,-3.627376843178272,1.5361341936208306
1772608976355417600,7.72241748046875,-2.289299854701757,-3.1352550047695633,-0.07459113060384988
1772608976365415700,7.732415771484375,-3.2455133688211437,-2.3369407267987725,-1.1955820960782468
1772608976375413800,7.742413818359375,-3.198017458152771,-1.2450199345946311,-1.4615711200676857
1772608976385411600,7.75241162109375,-2.214906000235677,-0.33418460833728314,-1.442783271358907
1772608976395408600,7.76240869140625,-0.7388625565707683,0.5435241088658571,-1.196841229293868
1772608976405406500,7.772406494140625,0.7540951970160007,1.4320143323242664,-0.6842797563813626
1772608976415404500,7.782404541015625,1.9584487747013568,2.0851818882137536,-0.17090704015120864
1772608976425402600,7.792402587890625,2.8645120642513033,2.5530858156889678,0.19827526834178716
1772608976435400400,7.802400390625,3.4236797324508426,2.912949055162072,0.1963257965081371
1772608976445398500,7.8123984375,3.3655817637473344,3.058761547675729,-0.0691462909351103
1772608976455396600,7.822396728515625,3.5166052689075467,3.1476965531915426,-0.3771946788284927
1772608976465394400,7.83239453125,4.101237633231282,2.9970331135153767,-0.4655635018289089
1772608976475392500,7.842392578125,4.6220472214639186,2.796313557294011,-0.025996099587157366
1772608976485389600,7.8523896484375,4.754395252248645,2.9144673507705328,0.34511041843406853
1772608976495387600,7.8623876953125,4.049499262687563,2.893019489072263,0.8139523574117571
1772608976505385700,7.8723857421875,3.1010546290040013,2.8433459421038627,0.9983908601135015
1772608976515383600,7.882383544921875,2.5345909585773945,2.989470569306612,0.9767858350921421
1772608976525381600,7.892381591796875,2.528366384974122,3.174962161257863,0.9307597777806222
1772608976535379700,7.902379638671875,3.009537790301442,3.144868051767349,0.8684782397821545
1772608976545377500,7.91237744140625,4.004045086979866,2.603440038397908,1.1234174619689583
1772608976555375600,7.922375732421875,4.919395260313153,2.1225959653288125,1.0548466145679354
1772608976565372400,7.932372314453125,4.983552967447042,1.8487942217618225,0.758636785968393
1772608976575370500,7.94237060546875,4.589769338193536,1.5133388628363609,0.5528448218535632
1772608976585368600,7.95236865234375,2.873793102815747,1.307173316168785,0.20059070567730813
1772608976595366400,7.962366455078125,-4.405129394635558,1.0745552313834428,-1.8981154481612146
1772608976605364500,7.972364501953125,-5.8305888984888785,0.1715098283499479,-2.057369752180576
1772608976615362600,7.982362548828125,-8.12133544486761,-2.2731764028966426,-3.7141584700524803
1772608976625360000,7.99235986328125,-1.0759323649555443,-0.7611655737936496,-1.8223256092920899
1772608976635358000,8.00235791015625,1.2875474092006682,-0.5945376722663641,-0.032752295849099756
1772608976645354800,8.012354736328126,1.6787620647490022,-0.7340759068161249,0.7343777393069117
1772608976655352800,8.022352783203125,2.3460107529610394,-0.7896160077303648,0.5822345824670047
1772608976665351000,8.032350830078125,1.759386922559142,-2.142794119226932,-0.4799469050336629
1772608976675348700,8.0423486328125,0.4734229831576347,-2.81746448187232,-0.2260339571546763
1772608976685346800,8.052346923828125,-1.3273913438111542,-2.7866058177500963,-0.19729641337227075
1772608976695345000,8.062344970703125,-2.98339387974143,-3.078227880167961,0.3704863768288865
1772608976705342700,8.0723427734375,-4.923313895061612,-3.0779695214927196,0.8577230370119213
1772608976715340800,8.0823408203125,-5.555579532697797,-2.7606010233998295,1.194707139874622
1772608976725339000,8.0923388671875,-4.509854089957475,-2.3529385063976047,2.2211994012914595
1772608976735336000,8.1023359375,-2.753619493949413,-1.7309171994000672,3.034056730008125
1772608976745334000,8.112333984375,-1.1632494138807057,-1.460077812770009,3.6777623378083106
1772608976755331800,8.122331787109376,-0.2844546550065279,-1.8420313034981488,3.995102194328606
1772608976765330000,8.132329833984375,-0.7723579989373683,-2.4072195471614597,3.5156302863955498
1772608976775328000,8.142327880859375,-1.6256132428854704,-2.68426538721621,2.9309140431806444
1772608976785325800,8.152325927734376,-1.9999433991283178,-2.5182266837537286,2.2315213272109626
1772608976795324000,8.162323974609375,-1.9076041381269693,-2.3083447469115255,1.5599036301344633
1772608976805322000,8.172322021484375,-1.0848393095105886,-2.0716496219456193,1.3451657776936887
1772608976815318800,8.18231884765625,-0.12604630029201508,-1.932452163657546,1.3561981899701059
1772608976825316900,8.19231689453125,0.7413403448611497,-1.4215209953606127,0.6819726484827697
1772608976835314700,8.202314697265624,1.5804016437619923,-1.0306862790405749,-0.37095859745051707
1772608976845312800,8.212312744140625,2.3624136062294245,-0.6329279009371995,-1.4526619835555552
1772608976855310800,8.222310791015625,3.222770791137218,0.22278350399136543,-2.5677403639853
1772608976865308700,8.23230859375,4.553438380140066,0.8427747664660215,-2.611290167376399
1772608976875306800,8.242306640625,5.134605698701739,1.0646318032622337,-2.0364599428817627
1772608976885304800,8.252304931640625,4.509776933068037,1.4628496155709028,-2.0803630897551773
1772608976895302000,8.262302001953126,3.558288109382987,1.70834530210793,-1.2849752206251024
1772608976905300000,8.272300048828125,2.4548773703932762,2.2056202854961158,0.13551080566458404
1772608976915297800,8.2822978515625,1.089030915981531,2.7242671427369114,1.0568515977147965
1772608976925295900,8.2922958984375,-0.5507523065537214,2.673519536796212,1.1597386292807756
1772608976935294000,8.3022939453125,-1.6797405543923376,2.5617858394950628,1.0548736487053334
1772608976945291800,8.312291748046874,-1.9516122066795825,2.6274697332829233,0.8425022331349551
1772608976955289900,8.322289794921875,-1.2672346890121697,2.654646494022012,0.8395052432760596
1772608976965288000,8.332287841796875,0.17528817784488201,2.45945768392086,0.8535781192269176
1772608976975284700,8.34228466796875,1.8778736012518404,2.1674305478334426,0.634171178996563
1772608976985282800,8.35228271484375,2.934703206330538,1.7614508693516253,0.12897285526320337
1772608976995280600,8.36228076171875,2.9244156210720536,1.522797596055269,-0.5213567372540012
1772608977005278700,8.37227880859375,2.2202152125596997,1.4032681303113699,-1.0287065034002065
1772608977015276800,8.38227685546875,1.4166010746151207,1.1416864013701677,-0.8204046753562987
1772608977025275000,8.39227490234375,1.3693699523627758,-0.19659926142096518,-1.2696828128166495
1772608977035273000,8.40227294921875,1.569225585231185,-2.5124270575642584,-3.3314947852283714
1772608977045271000,8.41227099609375,1.402175074377656,-1.780586362454295,-3.3642832483693956
1772608977055268900,8.422268798828124,1.1997294250160455,0.19031097493171692,-0.5069527661852539
1772608977065266000,8.432265869140625,1.5319430255413053,0.3309913652539253,0.7687449230067431
1772608977075263700,8.442263671875,1.7592220873862503,0.2739934667468071,0.736428461291641
1772608977085261800,8.45226171875,1.2826684049874544,0.28780688804388044,0.5214698787722736
1772608977095260000,8.462260009765625,0.3171750213474035,0.18635376173853874,0.22368724789805708
1772608977105257700,8.4722578125,-0.9532049799531698,0.11074001008868217,-0.0931858678933233
1772608977115255800,8.482255859375,-2.104970292267203,-0.027438626545667647,-0.18646533235423265
1772608977125254000,8.49225390625,-2.672690100234747,-0.15251462050080297,0.046691827743872996
1772608977135251700,8.502251708984375,-2.7838468744307754,-0.4085632652342319,0.3967946476377547
1772608977145248800,8.512248779296876,-2.6278444118142126,-0.7534072147518396,0.7697348108269274
1772608977155246800,8.522246826171875,-2.584106392374635,-1.0059650947600602,1.1725266530528664
1772608977165245000,8.532244873046874,-3.1591105121314524,-1.2842986365377902,1.1367075900442898
1772608977175243000,8.542242919921875,-3.6012545599281784,-1.3134405598700045,1.432663005491346
1772608977185240800,8.55224072265625,-3.536785887148976,-0.9789391406685113,1.9102926465585828
1772608977195239000,8.562239013671874,-1.9341326640903949,-0.6262848096609115,2.150000251213461
1772608977205237000,8.572237060546875,-0.10817512803673744,-0.5607441237360239,1.3803589638888836
1772608977215234800,8.58223486328125,1.0475573343425988,-1.2768921596735716,0.8138380103170871
1772608977225232000,8.59223193359375,1.6475234613984822,-2.177560312181711,0.6600459172263741
1772608977235229700,8.602229736328125,2.1364853744715453,-2.9299644873708486,0.5083459741093218
1772608977245227800,8.612227783203124,2.493096918672323,-3.415993269601464,0.13888576199039815
1772608977255225900,8.622225830078126,2.336764201188087,-3.2286762157887217,0.11060133227035403
1772608977265223700,8.6322236328125,2.2298539785206315,-2.5507149949043986,0.19576134929209946
1772608977275221800,8.6422216796875,2.0386896016299723,-1.9670733951836823,0.26740181339681146
1772608977285219800,8.6522197265625,1.569296312379837,-1.267870064306259,0.3127895728047937
1772608977295217700,8.6622177734375,1.6958207515776156,-0.15163491505682467,0.05287606933675706
1772608977305215700,8.6722158203125,1.7362807722598312,1.0173124182045459,-0.6829631938900799
1772608977315212800,8.682212890625,1.714056080970168,1.8321616513907908,-0.9558112899940461
1772608977325211000,8.6922109375,1.9053531443297862,2.528871411886811,-0.4003019981715828
1772608977335209000,8.702208984375,2.1846260127842423,3.150246822196245,0.5116041721876711
1772608977345206800,8.712206787109375,1.7779495842099189,3.2576462896853684,0.9229469851378351
1772608977355204900,8.722204833984375,1.1327999150812624,3.029560587632656,0.7293193599388003
1772608977365203000,8.732202880859376,0.3310182532608509,2.718755101317167,0.12409394238153472
1772608977375200800,8.74220068359375,-0.43312955121397967,2.2404420080304144,-0.2509959096548147
1772608977385198800,8.75219873046875,-0.8649234699100256,2.091503492450714,-0.7434923352632671
1772608977395195600,8.762195556640625,-0.9324825099200009,1.7985200785517692,-0.806820605835691
1772608977405193700,8.77219384765625,-0.798142428535223,1.5833569864362478,-0.3323368250461295
1772608977415191800,8.78219189453125,-0.8136375193089246,1.4756310634717344,0.07269217424788511
1772608977425189600,8.792189697265625,-1.0567337434887885,1.2638181585669517,0.5762282181916758
1772608977435187700,8.802187744140625,-1.5079507400572298,1.1524781367585062,0.6915151144623756
1772608977445185800,8.812185791015626,-2.0647323899030683,1.2450398083388805,0.7087462352484464
1772608977455184000,8.822183837890625,-2.268964922681451,1.5278592633590102,0.7130632216647267
1772608977465182000,8.832181884765625,-1.8620429949134587,1.8310253408372401,0.9797603208582848
1772608977475178800,8.8421787109375,-0.6543032819211483,2.127499811722338,1.096712629590556
1772608977485176800,8.8521767578125,0.539607812204957,1.9354735573053359,1.0019716412097215
1772608977495175000,8.8621748046875,1.3459791399031877,1.3145219253659248,0.6749789902031421
1772608977505172700,8.8721728515625,1.7993009997963905,0.6814771200507879,0.19328231889270245
1772608977515170800,8.8821708984375,1.9995693051189183,-0.06970014369189739,-0.17038992094192654
1772608977525169000,8.8921689453125,1.9757003537535667,-0.8385486732035875,-0.2748890090807341
1772608977535166700,8.902166748046875,1.6660943063557148,-1.184834638223052,-0.11705690161790698
1772608977545164800,8.912164794921875,0.9288584742039442,-1.2690385235637425,-0.14980112375840543
1772608977555163000,8.922162841796874,-0.295111073577404,-1.6337866124689577,-0.34108708120211956
1772608977565159700,8.93215966796875,-2.117663769623637,-2.074505595898628,-0.9521591241620481
1772608977575157800,8.94215771484375,-3.7332168062657116,-2.382978255352378,-1.780047433272004
1772608977585155800,8.95215576171875,-4.279152652448415,-2.2559458666324614,-2.252010426879674
1772608977595154000,8.96215380859375,-3.7557793512076136,-1.8093506846457719,-2.2541350178182125
1772608977605152000,8.972152099609374,-2.0828958231031893,-1.7702695511013269,-2.0002403362482783
1772608977615149800,8.98214990234375,0.1377963593184948,-2.1623615740060806,-1.4784670175500214
1772608977625148000,8.99214794921875,1.547214244431257,-2.767422978374362,-0.7773628214873373
1772608977635146000,9.00214599609375,1.05346743516922,-3.3091496824294326,-0.12311857627704739
1772608977645143000,9.01214306640625,-0.7221744566202163,-3.522430614060163,0.09767974524646997
1772608977655140900,9.022140869140625,-1.337654963672161,-3.2426644091308114,0.9092053139027207
1772608977665139000,9.032138916015626,-0.6396516562342643,-2.4622411771595476,1.441147048459202
1772608977675136800,9.04213671875,0.28840426941514014,-2.2459546339720484,1.8552375526823102
1772608977685134800,9.052134765625,1.2712263889968394,-2.56559575317204,2.5676594077035784
1772608977695133000,9.0621328125,1.049556399205327,-2.827353423202038,2.7562434127122164
1772608977705130800,9.072130859375,0.6272685600012541,-2.369702594193816,1.7554118814483284
1772608977715128800,9.08212890625,0.5396650953501463,-1.621300055861473,0.35025877764057367
1772608977725127000,9.092126953125,0.2644277660220861,-1.3447241714060305,-0.3373512191420421
1772608977735124000,9.1021240234375,0.13596855936944485,-0.5388976181089877,-0.7579477077256888
1772608977745122000,9.1121220703125,0.5020867675840854,1.0790350071460009,-1.0819558630287647
1772608977755119900,9.122119873046875,1.097908634442091,2.2458932591736316,-1.19167595548518
1772608977765118000,9.132117919921875,1.470150878494978,3.0758792712152,-1.1986501053467393
1772608977775116000,9.142115966796876,1.5224386996150017,3.666301909378171,-1.3304076228924095
1772608977785113900,9.15211376953125,1.2920599181890486,3.895945362266898,-1.2962529859647154
1772608977795112000,9.16211181640625,1.4870184266656636,3.470753618314862,-0.48131278655938803
1772608977805110000,9.172110107421876,1.831308833953738,2.506904202489555,0.23403335841074585
1772608977815106800,9.18210693359375,1.4592296715080737,1.5236048207849264,0.5012080850534141
1772608977825105000,9.19210498046875,0.5169990900337695,0.9913096696808934,0.6100997638616711
1772608977835102700,9.202102783203125,-0.5276105004191398,0.9750935711562633,0.38453970782905816
1772608977845100800,9.212100830078125,-1.1361287672430276,1.0980398596063257,0.07123758239224552
1772608977855099000,9.222098876953124,-1.1078723945736884,1.1889742222458124,0.021884280354157088
1772608977865096700,9.2320966796875,-0.5491869569331407,1.2270099383905528,0.36950419739112256
1772608977875094800,9.2420947265625,0.3922726401686668,1.1606810246974228,0.673682447586581
1772608977885092900,9.2520927734375,1.4058622384577988,1.0559285645857452,0.6691469230487942
1772608977895091000,9.262091064453125,2.0778724419832226,0.8855956710606813,0.4340064071137458
1772608977905088000,9.272087890625,2.0950819354593753,0.5666755596116185,0.031514716878160834
1772608977915086000,9.282086181640626,1.994580995312333,0.7176712999820709,-0.48084867617897686
1772608977925084000,9.292083984375,2.1929718163251875,0.9582418050765991,-0.5583968299575149
1772608977935082000,9.30208203125,2.100002440726757,0.8359729774966835,-0.04182224894613027
1772608977945079800,9.312079833984376,1.646059818586707,0.48371144519895315,0.4686505445914343
1772608977955078000,9.322077880859375,0.9567541968673468,0.10926701492667197,0.6380891561578959
1772608977965073000,9.332072998046876,0.3944809638679027,-0.08450199150443076,0.6149512955460698
1772608977975071000,9.342071044921875,-0.38190614445507526,-0.1232630993142724,0.046424829104449596
1772608977985068800,9.35206884765625,-0.8074135302275419,-0.18319120605438946,-0.3073294077027589
1772608977995067000,9.36206689453125,-0.8526087627381086,-0.15098872610777617,-0.08674887538207694
1772608978005065000,9.37206494140625,-1.3245131580263376,-0.14752689521610737,-0.2679295270653441
1772608978015062800,9.382062744140624,-1.8834125306785106,-0.22748101415783165,-0.5632662991574033
1772608978025060900,9.392060791015625,-2.348948559978604,-0.19951544112861155,-0.3012752587629482
1772608978035059000,9.402058837890625,-2.7822891235947607,-0.27664836516976354,0.1402444465903565
1772608978045056800,9.412056884765626,-1.5398288103550672,-0.8956798427015542,0.6478731027431786
1772608978055053800,9.4220537109375,-0.20154139399826526,-1.6233961513578892,1.3059846909061072
1772608978065052200,9.43205224609375,-0.336059170037508,-2.3769623560637236,0.5837216426869855
1772608978075050000,9.442050048828126,-1.4801426956772803,-3.4045617750048636,-0.9078473964877426
1772608978085048000,9.452048095703125,-2.770491133773327,-3.9839375339746472,-1.3745691284410655
1772608978095046000,9.4620458984375,-3.6399732899010178,-3.4962960558503866,-0.47769196571372446
1772608978105044000,9.4720439453125,-3.913045550149679,-2.351897472912073,0.4903379506666213
1772608978115042000,9.4820419921875,-3.523751633530855,-0.830563519668579,0.859548645003885
1772608978125039900,9.492039794921874,-2.498165892499685,-0.11629238351881503,1.1169676282424479
1772608978135037000,9.502036865234375,-1.4045979176104069,-0.7355021402269601,0.8686959741860628
1772608978145035000,9.512034912109375,-0.316993235039711,-1.710464193958044,0.6444112718515098
1772608978155032800,9.52203271484375,0.5751853215426206,-2.323105678191781,0.438697670202516
1772608978165031000,9.532031005859375,1.1938918049037457,-2.5570769311517476,0.32655221376270055
1772608978175028700,9.54202880859375,1.6794038697838782,-2.582410109850764,0.16502280441820621
1772608978185026800,9.55202685546875,1.941448540061712,-2.488819972005486,-0.024576624710671603
1772608978195025000,9.56202490234375,2.0948890432357787,-1.8446739269614219,-0.1271800170296803
1772608978205022700,9.572022705078124,1.7897206860244272,-0.9881056129425764,-0.37689858195874837
1772608978215020800,9.582020751953126,1.0078805729925633,0.08901420823186636,-0.7234518561448902
1772608978225018000,9.59201806640625,0.2637929752498865,1.392376441679895,-0.5090907280620187
1772608978235016000,9.602015869140626,0.0036947628647089003,2.3691668798819183,-0.10721558055588976
1772608978245014000,9.612013916015625,0.137098440182209,2.9557801888898014,0.03022906098179519
1772608978255011800,9.62201171875,0.4430763602107763,3.12529329046458,-0.41936522975564
1772608978265010000,9.632010009765626,1.1434721157431602,2.9732588546961543,-0.6118242495667189
1772608978275008000,9.642008056640625,1.8273451910197733,2.6245170209571715,-0.6629745180241763
1772608978285005800,9.652005859375,2.3928280337154866,2.0561995393574235,-0.6256210119899362
1772608978295004000,9.66200390625,2.4747224730700252,1.6229451927199958,-0.40217100691385566
1772608978305001000,9.6720009765625,2.0167735378980636,1.4699679231435059,-0.13146746682422236
1772608978314998800,9.681998779296874,1.3774194033056497,1.3201932490006087,-0.17616481454893945
1772608978324996900,9.691996826171875,0.8807932392150163,1.0564914591655135,-0.4516626945093274
1772608978334996000,9.701995849609375,0.5338818357735872,0.8574585408568381,-0.3580812514271587
1772608978344993800,9.711993896484374,0.5021972422212362,0.8806883175358176,-0.1832465347045101
1772608978354991900,9.721991943359376,0.4944330379605293,1.0864654494076966,-0.26362695276690645
1772608978364990000,9.731989990234375,0.3028945670604706,1.3117533374354242,-0.41746736024506387
1772608978374987000,9.741987060546874,0.09863514627516269,1.5387015598908065,-0.4190218231454491
1772608978384985000,9.751985107421875,0.2899830630391836,1.651708638128638,-0.2529239368416369
1772608978394983000,9.76198291015625,0.9431734152823686,1.5882172859489916,-0.28915253049917516
1772608978404981000,9.77198095703125,1.4233032026022672,1.3467623992353677,-0.2901969615181908
1772608978414979000,9.78197900390625,1.558003349471092,1.10365448461771,-0.3497406720506027
1772608978424977000,9.791976806640625,1.6240835491001604,0.7814993367701768,-0.1411179049566388
1772608978434975000,9.80197509765625,1.5517361057698726,-0.10892068570703267,-0.3003331921398639
1772608978444973000,9.81197314453125,1.2343284447103737,-1.347198160304129,-1.051129201480001
1772608978454969900,9.821969970703124,0.8035106775701045,-0.8955036093518137,-0.9208004746284335
1772608978464968000,9.831968017578125,0.0857639742642641,0.06469225240200757,-0.204510034545511
1772608978474965800,9.8419658203125,-0.6611264059394598,0.26355185997039077,0.2344563330631703
1772608978484963800,9.8519638671875,-1.0105518380284308,0.2628372819602489,0.4364450324375182
1772608978494962000,9.8619619140625,-1.1205167720913887,0.09502455456256866,0.6157042328052222
1772608978504959700,9.871959716796875,-0.7822551235735415,-0.33863515800535676,0.7144891628146172
1772608978514957800,9.881957763671876,-0.5852846907526255,-0.8561977271407842,0.7883401425756513
1772608978524956000,9.891955810546875,-1.131004848358035,-1.1642062762141228,0.8015187731005251
1772608978534953700,9.90195361328125,-2.1476596794366833,-1.286637893140316,0.48091465408727524
1772608978544951000,9.911950927734376,-3.441687682828307,-1.2684776748105884,0.001093786586076021
1772608978554948900,9.921948974609375,-3.7522196128994225,-0.9906944603919983,0.07719678305760025
1772608978564947000,9.931947021484374,-3.2793577707558867,-0.7220774259865284,0.674251844972372
1772608978574945000,9.941945068359376,-2.6054694983988997,-0.544087587967515,1.0188714842148126
1772608978584942800,9.95194287109375,-1.797971797019243,-0.520269490006566,0.7150221006475389
1772608978594941000,9.96194091796875,-0.5717191067367792,-1.0082681110054255,0.39641996910646554
1772608978604939000,9.97193896484375,0.49636079115271564,-1.8515613483875988,0.3303893077075481
1772608978614936800,9.981936767578125,0.7592740609586238,-2.325459547841549,0.434254975047335
1772608978624934700,9.9919345703125,0.8081669789433479,-2.179237305483222,0.22010295967049895
1772608978634932500,10.001932373046875,1.0690408518761396,-1.899763946020603,-0.23481844437383115
1772608978644930600,10.0119306640625,1.0302864660680293,-1.7410411185294388,-0.140853189605847
1772608978654928600,10.0219287109375,0.5240121836662293,-1.3123738074213265,0.2678596401669085
1772608978664926500,10.031926513671875,0.04224690409898758,-0.3609226853981614,-0.018601020899787542
1772608978674924500,10.041924560546875,0.12143617614805698,0.5614505184397101,-0.4103435727797448
1772608978684922600,10.051922607421876,0.3887257613420486,1.1207207702308892,-0.5538433313716202
1772608978694920400,10.06192041015625,0.7254512863337993,1.1893062306791544,-0.9233535201121121
1772608978704918500,10.07191845703125,1.4463684363693,0.8739666080653667,-1.54806706186831
1772608978714915600,10.08191552734375,2.428780806106329,0.48675154354721306,-2.133290670083463
1772608978724913700,10.09191357421875,2.9419957014262677,0.48602089118510483,-2.420099194739759
1772608978734911700,10.101911865234374,2.6707348745137454,0.7200538112044333,-1.7551774881705642
1772608978744909600,10.11190966796875,1.6387649854034185,0.971627064089477,-0.37845198541320857
1772608978754907600,10.12190771484375,0.14669161343574524,1.1500327894330025,0.654738823794201
1772608978764905700,10.13190576171875,-1.30153151088953,1.1486693921253084,1.1450344696890562
1772608978774903600,10.141903564453125,-1.8791268161833286,0.8864870669424534,1.5738874395623803
1772608978784901600,10.151901611328125,-1.74191556327641,0.6726750971749424,1.5952955537721514
1772608978794899500,10.1618994140625,-1.3357014915168284,0.60421530893296,1.2433081622406839
1772608978804896500,10.171896484375,-0.7134604042887688,0.6867831175044179,0.9278587225768714
1772608978814894600,10.18189453125,0.1079582704156637,0.6102829384088516,0.4267703914456069
1772608978824892400,10.191892333984375,0.9534516481906175,0.5772381624191999,0.17098427010588346
1772608978834890500,10.201890380859375,1.5841986979573963,0.6581909370094537,0.2066460236608982
1772608978844888600,10.211888671875,2.0373837797284127,0.5842682071864604,0.21529475567117332
1772608978854886700,10.22188671875,2.0237878005743024,0.416082847084105,0.051399347847700116
1772608978864884700,10.231884765625,1.9533622652173042,0.10484569135308265,-0.36339331329539415
1772608978874882800,10.2418828125,1.9595389080256223,-0.16082009203135966,-0.5679433875903487
1772608978884879600,10.251879638671875,1.6559493444383144,-0.26905308773517606,-0.46004926845207805
1772608978894877700,10.261877685546875,0.9330477425873279,-0.33913404743820424,-0.3293905059285462
1772608978904875500,10.27187548828125,0.30236440570652484,-0.24031389998495578,-0.13864873836413025
1772608978914873600,10.28187353515625,-0.1673275742292404,-0.2532426474019885,0.12286255568936466
1772608978924871700,10.29187158203125,-0.3766980544179678,-0.27709318632781504,0.16564254375174642
1772608978934869500,10.301869384765626,-0.7170546293884515,-0.17605185569375753,-0.009360679671913385
1772608978944867600,10.31186767578125,-1.6536118414014578,0.18471417783796787,-0.6340379080057144
1772608978954865700,10.32186572265625,-1.880306381356716,0.48304275215715164,-0.48669572170674796
1772608978964862500,10.331862548828125,-1.7859733161896467,0.4043871485933661,-0.040340047564357516
1772608978974860500,10.341860595703125,-1.737985822612047,0.12896072643399237,0.3151727416142821
1772608978984858600,10.351858642578126,-1.9911480982542036,-0.315148776216805,0.6274937470592558
1772608978994856700,10.361856689453125,-2.9041397257626054,-0.6392714247450232,0.8327405714467168
1772608979004854800,10.371854736328125,-3.3040608348578213,-0.6460349275305867,1.3174838439114391
1772608979014852600,10.3818525390625,-2.9700790556162593,-0.6629401773631572,1.6627083171792327
1772608979024850700,10.3918505859375,-2.3912778816640374,-0.4938382869377732,1.0766282382652164
1772608979034848800,10.401848876953125,-1.641442095658183,-0.28410014248043297,0.06397314434722065
1772608979044846600,10.4118466796875,-0.7453127556234598,-0.45345191601365803,-0.8005478822417557
1772608979054843600,10.42184375,-0.05174246219694614,-0.7957634244441986,-0.7853862612061202
1772608979064841500,10.431841552734374,-0.07440729846954346,-1.0546168974652885,-0.5221192095264792
1772608979074839600,10.441839599609375,0.057523968207836146,-1.1845353630155324,-0.32679464421644805
1772608979084837600,10.451837646484375,0.5848100589781999,-1.0652414595931767,-0.1891835783369839
1772608979094835500,10.46183544921875,1.0533370867878198,-0.937131797030568,-0.34445495020002126
1772608979104833500,10.47183349609375,1.24552554602921,-0.8650701849043368,-0.5069245630040764
1772608979114831600,10.48183154296875,0.922359175312519,-0.7663640192195773,-0.024798414235189557
1772608979124829400,10.491829345703126,0.4204723142147064,-0.3213692581668496,0.4369943368833512
1772608979134827500,10.50182763671875,0.17886778989732263,0.5286503648608922,0.07811009851023554
1772608979144824600,10.511824462890624,0.4830296004146337,1.057909801530838,-0.35866876899152994
1772608979154822700,10.52182275390625,0.9009311873584985,1.2505682163715361,-0.8109738530576228
1772608979164820700,10.53182080078125,1.4400783963143824,1.1863795295774937,-1.3518755044654012
1772608979174818600,10.541818603515624,1.573365753775835,1.0975029762506485,-1.7620787919916212
1772608979184816600,10.551816650390625,1.4792583140581845,0.970580769906938,-2.013398216246068
