time,seconds_elapsed,z,y,x
1772565971981743900,0.078743896484375,0.0002564140595495701,0.001147252507507801,-0.0009333295747637749
1772565971991772700,0.088772705078125,-0.0011374838650226593,-0.00120458472520113,0.001755664125084877
1772565972001800700,0.09880078125,0.0008571618236601353,-0.0006821956485509872,-0.00021375715732574463
1772565972011829500,0.10882958984375,-0.00020783627405762672,-0.0005053617060184479,0.002839290536940098
1772565972021857800,0.11885791015625,0.0009950213134288788,-0.00087761040776968,-0.000570347998291254
1772565972031885600,0.128885498046875,-0.0009299111552536488,0.000043842941522598267,-0.0008720839396119118
1772565972041914600,0.13891455078125,0.0003316020593047142,0.0031548570841550827,-0.00045504188165068626
1772565972051943000,0.14894287109375,0.0013342825695872307,-0.0007543964311480522,-0.000019881408661603928
1772565972061970700,0.158970703125,-0.00039072101935744286,-0.0020734770223498344,0.0003987974487245083
1772565972071999700,0.168999755859375,0.00033312663435935974,-0.0002044709399342537,0.00022622430697083473
1772565972082027800,0.17902783203125,-0.00010657357051968575,-0.0017904797568917274,-0.001665166113525629
1772565972092055800,0.189055908203125,0.00031979894265532494,0.002322772517800331,0.0016073258593678474
1772565972102084600,0.199084716796875,-0.0013046544045209885,-0.0014553423970937729,-0.001645057462155819
1772565972112112600,0.209112548828125,0.001971832010895014,0.0009723948314785957,0.000999461393803358
1772565972122141700,0.2191416015625,-0.0014582718722522259,0.0010649152100086212,-0.0004246826283633709
1772565972132169700,0.229169677734375,0.0009468286298215389,-0.0007638772949576378,0.0007327278144657612
1772565972142197500,0.239197509765625,-0.000800632406026125,0.0002646520733833313,0.0014715828001499176
1772565972152226600,0.2492265625,-0.002591608092188835,-0.0006219139322638512,-0.0011175423860549927
1772565972162254800,0.2592548828125,0.0006335601210594177,0.001047695055603981,0.00020766723901033401
1772565972172282600,0.26928271484375,-0.0009012199006974697,0.0010213293135166168,0.0022338000126183033
1772565972182311700,0.279311767578125,0.0018465868197381496,0.004420523531734943,-0.002249288372695446
1772565972192339700,0.289339599609375,-0.000292463693767786,-0.0009681172668933868,0.0004136059433221817
1772565972202368800,0.29936865234375,-0.0005805827677249908,0.004115835763514042,-0.000814228318631649
1772565972212396500,0.309396484375,-0.0004394352436065674,0.001144547015428543,0.0031871716491878033
1772565972222424800,0.3194248046875,0.0021726121194660664,-0.001276305876672268,0.0021610595285892487
1772565972232454000,0.329453857421875,0.00021785171702504158,0.0001239841803908348,-0.0007620262913405895
1772565972242481700,0.339481689453125,-0.00002826005220413208,0.0005974238738417625,-0.0024520959705114365
1772565972252509700,0.349509765625,0.0003208802081644535,-0.00008301436901092529,0.0009048180654644966
1772565972262538800,0.359538818359375,0.0004555662162601948,-0.0002123834565281868,-0.0004085768014192581
1772565972272566800,0.36956689453125,-0.0003782692365348339,0.00031971652060747147,-0.0016549360007047653
1772565972282594600,0.379594482421875,0.001680667046457529,-0.0012883134186267853,0.0012634079903364182
1772565972292624000,0.389623779296875,0.0008313846774399281,-0.00104436744004488,-0.001866605132818222
1772565972302651600,0.399651611328125,0.0004451512359082699,-0.0015760799869894981,0.0018091960810124874
1772565972312680700,0.4096806640625,0.000470984261482954,-0.0005315877497196198,0.0006957282312214375
1772565972322708500,0.41970849609375,0.0005349884741008282,0.0008928682655096054,-0.00010669790208339691
1772565972332736800,0.42973681640625,-0.001536151859909296,-0.0017670970410108566,-0.0012997938320040703
1772565972342765800,0.439765869140625,-0.0014890343882143497,-0.000024422071874141693,-0.0016235578805208206
1772565972352793600,0.449793701171875,0.00026119500398635864,-0.0006372155621647835,-0.00026268232613801956
1772565972362822000,0.45982177734375,-0.0011548986658453941,0.000417475588619709,0.0013959077186882496
1772565972372850700,0.4698505859375,0.0022182613611221313,0.0014489181339740753,-0.0015777782537043095
1772565972382878700,0.479878662109375,-0.0010614325292408466,0.0008766427636146545,-0.0005260375328361988
1772565972392907500,0.489907470703125,0.0005527096800506115,0.000661991536617279,-0.000470111146569252
1772565972402935800,0.499935791015625,-0.0009938590228557587,-0.0009607346728444099,0.0027379333041608334
1772565972412963600,0.509963623046875,0.000506566371768713,-0.0036401404067873955,-0.00017876038327813148
1772565972422992600,0.51999267578125,-0.0005182186141610146,-0.0001194346696138382,-0.00019648438319563866
1772565972433020700,0.530020751953125,-0.0024383575655519962,0.0004536779597401619,-0.0007184641435742378
1772565972443048700,0.540048583984375,0.0002950686030089855,0.00046455394476652145,0.0008330089040100574
1772565972453077800,0.550077880859375,-0.001547040417790413,0.00201984029263258,0.0026687257923185825
1772565972463105800,0.560105712890625,-0.00045249704271554947,0.0010637324303388596,-0.0012665744870901108
1772565972473133800,0.5701337890625,0.0008338098414242268,0.001801162026822567,-0.00230094650760293
1772565972483162600,0.58016259765625,-0.0008596177212893963,0.0002522319555282593,0.00239461287856102
1772565972493190700,0.590190673828125,-0.001776011660695076,-0.0018825577571988106,0.000697113573551178
1772565972503219700,0.6002197265625,0.0008395826444029808,-0.0006582727655768394,0.0011489680036902428
1772565972513247700,0.610247802734375,0.0005189385265111923,-0.0027882689610123634,-0.0025762622244656086
1772565972523275500,0.620275634765625,0.0010451399721205235,0.0007205391302704811,0.0025615114718675613
1772565972533304600,0.6303046875,-0.0035839667543768883,0.0023788893595337868,-0.0020042117685079575
1772565972543332900,0.640332763671875,0.002018059603869915,-0.0013767071068286896,-0.0008285669609904289
1772565972553360600,0.650360595703125,0.00031896308064460754,0.0010779285803437233,-0.000552130863070488
1772565972563389700,0.6603896484375,0.0020690695382654667,0.0000912882387638092,-0.0004484076052904129
1772565972573417700,0.670417724609375,0.00017982302233576775,0.002582143060863018,0.002174273133277893
1772565972583446800,0.68044677734375,0.0023117451928555965,-0.0016455063596367836,-0.0017324290238320827
1772565972593474600,0.690474609375,0.0004070526920258999,0.0011590681970119476,-0.00017980625852942467
1772565972603502800,0.7005029296875,-0.0007061990909278393,-0.0025929808616638184,-0.0005737897008657455
1772565972613531600,0.71053173828125,-0.0006681154482066631,0.0005756476894021034,0.00034366967156529427
1772565972623559700,0.7205595703125,0.0010058572515845299,-0.0013197856023907661,-0.0009623146615922451
1772565972633587700,0.730587646484375,-0.0004551527090370655,-0.00044120848178863525,0.002471565268933773
1772565972643616800,0.74061669921875,0.00017841579392552376,-0.0014445716515183449,-0.0011005159467458725
1772565972653644800,0.750644775390625,0.0009496673010289669,0.0008393544703722,-0.0008600326254963875
1772565972663673600,0.760673583984375,0.0012269606813788414,-0.0013970350846648216,0.0012706583365797997
1772565972673702000,0.770701904296875,-0.000028985552489757538,0.001171584241092205,-0.0010436279699206352
1772565972683730000,0.78072998046875,0.0024080765433609486,-0.00033639557659626007,0.00235858466476202
1772565972693758700,0.7907587890625,0.0015433481894433498,0.0023262333124876022,0.001179870218038559
1772565972703786800,0.800786865234375,-0.0005406043492257595,-0.0015612440183758736,-0.000635283999145031
1772565972713814800,0.810814697265625,-0.0005291528068482876,0.0004987111315131187,-0.0001764213666319847
1772565972723843800,0.82084375,0.0012204148806631565,0.0010681571438908577,0.003379929345101118
1772565972733871900,0.830871826171875,0.0007104198448359966,-0.0008130995556712151,0.0013759001158177853
1772565972743900000,0.84089990234375,-0.0004190267063677311,0.001220998354256153,0.0017306800000369549
1772565972753929000,0.850928955078125,-0.0024297134950757027,-0.0019156727939844131,-0.0010613780468702316
1772565972763956700,0.860956787109375,0.00046929530799388885,-0.003443315625190735,0.00044123735278844833
1772565972773985800,0.87098583984375,-0.0005115470848977566,0.0013130903244018555,-0.0009377473033964634
1772565972784013800,0.881013916015625,0.0013780784793198109,0.002193826250731945,0.0035267765633761883
1772565972794041900,0.891041748046875,0.00046967482194304466,-0.0023521902039647102,0.0020543145947158337
1772565972804071000,0.90107080078125,0.00014304742217063904,0.0006489036604762077,-0.0005661058239638805
1772565972814099000,0.911098876953125,-0.002745683304965496,-0.0006419308483600616,0.0002019498497247696
1772565972824126700,0.921126708984375,-0.000596778467297554,-0.0007455404847860336,-0.004502234049141407
1772565972834155800,0.93115576171875,0.00047807348892092705,-0.0017697922885417938,0.0003700191155076027
1772565972844183800,0.941183837890625,-0.002617255784571171,-0.00012721307575702667,-0.0021794969215989113
1772565972854212900,0.951212890625,-0.001188469585031271,0.0011785347014665604,-0.0018628472462296486
1772565972864241000,0.961240966796875,0.00022849440574645996,0.00174668338149786,0.0011626281775534153
1772565972874268700,0.9712685546875,-0.0007249172776937485,0.0028249965980648994,0.0006076260469853878
1772565972884297700,0.981297607421875,-0.0004382687620818615,-0.00025522708892822266,-0.00019661430269479752
1772565972894325800,0.99132568359375,-0.0013850224204361439,0.0018694428727030754,0.0022007632069289684
1772565972904353800,1.001353759765625,-0.0006589614786207676,0.001672215759754181,-0.0006816568784415722
1772565972914382800,1.0113828125,0.00009098416194319725,-0.000807187519967556,-0.001312293577939272
1772565972924411000,1.021410888671875,-0.00036262255162000656,0.00004230532795190811,-0.0017001768574118614
1772565972934440000,1.03143994140625,0.0006563025526702404,0.0015837429091334343,-0.0008112136274576187
1772565972944467700,1.0414677734375,-0.001341971568763256,0.00040694139897823334,-0.0027884081937372684
1772565972954496000,1.05149609375,0.0023140162229537964,0.0005773836746811867,-0.0006091431714594364
1772565972964524800,1.06152490234375,0.0001408914104104042,0.0017449697479605675,0.00003590527921915054
1772565972974552800,1.071552734375,-0.0009094597771763802,-0.003379218280315399,-0.0004043150693178177
1772565972984580900,1.081580810546875,0.0009541697800159454,-0.0004560472443699837,0.0017024818807840347
1772565972994610000,1.09160986328125,-0.0009119077585637569,0.003513661213219166,0.00014107069000601768
1772565973004637700,1.1016376953125,0.0009491229429841042,-0.0014674114063382149,-0.001188741996884346
1772565973014665700,1.111665771484375,-0.00018245447427034378,0.0017603393644094467,-0.0017320266924798489
1772565973024695000,1.121695068359375,-0.0012089600786566734,-0.0006565144285559654,0.001437520608305931
1772565973034722800,1.131722900390625,-0.0002475590445101261,-0.001062646508216858,0.001146969385445118
1772565973044752000,1.141751953125,0.000595796387642622,0.0007441304624080658,0.0014032847248017788
1772565973054779600,1.151779541015625,-0.001506502740085125,-0.0007533654570579529,-0.0007501472719013691
1772565973064808000,1.161807861328125,-0.000810746569186449,-0.001609218306839466,0.001045040786266327
1772565973074836700,1.171836669921875,0.003134193830192089,-0.001036372035741806,0.001112685538828373
1772565973084864800,1.18186474609375,0.001834603026509285,-0.0004074433818459511,-0.0010513816960155964
1772565973094892800,1.191892822265625,0.0012801336124539375,0.0006684735417366028,0.0022312309592962265
1772565973104921900,1.201921875,0.00010236585512757301,0.0004207538440823555,-0.0006119385361671448
1772565973114950000,1.211949951171875,-0.0005580983124673367,-0.000311083160340786,0.0014978176914155483
1772565973124978700,1.221978759765625,-0.00022651534527540207,-0.0017800182104110718,-0.002695237286388874
1772565973135007000,1.232007080078125,0.00009359605610370636,-0.00020475871860980988,-0.0006856159307062626
1772565973145034800,1.24203466796875,0.0013096807524561882,-0.001419873908162117,0.0013384637422859669
1772565973155063800,1.252063720703125,0.00015999376773834229,0.0009759059175848961,0.0004931767471134663
1772565973165091800,1.262091796875,-0.0002783695235848427,0.000006091780960559845,0.00021554576233029366
1772565973175120000,1.272119873046875,0.0005418839864432812,-0.0005779396742582321,-0.0002787369303405285
1772565973185148700,1.282148681640625,-0.001262490637600422,0.001054316759109497,0.002560008317232132
1772565973195177000,1.292177001953125,-0.00020388420671224594,0.0017840228974819183,0.0013535963371396065
1772565973205206000,1.3022060546875,-0.0004977514035999775,-0.0014648623764514923,-0.0000024694018065929413
1772565973215233800,1.31223388671875,-0.00027431221678853035,-0.0011695176362991333,0.0009149895049631596
1772565973225261800,1.32226171875,-0.0014072824269533157,0.0001741405576467514,0.00014950521290302277
1772565973235291000,1.332290771484375,-0.0007204534485936165,0.0007981192320585251,0.00022141076624393463
1772565973245319000,1.34231884765625,0.0008130548521876335,-0.00085403211414814,0.002797067631036043
1772565973255346700,1.3523466796875,-0.000631443690508604,-0.0007267333567142487,0.00142287602648139
1772565973265375700,1.362375732421875,0.0022221729159355164,-0.0012247813865542412,0.0009714984335005283
1772565973275403800,1.37240380859375,-0.0007986500859260559,-0.0013283789157867432,0.0033747353591024876
1772565973285432800,1.382432861328125,0.0013581719249486923,-0.0011062286794185638,-0.00039398670196533203
1772565973295460900,1.3924609375,-0.000032796990126371384,0.0005798181518912315,-0.00025070831179618835
1772565973305489000,1.402489013671875,-0.001290920190513134,0.0011494578793644905,-0.0007795435376465321
1772565973315518000,1.41251806640625,0.0011322898790240288,-0.001061498187482357,-0.0025281752459704876
1772565973325545700,1.422545654296875,-0.001482401043176651,0.00023223459720611572,-0.000024662353098392487
1772565973335574000,1.432573974609375,0.0013879542239010334,0.0010610101744532585,-0.000015607569366693497
1772565973345602800,1.442602783203125,-0.0005052778869867325,-0.000336233526468277,0.0018225451931357384
1772565973355630800,1.452630859375,-0.00007757404819130898,-0.001130654476583004,-0.0007380843162536621
1772565973365659600,1.46265966796875,0.0011036302894353867,0.00006422773003578186,0.0027539413422346115
1772565973375688000,1.47268798828125,-0.000009570736438035965,0.00029538944363594055,0.0002713426947593689
1772565973385715700,1.4827158203125,-0.0006404398009181023,-0.0005529914051294327,0.0020518554374575615
1772565973395744800,1.492744873046875,0.0002165655605494976,-0.0008073225617408752,0.0009258715435862541
1772565973405772800,1.502772705078125,0.0011567585170269012,-0.002600152976810932,-0.001591977197676897
1772565973415800800,1.51280078125,0.0002560773864388466,0.0007154829800128937,0.00020512379705905914
1772565973425830000,1.522829833984375,0.002689878921955824,0.0009236801415681839,-0.0014958549290895462
1772565973435857700,1.532857666015625,0.001631272491067648,0.0004493705928325653,0.0009473287500441074
1772565973445886000,1.542885986328125,0.000747346319258213,0.0009196596220135689,-0.002700976561754942
1772565973455914800,1.552914794921875,0.0008312361314892769,-0.002786395139992237,0.00002556759864091873
1772565973465942800,1.56294287109375,0.0018253927119076252,-0.000657942146062851,-0.0020287055522203445
1772565973475971800,1.572971923828125,-0.0006265793927013874,-0.0028497232124209404,-0.0003969864919781685
1772565973485999900,1.582999755859375,-0.0004239664413034916,-0.0019219499081373215,-0.001309022307395935
1772565973496028000,1.59302783203125,0.0004942920058965683,-0.0016769394278526306,0.0022225952707231045
1772565973506056700,1.603056640625,0.0004842751659452915,0.004571413621306419,-0.0021960800513625145
1772565973516085000,1.6130849609375,0.0009069186635315418,-0.0016755638644099236,0.001158437691628933
1772565973526113800,1.62311376953125,0.00039419811218976974,0.00012293178588151932,0.001752837561070919
1772565973536141800,1.633141845703125,-0.0024340786039829254,-0.0014856178313493729,-0.00297933304682374
1772565973546169900,1.643169921875,0.002472435589879751,0.0022491803392767906,0.0015904726460576057
1772565973556199000,1.653198974609375,0.0014873319305479527,0.00018150266259908676,-0.00046522170305252075
1772565973566226700,1.663226806640625,0.0018894881941378117,-0.0012619001790881157,0.0007070815190672874
1772565973576254700,1.673254638671875,-0.00010974705219268799,-0.0013801446184515953,-0.002262609079480171
1772565973586284000,1.683283935546875,0.000653308816254139,0.00023426394909620285,-0.0001584300771355629
1772565973596311800,1.693311767578125,-0.0003166147507727146,-0.0011577699333429337,-0.000390391331166029
1772565973606339800,1.70333984375,-0.00037498725578188896,0.00001338217407464981,0.0012223082594573498
1772565973616369000,1.713368896484375,0.0004596477374434471,-0.0013248557224869728,0.0020393659360706806
1772565973626397000,1.72339697265625,-0.0016876673325896263,0.001565348356962204,0.001391456462442875
1772565973636425700,1.73342578125,0.0016926834359765053,-0.0012048715725541115,-0.0007031201384961605
1772565973646453800,1.743453857421875,-0.00252426415681839,0.0006823558360338211,0.0020964741706848145
1772565973656481800,1.753481689453125,0.0008443682454526424,-0.0020828042179346085,0.0011513177305459976
1772565973666510800,1.7635107421875,0.0012139216996729374,0.0017778091132640839,-0.0019432352855801582
1772565973676539000,1.773538818359375,0.0002740924246609211,0.0010747341439127922,0.0006014155223965645
1772565973686567000,1.78356689453125,-0.00013801315799355507,-0.001115364022552967,-0.00007648952305316925
1772565973696596000,1.793595947265625,0.0014154082164168358,-0.0022424133494496346,-0.0019217939116060734
1772565973706623700,1.803623779296875,-0.0014007911086082458,0.0032773204147815704,0.0020544431172311306
1772565973716652800,1.81365283203125,-0.0006511108949780464,0.0009286785498261452,-0.0016183219850063324
1772565973726680800,1.823680908203125,-0.0013447199016809464,0.00006319396197795868,0.0011947243474423885
1772565973736708900,1.833708984375,0.0003043096512556076,-0.000758124515414238,0.0005941814742982388
1772565973746737700,1.843737548828125,-0.0006286734715104103,0.001069091260433197,-0.0027631493285298347
1772565973756766000,1.853765869140625,0.0018613822758197784,-0.000029995106160640717,-0.000248592346906662
1772565973766793700,1.863793701171875,0.0007639066316187382,0.0022017983719706535,-0.0006554448045790195
1772565973776822800,1.87382275390625,0.0010355492122471333,-0.0003684191033244133,-0.00011429004371166229
1772565973786850800,1.883850830078125,0.0019267722964286804,-0.0019502891227602959,0.001999185886234045
1772565973796880000,1.8938798828125,0.0004300754517316818,0.0003120666369795799,-0.00036916276440024376
1772565973806908000,1.903907958984375,0.00036050518974661827,-0.0003386428579688072,0.0009780931286513805
1772565973816935700,1.913935791015625,0.0010808906517922878,-0.0012515746057033539,0.0007019233889877796
1772565973826964700,1.92396484375,-0.000985538586974144,-0.0010433634743094444,0.0025545377284288406
1772565973836992800,1.93399267578125,-0.0010928642004728317,-0.00012643728405237198,0.0002956446260213852
1772565973847020800,1.944020751953125,0.0012153871357440948,0.001284383237361908,0.00013330578804016113
1772565973857049900,1.9540498046875,-0.0014608236961066723,-0.0018299166113138199,-0.0020962925627827644
1772565973867078000,1.964077880859375,-0.0002879854291677475,0.0011313576251268387,0.00034735072404146194
1772565973877106000,1.97410595703125,0.0008678263984620571,0.0013348227366805077,-0.0006691780872642994
1772565973887134700,1.984134765625,-0.000849804375320673,-0.0007365010678768158,-0.0011656214483082294
1772565973897163000,1.9941630859375,-0.0017518168315291405,0.0005234405398368835,0.0014690435491502285
1772565973907191800,2.00419189453125,-0.00041263364255428314,-0.0007485756650567055,-0.0003009024076163769
1772565973917219800,2.0142197265625,0.00032639317214488983,-0.00017812661826610565,-0.0007629608735442162
1772565973927248000,2.024247802734375,-0.002421736251562834,0.0006508668884634972,-0.00006518745794892311
1772565973937277000,2.03427685546875,0.002634008415043354,0.002545173279941082,-0.0008803810924291611
1772565973947304700,2.0443046875,0.003260538447648287,0.0009401943534612656,0.0008790558204054832
1772565973957333800,2.054333740234375,0.0010021780617535114,0.0007423218339681625,0.0010795919224619865
1772565973967362000,2.064362060546875,0.0021855831146240234,0.0003777137026190758,0.0020366949029266834
1772565973977389800,2.074389892578125,0.00007369648665189743,-0.0006987359374761581,-0.002068034838885069
1772565973987419000,2.0844189453125,-0.0001805429346859455,-0.0007761223241686821,-0.0007142177782952785
1772565973997446700,2.09444677734375,-0.000543531496077776,-0.0011992985382676125,-0.001053770538419485
1772565974007475000,2.104474853515625,0.0009484323672950268,0.001395639032125473,0.00015724916011095047
1772565974017503700,2.114503662109375,-0.001301406417042017,0.0006723245605826378,-0.0022036428563296795
1772565974027531800,2.12453173828125,0.0003278586082160473,-0.0014391504228115082,-0.0014773816801607609
1772565974037559800,2.134559814453125,-0.0008836132474243641,-0.0004463242366909981,-0.0007255715318024158
1772565974047588900,2.1445888671875,0.000811365433037281,0.0003613056614995003,-0.0013545430265367031
1772565974057617000,2.154616943359375,-0.0006746780127286911,0.0007943352684378624,-0.00010791746899485588
1772565974067645700,2.164645751953125,0.0005472088232636452,0.0003166552633047104,-0.0010035382583737373
1772565974077674000,2.174674072265625,0.0014968924224376678,-0.0016522202640771866,-0.0016621379181742668
1772565974087701800,2.18470166015625,-0.0007805000059306622,0.0003948565572500229,0.0000917571596801281
1772565974097730800,2.194730712890625,0.0014869156293570995,-0.0013633621856570244,0.0012259972281754017
1772565974107758800,2.2047587890625,0.0013013184070587158,0.0005821892991662025,0.0006489995867013931
1772565974117787000,2.214786865234375,-0.0004318663850426674,0.00013903994113206863,0.001484699547290802
1772565974127815700,2.224815673828125,-0.0000034230761229991913,-0.0011691907420754433,-0.0006476035341620445
1772565974137844000,2.234843994140625,-0.00011767260730266571,-0.0012674620375037193,0.000032567884773015976
1772565974147873000,2.244873046875,0.0025390968658030033,0.0019235378131270409,0.0008557513356208801
1772565974157900800,2.25490087890625,0.00019030366092920303,-0.0006516007706522942,-0.00013831071555614471
1772565974167928800,2.2649287109375,0.0011302544735372066,-0.002710203640162945,-0.0007185717113316059
1772565974177958000,2.2749580078125,0.0015752683393657207,-0.00007900036871433258,-0.0027580205351114273
1772565974187986000,2.28498583984375,0.0011079260148108006,-0.00009194575250148773,-0.0008601597510278225
1772565974198013700,2.295013671875,0.000646133441478014,-0.0004762401804327965,-0.0008369903080165386
1772565974208042800,2.305042724609375,0.0003664647229015827,-0.0026401337236166,0.00043706921860575676
1772565974218070800,2.31507080078125,0.00032385392114520073,-0.0003647292032837868,0.000005370471626520157
1772565974228099800,2.325099853515625,0.00018057599663734436,-0.0000477079302072525,-0.0018502348102629185
1772565974238127900,2.3351279296875,-0.0017622001469135284,0.0018724314868450165,-0.00014634430408477783
1772565974248156000,2.345156005859375,-0.0016718427650630474,0.00040325894951820374,-0.0014186832122504711
1772565974258185000,2.35518505859375,-0.001035613939166069,-0.0006039487197995186,-0.0008831215091049671
1772565974268212700,2.365212646484375,-0.002223049756139517,0.002061246894299984,0.0004535051994025707
1772565974278241000,2.375240966796875,0.0001935027539730072,-0.0012642424553632736,-0.0032424298115074635
1772565974288269800,2.385269775390625,0.0002914643846452236,0.00031161680817604065,-0.0001531895250082016
1772565974298297900,2.3952978515625,0.002082706894725561,-0.0020338287577033043,0.00024362094700336456
1772565974308326700,2.40532666015625,-0.0012099230661988258,-0.0015255631878972054,0.00015654228627681732
1772565974318355000,2.41535498046875,-0.0013244389556348324,0.003224983811378479,-0.0011063292622566223
1772565974328382700,2.4253828125,0.000500149093568325,0.00309024378657341,0.000252388883382082
1772565974338411800,2.435411865234375,-0.0011986810714006424,-0.00028105173259973526,-0.003501336555927992
1772565974348439800,2.445439697265625,0.002126069273799658,0.0010948888957500458,0.0007119728252291679
1772565974358467800,2.4554677734375,-0.0016859793104231358,-0.0019589578732848167,0.0010222317650914192
1772565974368497000,2.465496826171875,-0.0008170399814844131,-0.000678294338285923,0.0004950473085045815
1772565974378524700,2.475524658203125,-0.0009027938358485699,0.001668483018875122,0.0029020123183727264
1772565974388554000,2.485553955078125,-0.0004967115819454193,-0.00031736399978399277,0.002066429704427719
1772565974398581800,2.495581787109375,0.0010684286244213581,0.00010767672210931778,-0.0005096457898616791
1772565974408609800,2.50560986328125,0.0018485276959836483,0.001437043771147728,0.00304387416690588
1772565974418638800,2.515638916015625,0.0003712722100317478,0.001769673079252243,-0.0034768758341670036
1772565974428667000,2.5256669921875,-0.0013804193586111069,-0.00047184526920318604,0.0011053644120693207
1772565974438694700,2.535694580078125,-0.0018033292144536972,-0.0029749497771263123,0.000029447488486766815
1772565974448723700,2.5457236328125,-0.0009502689354121685,0.00035140663385391235,0.00008201505988836288
1772565974458752000,2.555751953125,0.00010434305295348167,-0.00110614113509655,-0.0005363705568015575
1772565974468780800,2.56578076171875,0.0006573284044861794,-0.0014813262969255447,0.0005288971588015556
1772565974478808800,2.575808837890625,0.0019084811210632324,0.00004892610013484955,-0.0003408915363252163
1772565974488836900,2.5858369140625,-0.0006505614146590233,-0.0009443173184990883,-0.0023428755812346935
1772565974498866000,2.595865966796875,0.0012469412758946419,0.0018943464383482933,0.0024737180210649967
1772565974508893700,2.605893798828125,-0.0019319616258144379,0.0006514573469758034,-0.0017336281016469002
1772565974518921700,2.615921630859375,0.0014257519505918026,0.00207678135484457,0.0006775977090001106
1772565974528951000,2.625950927734375,0.0008301171474158764,-0.002311309799551964,0.0011947122402489185
1772565974538978800,2.635978759765625,0.0018471782095730305,0.0008959341794252396,-0.0007714992389082909
1772565974549006800,2.6460068359375,0.00033389730378985405,-0.0017703138291835785,0.0004601874388754368
1772565974559036000,2.656035888671875,-0.0004709097556769848,-0.0016864249482750893,-0.0012559532187879086
1772565974569064000,2.66606396484375,0.0021148468367755413,0.0003379862755537033,0.0005991761572659016
1772565974579092700,2.6760927734375,-0.001732089091092348,0.0010194899514317513,-0.0016421405598521233
1772565974589120800,2.686120849609375,0.004429791122674942,-0.0023992853239178658,0.002070613205432892
1772565974599148800,2.696148681640625,0.0020928671583533287,0.0031454162672162056,0.00015367008745670319
1772565974609177900,2.706177734375,0.0013411096297204494,0.0019306568428874016,0.0007146485149860382
1772565974619206000,2.716205810546875,-0.00013028690591454506,0.0008688541129231453,-0.00046406686305999756
1772565974629234000,2.72623388671875,0.00003250502049922943,0.000984063372015953,0.0010995548218488693
1772565974639263000,2.736262939453125,0.00018110964447259903,0.0014069732278585434,0.001392235979437828
1772565974649290800,2.746290771484375,-0.00018691550940275192,-0.0019059199839830399,-0.0012698378413915634
1772565974659319800,2.75631982421875,-0.00042367028072476387,-0.0008342638611793518,0.00020661856979131699
1772565974669348000,2.76634814453125,-0.0017524403519928455,0.0009673712775111198,0.001124014612287283
1772565974679376100,2.776376220703125,0.001557069830596447,0.0013276971876621246,-0.00048480136319994926
1772565974689405000,2.786405029296875,0.00005357246845960617,0.0033657941967248917,0.0008609965443611145
1772565974699433200,2.79643310546875,0.001022697426378727,-0.0007650349289178848,0.0022106869146227837
1772565974709461000,2.8064609375,0.0011502918787300587,-0.0008408864960074425,0.0017042886465787888
1772565974719490000,2.816489990234375,-0.001653484534472227,0.0009154677391052246,0.0001418115571141243
1772565974729518000,2.82651806640625,-0.00048453547060489655,-0.0027498258277773857,0.0005138115957379341
1772565974739547100,2.836547119140625,0.003987710922956467,0.0013362625613808632,0.0009108884260058403
1772565974749575200,2.8465751953125,-0.0005447743460536003,-0.0015307124704122543,-0.0030121798627078533
1772565974759603000,2.85660302734375,0.0014062575064599514,-0.0008500078693032265,0.002254487480968237
1772565974769632000,2.866632080078125,-0.0003751348704099655,0.001782047562301159,-0.0000052121467888355255
1772565974779660000,2.876659912109375,-0.0012182919308543205,0.0013990849256515503,-0.004115268588066101
1772565974789688000,2.88668798828125,-0.00037799496203660965,-0.0006575426086783409,0.0025764056481420994
1772565974799717000,2.896717041015625,0.0004409272223711014,-0.001704431138932705,0.0005177822895348072
1772565974809745200,2.9067451171875,0.00016300100833177567,0.0013442346826195717,-0.0028027971275150776
1772565974819774200,2.916774169921875,-0.00045112427324056625,-0.0007000081241130829,0.0006175003945827484
1772565974829802000,2.926802001953125,0.0012694941833615303,0.0002523250877857208,0.0007255491800606251
1772565974839830300,2.936830322265625,-0.00019284803420305252,-0.001298699527978897,0.0018035969696938992
1772565974849859000,2.946859130859375,-0.001750667579472065,0.00048392079770565033,-0.0005991850048303604
1772565974859887000,2.95688720703125,-0.00032081641256809235,-0.0008050492033362389,-0.002610936760902405
1772565974869915100,2.9669150390625,0.0032451478764414787,0.0012562517076730728,0.0009192940779030323
1772565974879944200,2.976944091796875,0.0032147876918315887,-0.000054290518164634705,0.0002268725074827671
1772565974889972000,2.986971923828125,0.00022440264001488686,-0.0008794227614998817,-0.0013873404823243618
1772565974900001000,2.9970009765625,-0.0006115632131695747,-0.00041336938738822937,-0.00039797602221369743
1772565974910029000,3.007029052734375,0.000536501407623291,-0.000009337440133094788,-0.0016268333420157433
1772565974920057000,3.01705712890625,-0.0003258301876485348,-0.001706569455564022,-0.0016193762421607971
1772565974930086100,3.027086181640625,0.0005727298557758331,-0.0012409817427396774,0.00031196093186736107
1772565974940114000,3.037114013671875,-0.0003950628452003002,0.0016413582488894463,-0.0022028619423508644
1772565974950142200,3.04714208984375,-0.000023986678570508957,0.002255684696137905,-0.0013462435454130173
1772565974960171000,3.0571708984375,-0.0007811235263943672,0.000677761621773243,-0.0020650303922593594
1772565974970199000,3.067198974609375,-0.0011747805401682854,0.0009829774498939514,0.0003171446733176708
1772565974980228000,3.07722802734375,0.00004974100738763809,-0.0005030669271945953,-0.0017582569271326065
1772565974990256000,3.087256103515625,-0.0005540107376873493,0.0011460082605481148,-0.0013258731923997402
1772565975000284200,3.0972841796875,-0.00022857263684272766,0.00011030491441488266,0.0001710895448923111
1772565975010313000,3.10731298828125,0.0003224313259124756,0.0005431361496448517,-0.0015099565498530865
1772565975020341200,3.11734130859375,-0.0006887707859277725,-0.0018827375024557114,-0.004345956724137068
1772565975030369000,3.127369140625,0.0014200052246451378,0.000785239040851593,0.0015839762054383755
1772565975040398000,3.137398193359375,-0.00042130472138524055,0.0008574109524488449,0.0026915851049125195
1772565975050426000,3.147426025390625,0.0007581440731883049,-0.0005435990169644356,-0.0017398488707840443
1772565975060455200,3.157455078125,0.002884944900870323,0.00014429539442062378,0.0012018787674605846
1772565975070483000,3.16748291015625,0.00034863874316215515,-0.0012894142419099808,-0.0024875374510884285
1772565975080511000,3.177510986328125,0.002711661159992218,-0.0016963453963398933,-0.00021985545754432678
1772565975090540300,3.187540283203125,-0.0009913104586303234,0.001057768240571022,0.0024060942232608795
1772565975100568000,3.197568115234375,-0.002134338952600956,-0.0009039156138896942,0.0010763779282569885
1772565975110596000,3.20759619140625,-0.0016713812947273254,0.0007517775520682335,-0.000423165038228035
1772565975120625000,3.217625,0.0006106812506914139,-0.0015457319095730782,-0.0009147841483354568
1772565975130653200,3.227653076171875,-0.0009438120760023594,0.00020469911396503448,-0.0016967495903372765
1772565975140681000,3.237680908203125,0.0009984313510358334,-0.000472010113298893,-0.0008767624385654926
1772565975150710000,3.2477099609375,0.001910919789224863,0.00199117511510849,-0.00013694539666175842
1772565975160738000,3.257738037109375,-0.00023851776495575905,-0.001954031176865101,-0.0020046206191182137
1772565975170767000,3.26776708984375,0.001507764682173729,0.000658680684864521,-0.0001936354674398899
1772565975180795100,3.277795166015625,0.0008928403258323669,-0.0008103195577859879,0.002397886011749506
1772565975190823200,3.2878232421875,-0.00017833709716796875,-0.000019702129065990448,0.0004890230484306812
1772565975200852200,3.297852294921875,0.0010227481834590435,-0.000125163234770298,0.0002157832495868206
1772565975210880000,3.3078798828125,-0.00006668595597147942,-0.000593310222029686,0.0014442997053265572
1772565975220908300,3.317908203125,-0.00034818192943930626,0.0002498459070920944,0.000059456564486026764
1772565975230937000,3.32793701171875,-0.0016799354925751686,-0.0013876240700483322,-0.0014857151545584202
1772565975240965000,3.337965087890625,0.0028271987102925777,-0.0007870811969041824,0.0010381625033915043
1772565975250994000,3.347993896484375,-0.00012883683666586876,-0.002079586498439312,-0.0008347244001924992
1772565975261022200,3.358022216796875,0.00020645465701818466,0.0015787985175848007,0.0007325452752411366
1772565975271050000,3.368050048828125,-0.0002804570831358433,-0.0002421783283352852,0.0002334131859242916
1772565975281079000,3.3780791015625,0.00435663852840662,0.0010619712993502617,-0.001983401831239462
1772565975291107000,3.388107177734375,0.0006903680041432381,-0.002903004176914692,0.0007850746624171734
1772565975301135000,3.398135009765625,0.0005247192457318306,-0.0008337283506989479,0.001223697792738676
1772565975311164200,3.4081640625,-0.00020786281675100327,-0.0014891242608428001,0.0002927212044596672
1772565975321192000,3.41819189453125,0.0018443693406879902,0.0019253138452768326,0.0022613294422626495
1772565975331221000,3.428220947265625,-0.0017046821303665638,-0.0023802584037184715,-0.001448117196559906
1772565975341249000,3.4382490234375,-0.0005089226178824902,-0.0004931418225169182,-0.003792497795075178
1772565975351277000,3.448277099609375,0.0014076782390475273,0.0006586089730262756,0.0003004642203450203
1772565975361306000,3.45830615234375,0.0008478816598653793,-0.0008271681144833565,-0.0004406939260661602
1772565975371334100,3.468334228515625,-0.0018003503791987896,-0.000186101533472538,-0.0005193366669118404
1772565975381362200,3.478362060546875,-0.0002631735987961292,0.0009047295898199081,0.0001387307420372963
1772565975391391000,3.488390869140625,0.0010954057797789574,0.0021537039428949356,-0.0001409570686519146
1772565975401419300,3.498419189453125,0.0010221684351563454,-0.0017235921695828438,-0.0004272470250725746
1772565975411448000,3.508447998046875,0.0006346097216010094,0.0003364384174346924,0.0009000822901725769
1772565975421476000,3.51847607421875,-0.000388577114790678,-0.00017089396715164185,-0.0015324493870139122
1772565975431504100,3.528504150390625,-0.0013804459013044834,-0.00005593709647655487,-0.001425006426870823
1772565975441533200,3.538533203125,0.00010160310193896294,-0.002807782031595707,0.0011492054909467697
1772565975451561000,3.54856103515625,-0.00018706033006310463,-0.0006749993190169334,-0.002210033591836691
1772565975461589000,3.558589111328125,0.0009290706366300583,-0.002796739339828491,-0.002969300840049982
1772565975471618000,3.5686181640625,0.00085794972255826,0.0014082388952374458,-0.001939346082508564
1772565975481646000,3.57864599609375,0.002186067868024111,-0.000911906361579895,0.0013786861672997475
1772565975491675100,3.588675048828125,-0.0005243057385087013,0.00035226065665483475,-0.0035909530706703663
1772565975501703000,3.598702880859375,0.0009899679571390152,-0.0015814602375030518,0.0006948718801140785
1772565975511731200,3.608731201171875,0.000009405426681041718,0.00013669952750205994,0.0009594676084816456
1772565975521760000,3.618760009765625,0.0004368433728814125,-0.0013432195410132408,-0.002032593823969364
1772565975531788000,3.6287880859375,-0.0003512967377901077,0.0003808215260505676,-0.0007121572270989418
1772565975541816000,3.638816162109375,-0.00020668702200055122,-0.0006207935512065887,0.0019448786042630672
1772565975551845000,3.64884521484375,-0.0003354293294250965,0.0032565807923674583,0.0003602667711675167
1772565975561873200,3.658873046875,0.0005271686241030693,0.0009790454059839249,0.00025880010798573494
1772565975571902000,3.66890185546875,-0.00182706443592906,-0.0006028208881616592,-0.002168126404285431
1772565975581930200,3.67893017578125,0.0011495500802993774,-0.0003255857154726982,-0.000042391009628772736
1772565975591958000,3.6889580078125,0.00021262932568788528,0.0010300390422344208,0.0003102007322013378
1772565975601987000,3.698987060546875,-0.001347184181213379,-0.0011745262891054153,-0.0026909159496426582
1772565975612015000,3.70901513671875,-0.001866872888058424,-0.001530124805867672,-0.0036933249793946743
1772565975622043100,3.719043212890625,0.0002918853424489498,-0.0008651334792375565,0.003482562955468893
1772565975632072000,3.729072021484375,0.0006432291120290756,0.00021274853497743607,0.0007288563065230846
1772565975642100000,3.739099853515625,0.0004477528855204582,-0.0002658208832144737,-0.001528971828520298
1772565975652129300,3.74912939453125,0.00020510470494627953,0.0006652558222413063,0.0002494100481271744
1772565975662157000,3.759156982421875,-0.0008753393776714802,-0.0011446289718151093,0.0014779260382056236
1772565975672184800,3.769184814453125,0.000011572614312171936,0.0021466733887791634,0.0002498384565114975
1772565975682214000,3.7792138671875,0.00002728588879108429,0.0011240197345614433,-0.00014297803863883018
1772565975692242000,3.789241943359375,0.00013024313375353813,-0.0008712466806173325,-0.002906240988522768
1772565975702269700,3.799269775390625,-0.00002262229099869728,-0.0008211787790060043,-0.0004279031418263912
1772565975712298800,3.809298828125,-0.0001181350089609623,-0.0015122490003705025,0.0004103514365851879
1772565975722326800,3.819326904296875,0.0002869321033358574,-0.0004810728132724762,-0.001950540579855442
1772565975732355800,3.82935595703125,0.000011415686458349228,0.0006385864689946175,-0.0008007432334125042
1772565975742383900,3.8393837890625,0.00016108527779579163,-0.0023113973438739777,0.0003886241465806961
1772565975752412000,3.849411865234375,-0.0016827275976538658,0.0022700512781739235,0.0010580755770206451
1772565975762441000,3.85944091796875,0.001260065007954836,-0.00020988471806049347,-0.0009590028785169125
1772565975772468700,3.86946875,-0.0004213135689496994,0.0011234702542424202,0.0000362996943295002
1772565975782497000,3.8794970703125,0.0008415570482611656,0.0002488875761628151,-0.0018228529952466488
1772565975792525800,3.88952587890625,-0.0014530317857861519,-0.001026214100420475,0.0016625868156552315
1772565975802553900,3.899553955078125,-0.000346221961081028,0.001917111687362194,-0.0016650334000587463
1772565975812583000,3.9095830078125,0.0010602218098938465,-0.0004414869472384453,-0.0006255893968045712
1772565975822611000,3.91961083984375,0.000413606408983469,-0.0007325699552893639,0.00039173848927021027
1772565975832639000,3.929638916015625,0.0012668343260884285,-0.000012101605534553528,0.002069532871246338
1772565975842667800,3.939667724609375,0.002015981823205948,-0.0011615213006734848,-0.0017473096959292889
1772565975852696000,3.949696044921875,0.002814006991684437,0.0004749903455376625,-0.0011146599426865578
1772565975862723800,3.959723876953125,0.0028694001957774162,0.00026246998459100723,0.004440694116055965
1772565975872753000,3.9697529296875,0.0004900339990854263,-0.0012048883363604546,-0.002319092396646738
1772565975882780700,3.97978076171875,-0.0009169136174023151,-0.0006874362006783485,-0.0006599430926144123
1772565975892809000,3.98980908203125,0.0011776546016335487,-0.0008568568155169487,-0.00289698364213109
1772565975902838000,3.999838134765625,-0.0009203837253153324,0.002017758786678314,-0.0017797877080738544
1772565975912865800,4.00986572265625,-0.00020879646763205528,-0.00230520311743021,-0.0016250810585916042
1772565975922894800,4.019894775390625,0.0012048096396028996,0.0036203311756253242,-0.0008341223001480103
1772565975932923000,4.0299228515625,0.0001463852822780609,-0.0025180652737617493,-0.00035035377368330956
1772565975942951000,4.039950927734375,0.0012015299871563911,-0.0002285456284880638,-0.0018803398124873638
1772565975952979700,4.049979736328125,-0.0007175975479185581,0.0008112005889415741,-0.0027308138087391853
1772565975963008000,4.060008056640625,-0.0027479915879666805,0.00022317469120025635,-0.0023643625900149345
1772565975973035800,4.070035888671875,-0.000286739319562912,-0.0013928776606917381,0.0005820454098284245
1772565975983064800,4.08006494140625,-0.0012697121128439903,-0.0010005943477153778,0.0003135991282761097
1772565975993092900,4.0900927734375,-0.0007686740718781948,-0.000960247591137886,-0.00040980614721775055
1772565976003122000,4.100121826171875,-0.0017822729423642159,0.0009545646607875824,-0.0006929002702236176
1772565976013150000,4.11014990234375,-0.000686312559992075,0.0007283734157681465,-0.0009918874129652977
1772565976023178000,4.120177978515625,-0.00005114870145916939,0.0021656816825270653,-0.0008286358788609505
1772565976033207000,4.13020703125,-0.00006032595410943031,-0.0010066209360957146,0.0018304120749235153
1772565976043234800,4.14023486328125,0.0017341123893857002,0.0008117854595184326,0.0010511716827750206
1772565976053262800,4.150262939453125,-0.0008011525496840477,-0.0026919888332486153,-0.0020465836860239506
1772565976063292000,4.1602919921875,0.0007900865748524666,0.00010432954877614975,0.00046344567090272903
1772565976073320000,4.17031982421875,0.0016849171370267868,-0.0007069986313581467,0.0008319602347910404
1772565976083349000,4.180348876953125,-0.0008967514149844646,0.0013801204040646553,-0.0021169581450521946
1772565976093376800,4.190376708984375,0.0004394110292196274,0.002308584749698639,-0.00019370485097169876
1772565976103404800,4.20040478515625,-0.0008359765633940697,0.00029709842056035995,0.0012214984744787216
1772565976113433900,4.210433837890625,0.000021605752408504486,-0.0017280708998441696,-0.001350883860141039
1772565976123462000,4.2204619140625,0.0011270837858319283,0.0006434740498661995,0.0015860497951507568
1772565976133490000,4.230489990234375,-0.0014424854889512062,0.00007547624409198761,-0.0006990879774093628
1772565976143519000,4.24051904296875,-0.0007402100600302219,0.00043606851249933243,0.0014673932455480099
1772565976153546800,4.250546630859375,-0.0006897356361150742,0.0002714693546295166,0.0014379322528839111
1772565976163575800,4.260575927734375,-0.0005619036965072155,-0.0009373398497700691,0.0034507494419813156
1772565976173603800,4.270603759765625,0.0008021611720323563,-0.00026833824813365936,-0.0022049332037568092
1772565976183632000,4.2806318359375,0.0017363987863063812,-0.0020398730412125587,-0.0007553743198513985
1772565976193661000,4.290660888671875,-0.00034960079938173294,0.0006293021142482758,-0.0002699890173971653
1772565976203689000,4.30068896484375,0.0004600007086992264,-0.0012852447107434273,-0.0012609511613845825
1772565976213717000,4.310717041015625,-0.0006760447286069393,0.00009917840361595154,0.003304733894765377
1772565976223745800,4.320745849609375,-0.0010001515038311481,0.0011119777336716652,-0.0010996013879776
1772565976233773800,4.33077392578125,0.0008244989439845085,-0.0018514590337872505,-0.0009334767237305641
1772565976243803000,4.340802978515625,0.000935286283493042,0.00045430567115545273,0.0019469987601041794
1772565976253831000,4.350830810546875,-0.0008442155085504055,0.0005313102155923843,-0.0017096837982535362
1772565976263858700,4.360858642578125,-0.000041538383811712265,-0.0018911007791757584,-0.00001777755096554756
1772565976273888000,4.370887939453125,0.0023403167724609375,0.0016983067616820335,0.0012336578220129013
1772565976283915800,4.380915771484375,0.00008781533688306808,-0.0021164054051041603,-0.0005874121561646461
1772565976293943800,4.39094384765625,-0.0007755220867693424,0.00026218313723802567,-0.0013584126718342304
1772565976303972900,4.400972900390625,-0.0028724949806928635,-0.0009234566241502762,-0.00010353140532970428
1772565976314001000,4.4110009765625,0.0037900572642683983,-0.001267850399017334,0.0003234897740185261
1772565976324029000,4.42102880859375,0.0005982592701911926,-0.001949087716639042,0.000684614758938551
1772565976334057700,4.4310576171875,-0.0005929116159677505,-0.001253778114914894,0.0008392422460019588
1772565976344086000,4.4410859375,-0.001833145972341299,0.0009518517181277275,0.0012818588875234127
1772565976354114800,4.45111474609375,-0.0003885142505168915,0.0031828582286834717,-0.0017962977290153503
1772565976364142800,4.461142822265625,-0.0038769892416894436,-0.0015945862978696823,-0.0009621959179639816
1772565976374171000,4.4711708984375,0.0007072081789374352,0.0016809646040201187,0.001078721135854721
1772565976384200000,4.481199951171875,-0.00011863792315125465,0.0004162294790148735,-0.001547155436128378
1772565976394228000,4.49122802734375,-0.00025718100368976593,0.0007086517289280891,-0.0015551229007542133
1772565976404255700,4.501255859375,0.0009662751108407974,-0.00022025872021913528,-0.00019531277939677238
1772565976414285000,4.51128515625,0.0011093290522694588,-0.00018139276653528214,-0.0015643322840332985
1772565976424312800,4.521312744140625,0.0006475364789366722,0.0013475287705659866,0.001273532398045063
1772565976434342000,4.531341796875,-0.001674158964306116,-0.00040178094059228897,-0.0014551407657563686
1772565976444370000,4.541369873046875,-0.0008065011352300644,0.0011135581880807877,0.000013059936463832855
1772565976454398000,4.55139794921875,-0.0007478911429643631,-0.0009779641404747963,-0.0006521148607134819
1772565976464426800,4.5614267578125,-0.001009679865092039,0.00048677437007427216,-0.0008140350691974163
1772565976474454800,4.571454833984375,0.0008578263223171234,0.0004462357610464096,0.00007949396967887878
1772565976484482800,4.58148291015625,-0.0005219574086368084,0.001978619024157524,0.002432130742818117
1772565976494511900,4.591511962890625,-0.0008181994780898094,-0.0007277596741914749,-0.0005140663124620914
1772565976504540000,4.601539794921875,-0.0005542803555727005,0.0017412565648555756,-0.0014797286130487919
1772565976514568700,4.611568603515625,-0.0013615749776363373,-0.0002513546496629715,-0.0027676927857100964
1772565976524597000,4.621596923828125,0.001967109739780426,-0.0018050428479909897,-0.00022410741075873375
1772565976534624800,4.631624755859375,0.0012913933023810387,0.0005291271954774857,0.000707835890352726
1772565976544653800,4.64165380859375,-0.00017574196681380272,0.0002292552962899208,0.0005475133657455444
1772565976554681900,4.651681884765625,-0.0017470712773501873,-0.0007500136271119118,-0.00043229199945926666
1772565976564710000,4.6617099609375,0.0002897139638662338,0.001125117763876915,-0.0014011501334607601
1772565976574739000,4.671739013671875,0.0006910217925906181,-0.0006435271352529526,0.0005527562461793423
1772565976584767000,4.68176708984375,0.0008795736357569695,-0.0012150416150689125,-0.0021253181621432304
1772565976594796000,4.691796142578125,-0.00011996598914265633,-0.0014175456017255783,-0.00047095073387026787
1772565976604823800,4.70182373046875,-0.0016784477047622204,0.0035891979932785034,-0.0011796178296208382
1772565976614851800,4.711851806640625,0.00008549075573682785,0.00017934292554855347,-0.0013426351360976696
1772565976624881000,4.721880859375,-0.0005747065879404545,0.0001961207017302513,-0.0018835230730473995
1772565976634909000,4.731908935546875,-0.0018297708593308926,0.0015557948499917984,0.002303486689925194
1772565976644936700,4.741936767578125,0.0008685439825057983,0.0002077026292681694,-0.002138931769877672
1772565976654965800,4.7519658203125,0.0013643121346831322,-0.00028267037123441696,-0.001733399461954832
1772565976664993800,4.761993896484375,0.001287081278860569,0.000764218159019947,-0.0013277996331453323
1772565976675023600,4.772023681640625,0.0004974287003278732,-0.00013333279639482498,-0.0012483098544180393
1772565976685051400,4.782051513671875,-0.0005872766487300396,0.0007662829011678696,0.0026188665069639683
1772565976695079700,4.79207958984375,-0.00075546745210886,-0.001042284071445465,0.0018669888377189636
1772565976705108500,4.8021083984375,0.0029852082952857018,0.0017809327691793442,-0.0034627956338226795
1772565976715136500,4.812136474609375,-0.0014462913386523724,-0.0034945225343108177,0.0010834867134690285
1772565976725164300,4.822164306640625,0.0013265600427985191,-0.0017997073009610176,0.00008644489571452141
1772565976735193600,4.832193603515625,0.0012419158592820168,-0.0009508328512310982,-0.002726399339735508
1772565976745221600,4.8422216796875,-0.00019699009135365486,-0.0008624158799648285,0.0000773766078054905
1772565976755250400,4.85225048828125,-0.00014480436220765114,0.00116819329559803,-0.00032275915145874023
1772565976765278500,4.862278564453125,-0.0003061923198401928,0.00005312729626893997,-0.0018665934912860394
1772565976775306500,4.872306396484375,-0.0000792299397289753,0.0019404860213398933,0.0005174828693270683
1772565976785335600,4.88233544921875,-0.0009535457938909531,-0.0014848709106445312,-0.0008143638260662556
1772565976795363300,4.89236328125,-0.0008177720010280609,-0.00038696639239788055,0.0007959366776049137
1772565976805391600,4.9023916015625,-0.00033360952511429787,0.0003738990053534508,0.0006028576754033566
1772565976815420400,4.91242041015625,-0.00018662447109818459,0.001295509748160839,0.0010986356064677238
1772565976825448400,4.922448486328125,-0.0007011475972831249,-0.001598547212779522,-0.00023241201415657997
1772565976835476500,4.9324765625,-0.00004224199801683426,-0.0001327376812696457,0.0010927971452474594
1772565976845505500,4.942505615234375,0.0002576299011707306,0.00035941414535045624,-0.003117926884442568
1772565976855533600,4.952533447265625,-0.0005893739871680737,0.0008466644212603569,-0.0024989419616758823
1772565976865562400,4.962562255859375,0.00019972026348114014,0.0006045829504728317,-0.0014592437073588371
1772565976875590700,4.972590576171875,-0.0018416158854961395,-0.0006664842367172241,0.001880972646176815
1772565976885618400,4.982618408203125,0.0012801410630345345,-0.0009993789717555046,-0.00035608233883976936
1772565976895647500,4.9926474609375,-0.0004749190993607044,0.0001101568341255188,0.0006813532672822475
1772565976905675500,5.002675537109375,-0.0015654833987355232,-0.002396676689386368,-0.0014001731760799885
1772565976915703600,5.01270361328125,-0.0017864308319985867,0.0014462601393461227,-0.0009665582329034805
1772565976925732600,5.022732666015625,-0.00032329047098755836,0.0021978039294481277,-0.0007372600957751274
1772565976935760400,5.032760498046875,-0.0006513441912829876,0.0026227422058582306,0.000060927122831344604
1772565976945789700,5.042789794921875,-0.0005402904935181141,0.0010690540075302124,0.00007317773997783661
1772565976955817500,5.0528173828125,0.000012686476111412048,-0.001170002855360508,-0.0011949967592954636
1772565976965845500,5.062845458984375,-0.00033165980130434036,0.0004526609554886818,-0.0007609017193317413
1772565976975874300,5.072874267578125,0.000844358466565609,-0.0016750264912843704,0.000002902466803789139
1772565976985902600,5.082902587890625,0.0002470118924975395,0.00006881169974803925,-0.00008657993748784065
1772565976995930400,5.092930419921875,-0.00009116530418395996,-0.0003865174949169159,-0.0024234550073742867
1772565977005959400,5.10295947265625,-0.0005857143551111221,-0.0012190211564302444,0.0009153494611382484
1772565977015987500,5.112987548828125,0.00043585337698459625,0.0009741829708218575,0.001289278268814087
1772565977026016500,5.1230166015625,0.0005820607766509056,0.0008551394566893578,-0.0026996037922799587
1772565977036044500,5.13304443359375,0.0013392455875873566,0.00044046808034181595,-0.0013191541656851768
1772565977046072600,5.143072509765625,-0.0003406768664717674,0.001265515573322773,0.0018348274752497673
1772565977056101600,5.1531015625,0.0008831433951854706,-0.0003131171688437462,-0.001507660374045372
1772565977066129400,5.16312939453125,0.0002612955868244171,-0.0005972757935523987,-0.001164112240076065
1772565977076157700,5.17315771484375,-0.00021707825362682343,-0.0009147906675934792,0.0032630637288093567
1772565977086186500,5.1831865234375,0.0011709611862897873,-0.0009408900514245033,0.0017322786152362823
1772565977096214500,5.193214599609375,-0.001818832941353321,-0.0010166969150304794,-0.0006784135475754738
1772565977106243600,5.20324365234375,0.0008861394599080086,-0.0009373342618346214,-0.000644325278699398
1772565977116271600,5.213271728515625,-0.00031782733276486397,-0.00034399889409542084,-0.000965336337685585
1772565977126299400,5.22329931640625,0.0003231959417462349,-0.000716574490070343,-0.00024148914963006973
1772565977136328400,5.233328369140625,-0.0007222015410661697,0.00039503350853919983,0.00018390733748674393
1772565977146356500,5.2433564453125,0.0003571780398488045,0.001948188990354538,0.0001796456053853035
1772565977156384500,5.253384521484375,0.0006651151925325394,-0.0001825345680117607,-0.00005829986184835434
1772565977166413600,5.26341357421875,0.002443308010697365,0.00002386048436164856,-0.0007736245170235634
1772565977176441300,5.27344140625,0.001301920972764492,0.000048012472689151764,-0.0027337060309946537
1772565977186470400,5.283470458984375,0.0006696870550513268,0.0008416343480348587,-0.0001810658723115921
1772565977196498400,5.29349853515625,-0.0015125218778848648,0.0005022343248128891,0.0004536788910627365
1772565977206526500,5.3035263671875,0.0005791252478957176,0.001308373175561428,0.00004594912752509117
1772565977216555500,5.313555419921875,0.0005482779815793037,-0.001716863363981247,0.001983344554901123
1772565977226583600,5.32358349609375,0.00048622675240039825,0.0016262028366327286,0.0008981060236692429
1772565977236611600,5.333611572265625,0.0019126152619719505,-0.0018424028530716896,-0.0025132307782769203
1772565977246640400,5.343640380859375,-0.00028129667043685913,-0.0008985791355371475,0.0009102625772356987
1772565977256668700,5.353668701171875,-0.0007930207066237926,-0.0009936289861798286,-0.0027643940411508083
1772565977266696400,5.363696533203125,-0.0012446930631995201,0.0017741946503520012,-0.0008405265398323536
1772565977276725500,5.3737255859375,0.0014678193256258965,-0.002296837978065014,0.0009970623068511486
1772565977286753500,5.38375341796875,0.0009271977469325066,0.000249677337706089,-0.00041680922731757164
1772565977296782600,5.393782470703125,0.00007160380482673645,-0.0009816363453865051,-0.0006104731000959873
1772565977306810600,5.403810546875,0.0007336651906371117,0.0002546031028032303,0.0002012583427131176
1772565977316838400,5.41383837890625,0.0006487304344773293,0.0010353364050388336,0.0004955409094691277
1772565977326867500,5.423867431640625,0.0009158458560705185,0.00013545434921979904,0.0029264744371175766
1772565977336895500,5.4338955078125,-0.00012612855061888695,0.0000786706805229187,0.0007934179157018661
1772565977346923500,5.443923583984375,-0.0024481387808918953,-0.00021028239279985428,-0.001477725338190794
1772565977356952300,5.453952392578125,0.00009893160313367844,-0.0026689236983656883,-0.004084249958395958
1772565977366980600,5.463980712890625,-0.0011780541390180588,0.0019420729950070381,-0.00019257236272096634
1772565977377009400,5.474009521484375,0.000008219853043556213,0.00015883427113294601,-0.004794403910636902
1772565977387037400,5.484037353515625,0.00034883804619312286,0.0023740511387586594,-0.00037914887070655823
1772565977397065500,5.4940654296875,0.0007006600499153137,0.0028691990301012993,-0.00028538983315229416
1772565977407094500,5.504094482421875,0.0011427439749240875,-0.0005257986485958099,0.002082160208374262
1772565977417122600,5.51412255859375,-0.0010977238416671753,-0.001776580698788166,0.0009611491113901138
1772565977427150600,5.524150634765625,0.0002024313434958458,-0.0005331505089998245,0.0005563488230109215
1772565977437179600,5.5341796875,0.0018382556736469269,0.001798279583454132,-0.00038028229027986526
1772565977447207400,5.54420751953125,0.00021106377243995667,0.0010816222056746483,-0.0006884103640913963
1772565977457236500,5.554236572265625,0.00032887328416109085,0.00004451535642147064,0.0009734411723911762
1772565977467264500,5.564264404296875,0.00007001403719186783,-0.0027115903794765472,0.0018251198343932629
1772565977477292500,5.57429248046875,-0.0006658583879470825,-0.00283943023532629,0.0003013676032423973
1772565977487321600,5.584321533203125,0.000860665924847126,0.0002796640619635582,-0.00015350012108683586
1772565977497349400,5.594349365234375,0.00072435662150383,-0.001196524128317833,0.0018414100632071495
1772565977507377400,5.60437744140625,-0.00016034534201025963,0.00023172888904809952,-0.0010055089369416237
1772565977517406500,5.614406494140625,-0.0012012640945613384,0.0014611594378948212,0.0020419470965862274
1772565977527434500,5.6244345703125,-0.00039326073601841927,0.0019415933638811111,0.0005878610536456108
1772565977537463600,5.634463623046875,-0.00031767040491104126,0.001079631969332695,0.0017566904425621033
1772565977547491600,5.64449169921875,0.0007025860249996185,-0.00001865532249212265,0.00022084545344114304
1772565977557519400,5.654519287109375,-0.0003177681937813759,0.00015863589942455292,-0.00026108231395483017
1772565977567548400,5.66454833984375,0.0004710601642727852,-0.0018608393147587776,0.0016449419781565666
1772565977577576400,5.674576416015625,-0.0008404748514294624,0.0016672397032380104,-0.0023840400390326977
1772565977587604500,5.6846044921875,0.0021356074139475822,0.0005729468539357185,-0.0017595291137695312
1772565977597633500,5.694633544921875,0.0016684215515851974,0.0016137929633259773,-0.003503606654703617
1772565977607661600,5.70466162109375,-0.0010802270844578743,0.001183958724141121,0.0021798457019031048
1772565977617689600,5.714689697265625,-0.0017188028432428837,0.0010149218142032623,-0.0009137894958257675
1772565977627718400,5.724718505859375,-0.00037150969728827477,0.0007632523775100708,-0.0002069869078695774
1772565977637746700,5.73474658203125,0.0009659146890044212,-0.0017707357183098793,0.0005880752578377724
1772565977647775500,5.744775390625,-0.00042159250006079674,0.0005613937973976135,-0.00012139091268181801
1772565977657803500,5.754803466796875,-0.0011753463186323643,0.00042913760989904404,0.0022903261706233025
1772565977667831300,5.764831298828125,-0.0015868046320974827,-0.001564239151775837,-0.00004340196028351784
1772565977677859600,5.774859619140625,-0.0011888686567544937,0.0015132185071706772,0.0019649588502943516
1772565977687887600,5.7848876953125,0.0013469932600855827,0.0006980244070291519,0.0007673357613384724
1772565977697915600,5.79491552734375,-0.0008545476011931896,-0.0001950245350599289,-0.0022494960576295853
1772565977707944700,5.80494482421875,-0.0006659957580268383,0.00022282544523477554,0.0009678686037659645
1772565977717972500,5.814972412109375,0.0003656269982457161,0.0011168653145432472,0.0005089524202048779
1772565977728001500,5.82500146484375,-0.0009110923856496811,-0.0019090184941887856,-0.0014609876088798046
1772565977738029600,5.835029541015625,-0.0006926492787897587,-0.0008165957406163216,-0.0017341328784823418
1772565977748057600,5.8450576171875,0.0013971328735351562,0.00014453940093517303,0.0018017459660768509
1772565977758086700,5.855086669921875,0.001056416891515255,-0.0002812342718243599,-0.0004202132113277912
1772565977768114700,5.86511474609375,-0.000019766390323638916,-0.0019209422171115875,-0.0018375474028289318
1772565977778142700,5.875142822265625,-0.00011386256664991379,0.0015311045572161674,-0.0018619406037032604
1772565977788171500,5.885171630859375,0.0010526012629270554,0.0022735940292477608,0.00037990882992744446
1772565977798199600,5.895199462890625,0.00017406046390533447,-0.00019012857228517532,-0.002098489087074995
1772565977808228600,5.905228515625,-0.0019916221499443054,-0.001879638060927391,-0.0005171042867004871
1772565977818256600,5.915256591796875,-0.0011791554279625416,0.0017313836142420769,0.003977200947701931
1772565977828284400,5.925284423828125,-0.0025948919355869293,-0.000619920901954174,-0.0007254085503518581
1772565977838313500,5.9353134765625,0.0018271412700414658,0.0018946658819913864,-0.00048570940271019936
1772565977848341500,5.945341552734375,0.00023323949426412582,0.00008025392889976501,0.00042455969378352165
1772565977858369500,5.95536962890625,0.001107262447476387,-0.0010766759514808655,-0.0015031173825263977
1772565977868398600,5.965398681640625,0.00088542141020298,0.002632574178278446,-0.0028594653122127056
1772565977878426600,5.975426513671875,0.0004800204187631607,-0.0004323367029428482,-0.004008481279015541
1772565977888455700,5.98545556640625,-0.0008137430995702744,-0.0014488659799098969,-0.00043025799095630646
1772565977898483500,5.9954833984375,-0.0009658723138272762,-0.0019259480759501457,0.00042728055268526077
1772565977908511700,6.00551171875,0.0008898181840777397,-0.00177095178514719,0.0003053080290555954
1772565977918540500,6.01554052734375,-0.0010054842568933964,-0.00045851804316043854,0.003322564996778965
1772565977928568600,6.025568603515625,-0.0006723226979374886,-0.00028940755873918533,-0.00017549702897667885
1772565977938596600,6.0355966796875,0.002122684381902218,-0.0017850548028945923,-0.0005711736157536507
1772565977948625700,6.045625732421875,0.0009346483275294304,-0.0026599038392305374,-0.00021883752197027206
1772565977958653700,6.05565380859375,-0.0011746510863304138,-0.0010042423382401466,0.00003248639404773712
1772565977968682500,6.0656826171875,-0.0005746409296989441,-0.0004090256989002228,-0.00210043927654624
1772565977978710500,6.07571044921875,0.0010773073881864548,-0.0018072202801704407,0.00015186937525868416
1772565977988738600,6.085738525390625,0.002034713514149189,0.0010703252628445625,-0.00035226671025156975
1772565977998767600,6.095767578125,0.0007446864619851112,-0.0015169717371463776,-0.002176600508391857
1772565978008795400,6.10579541015625,0.000642421655356884,0.0016204984858632088,-0.0015110764652490616
1772565978018823700,6.11582373046875,-0.001726978924125433,-0.0014592595398426056,-0.00022161519154906273
1772565978028852700,6.125852783203125,0.00041367020457983017,-0.00079320278018713,0.000895847100764513
1772565978038880500,6.135880615234375,-0.0008265255019068718,-0.000219038687646389,-0.0006712325848639011
1772565978048908500,6.145908447265625,-0.000998032744973898,0.0009972266852855682,0.0011234716512262821
1772565978058937600,6.1559375,-0.000935122836381197,0.0029805507510900497,0.0012954715639352798
1772565978068965600,6.165965576171875,-0.002006246242672205,0.0012015588581562042,-0.00007286015897989273
1772565978078994400,6.175994384765625,-0.0009305537678301334,0.0033161668106913567,-0.00046635838225483894
1772565978089022700,6.186022705078125,-0.000847996212542057,0.0006109271198511124,0.00014244019985198975
1772565978099050500,6.196050537109375,-0.0009288163855671883,-0.0004314109683036804,-0.0010162102989852428
1772565978109079600,6.20607958984375,0.0006637535989284515,-0.00042262300848960876,0.0004048524424433708
1772565978119107600,6.216107666015625,0.0020319847390055656,0.0009642578661441803,0.0015907511115074158
1772565978129135600,6.226135498046875,-0.0006175944581627846,-0.0004448210820555687,-0.00042366422712802887
1772565978139164700,6.23616455078125,-0.0008502542041242123,0.0012097954750061035,-0.0015808776952326298
1772565978149192400,6.2461923828125,-0.0018294984474778175,0.0015440220013260841,-0.000050092581659555435
1772565978159221800,6.2562216796875,-0.001786010805517435,0.0010577868670225143,-0.0009184600785374641
1772565978169249500,6.26624951171875,-0.0018920046277344227,-0.002969978377223015,0.0007569342851638794
1772565978179277600,6.276277587890625,0.0009656008332967758,-0.0045536961406469345,-0.0009869588539004326
1772565978189306600,6.286306640625,-0.0006125881336629391,-0.0017541814595460892,-0.0001288880594074726
1772565978199334700,6.296334716796875,0.0010590692982077599,0.0020674848929047585,0.0022816364653408527
1772565978209362400,6.306362548828125,-0.0016594859771430492,-0.001750422641634941,-0.00011547422036528587
1772565978219391500,6.3163916015625,0.0015624584630131721,-0.0020951079204678535,-0.0018477360717952251
1772565978229419500,6.32641943359375,-0.00032652122899889946,0.0010945601388812065,-0.00012387195602059364
1772565978239448600,6.336448486328125,-0.0020527495071291924,0.00015894602984189987,-0.00020453985780477524
1772565978249476600,6.3464765625,0.0009134793654084206,-0.00047967955470085144,-0.0010152063332498074
1772565978259504600,6.356504638671875,-0.0011963876895606518,0.0017592702060937881,-0.0015776916407048702
1772565978269533700,6.36653369140625,0.00019138585776090622,-0.001750243827700615,-0.0005981810390949249
1772565978279561500,6.3765615234375,0.0003105904906988144,0.0005556847900152206,-0.0007357578724622726
1772565978289589800,6.38658984375,-0.0002758377231657505,-0.0012416830286383629,-0.0005658483132719994
1772565978299618600,6.39661865234375,-0.000009851530194282532,0.0015967944636940956,-0.00048194825649261475
1772565978309646600,6.406646484375,0.0002878895029425621,-0.0005145594477653503,-0.0016002096235752106
1772565978319675600,6.416675537109375,-0.00048187514767050743,0.00009562354534864426,0.0024316073395311832
1772565978329703700,6.42670361328125,0.0021695680916309357,-0.0004884069785475731,-0.00229470431804657
1772565978339731700,6.436731689453125,-0.00024067610502243042,-0.0011995434761047363,-0.0012016920372843742
1772565978349760500,6.446760498046875,0.001446436159312725,-0.002491177059710026,0.0010199164971709251
1772565978359788500,6.45678857421875,-0.0018483069725334644,0.001128687523305416,-0.001844647340476513
1772565978369816600,6.466816650390625,-0.0004253801889717579,-0.0007712114602327347,0.0023897793143987656
1772565978379845600,6.476845703125,0.001589534804224968,0.0022648368030786514,0.0015424410812556744
1772565978389873400,6.486873291015625,-0.000589197501540184,0.0021034488454461098,0.0010023522190749645
1772565978399901700,6.496901611328125,-0.0006048819050192833,-0.0006068898364901543,-0.0016804835759103298
1772565978409930500,6.506930419921875,-0.0022509819827973843,-0.0016894647851586342,0.0012002582661807537
1772565978419958500,6.51695849609375,-0.00029915617778897285,0.0003802347928285599,-0.0020542098209261894
1772565978429987600,6.526987548828125,-0.0012943795882165432,-0.00014440808445215225,-0.0018086661584675312
1772565978440015600,6.537015625,-0.001286929938942194,-0.001220819540321827,0.0007989127188920975
1772565978450043600,6.547043701171875,0.0011144420132040977,-0.001616830937564373,-0.0017707711085677147
1772565978460072400,6.557072509765625,-0.0011832253076136112,-0.0014769388362765312,0.0006326069124042988
1772565978470100700,6.567100830078125,-0.0021930960938334465,0.0021428298205137253,0.001969780307263136
1772565978480128500,6.57712841796875,0.0007114317268133163,-0.000796767883002758,-0.0015223640948534012
1772565978490157600,6.587157470703125,0.0005622943863272667,0.0009665116667747498,0.0009109657257795334
1772565978500185600,6.597185546875,-0.0004931180737912655,0.0008002463728189468,0.00015864893794059753
1772565978510214700,6.607214599609375,-0.0005538379773497581,0.0004966454580426216,-0.001564682461321354
1772565978520242700,6.61724267578125,-0.0023738015443086624,0.0013770805671811104,0.0003800797276198864
1772565978530270500,6.6272705078125,-0.001215859316289425,-0.0016437433660030365,-0.00012831762433052063
1772565978540299800,6.6372998046875,-0.0003745914436876774,0.0001406557857990265,0.000886945053935051
1772565978550327600,6.64732763671875,-0.0019083060324192047,0.0016714408993721008,-0.0006715371273458004
1772565978560355600,6.65735546875,0.00021993834525346756,-0.00015818607062101364,0.00015639793127775192
1772565978570384400,6.66738427734375,-0.0016093868762254715,0.0015467694029211998,-0.0005251048132777214
1772565978580412700,6.67741259765625,-0.0007099336944520473,0.0008367747068405151,-0.00010171346366405487
1772565978590441500,6.68744140625,0.00036438554525375366,-0.0004972023889422417,-0.0002966569736599922
1772565978600469500,6.697469482421875,-0.0005173902027308941,-0.0015060463920235634,0.0005648615770041943
1772565978610497500,6.70749755859375,0.0006240401417016983,-0.0023159142583608627,0.001731326337903738
1772565978620526600,6.717526611328125,-0.00040911370888352394,0.0001301504671573639,0.0006731441244482994
1772565978630554600,6.7275546875,-0.000929495319724083,0.0010603927075862885,-0.001949803438037634
1772565978640582700,6.737582763671875,-0.00047431793063879013,0.000899909995496273,-0.0015190262347459793
1772565978650611700,6.74761181640625,0.00007748883217573166,0.0013632997870445251,-0.0005200742743909359
1772565978660639500,6.757639404296875,-0.0002952120266854763,-0.001871984452009201,-0.0007376032881438732
1772565978670667800,6.767667724609375,0.00040972698479890823,-0.0011673122644424438,0.0003348519094288349
1772565978680696800,6.77769677734375,-0.0002871318720281124,0.0009786318987607956,0.0011120401322841644
1772565978690724600,6.787724609375,0.00035096146166324615,-0.0005031507462263107,-0.0031394301913678646
1772565978700753700,6.797753662109375,-0.0015786313451826572,-0.0027556102722883224,0.0012660371139645576
1772565978710781700,6.80778173828125,0.0012608310207724571,0.0012577734887599945,0.00024205166846513748
1772565978720809700,6.817809814453125,0.001640239730477333,-0.00018801353871822357,0.0019894596189260483
1772565978730838500,6.827838623046875,-0.001987517811357975,0.0001936173066496849,-0.000581023283302784
1772565978740866600,6.837866455078125,0.0007585417479276657,-0.0012715263292193413,0.0012485440820455551
1772565978750894600,6.84789453125,-0.0018361755646765232,0.0018843188881874084,-0.0006430987268686295
1772565978760923600,6.857923583984375,-0.0014979047700762749,-0.0003499472513794899,-0.00034739961847662926
1772565978770951400,6.867951416015625,0.001956747844815254,0.000011976808309555054,-0.000917315948754549
1772565978780980500,6.87798046875,0.0010723397135734558,-0.000722050666809082,-0.0012609735131263733
1772565978791008800,6.8880087890625,0.0011045634746551514,0.0002689110115170479,0.00002879556268453598
1772565978801036500,6.89803662109375,-0.001141873188316822,-0.0007479405030608177,0.00028709135949611664
1772565978811065600,6.908065673828125,0.0008144844323396683,0.0013114819303154945,0.0003161197528243065
1772565978821093600,6.91809375,0.00009871739894151688,-0.0011658566072583199,0.00324684614315629
1772565978831121700,6.92812158203125,-0.0019428618252277374,-0.0018590772524476051,0.0010010027326643467
1772565978841150500,6.938150390625,-0.0007806434296071529,0.00010969769209623337,-0.0038263846654444933
1772565978851178800,6.9481787109375,-0.0002820994704961777,-0.00032519642263650894,0.00023520272225141525
1772565978861207800,6.958207763671875,0.002483897842466831,0.0021428093314170837,-0.0015840940177440643
1772565978871235600,6.968235595703125,0.0020806947723031044,0.0002538291737437248,-0.0008927374146878719
1772565978881263600,6.978263671875,-0.0005997461266815662,-0.0015507135540246964,-0.0017005125992000103
1772565978891292700,6.988292724609375,0.000631965696811676,0.0009571854025125504,0.000611910130828619
1772565978901320700,6.99832080078125,0.0009933123365044594,-0.00021765939891338348,-0.003900413401424885
1772565978911348500,7.008348388671875,-0.001353465486317873,-0.0009726658463478088,0.0023723961785435677
1772565978921377500,7.01837744140625,-0.00299402279779315,-0.0007104342803359032,-0.00031891465187072754
1772565978931405600,7.028405517578125,-0.000023799017071723938,-0.0012601111084222794,-0.0016563539393246174
1772565978941433600,7.03843359375,-0.0017973994836211205,0.00030881259590387344,-0.00007578544318675995
1772565978951462400,7.04846240234375,-0.00026501668617129326,-0.000873098149895668,0.0005159690044820309
1772565978961490700,7.05849072265625,0.0015777908265590668,-0.001354302279651165,0.0010965350084006786
1772565978971519700,7.068519775390625,0.00041478872299194336,-0.0015481803566217422,-0.00009949086233973503
1772565978981547500,7.078547607421875,0.001942613162100315,0.004368024878203869,0.0025458442978560925
1772565978991575800,7.088575927734375,-0.0016081794165074825,-0.000006216578185558319,-0.0017876517958939075
1772565979001604600,7.0986044921875,0.0026107747107744217,0.0014968691393733025,0.00011508725583553314
1772565979011632600,7.108632568359375,0.00004748255014419556,0.00001482013612985611,0.00014171889051795006
1772565979021660700,7.11866064453125,-0.0008012764155864716,0.002184877172112465,0.00017836550250649452
1772565979031689700,7.128689697265625,0.000683169811964035,-0.0016902880743145943,-0.0011271163821220398
1772565979041717500,7.138717529296875,0.0006659291684627533,0.0007533477619290352,-0.0007323548197746277
1772565979051746600,7.14874658203125,-0.0007703141309320927,-0.00022669509053230286,0.0016003078781068325
1772565979061774800,7.15877490234375,-0.0008785417303442955,0.0009949859231710434,0.00023963302373886108
1772565979071802600,7.168802734375,0.0008008470758795738,0.0011502476409077644,-0.000009639188647270203
1772565979081831700,7.178831787109375,-0.0009510181844234467,-0.0017115883529186249,-0.00009793369099497795
1772565979091859500,7.188859375,-0.0018213391304016113,0.000749172642827034,0.002109827008098364
1772565979101887700,7.1988876953125,0.0011817384511232376,-0.00018079206347465515,0.0026990603655576706
1772565979111916500,7.20891650390625,0.00010475609451532364,-0.0009262105450034142,0.00038823578506708145
1772565979121944600,7.218944580078125,0.0015687867999076843,0.001909913495182991,-0.0016043568029999733
1772565979131973600,7.2289736328125,0.001009257510304451,-0.0014744317159056664,-0.0017636138945817947
1772565979142001700,7.239001708984375,-0.0007825689390301704,0.0012967977672815323,-0.00044651562348008156
1772565979152029400,7.249029541015625,0.00011917762458324432,0.0017434097826480865,-0.0006867325864732265
1772565979162058500,7.25905859375,0.0016614645719528198,0.0003507640212774277,-0.0028816829435527325
1772565979172086800,7.269086669921875,-0.000991043634712696,0.0006423797458410263,-0.0015090894885361195
1772565979182114600,7.279114501953125,-0.0005600959993898869,-0.00180856604129076,0.0009074592962861061
1772565979192143600,7.2891435546875,0.0003794673830270767,-0.0015220101922750473,-0.0008512921631336212
1772565979202171600,7.299171630859375,0.00037188176065683365,-0.0009146705269813538,0.00029327161610126495
1772565979212199700,7.30919970703125,-0.00024037901312112808,0.000012375414371490479,-0.0009767897427082062
1772565979222228500,7.319228515625,-0.0013377577997744083,-0.0006706686690449715,0.0009548584930598736
1772565979232256800,7.3292568359375,-0.0012762388214468956,0.0009959377348423004,0.002072055358439684
1772565979242285800,7.339285888671875,0.000017520040273666382,-0.00048222392797470093,0.00267023965716362
1772565979252313600,7.349313720703125,-0.00146586075425148,-0.0019613439217209816,-0.000315164215862751
1772565979262341600,7.359341552734375,0.00014349911361932755,-0.0011115074157714844,0.0016439752653241158
1772565979272370700,7.36937060546875,0.00019835960119962692,0.0021540606394410133,0.0005882978439331055
1772565979282398700,7.379398681640625,0.00006626732647418976,-0.00060284323990345,0.0004993481561541557
1772565979292426500,7.389426513671875,-0.0006627761758863926,-0.0003148866817355156,-0.0013840841129422188
1772565979302455600,7.39945556640625,0.00010466109961271286,-0.0003904169425368309,0.00284124119207263
1772565979312483600,7.409483642578125,-0.00024873996153473854,0.001042364165186882,0.00004012836143374443
1772565979322512600,7.4195126953125,0.000019229017198085785,-0.0004184432327747345,0.000035638920962810516
1772565979332540400,7.42954052734375,0.00004239846020936966,-0.0004906151443719864,-0.0004887375980615616
1772565979342568700,7.439568603515625,-0.0025902031920850277,0.0004802253097295761,-0.0009399349801242352
1772565979352597800,7.44959765625,0.00010970979928970337,0.002622738480567932,0.0006321286782622337
1772565979362625500,7.45962548828125,0.0002189846709370613,-0.0001682015135884285,-0.0002826061099767685
1772565979372653800,7.46965380859375,-0.0008457470685243607,0.00034126080572605133,-0.00006023235619068146
1772565979382682600,7.4796826171875,0.0006627952679991722,0.0005667498335242271,0.0003452594392001629
1772565979392710700,7.489710693359375,0.00014054961502552032,0.0011164257302880287,0.0017474140040576458
1772565979402739500,7.499739501953125,0.002594134770333767,0.0012353062629699707,-0.0017664534971117973
1772565979412767700,7.509767822265625,0.0010329894721508026,0.0014909692108631134,-0.0002926602028310299
1772565979422795500,7.51979541015625,0.000034332275390625,-0.0005440348759293556,0.0005118134431540966
1772565979432824600,7.529824462890625,0.0001544412225484848,0.0006799539551138878,-0.00047328975051641464
1772565979442852600,7.5398525390625,0.0020236633718013763,0.0008304230868816376,-0.0002812156453728676
1772565979452880600,7.549880615234375,-0.000008062459528446198,-0.0007381783798336983,-0.0008314247243106365
1772565979462909700,7.55990966796875,0.0010176682844758034,-0.0001292852684855461,-0.0017863838002085686
1772565979472937500,7.5699375,-0.0025030304677784443,0.0010955026373267174,-0.0012614750303328037
1772565979482965800,7.5799658203125,-0.0014267992228269577,-0.00021275877952575684,0.0008771372959017754
1772565979492994600,7.58999462890625,0.0007109204307198524,0.00044397730380296707,-0.0027879048138856888
1772565979503022600,7.600022705078125,0.0015901755541563034,0.002184431068599224,-0.000023550353944301605
1772565979513051400,7.610051513671875,0.003198990598320961,-0.000752503052353859,0.00019349763169884682
1772565979523079700,7.62007958984375,0.00013457145541906357,0.00225659366697073,-0.003177367616444826
1772565979533107500,7.630107421875,0.0020366013050079346,-0.0010238885879516602,0.0012402841821312904
1772565979543136500,7.640136474609375,-0.00023826956748962402,0.0023029260337352753,0.001210955437272787
1772565979553164800,7.650164794921875,-0.002684649545699358,-0.001134416088461876,0.00027565332129597664
1772565979563192600,7.660192626953125,-0.00013555120676755905,-0.0028947843238711357,-0.00007950235158205032
1772565979573221600,7.6702216796875,-0.00005805306136608124,0.0019963765516877174,-0.0015663453377783298
1772565979583249700,7.680249755859375,0.0005147280171513557,0.00041891448199748993,-0.0006258329376578331
1772565979593278700,7.69027880859375,0.0009464258328080177,0.0012937625870108604,0.0005848403088748455
1772565979603306500,7.700306396484375,0.000033173710107803345,0.004364343360066414,0.0035049524158239365
1772565979613334500,7.71033447265625,-0.0022038817405700684,-0.001111382618546486,-0.0003142864443361759
1772565979623363800,7.72036376953125,-0.0010970369912683964,0.00028120167553424835,0.0008814018219709396
1772565979633391600,7.7303916015625,-0.0022134343162178993,-0.0012114997953176498,0.0020601172000169754
1772565979643419600,7.740419677734375,0.0008997516706585884,0.0004878416657447815,0.00041826535016298294
1772565979653448700,7.75044873046875,0.0011793840676546097,-0.0013952795416116714,0.0006710002198815346
1772565979663476700,7.760476806640625,-0.000489547848701477,0.0012901648879051208,-0.0009144367650151253
1772565979673505300,7.77050537109375,0.0006454912945628166,0.0006853612139821053,0.0009361938573420048
1772565979683533300,7.780533203125,0.0006608180701732635,0.0012233108282089233,0.0004417840391397476
1772565979693561300,7.790561279296875,-0.0005932650528848171,0.0004278244450688362,-0.0006767436861991882
1772565979703590400,7.80059033203125,0.0013312622904777527,0.001196160912513733,-0.0009114816784858704
1772565979713618200,7.8106181640625,0.0005442984402179718,-0.00035406555980443954,-0.00032691797241568565
1772565979723646500,7.820646484375,-0.0006082179024815559,-0.001173386350274086,0.0010738465934991837
1772565979733675500,7.830675537109375,-0.0025475318543612957,0.0008221203461289406,-0.0029453961178660393
1772565979743703300,7.840703369140625,0.00008786655962467194,0.001190165989100933,0.00035525765269994736
1772565979753731600,7.850731689453125,0.00010171439498662949,0.0016674045473337173,-0.0010559512302279472
1772565979763760400,7.860760498046875,-0.0006592478603124619,0.0009670499712228775,0.0002511553466320038
1772565979773788400,7.870788330078125,-0.000658182892948389,-0.0007589440792798996,0.0018011145293712616
1772565979783817200,7.880817138671875,-0.0006359806284308434,-0.000005174428224563599,0.0016989707946777344
1772565979793845500,7.890845458984375,-0.0007403767667710781,-0.0009125135838985443,-0.0014994852244853973
1772565979803873300,7.900873291015625,0.0006346134468913078,-0.0005886200815439224,-0.0011269398964941502
1772565979813902300,7.91090234375,0.00022129062563180923,-0.0016142027452588081,0.0003175586462020874
1772565979823930400,7.920930419921875,-0.0005366997793316841,0.0006285533308982849,-0.00031436700373888016
1772565979833958400,7.93095849609375,0.0008169850334525108,-0.0018630996346473694,0.0010702102445065975
1772565979843987500,7.940987548828125,0.0008226754143834114,-0.001336163841187954,-0.0007096570916473866
1772565979854015200,7.95101513671875,-0.00014831312000751495,-0.00021230988204479218,0.0009084800258278847
1772565979864044500,7.96104443359375,-0.003903075121343136,-0.00006496906280517578,0.00017860718071460724
1772565979874072300,7.971072265625,-0.0005522859282791615,0.0004223892465233803,-0.00006480561569333076
1772565979884100400,7.981100341796875,-0.0005554072558879852,0.0018268460407853127,-0.0009079184383153915
1772565979894129200,7.991129150390625,-0.0006278455257415771,0.001799682155251503,-0.0008559869602322578
1772565979904157400,8.001157470703125,-0.0008703428320586681,0.00023674964904785156,-0.0015721707604825497
1772565979914185200,8.011185302734376,-0.0019177640788257122,-0.0025617005303502083,0.0020713000558316708
1772565979924214300,8.02121435546875,-0.0004010549746453762,-0.00038826651871204376,0.0013041342608630657
1772565979934242600,8.03124267578125,-0.00021197041496634483,-0.000003705732524394989,0.0005898741073906422
1772565979944271400,8.041271240234375,-0.0025583570823073387,0.00001055840402841568,-0.00007655378431081772
1772565979954299400,8.05129931640625,-0.0018627392128109932,0.0007056435570120811,0.0015567629598081112
1772565979964327400,8.061327392578125,0.00013257097452878952,0.0005491413176059723,-0.003015057649463415
1772565979974356500,8.0713564453125,-0.0007233689539134502,-0.0005771089345216751,-0.0011204848997294903
1772565979984384300,8.08138427734375,-0.0004857555031776428,0.0005132677033543587,0.0009424840100109577
1772565979994412500,8.09141259765625,0.0003382265567779541,0.0011537577956914902,0.0011552697978913784
1772565980004441300,8.10144140625,0.001110161654651165,0.00018558744341135025,-0.00032240385189652443
1772565980014469400,8.111469482421874,0.0012382594868540764,0.0008266102522611618,0.00034445151686668396
1772565980024497200,8.1214970703125,-0.00018005585297942162,0.0006680143997073174,-0.0013036178424954414
1772565980034526500,8.1315263671875,-0.0007678158581256866,-0.00020070932805538177,0.0008069369941949844
1772565980044554500,8.141554443359375,0.000537646934390068,-0.0015217848122119904,-0.0014253417029976845
1772565980054583300,8.151583251953125,-0.0005174977704882622,0.0009264592081308365,-0.001523878425359726
1772565980064611300,8.161611328125,-0.000895319040864706,-0.0016498658806085587,0.0008915429934859276
1772565980074639400,8.171639404296876,-0.0009416583925485611,-0.0018096547573804855,-0.0006379107944667339
1772565980084668400,8.18166845703125,-0.0007650204934179783,-0.002001546323299408,-0.0006909393705427647
1772565980094696200,8.1916962890625,-0.0002856515347957611,-0.0013408157974481583,0.0008848533034324646
1772565980104724500,8.201724365234375,0.0002476302906870842,0.0011703455820679665,-0.00023176753893494606
1772565980114753500,8.21175341796875,-0.001273567322641611,-0.0002200910821557045,-0.0016797282733023167
1772565980124781300,8.22178125,-0.0006618956103920937,0.0012844158336520195,0.002447698265314102
1772565980134810400,8.231810302734376,-0.001139666885137558,0.0009869402274489403,0.00006070733070373535
1772565980144838400,8.24183837890625,0.001398271881043911,-0.0005087750032544136,0.002551550976932049
1772565980154866400,8.251866455078124,0.0004893355071544647,0.001553843729197979,0.0006348732858896255
1772565980164895200,8.261895263671875,0.003294474445283413,-0.0006226031109690666,0.0005715326406061649
1772565980174923500,8.271923583984375,-0.0007529975846409798,0.00047701597213745117,-0.00042076176032423973
1772565980184951300,8.281951416015625,-0.00043213367462158203,0.0007915180176496506,-0.0009860987775027752
1772565980194980400,8.29198046875,0.0010397955775260925,-0.00016775261610746384,-0.000253995880484581
1772565980205008400,8.30200830078125,0.0014647962525486946,-0.00016866344958543777,0.001577786635607481
1772565980215036400,8.312036376953126,0.0009358925744891167,0.0006912704557180405,0.001818536315113306
1772565980225065500,8.3220654296875,0.0004630889743566513,0.00003552250564098358,-0.00020184507593512535
1772565980235093200,8.33209326171875,-0.00047647440806031227,-0.0016065826639533043,0.0005363826639950275
1772565980245122600,8.34212255859375,0.00014430750161409378,0.001315329223871231,0.0010063149966299534
1772565980255150300,8.352150390625,-0.000812300480902195,-0.0017536981031298637,-0.00241371663287282
1772565980265178400,8.362178466796875,0.000286618247628212,0.0010697739198803902,-0.00019468506798148155
1772565980275207200,8.372207275390625,0.0014893021434545517,0.0012852232903242111,-0.002709507942199707
1772565980285235500,8.3822353515625,-0.00027772458270192146,-0.0003415476530790329,0.0024015367962419987
1772565980295263200,8.39226318359375,-0.001453776378184557,0.0003684507682919502,-0.0006922571919858456
1772565980305292300,8.402292236328124,0.0010917391628026962,0.0004525939002633095,-0.0016331351362168789
1772565980315320600,8.412320556640625,0.0009884089231491089,-0.0006816461682319641,0.0026271240785717964
1772565980325349400,8.422349365234375,0.00008798856288194656,-0.00044308416545391083,-0.001383455004543066
1772565980335377400,8.43237744140625,-0.0002499660477042198,-0.0010130004957318306,0.00011244229972362518
1772565980345405400,8.442405517578125,0.00043914932757616043,0.00002317875623703003,0.001045343466103077
1772565980355434500,8.4524345703125,0.0010452847927808762,0.0009124083444476128,0.0035095661878585815
1772565980365462300,8.462462158203126,-0.002034640870988369,0.00005331356078386307,-0.0002599353902041912
1772565980375490300,8.472490234375,0.00026180315762758255,-0.0017855996266007423,-0.0005070767365396023
1772565980385519400,8.482519287109374,-0.0007476359605789185,0.002833116799592972,0.0019062752835452557
1772565980395547400,8.49254736328125,-0.0006632134318351746,-0.0012598959729075432,0.0005661719478666782
1772565980405576400,8.502576416015625,0.0005330219864845276,0.0006035417318344116,0.001020506490021944
1772565980415604500,8.5126044921875,-0.00015433970838785172,0.00017077848315238953,0.0009278287179768085
1772565980425632500,8.522632568359375,0.0012156758457422256,0.0002396032214164734,0.0019301390275359154
1772565980435661300,8.532661376953126,0.001163211651146412,0.0005179028958082199,0.0000528763048350811
1772565980445689300,8.542689453125,0.0009166095405817032,-0.0013336921110749245,-0.00021490547806024551
1772565980455717400,8.55271728515625,-0.00167384697124362,-0.001222904771566391,0.00021013524383306503
1772565980465746400,8.562746337890625,0.0012154951691627502,-0.000023613683879375458,0.0021226932294666767
1772565980475774200,8.572774169921875,0.001889808103442192,0.0010352591052651405,0.001060891430824995
1772565980485802500,8.582802490234375,0.00003947596997022629,0.0022732196375727654,-0.0015816562809050083
1772565980495831600,8.59283154296875,-0.00001405365765094757,0.0006905030459165573,-0.0022716810926795006
1772565980505859300,8.602859375,0.0007617948576807976,0.0003451751545071602,-0.001220861915498972
1772565980515888400,8.612888427734376,0.00032050907611846924,0.0028810370713472366,-0.00017104391008615494
1772565980525916400,8.62291650390625,0.0015032729133963585,-0.0014998363330960274,-0.0019563832320272923
1772565980535944400,8.6329443359375,-0.0008706692606210709,0.0010333620011806488,-0.0016256184317171574
1772565980545973200,8.64297314453125,-0.0011737709864974022,0.0012825913727283478,0.0005358709022402763
1772565980556001500,8.65300146484375,-0.0005713636055588722,-0.0006332872435450554,-0.002070831134915352
1772565980566029300,8.663029296875,0.002306221053004265,0.0020760279148817062,0.002396262250840664
1772565980576058400,8.673058349609375,-0.00025121215730905533,0.000834994949400425,0.0005730623379349709
1772565980586086400,8.68308642578125,-0.00018498161807656288,-0.00011512916535139084,0.0024857548996806145
1772565980596115500,8.693115478515624,0.0013516619801521301,-0.00029009860008955,0.002194139175117016
1772565980606143500,8.7031435546875,-0.00033433781936764717,-0.00143460463732481,-0.001507831271737814
1772565980616171300,8.713171142578124,0.001763434149324894,0.0018679816275835037,-0.0037313043139874935
1772565980626200300,8.723200439453125,0.0009790360927581787,0.000619533471763134,0.00043513206765055656
1772565980636228400,8.733228271484375,-0.0003988835960626602,0.0030595213174819946,0.0021435501985251904
1772565980646256400,8.74325634765625,-0.001676519401371479,-0.0025809183716773987,-0.0008285581134259701
1772565980656285200,8.75328515625,-0.0005766339600086212,-0.001969456672668457,-0.0015385570004582405
1772565980666313500,8.7633134765625,0.00009428709745407104,-0.0009534470736980438,0.00022322777658700943
1772565980676342500,8.773342529296874,-0.0012370268814265728,0.0012090401723980904,-0.00021432945504784584
1772565980686370600,8.78337060546875,-0.0014807162806391716,-0.0003050742670893669,0.0012331651523709297
1772565980696398600,8.793398681640625,-0.00019600708037614822,-0.0014640819281339645,0.0018134675920009613
1772565980706427600,8.803427734375,0.0008453475311398506,0.0004923036321997643,-0.0009998478926718235
1772565980716455700,8.81345556640625,-0.001861488912254572,-0.0008576530963182449,-0.0015058484859764576
1772565980726483500,8.8234833984375,-0.0009384774602949619,-0.0006365757435560226,-0.0002655712887644768
1772565980736512800,8.8335126953125,-0.0002774805761873722,0.0001378711313009262,-0.0033620288595557213
1772565980746540500,8.84354052734375,-0.0022446466609835625,0.00035293586552143097,0.0007556318305432796
1772565980756568600,8.853568603515624,0.0003231726586818695,-0.0008769119158387184,0.0007401858456432819
1772565980766597600,8.86359765625,0.0003346102312207222,-0.001106318086385727,-0.001337574329227209
1772565980776625700,8.873625732421875,0.0006954679265618324,0.0010606953874230385,-0.0001362222246825695
1772565980786654500,8.883654541015625,0.0021119341254234314,-0.001788266934454441,-0.0016433857381343842
1772565980796682500,8.8936826171875,0.0006469292566180229,-0.0005885129794478416,-0.001489988062530756
1772565980806710500,8.90371044921875,-0.0007279571145772934,0.00018011592328548431,0.0004809945821762085
1772565980816739600,8.913739501953126,-0.0015857615508139133,0.000996640883386135,0.0006628884002566338
1772565980826767600,8.923767578125,0.000513012520968914,-0.001050872728228569,-0.0021450244821608067
1772565980836795600,8.933795654296874,-0.000025212764739990234,-0.0007869526743888855,-0.004263036418706179
1772565980846824700,8.94382470703125,-0.002356443088501692,-0.0028537865728139877,0.0008123167790472507
1772565980856852500,8.9538525390625,0.0005232328549027443,-0.0027584461495280266,-0.00236669834703207
1772565980866881500,8.963881591796875,-0.0006759390234947205,-0.0007385527715086937,0.0008317381143569946
1772565980876909600,8.97390966796875,-0.001864241436123848,-0.001125243492424488,0.0008346680551767349
1772565980886937600,8.9839375,0.00047750305384397507,0.00029063131660223007,0.00006767874583601952
1772565980896966700,8.993966552734374,0.00010386202484369278,-0.0008635828271508217,0.0008184239268302917
1772565980906994700,9.00399462890625,0.0008398145437240601,0.0019367784261703491,0.0012046140618622303
1772565980917022500,9.0140224609375,-0.0012014987878501415,0.00026724301278591156,0.0003633215092122555
1772565980927051500,9.024051513671875,0.0007812520489096642,0.0011589881032705307,0.00022617029026150703
1772565980937079600,9.03407958984375,0.0014784671366214752,-0.0008056256920099258,-0.0017331172712147236
1772565980947107600,9.044107666015625,-0.0001523825339972973,-0.0005342317745089531,-0.0021814615465700626
1772565980957136600,9.05413671875,-0.0029372498393058777,0.00011770986020565033,-0.00016145361587405205
1772565980967164400,9.064164306640626,-0.0004979227669537067,-0.00012508034706115723,0.000060655176639556885
1772565980977193500,9.074193359375,0.0004698699340224266,-0.00005424022674560547,-0.00036651594564318657
1772565980987221500,9.084221435546874,-0.0026893988251686096,0.0017546173185110092,-0.0013796649873256683
1772565980997249500,9.09424951171875,0.0002342192456126213,-0.0008049467578530312,0.002470999490469694
1772565981007278600,9.104278564453125,-0.00048510031774640083,0.0020773597061634064,-0.0035408209078013897
1772565981017306600,9.114306640625,-0.0002627265639603138,-0.0005690231919288635,0.002537044696509838
1772565981027334700,9.124334716796875,0.001678701490163803,0.0006601456552743912,0.0014496087096631527
1772565981037363500,9.134363525390626,-0.0009562303312122822,-0.0007393453270196915,0.00014199642464518547
1772565981047391700,9.144391845703124,0.000035235658288002014,-0.000018897466361522675,0.001207791268825531
1772565981057420500,9.154420654296874,0.00029196497052907944,0.0008002910763025284,0.002243228256702423
1772565981067448600,9.164448486328125,-0.002607984934002161,0.00027531757950782776,-0.001200063619762659
1772565981077476600,9.1744765625,0.0010730363428592682,-0.0010061953216791153,0.0007461747154593468
1772565981087505700,9.184505615234375,0.0015971055254340172,-0.0008335812017321587,-0.001701032742857933
1772565981097533400,9.194533447265625,0.0008333111181855202,-0.0017339950427412987,0.0012556086294353008
1772565981107561500,9.2045615234375,0.002159937284886837,-0.0011493125930428505,0.00012600421905517578
1772565981117590800,9.2145908203125,0.0006677685305476189,0.00306487362831831,-0.001260437536984682
1772565981127618600,9.22461865234375,0.0009186333045363426,0.0016139894723892212,-0.0001555117778480053
1772565981137646600,9.234646484375,-0.0012363968417048454,-0.00019562896341085434,-0.0026804544031620026
1772565981147675400,9.24467529296875,0.0016354294493794441,0.0030464502051472664,0.0011276672594249249
1772565981157703700,9.25470361328125,-0.0018852693028748035,-0.0002412218600511551,-0.0014414843171834946
1772565981167732500,9.264732421875,0.0013684136793017387,-0.0016987137496471405,-0.0007700929418206215
1772565981177760500,9.274760498046875,0.000768403522670269,0.0006256932392716408,-0.001660920213907957
1772565981187788500,9.28478857421875,0.0004093283787369728,0.00015706196427345276,-0.0009474465623497963
1772565981197817600,9.294817626953124,0.0007129283621907234,-0.0016866447404026985,0.0016323570162057877
1772565981207845600,9.304845703125,0.0004990436136722565,0.00025779474526643753,-0.0008370513096451759
1772565981217873700,9.314873779296875,-0.0022224406711757183,-0.000845818780362606,-0.00009323004633188248
1772565981227902700,9.32490283203125,0.003014815039932728,0.0013807518407702446,-0.001547756139189005
1772565981237930500,9.334930419921875,0.0004930682480335236,-0.00023658573627471924,0.0007625361904501915
1772565981247959600,9.34495947265625,-0.00007013976573944092,-0.0018743816763162613,0.0007184590213000774
1772565981257987600,9.354987548828126,0.0002233404666185379,-0.0014789029955863953,-0.00011031702160835266
1772565981268015600,9.365015625,0.0005790265277028084,-0.0004688277840614319,0.0009447396732866764
1772565981278044700,9.375044677734374,0.00040272530168294907,0.0007229363545775414,0.0017578029073774815
1772565981288072700,9.38507275390625,0.0009241215884685516,0.00017826445400714874,0.001452343538403511
1772565981298100500,9.3951005859375,-0.0007518059574067593,-0.0002315957099199295,-0.0007623410783708096
1772565981308129500,9.405129638671875,0.0006390679627656937,0.0004556085914373398,-0.0016125384718179703
1772565981318157600,9.415157470703125,-0.0016642999835312366,0.00003110058605670929,0.0036141816526651382
1772565981328186600,9.4251865234375,-0.0002807462587952614,-0.0004466511309146881,0.002301999367773533
1772565981338214700,9.435214599609376,0.0020974567160010338,0.000287848524749279,0.00024177785962820053
1772565981348242400,9.445242431640626,-0.0004024212248623371,0.00037321075797080994,0.002057598438113928
1772565981358271500,9.455271484375,0.0014711124822497368,0.0011151675134897232,-0.0015206243842840195
1772565981368299500,9.465299560546875,-0.0034203948453068733,-0.0013411398977041245,0.0010217325761914253
1772565981378327600,9.47532763671875,-0.000520478468388319,0.0010077683255076408,0.0014337236061692238
1772565981388356600,9.485356689453125,0.0008669532835483551,0.0003388747572898865,0.0002607759088277817
1772565981398384600,9.495384521484375,0.003116792067885399,-0.00021053478121757507,-0.00011100107803940773
1772565981408412700,9.50541259765625,-0.002693011425435543,-0.000832701101899147,0.0019216868095099926
1772565981418441500,9.51544140625,0.0012588528916239738,-0.0007906230166554451,0.0014732102863490582
1772565981428469800,9.5254697265625,-0.00007996847853064537,-0.0019266661256551743,0.0009551802650094032
1772565981438498600,9.53549853515625,0.000881698913872242,0.0015530195087194443,0.0006047086790204048
1772565981448526600,9.545526611328125,-0.0012113968841731548,-0.0008707502856850624,-0.0001418786123394966
1772565981458554600,9.5555546875,-0.0008020689710974693,-0.002709662541747093,-0.0007354975678026676
1772565981468583700,9.565583740234375,-0.0007192962802946568,0.0018697082996368408,0.0003416212275624275
1772565981478611500,9.575611572265625,0.000001621432602405548,0.0005897926166653633,0.001782923936843872
1772565981488639500,9.585639404296876,0.0006346255540847778,0.00188385508954525,0.000024959444999694824
1772565981498668500,9.59566845703125,0.0003661792725324631,-0.000016310252249240875,-0.0009148698300123215
1772565981508696600,9.605696533203124,-0.001546117477118969,-0.001715238206088543,0.0003892066888511181
1772565981518725600,9.6157255859375,0.0022976230829954147,0.00131251011043787,-0.00019562384113669395
1772565981528753400,9.62575341796875,-0.002212150953710079,-0.0019378578290343285,0.002046525478363037
1772565981538781700,9.63578173828125,-0.0006323638372123241,-0.0003753816708922386,-0.0030885818414390087
1772565981548810500,9.645810546875,0.0012345341965556145,-0.0021617822349071503,0.0022556199692189693
1772565981558838500,9.655838623046876,-0.001566045917570591,-0.0004879850894212723,-0.0001998143270611763
1772565981568866600,9.665866455078126,-0.0016034990549087524,0.0002491343766450882,-0.0021633063443005085
1772565981578895600,9.6758955078125,0.00035978294909000397,0.0015575457364320755,0.0011605843901634216
1772565981588923600,9.685923583984374,-0.0012070764787495136,0.0011767195537686348,-0.0006527667865157127
1772565981598951700,9.69595166015625,0.000011052936315536499,0.0014323834329843521,0.0003698868677020073
1772565981608980700,9.705980712890625,-0.0018970300443470478,0.00132744200527668,0.0016828016377985477
1772565981619008500,9.716008544921875,-0.0007625236175954342,-0.0004451582208275795,0.0009991680271923542
1772565981629037600,9.72603759765625,0.0002193571999669075,0.00021883100271224976,0.0009858254343271255
1772565981639065600,9.736065673828126,0.0003650328144431114,-0.0003212578594684601,-0.0005444269627332687
1772565981649093600,9.74609375,-0.0000793742947280407,0.0018240045756101608,0.000014336314052343369
1772565981659122400,9.756122314453124,0.0009707100689411163,0.0009241225197911263,0.0025770962238311768
1772565981669150500,9.766150390625,-0.0015386654995381832,-0.0007291119545698166,-0.0008943486027419567
1772565981679179300,9.77617919921875,0.00005017593502998352,-0.0005757138133049011,0.0003216504119336605
1772565981689208300,9.786208251953125,-0.0005114520899951458,0.0017112847417593002,0.0011502048000693321
1772565981699236000,9.796236083984375,-0.0012515448033809662,-0.00043096207082271576,0.000009306706488132477
1772565981709265200,9.80626513671875,-0.0005404278635978699,0.0001292126253247261,0.0004827328957617283
1772565981719293200,9.816293212890624,0.0018942337483167648,-0.0017909258604049683,0.00009337905794382095
1772565981729321200,9.8263212890625,0.0006827684119343758,0.0011411327868700027,-0.0001568184234201908
1772565981739350300,9.836350341796875,0.0005906233564019203,-0.0008186874911189079,0.000992335844784975
1772565981749378300,9.84637841796875,-0.0013031898997724056,-0.0005467291921377182,0.001234301831573248
1772565981759406000,9.856406005859375,-0.000022475607693195343,-0.0018301066011190414,0.0015576095320284367
1772565981769435100,9.86643505859375,-0.0006867875345051289,0.0003692321479320526,0.0010628094896674156
1772565981779463200,9.876463134765626,-0.000041503459215164185,0.0026137446984648705,-0.0012173890136182308
1772565981789491200,9.8864912109375,-0.00014933384954929352,0.0013141622766852379,0.0005873651243746281
1772565981799520300,9.896520263671874,-0.001619931310415268,-0.0019175838679075241,0.0035866168327629566
1772565981809548000,9.906548095703124,-0.0004512518644332886,0.011022679507732391,0.00580480694770813
1772565981819577300,9.916577392578125,-0.00015883659943938255,0.013396620750427246,0.00481277983635664
1772565981829605000,9.926605224609375,-0.0008109067566692829,0.016186315566301346,0.008676232770085335
1772565981839633200,9.936633056640625,0.0010612951591610909,0.012866951525211334,0.009392889216542244
1772565981849662200,9.946662109375,-0.00028386758640408516,0.007011193782091141,0.0016042087227106094
1772565981859690200,9.956690185546876,0.002094728872179985,0.0024628229439258575,0.00037113483995199203
1772565981869718300,9.96671826171875,-0.0008030394092202187,-0.0065107871778309345,-0.0018100026063621044
1772565981879747000,9.9767470703125,0.002233230508863926,-0.008547306060791016,-0.004791411571204662
1772565981889775400,9.986775390625,-0.000060088932514190674,-0.013061512261629105,-0.007255635689944029
1772565981899804200,9.99680419921875,-0.0016534584574401379,-0.018971599638462067,-0.008225026540458202
1772565981909832200,10.006832275390625,-0.00020831916481256485,-0.004358919337391853,-0.0017412756569683552
