time,seconds_elapsed,z,y,x
1772522021691083000,0.0930830078125,0.05532616590261459,-0.004933839672990143,-0.00430163358352147
1772522021701078800,0.103078857421875,0.04470540316700935,-0.006247333424352109,-0.0013520995955448598
1772522021711076000,0.113076171875,0.056826633593440055,-0.00332832243880257,0.0008705083573702722
1772522021721073000,0.123072998046875,0.047099020305275914,-0.002002389330975711,-0.006659037764091044
1772522021731070000,0.133070068359375,0.044853287205100054,-0.007880030926410108,-0.004194483414618298
1772522021741066000,0.14306591796875,0.043804654935002324,0.0009194163998588919,0.0021388660590630024
1772522021751062800,0.153062744140625,0.04065758908092976,-0.002673694454971701,0.003379130177432671
1772522021761060000,0.16306005859375,0.04992985981702804,-0.003258709535002708,-0.0005235032842960208
1772522021771057000,0.173056884765625,0.039002807611227035,-0.0037931269389577206,-0.004212238267017528
1772522021781053200,0.18305322265625,0.03855389479994774,-0.005717811391223222,0.002713715938106179
1772522021791050000,0.193050048828125,0.04438450064957142,0.0027882607453502714,0.00016790391281247137
1772522021801046800,0.203046875,0.050666941919922825,-0.003812927617970854,-0.0030746764712966976
1772522021811044000,0.213044189453125,0.04168342499732971,-0.009103216045815496,0.005412124709226191
1772522021821039900,0.223039794921875,0.04781447509825229,0.0016349807906895874,-0.001433348138211295
1772522021831037000,0.233036865234375,0.04422024999856949,0.0018335173037834465,0.005807033177791163
1772522021841034000,0.243033935546875,0.05244388846457004,-0.001512779183126986,-0.0023906214635819197
1772522021851029800,0.25302978515625,0.046753567868471145,-0.003312412483617663,0.002761263140570372
1772522021861027000,0.263027099609375,0.04781798222959041,0.004580550989601761,-0.0007213365444913506
1772522021871023900,0.27302392578125,0.04925239894688129,0.004623531614802777,-0.0008251531119924039
1772522021881021000,0.28302099609375,0.04760813887119293,0.0017656396993435918,0.005311322082718834
1772522021891017000,0.293016845703125,0.05159224007129669,-0.0036366212029941376,0.0003733359575737268
1772522021901013800,0.303013671875,0.04758241990804672,-0.000857018688134849,-0.009655114307533949
1772522021911011000,0.313010986328125,0.0468383235424757,0.0004500087898224592,-0.004410199391376227
1772522021921007900,0.3230078125,0.05267886626422405,0.00372959671607241,-0.0024304511504713443
1772522021931004400,0.33300439453125,0.05566343503296375,0.00005629676450043916,-0.012130336181493475
1772522021941001500,0.34300146484375,0.04638765716552734,-0.005382642886415124,0.00045322366021573543
1772522021950998300,0.352998291015625,0.05402852730751037,0.0055183432963676745,-0.005384569982020184
1772522021960994600,0.36299462890625,0.042651393246650696,-0.0017210151063278317,-0.00008491093763150274
1772522021970991400,0.372991455078125,0.04922317285239696,-0.00939832653487101,-0.00753905373532325
1772522021980988400,0.382988525390625,0.03875497032999992,0.008813238389603793,-0.0003767791568301618
1772522021990985500,0.3929853515625,0.036813188612461085,0.005952843989804387,-0.008079791282210499
1772522022000981200,0.402981201171875,0.02978431288897991,-0.00843260504156351,-0.006370146953267976
1772522022010978600,0.412978515625,0.05013794960975647,0.006792783678974956,-0.011061035582702607
1772522022020975400,0.422975341796875,0.05821078142821789,-0.00270872923573479,0.0016638872247654944
1772522022030972400,0.432972412109375,0.04011456824541092,-0.002511672293674201,0.00020369674540124833
1772522022040968400,0.442968505859375,0.04041559701859951,0.0004760748128406703,0.003256691107852384
1772522022050965200,0.45296533203125,0.045348377245664595,0.007262976740300655,-0.0017993775721639393
1772522022060962600,0.462962646484375,0.05448094725012779,0.000597582300659269,-0.0013567575043532997
1772522022070959400,0.47295947265625,0.04267068246901035,-0.005059000422619283,0.005642554197926074
1772522022080955400,0.482955322265625,0.03698211543858051,0.006305895211175084,0.012487835249118506
1772522022090952400,0.492952392578125,0.04447159441113472,0.006778006234951317,-0.0033149058348033575
1772522022100949500,0.502949462890625,0.04745733222365379,-0.0037028365733101963,-0.006993566948082297
1772522022110945500,0.512945556640625,0.05508358931839466,-0.0005326455719769001,-0.003858976983092725
1772522022120942300,0.5229423828125,0.044753918483853336,-0.000004639642499387264,-0.0043740412326063955
1772522022130939400,0.532939453125,0.05044540812373161,0.005205057829804718,0.005941071353619918
1772522022140936400,0.5429365234375,0.048648003312945366,0.0007954246940091252,0.004252341948542743
1772522022150932200,0.55293212890625,0.03667290335893631,0.0031745931818149982,-0.0031723464258015155
1772522022160929500,0.562929443359375,0.04445172066688537,0.0019536365521140397,0.004672147396346554
1772522022170926300,0.57292626953125,0.052986909300088876,-0.005618643599376082,0.009392590913828462
1772522022180923400,0.58292333984375,0.059872577160596845,-0.003056154433917254,-0.005197376846848055
1772522022190919400,0.59291943359375,0.047751346734166145,0.0023470380501821636,0.0005194390305317938
1772522022200916200,0.602916259765625,0.04401332924962043,0.0007409362941049039,-0.005101597455330193
1772522022210913500,0.61291357421875,0.03892623524367809,0.0002830181924626231,0.008337793764425441
1772522022220909300,0.622909423828125,0.04461071062088012,0.00040870866505429145,-0.003183187480224296
1772522022230906400,0.63290625,0.04341594787836075,-0.0010521028688177466,-0.005114539135294035
1772522022240903400,0.6429033203125,0.03369008815586567,-0.0054520365945063525,-0.0029172756861895323
1772522022250900500,0.652900390625,0.05942191078364849,0.0037825872786343097,-0.0021259883111808446
1772522022260896500,0.662896484375,0.061223407247662544,0.001679952443577349,-0.012697852137451992
1772522022270893300,0.672893310546875,0.043720483782887454,0.0045157055924646555,-0.002278301929216832
1772522022280890400,0.682890380859375,0.043722237348556514,0.0025747458588331936,-0.003043322351807728
1772522022290887400,0.692887451171875,0.055388709744811054,0.00046378158684819935,-0.0033550460489466783
1772522022300883200,0.70288330078125,0.04745733222365379,-0.0013496062443591654,-0.003971807974111289
1772522022310880500,0.712880615234375,0.04656067564487457,-0.007751344779133796,0.009909911052510142
1772522022320877300,0.722877197265625,0.03339373555779457,-0.00729932669531554,-0.0015054361268877982
1772522022330873600,0.73287353515625,0.04641279160678386,-0.0036454438302665946,0.00482100868197158
1772522022340870400,0.742870361328125,0.04327624714672565,0.0068744523467496035,-0.00835875435406342
1772522022350867500,0.752867431640625,0.0422328755736351,0.00420607338771224,0.004181021144846454
1772522022360864500,0.762864501953125,0.05180909769237041,-0.0018173698865808546,0.0027258173678535967
1772522022370860300,0.7728603515625,0.05075988090038299,-0.007449347891565412,-0.0030203981339465827
1772522022380857300,0.782857421875,0.06123743577301502,-0.0070764411922544235,-0.005607437218772247
1772522022390854400,0.7928544921875,0.04641863682568073,-0.0013538257617503404,-0.011106199031835422
1772522022400851500,0.8028515625,0.04775894551873207,-0.0030323899658396838,-0.0038607488150708374
1772522022410847500,0.812847412109375,0.04865151044428348,0.0046419623206369574,-0.007722593608684838
1772522022420844300,0.82284423828125,0.04506663769483566,0.008467895550653338,0.0032024675694294273
1772522022430841300,0.83284130859375,0.04312310241162777,-0.004488707987684757,0.0048581349551212035
1772522022440838400,0.84283837890625,0.04776011456251144,-0.008363156534545124,-0.005559433358581736
1772522022450834400,0.85283447265625,0.05419160891473293,0.0025931217657402155,0.005853804062120616
1772522022460831500,0.86283154296875,0.04566051193475723,0.004804934330005199,-0.0018792378753423689
1772522022470828300,0.872828369140625,0.04117255286574364,0.004175276390649378,-0.0028444753114599732
1772522022480824600,0.882824462890625,0.049552843198180194,0.0029621377412229776,0.0034638949845917522
1772522022490821400,0.8928212890625,0.05958090073764324,0.008150262702535837,0.0004129464487545192
1772522022500818400,0.902818359375,0.04910860656201839,0.00496176885953173,0.004812880174443125
1772522022510815500,0.9128154296875,0.03504091824293137,-0.0003052665568888187,0.005295083333970978
1772522022520811300,0.922811279296875,0.04341536335647106,-0.0010278086777776479,-0.00359920266889967
1772522022530808600,0.93280859375,0.047453240570425985,0.0013172200784087181,0.005509730731649324
1772522022540805400,0.942805419921875,0.0371264923453331,0.0013614976115524768,0.0055960116424597795
1772522022550802400,0.952802490234375,0.040868016961216926,0.006767576172482222,0.0041595216990914195
1772522022560798500,0.962798583984375,0.04714928918778896,0.008080229673627764,0.00016069785389117897
1772522022570795300,0.972795166015625,0.049392099678516384,-0.0013042692652903496,0.005043565391469746
1772522022580792300,0.982792236328125,0.053430561414361,0.004013491691369563,0.005119571503438055
1772522022590788400,0.992788330078125,0.0529816486030817,0.007103036938235163,-0.002718328181141987
1772522022600785400,1.002785400390625,0.04400397689938545,0.004641633527074009,0.00011382650486193597
1772522022610782500,1.012782470703125,0.04160626810789108,-0.0018465411821380257,0.007328068732609972
1772522022620779500,1.022779541015625,0.05043313316404819,0.00014622180396690963,-0.003509697754541412
1772522022630775600,1.032775634765625,0.04654430903196335,0.005773596699070185,0.0067018083267379545
1772522022640772400,1.0427724609375,0.03891220671832561,-0.0009749825119972228,0.0040955896174069495
1772522022650769400,1.052769287109375,0.05132978974282741,0.0039371019869111476,0.00365935362461023
1772522022660766500,1.062766357421875,0.0477402408182621,0.004365246004797518,0.00504851556122303
1772522022670762200,1.07276220703125,0.05283259552121162,-0.005303440170362592,0.00430794459329918
1772522022680759600,1.082759521484375,0.03323006942868233,0.0015641988431103527,-0.0010995496065821498
1772522022690756400,1.09275634765625,0.03726736212074756,0.0006402889312244951,0.002887172808870673
1772522022700753400,1.10275341796875,0.05522212100625038,0.008727770329546183,0.0029225363831967112
1772522022710749400,1.11274951171875,0.045346623679995535,0.006663165949936956,0.00639107101028785
1772522022720746500,1.12274658203125,0.041454876938462254,0.0005637165636755525,-0.004710351381730288
1772522022730743300,1.132743408203125,0.04190262070596218,-0.002654880156647414,0.0033974878180306404
1772522022740739300,1.1427392578125,0.04444412188231945,0.0033794498378410935,0.006278797141695395
1772522022750736400,1.152736328125,0.060602645000815386,0.008811941481661052,0.002578189058089629
1772522022760733400,1.1627333984375,0.04578910675048828,0.003610354250576347,0.00299320873292163
1772522022770730500,1.17273046875,0.03830664204061031,-0.005912676376197487,0.008811055565671995
1772522022780726500,1.1827265625,0.0402548534989357,-0.006209211637359112,0.0016030695487745106
1772522022790723300,1.192723388671875,0.03950608095824718,0.0032060477660037574,-0.00037997576091438527
1772522022800720400,1.202720458984375,0.051775779944658276,0.0035469153592363,-0.003072329250583425
1772522022810717400,1.212717529296875,0.03860474820435047,0.0006277399769052863,0.0005808503615669906
1772522022820713500,1.22271337890625,0.036656536746025085,0.006701799193583428,-0.0026475736330263313
1772522022830710500,1.23271044921875,0.047127661877870555,0.0014318046350963412,-0.007525920259114354
1772522022840707300,1.242707275390625,0.04338613726198673,-0.002748915115650743,-0.0009843622616957873
1772522022850703400,1.252703369140625,0.051611529293656346,0.0010214520022273064,-0.006006126813311129
1772522022860700400,1.262700439453125,0.0528074610799551,0.003576963437628001,-0.003675373177649453
1772522022870697500,1.272697509765625,0.04757248303592205,0.005316007390990853,0.0010663597230333834
1772522022880694300,1.2826943359375,0.03814882113039493,0.0020558365512639283,-0.003955770154763013
1772522022890690300,1.292690185546875,0.04458206904828548,-0.005949008064903318,-0.004428082107938826
1772522022900687400,1.302687255859375,0.04458440713584423,0.003797894445620477,-0.005944815946975723
1772522022910684400,1.312684326171875,0.04922492641806602,0.00451188793387264,0.0034204211690463124
1772522022920681500,1.322681396484375,0.049373394978046416,0.006180204738583416,-0.007410605050064623
1772522022930676700,1.3326767578125,0.047727381336688995,0.00398525197757408,0.0019601758907549084
1772522022940673800,1.342673828125,0.04757774373292923,0.0023350553514435886,0.002852128894953057
1772522022950670600,1.352670654296875,0.05117138431072235,0.0000021006255410611626,-0.005037108251219615
1772522022960667000,1.3626669921875,0.04922434189617633,0.0040159576430916786,-0.010075285081518814
1772522022970663700,1.37266357421875,0.041889176702499385,0.0012946977193467317,-0.00012720657624304293
1772522022980660700,1.38266064453125,0.04877192195355892,0.002730429610889405,-0.00002662314544431865
1772522022990657800,1.39265771484375,0.049368718802928924,0.001400295251980424,0.004522464126814157
1772522023000653800,1.40265380859375,0.049967269217967986,0.00137421096265316,0.005673899184260517
1772522023010651000,1.41265087890625,0.0502671289473772,0.000258504805713892,0.012351541184121743
1772522023020647700,1.422647705078125,0.040539515659213064,0.0011972286942414938,0.0021434874352533368
1772522023030645000,1.43264501953125,0.05894377187788486,-0.002397032938059419,-0.0022674426084849982
1772522023040640800,1.442640869140625,0.051014732444286344,-0.0022310652540065345,0.0023655874870251864
1772522023050637800,1.452637939453125,0.037246903854608535,-0.0008595577050931751,0.0023261870583985
1772522023060635000,1.462634765625,0.04442833979129791,0.0024736966371536255,0.002446105377329513
1772522023070631700,1.472631591796875,0.04712357022464275,0.006571761339437216,-0.0012924418301787227
1772522023080627700,1.482627685546875,0.04248421998620033,-0.004294244861509651,0.0033323958257213235
1772522023090624800,1.492624755859375,0.03979074311852455,0.0053539465148933225,0.006567213028483092
1772522023100621800,1.502621826171875,0.053257542935013766,-0.0012109832249581813,0.0002708619637880474
1772522023110617900,1.512617919921875,0.04846738604903221,0.001836768706794828,0.010099524473631754
1772522023120614700,1.52261474609375,0.03799450735151767,0.00003784779235720634,0.003306421134248376
1772522023130612000,1.532612060546875,0.03874152632653713,-0.0021549678104929625,0.0047925954382400954
1772522023140608800,1.54260888671875,0.04786825111210346,-0.0013897738579660653,-0.0021258330475538967
1772522023150604800,1.552604736328125,0.05056523511111736,0.0008892952562309801,0.004237053047865629
1772522023160601900,1.562601806640625,0.048019057759642596,0.008654650294408203,-0.01012863183710724
1772522023170598700,1.5725986328125,0.042483635464310644,-0.0008447985273785888,-0.0033952501951716838
1772522023180596000,1.582595947265625,0.04233341333866119,0.0044097609999589615,-0.0036986809880007058
1772522023190591700,1.592591796875,0.053107905331254,0.007577705245278775,-0.005496350660268217
1772522023200588800,1.6025888671875,0.05759820248782634,0.007570270857494324,-0.013650303157232702
1772522023210585900,1.6125859375,0.04742167638838291,0.001075976934749633,-0.005818230425240472
1772522023220582000,1.622581787109375,0.04487725260257721,0.0034850839030928908,-0.004949603497702628
1772522023230579000,1.632578857421875,0.04487842164635658,0.009825959096103907,-0.0030241975262295454
1772522023240575700,1.64257568359375,0.04533259515464306,0.0015830679403617976,0.007746495074080303
1772522023250572800,1.65257275390625,0.05296469746828079,0.005323587909247726,0.0019186109045054762
1772522023260568800,1.66256884765625,0.04772913490235805,0.0016337204153649507,0.0020692805547267196
1772522023270565600,1.672565673828125,0.04668342524170875,0.0033204496596008536,-0.003780322256311774
1772522023280563000,1.68256298828125,0.046236265996098515,-0.001647182685136795,-0.005935545795131474
1772522023290559700,1.692559814453125,0.040998365342617034,0.0009315452290698886,0.000941701296903193
1772522023300555800,1.7025556640625,0.05221943205893039,-0.003936115606222301,-0.006426927774958312
1772522023310552800,1.712552734375,0.058656187108159064,-0.004621029130462557,-0.001906546007376164
1772522023320549600,1.722549560546875,0.05266834487020969,0.0016117643118835985,0.005559095431864261
1772522023330546000,1.7325458984375,0.0362070394128561,0.0015317030793055891,-0.006243908491404727
1772522023340542700,1.742542724609375,0.029771453407406806,-0.00045525122052058573,-0.006348145184013992
1772522023350539800,1.752539794921875,0.05326572624146938,0.004440010007750243,0.0002819313470739871
1772522023360536800,1.762536865234375,0.05565992790162563,0.004038352137990296,-0.002052923074970022
1772522023370532900,1.772532958984375,0.04878010526001453,0.004698807074408978,-0.002210908381966874
1772522023380530000,1.782530029296875,0.04773264203369617,-0.005724496860336512,0.0009860518952831624
1772522023390526700,1.792526611328125,0.045785015097260476,0.004652301051560789,0.0015124321232549845
1772522023400522800,1.802522705078125,0.04578443057537079,0.0014013912305235862,0.007951452194806188
1772522023410519800,1.812519775390625,0.04997311443686485,0.000551770397555083,-0.0032803003123030063
1772522023420516600,1.8225166015625,0.046534372159838674,-0.0022324352271854875,-0.0027589250530116257
1772522023430514000,1.832513916015625,0.04893032738566398,0.005122055721469223,-0.0025927564395591615
1772522023440509700,1.842509765625,0.046987376624345774,-0.00370272697545588,-0.0009864628872368485
1772522023450506800,1.8525068359375,0.04145370789468288,0.002876121691893786,0.008262235177028924
1772522023460503800,1.86250390625,0.047588265126943585,-0.000026449615508317946,0.004876264266856015
1772522023470500600,1.87250048828125,0.05417290421426296,0.0022764022330753505,-0.0012075491588562726
1772522023480497000,1.882496826171875,0.04773965629637241,-0.000021462913136929272,-0.006593014190020039
1772522023490493700,1.89249365234375,0.05297521886229515,-0.0006924575098790228,0.00008023476251401007
1772522023500490800,1.90249072265625,0.040402153015136714,0.0031381336289457973,-0.006194799519516527
1772522023510487800,1.91248779296875,0.04159925384521484,-0.004543269452825189,-0.007620046549662947
1772522023520483800,1.92248388671875,0.05611351688802242,0.005553286745585501,0.0030590131112840026
1772522023530481000,1.93248095703125,0.06045300739705562,-0.00017922902442514896,0.0040449554087128485
1772522023540477700,1.942477783203125,0.040398645883798594,-0.00361820876346901,-0.0026854305585380643
1772522023550473700,1.9524736328125,0.053712885487079615,0.007866659988183528,0.00218725351174362
1772522023560470800,1.962470703125,0.06164309396445751,0.0097516517508775,-0.0037312132844235747
1772522023570467600,1.972467529296875,0.04174187718629837,0.010563844916597008,-0.0033111977740656585
1772522023580465000,1.98246484375,0.047131753531098365,-0.00031582448352128267,-0.0029386929335538294
1772522023590460700,1.992460693359375,0.058059974780678744,0.0023070713659748433,-0.0023292375320103018
1772522023600457700,2.002457763671875,0.04908054951131344,0.001918656570278108,-0.010879030079301445
1772522023610454800,2.012454833984375,0.04444353736042976,-0.0038553967865183948,-0.009990712070604786
1772522023620451600,2.02245166015625,0.042351533517241476,-0.0011617372557520865,-0.006510112546384334
1772522023630447900,2.03244775390625,0.04444762901365757,0.001046422046702355,-0.007818363867048173
1772522023640444700,2.042444580078125,0.054175826823711394,-0.005782145331706851,-0.0046835821058135475
1772522023650442000,2.05244189453125,0.04909282447099685,-0.007587075861822813,0.0029218970623798666
1772522023660438800,2.062438720703125,0.04729892679154873,0.001442563491128385,-0.000982024174137041
1772522023670434800,2.072434814453125,0.03533434823155403,-0.0013360526430420577,0.0037786052232608195
1772522023680431900,2.082431884765625,0.03862871360182762,-0.0066484981037676335,0.0017680599852930754
1772522023690428700,2.0924287109375,0.049103345865011215,-0.004244597033504396,0.0031218492144253103
1772522023700424700,2.1024248046875,0.05448971507847309,-0.001044558883178979,0.004942589235026389
1772522023710421800,2.112421875,0.05059796833693981,0.0007474938990548253,0.003056793754734099
1772522023720418800,2.122418701171875,0.04341419431269169,0.0007733041937462985,-0.004604525520233437
1772522023730415900,2.132415771484375,0.04924947633743286,0.0028537089306861162,-0.0016797971799504012
1772522023740411600,2.14241162109375,0.04820142858922481,0.008672076353244483,0.0063543100633192805
1772522023750409000,2.152408935546875,0.0459580335766077,0.007274356650840491,0.011420772273186594
1772522023760405800,2.16240576171875,0.04864741879105568,-0.004279577015340328,0.004268781626690179
1772522023770401800,2.17240185546875,0.05044248551428318,-0.008299918572604656,-0.00006969510219059884
1772522023780398800,2.18239892578125,0.051040451407432554,-0.0025440767259337005,0.0007088515222538263
1772522023790395600,2.192395751953125,0.05313596238195896,-0.0021023791067302225,0.0010540482307318598
1772522023800393000,2.20239306640625,0.036226913157105446,0.0005966872515156865,0.0013656075310893355
1772522023810388700,2.212388671875,0.045808395972847936,0.0015653496205806732,-0.0010051767208613454
1772522023820385800,2.2223857421875,0.052692894789576526,0.004794339870754629,0.003633890389790758
1772522023830382800,2.2323828125,0.04925064538121223,-0.004576568934228271,0.0029996202073991297
1772522023840379600,2.242379638671875,0.056283028236031526,-0.0030323351669125256,0.00376831215810962
1772522023850376000,2.2523759765625,0.052390112450718875,0.005715308906883001,-0.0013702106409706175
1772522023860372700,2.262372802734375,0.046102995005249975,0.006840056886803359,0.0036531248132232576
1772522023870369800,2.272369873046875,0.04745031796097755,0.00877966491356492,0.0006668481445871293
1772522023880366800,2.282366943359375,0.04310907388627529,0.00822237809067592,-0.002808801209880039
1772522023890362600,2.292362548828125,0.036976270219683645,-0.003173113610781729,-0.005676392535446211
1772522023900360000,2.30235986328125,0.04850128831863403,-0.004596442678477614,-0.014096795682562514
1772522023910356700,2.312356689453125,0.04131868333816528,-0.0007895064098760485,-0.004310282680857926
1772522023920352800,2.322352783203125,0.05538637165725231,-0.0010341653533279896,0.00752633125106804
1772522023930349600,2.332349609375,0.0519447067707777,0.002355513617582619,-0.002279443573532626
1772522023940346400,2.342346435546875,0.052096682462096214,-0.00044109483100473877,-0.0024200667537748813
1772522023950343700,2.35234375,0.05449146864414215,0.000585855330247432,-0.0031298681240994482
1772522023960339500,2.36233935546875,0.05853051490187645,0.0015480879585258662,0.002423482553567737
1772522023970336500,2.37233642578125,0.05105097280144691,0.0024230989610776305,0.0019422292421106247
1772522023980333600,2.38233349609375,0.04312368693351745,0.0012052658702246845,-0.0019213325845543294
1772522023990330400,2.392330322265625,0.04925941320955753,0.009075980979017913,-0.007043662300659343
1772522024000326700,2.40232666015625,0.056743046963214874,0.0013623926606960593,-0.006165007169451564
1772522024010323500,2.412323486328125,0.03534662319123745,0.0024406528840772808,-0.003613130729552358
1772522024020320500,2.422320556640625,0.04851414780020714,0.009664411858841777,-0.004462139641167596
1772522024030316500,2.432316650390625,0.04971124863028526,0.006131123166158795,0.004276353011792525
1772522024040313600,2.442313720703125,0.04701426463127136,0.0033702984170056877,-0.005891843650722876
1772522024050310700,2.452310546875,0.044023266121745105,0.004038388670608401,0.002655976135190576
1772522024060307500,2.462307373046875,0.048965398699045176,0.0026901341331191358,-0.0010093140398617832
1772522024070303500,2.472303466796875,0.04672141916453838,-0.009755286746378988,-0.0038436332834884523
1772522024080300500,2.482300537109375,0.04731704697012901,0.002223831795621663,0.0009661507515702396
1772522024090297300,2.49229736328125,0.053453357768058776,0.0020636727978475392,0.0026834486640058457
1772522024100294700,2.502294677734375,0.050314475220441815,0.0013019311777316034,0.0015079020786099135
1772522024110290400,2.51229052734375,0.050017538100481033,0.0015710487090051172,0.003859881165390834
1772522024120287500,2.52228759765625,0.05451017334461212,-0.006449431867711246,0.008474188294121995
1772522024130284500,2.532284423828125,0.048375616112351416,-0.007753500203602015,0.006727372026257217
1772522024140280600,2.542280517578125,0.04867956749498844,-0.0068712922752834854,0.008323920502699911
1772522024150277600,2.552277587890625,0.04194353723824024,-0.0021135032889433203,0.005802393535291776
1772522024160274400,2.5622744140625,0.044937458357214924,-0.0032110892673023043,-0.0038952721391804514
1772522024170271700,2.572271728515625,0.05975333469510078,-0.005775441596284508,0.005289228981919586
1772522024180267500,2.582267578125,0.05062836347520351,-0.003983187884651124,0.0023294567277189343
1772522024190264600,2.5922646484375,0.03701484866440296,-0.00424205801654607,0.0058510367162991316
1772522024200261600,2.60226171875,0.0467424619525671,-0.005774382150359451,0.0021593243252020326
1772522024210257400,2.61225732421875,0.05556581987738609,0.0004518902196548879,-0.005085450038127601
1772522024220254500,2.62225439453125,0.04942892455756664,0.003719678110256791,-0.0023439327776432037
1772522024230251500,2.63225146484375,0.04358955087959766,-0.0012577084435150027,-0.005744644599221646
1772522024240248300,2.642248291015625,0.02937222495675087,-0.004608534975070506,0.0004165723111014813
1772522024250244600,2.65224462890625,0.0382025971442461,0.0001834850744344294,-0.0024463885051198304
1772522024260241400,2.662241455078125,0.04733282906115055,0.0013701923746615647,-0.0012600373979192226
1772522024270238700,2.67223876953125,0.05062427182197571,-0.005421751054096966,-0.006117852692632004
1772522024280235500,2.682235595703125,0.04898118079006672,-0.010704404164757578,-0.012839580429391935
1772522024290231600,2.6922314453125,0.04539046282172203,-0.005767641882319003,-0.006092078930558636
1772522024300228600,2.702228515625,0.04778583352565765,0.007924838182516396,-0.006846861086925491
1772522024310225400,2.712225341796875,0.048235330858826635,0.006196352155786007,-0.004084657231438905
1772522024320222700,2.72222265625,0.05930675997138023,0.01022016431177035,-0.002588993579894304
1772522024330218500,2.732218505859375,0.06813304050564765,-0.000017535656690597534,-0.008735853171302006
1772522024340215600,2.742215576171875,0.04239245004951954,-0.00852265794519335,0.0006863930952735245
1772522024350212600,2.752212646484375,0.024432430467009544,0.00048672407101839777,0.00041975978203117844
1772522024360208400,2.76220849609375,0.04148994825184345,-0.0023643727774731813,0.0005190463048871607
1772522024370205700,2.772205810546875,0.051065585848689074,-0.005658555484656244,0.004478150061052293
1772522024380202500,2.782202392578125,0.049123804131150244,-0.007901201578602194,0.006318763825902715
1772522024390199300,2.79219921875,0.050023967841267586,-0.008251184060052036,0.0010235982935409991
1772522024400195600,2.802195556640625,0.04284428547024727,0.00035420199884101744,0.007989226921927184
1772522024410192400,2.8121923828125,0.05750760159492492,0.003295844941306859,0.006424735817871987
1772522024420189700,2.822189697265625,0.041646015596389765,0.004384809221792966,0.000938623423827812
1772522024430186500,2.8321865234375,0.04014905503690243,-0.00042964185522869226,0.0056525002032052725
1772522024440182500,2.8421826171875,0.047781741872429846,-0.0004912541156634688,0.004155274782236666
1772522024450179600,2.8521796875,0.03775719146430492,0.006042568099871278,0.003545983777474612
1772522024460176400,2.86217626953125,0.043590135401487345,-0.0006174925775267184,-0.009118915938446298
1772522024470172700,2.872172607421875,0.031469489496946335,-0.0008875416905619203,0.0016911588241811841
1772522024480169500,2.88216943359375,0.048827451533079144,0.0013659363246522843,-0.002019029938522726
1772522024490166500,2.89216650390625,0.05511106184720993,-0.004289093762356788,-0.001749930673558265
1772522024500163600,2.90216357421875,0.044487376502156256,-0.002352810203842819,-0.003106131055485457
1772522024510159600,2.91215966796875,0.03954933557808399,-0.0020623393572866914,-0.0043058074351400135
1772522024520156700,2.92215673828125,0.057958852493762966,0.009676010965090244,0.0010505502325482666
1772522024530153500,2.932153564453125,0.05930500640571117,0.0008579320035874843,0.001034384549036622
1772522024540150500,2.942150634765625,0.04673310960233211,-0.0016115268498659134,-0.005478440544242039
1772522024550146600,2.952146484375,0.04658288747668266,0.0016460501739755272,0.0022242793201934547
1772522024560143400,2.962143310546875,0.04822656303048133,0.005154514952655881,-0.014153439506934954
1772522024570140700,2.972140625,0.06124035838246345,0.0037199521048925815,-0.005229004960972816
1772522024580136400,2.982136474609375,0.04104220448434353,0.004476907952036709,0.006477260589553043
1772522024590133500,2.992133544921875,0.04657821130156517,0.001224171500094235,-0.0016039554647635668
1772522024600130600,3.002130615234375,0.05211188003122806,-0.008445354925282299,0.0014148078345227987
1772522024610127400,3.01212744140625,0.062435705646872515,-0.0007657784744165838,-0.002964092236291617
1772522024620123600,3.02212353515625,0.04477203866243362,0.002184358301758766,-0.006499234959343448
1772522024630120400,3.032120361328125,0.03698737613558769,-0.00010241919485852121,0.005388341974839568
1772522024640117800,3.04211767578125,0.03444412139356136,-0.0008250891799107193,0.004093762986501679
1772522024650114600,3.052114501953125,0.051202363970875735,0.0036722039730288088,0.002380775923002511
1772522024660110600,3.062110595703125,0.03488835802972316,-0.0012772533942013978,0.0003967350994702428
1772522024670107600,3.072107666015625,0.03788520175814628,0.0019290501001290976,0.0010223105187527836
1772522024680104400,3.0821044921875,0.03085048081576824,-0.0059106488158926366,0.005130312093161046
1772522024690100500,3.0921005859375,0.05075052855014801,0.0029617906813509762,0.0062938851129729296
1772522024700097500,3.10209765625,0.05733341407179832,0.0026826266800984737,-0.0019889544606674463
1772522024710094300,3.11209423828125,0.051797991776466365,-0.002528166770748794,0.0015052808632608503
1772522024720091600,3.122091552734375,0.048210196417570114,0.0011162724125199019,0.006837262141518295
1772522024730087400,3.13208740234375,0.05718728359937667,0.0053457266758196054,0.003936891924357041
1772522024740084700,3.142084716796875,0.05479191289544105,-0.0032685550755821168,0.0010832651920616625
1772522024750081500,3.15208154296875,0.03713116852045059,-0.00010826441375538707,0.003911236893292517
1772522024760078300,3.162078369140625,0.03293780848383903,-0.0076554831892251965,-0.0011615637258160858
1772522024770074600,3.17207470703125,0.04670622159540653,-0.002365194761380553,0.010196299378992989
1772522024780071400,3.182071533203125,0.05239128149449825,-0.0050193625319749115,0.0007344517543911934
1772522024790068700,3.19206884765625,0.05283844074010849,-0.002841196508985013,0.004897288788575678
1772522024800064500,3.202064453125,0.051342649224400516,-0.0009378288393840194,0.0014335947333835065
1772522024810061600,3.2120615234375,0.04041559701859951,0.001066533252969384,-0.001751693372381851
1772522024820058600,3.22205859375,0.041160862427949904,-0.00040037922812625765,0.004990976687707007
1772522024830055400,3.232055419921875,0.043104982233047484,0.00518704724907875,-0.0031313294288236645
1772522024840051700,3.2420517578125,0.026644261297583578,-0.0060341838640160855,-0.0013468754311557858
1772522024850048500,3.252048583984375,0.04100830221474171,0.0032577414206229147,-0.0038225539628416296
1772522024860045300,3.26204541015625,0.03801555013954639,0.0004763670737855136,-0.004379712921567261
1772522024870041600,3.27204150390625,0.04893441903889179,0.00751859546918422,-0.005541806370345875
1772522024880038400,3.282038330078125,0.06240297242105007,-0.00027874387614428996,-0.011299666644167154
1772522024890035700,3.29203564453125,0.027091420543193814,-0.00562713743308559,-0.006615984073653817
1772522024900032500,3.302032470703125,0.03861059342324733,0.0015640527126379311,-0.004278115710616112
1772522024910028500,3.312028564453125,0.0549205077111721,0.005509666799567639,-0.005281922458298504
1772522024920025600,3.322025634765625,0.04474573517739772,-0.0004991816937923431,-0.010352211459912358
1772522024930023200,3.332023193359375,0.05073240837156772,-0.002685147430747747,-0.007398686283407732
1772522024940020000,3.34202001953125,0.039509003567695614,-0.0010633549151942132,-0.006402103860955685
1772522024950016300,3.352016357421875,0.04100596412718296,-0.004087963433377444,-0.003411589408619329
1772522024960013000,3.362012939453125,0.050881461453437804,0.000729008394293487,0.0003555902383290231
1772522024970010400,3.37201025390625,0.05178220968544483,0.0025102657878771422,0.0009784622438717633
1772522024980006100,3.382006103515625,0.049535892063379286,0.006674637192022055,-0.007823076574783771
1772522024990003200,3.392003173828125,0.04444821353554725,0.004065769867878407,0.009161914829956368
1772522025000000300,3.402000244140625,0.05103460618853569,-0.0051814029595814645,0.00095042345947586
1772522025009997000,3.4119970703125,0.062408817639946934,-0.00008037175983190536,0.0025317561004776505
1772522025019993300,3.421993408203125,0.05672083513140678,-0.000006922931130975484,-0.008143001844687386
1772522025029990100,3.431990234375,0.04131166907548904,-0.0023338680413551626,0.0083277290281374
1772522025039987200,3.4419873046875,0.03517828088700771,-0.002323620641976595,0.006767594438791275
1772522025049984300,3.451984375,0.03877016789913177,0.0007592026031576096,0.0005946688243653625
1772522025059980000,3.46197998046875,0.05149111778438091,0.0019231683486141263,0.006048468117695302
1772522025069977300,3.471977294921875,0.04700140514969826,-0.002456836833897978,0.009711237542098388
1772522025079974100,3.48197412109375,0.04984101248979568,-0.0019831914401613176,0.008946472847834229
1772522025089970200,3.49197021484375,0.05851707089841365,0.0031882929136045277,0.010472348974552004
1772522025099967200,3.50196728515625,0.05283084195554256,-0.00016140110678970813,0.007250966642098501
1772522025109964000,3.511964111328125,0.05567395642697811,0.006243808026704937,0.006339039428951219
1772522025119961300,3.52196142578125,0.05702011033892631,0.000259619050566107,-0.0007260949179995805
1772522025129957000,3.53195703125,0.061061494684219356,-0.009987780328001827,0.00644301126007922
1772522025139954200,3.5419541015625,0.051931847289204594,0.004521897871233522,-0.004577217388199642
1772522025149951200,3.551951171875,0.04579378292560577,0.004909691612422466,-0.009606096667191014
1772522025159948000,3.561947998046875,0.04265256229043007,-0.0009140643713064492,0.0015576503713149576
1772522025169944300,3.5719443359375,0.04369768742918968,0.005068517169635743,-0.00876717075817287
1772522025179941000,3.581941162109375,0.03950841904580593,0.003928571620583534,-0.0022666023582685736
1772522025189938400,3.5919384765625,0.037116555473208426,-0.004370141375623643,0.0033299390071537343
1772522025199934200,3.601934326171875,0.052526890572905535,-0.003667637395765632,0.003014616847131401
1772522025209931000,3.611930908203125,0.06658814915120602,0.005988719020783901,-0.01661889803870581
1772522025219928300,3.62192822265625,0.0549164160579443,0.0013142792026512324,-0.008703722733678296
1772522025229925000,3.631925048828125,0.03351823872029781,0.0040673042378388344,0.0031221962742973117
1772522025239921200,3.641921142578125,0.04039923040568828,0.002936784104257822,0.001876187401730567
1772522025249918200,3.651918212890625,0.05476444036662578,0.010572156087215989,-0.00440340432440862
1772522025259915000,3.6619150390625,0.05641279209554195,0.0018352891357615588,-0.007761299917567521
1772522025269912300,3.671912353515625,0.04653671024739742,-0.005757942472212016,-0.0033764724294655024
1772522025279908000,3.681908203125,0.039651626908779145,-0.0041936340312473475,0.000010576192941516637
1772522025289905400,3.691905517578125,0.02678454655110836,-0.009930241454485803,-0.007540825567301362
1772522025299902200,3.701902099609375,0.04549450771808624,0.002312258997745812,-0.006231660931184888
1772522025309898200,3.711898193359375,0.04594809670448303,0.008010488905664533,-0.002355796745372936
1772522025319895300,3.721895263671875,0.05088847571611404,-0.00045908714542165394,-0.004548694546613842
1772522025329892000,3.73189208984375,0.04146247572302818,-0.004228193887975067,-0.001523574571777135
1772522025339889400,3.741889404296875,0.04535422246456146,0.00452701243776828,-0.0018478654895443469
1772522025349885200,3.75188525390625,0.039813539472222326,0.00510380767872557,0.0012163261203560977
1772522025359882200,3.76188232421875,0.048041854113340374,-0.0024028050917200743,0.005137207624828443
1772522025369879300,3.77187939453125,0.043400165787339205,-0.006633117871545254,0.0004319251438602805
1772522025379876000,3.7818759765625,0.04235562517046928,0.003595156681444496,0.0008094075535889715
1772522025389872400,3.791872314453125,0.040862756264209744,0.0030552593847736715,0.0010668529133778064
1772522025399869200,3.801869140625,0.04565232862830162,-0.000019216157123446463,0.0030022231564391403
1772522025409866000,3.811865966796875,0.04954232180416584,-0.0017835589485242962,-0.0007335841047111898
1772522025419862300,3.8218623046875,0.055229719790816305,-0.0007786014233715832,-0.0013172109452541916
1772522025429859000,3.831859130859375,0.05732464624345302,0.0053430049957707525,-0.0011734642261639237
1772522025439856400,3.8418564453125,0.05462883128821849,0.002437090953812003,-0.005557807657076045
1772522025449853200,3.851853271484375,0.04968845227658748,-0.0018796580004505812,0.006254776945291087
1772522025459849200,3.86184912109375,0.044750411352515215,0.005973247457016259,-0.0005158223013393581
1772522025469846300,3.87184619140625,0.05627367588579654,-0.001760652996972203,0.0006721545073669403
1772522025479843000,3.881843017578125,0.04549859937131404,-0.007591825102176517,0.0008943184912204742
1772522025489840400,3.89184033203125,0.04295476010739803,-0.004476159033365548,-0.006458190562902018
1772522025499836200,3.901836181640625,0.04415244545936584,0.0046408298094756896,-0.0064330926542636
1772522025509833200,3.911833251953125,0.030087679749727248,0.0047522177620790895,0.0031588658897206186
1772522025519830300,3.921830322265625,0.03802314892411232,-0.001261544368416071,0.0009899152196478098
1772522025529826000,3.931825927734375,0.03787468036413193,-0.0017480309774167834,-0.007328863317053765
1772522025539823400,3.9418232421875,0.04296352793574333,-0.0023943660569377243,-0.00012402823846787214
1772522025549820200,3.951820068359375,0.03652735740840435,0.004462532366812229,-0.00789655280294828
1772522025559817200,3.961817138671875,0.04640577734410763,0.0027520386544987556,-0.0018334442385472356
1772522025569813200,3.971813232421875,0.05658230344355106,-0.002117174817062914,0.0017600776082370428
1772522025579810000,3.98181005859375,0.05179565368890762,0.003498546172864735,0.0028136326486244796
1772522025589807400,3.991807373046875,0.05329027616083622,-0.002759856634773314,0.0017022373406216501
1772522025599803100,4.00180322265625,0.035333763709664345,0.0012708053871057926,0.004663406967464834
1772522025609800200,4.01180029296875,0.039972529426217075,-0.00398497798293829,-0.008812233742605894
1772522025619797200,4.02179736328125,0.05403729513585567,-0.0031207075701095164,-0.004607703858008608
1772522025629794000,4.0317939453125,0.04760346269607544,0.0025886099874041974,0.0005321523816324771
1772522025639790300,4.041790283203125,0.047003743237257,0.0020667963366955517,-0.0021631967827212065
1772522025649787100,4.051787109375,0.042214755395054815,-0.0047663558852858836,-0.0030509942016098647
1772522025659784200,4.0617841796875,0.04820142858922481,-0.01029017907436937,-0.002329575458727777
1772522025669781200,4.07178125,0.05448386985957622,0.006523702680319547,-0.0007868486619088799
1772522025679777000,4.081777099609375,0.051341480180621145,0.0033556671034544704,0.0036719756441656497
1772522025689774300,4.0917744140625,0.040268297502398485,0.001810574819613248,-0.0006926401729695498
1772522025699771100,4.101771240234375,0.04879705639481544,0.0019556823787279425,0.003591485153324902
1772522025709767200,4.11176708984375,0.0547854831546545,0.0024775508283637463,-0.00020338621814735232
1772522025719764200,4.12176416015625,0.05717851577103138,0.0022354674344882367,-0.002444470542669296
1772522025729761000,4.131760986328125,0.05179331560134887,-0.001256502867117524,-0.0019471428792458027
1772522025739758300,4.14175830078125,0.04790390694737434,-0.007596957935020327,-0.004165558714233339
1772522025749754000,4.151754150390625,0.04012508963942527,-0.008605952314473688,0.0007723908782936632
1772522025759751400,4.16175146484375,0.04865267948806286,-0.007960420952551067,0.006100417500641196
1772522025769748200,4.171748291015625,0.04536474385857582,-0.0008778605467639862,-0.0021279976051766423
1772522025779745000,4.1817451171875,0.04282207363843918,0.00619521964462474,0.009101343749137595
1772522025789741300,4.1917412109375,0.044319034197926516,0.0009394362745806575,0.002392027969378978
1772522025799738000,4.201738037109375,0.049856210058927534,0.0020984153176657853,0.003688260058686137
1772522025809735400,4.2117353515625,0.04761106148064136,0.003122479402087629,0.00005399520955979824
1772522025819731200,4.221731201171875,0.05524316379427909,0.00395021719681099,-0.001887055855616927
1772522025829728000,4.23172802734375,0.0422241077452898,-0.0027549612639471885,-0.002938263675291091
1772522025839725300,4.241725341796875,0.04596095618605613,-0.008723313350137322,-0.004513467969605699
1772522025849722000,4.25172216796875,0.044913492959737775,-0.0037708603082224723,-0.006877000496862456
1772522025859718100,4.26171826171875,0.04252162938714027,-0.006936155938729644,-0.005318016684986651
1772522025869715200,4.271715087890625,0.046264907568693156,-0.00047837636778131124,-0.0014247995055746286
1772522025879712000,4.2817119140625,0.03953530705273151,0.0011878763440065084,-0.0055144434393849225
1772522025889709300,4.291709228515625,0.038491350957751275,0.003144928695913404,-0.0035147392558399584
1772522025899705000,4.301705078125,0.04911620534658432,-0.007753317540511489,0.0012160521257203072
1772522025909702400,4.311702392578125,0.03999006508290767,0.0015561981997452676,-0.002404659122088924
1772522025919699200,4.32169921875,0.04223521366119384,-0.00006122866794466973,-0.0015868490663357077
1772522025929695200,4.3316953125,0.05435644408762454,0.002225073904637247,-0.0031473489818628878
1772522025939692000,4.341692138671875,0.041488779208064076,-0.0031104601707309483,-0.005119900297001004
1772522025949689000,4.351689208984375,0.04358429018259048,-0.006149864399246871,-0.00229300630800426
1772522025959686100,4.36168603515625,0.046727264383435246,0.00282099397117272,0.00012356244758702814
1772522025969682000,4.371681884765625,0.03864741830229759,-0.0011687697847373782,-0.009963796664215624
1772522025979679200,4.38167919921875,0.04328676854074001,-0.0028538002622313795,-0.005600203760387375
1772522025989676000,4.391676025390625,0.04209083675444126,-0.009379475703928618,0.009023867199290544
1772522025999673000,4.401673095703125,0.05151742126941681,-0.0004017492013052106,0.00028017778140492736
1772522026009669000,4.411669189453125,0.05285831448435783,-0.0016835874390788376,0.0019557371776551006
1772522026019666200,4.421666259765625,0.039841012001037596,-0.004188629062566906,-0.002440945145022124
1772522026029663000,4.4316630859375,0.039841012001037596,0.0011014036369509995,-0.004976856830809265
1772522026039659000,4.441658935546875,0.0396925434410572,0.002512512543890625,0.001567623776057735
1772522026049656000,4.451656005859375,0.05465630381703376,0.0032606274974532425,0.005933271639654412
1772522026059653000,4.461653076171875,0.04941548055410385,-0.003645297699794173,0.004481428863527253
1772522026069650200,4.471650146484375,0.046722003686428065,-0.007228964872844517,0.003772677805973217
1772522026079646200,4.481646240234375,0.04986556240916252,-0.0017778050611726938,-0.0021070370155386623
1772522026089643000,4.49164306640625,0.03893967924714088,-0.00414794999230653,-0.007607415396953001
1772522026099640000,4.50164013671875,0.047620998352766036,-0.006022310763131827,-0.003967835051892325
1772522026109637000,4.51163720703125,0.04911386725902557,-0.005657843098603189,0.0005196308267768472
1772522026119633000,4.5216328125,0.05106149419546127,-0.00427203302970156,0.002777355758845806
1772522026129630200,4.531630126953125,0.04792202712595463,0.0016059921582229435,0.006397162824356928
1772522026139627000,4.541626953125,0.0346036958694458,-0.009044946519937366,-0.002494438031082973
1772522026149623000,4.551623046875,0.047474867880344385,-0.003276866246201098,-0.0007863189389463514
1772522026159620000,4.5616201171875,0.04762333644032478,-0.0028334515939466656,-0.0023381240913644434
1772522026169617200,4.5716171875,0.05465396572947502,0.0050040918976068495,0.006222208116250112
1772522026179614000,4.581614013671875,0.052556116667389866,0.006906911577936261,0.007528879401180893
1772522026189610000,4.59160986328125,0.04687222581207752,-0.0010166662292554975,-0.010155967368604614
1772522026199607000,4.60160693359375,0.04941489603221416,-0.005290379759389906,-0.0007483250161167234
1772522026209604000,4.61160400390625,0.049561026504635806,0.00016056085657328365,0.002998387231538072
1772522026219600000,4.621599853515625,0.045668695241212844,-0.005430701545532792,-0.002386201016791165
1772522026229597200,4.63159716796875,0.048510640668869016,-0.010306162094790489,0.002842785677872598
1772522026239594000,4.641593994140625,0.04985854814648628,0.00027994945254176853,-0.004124879643972963
1772522026249591000,4.651591064453125,0.042974633851647376,0.0016996617910452186,-0.007872925332188606
1772522026259587000,4.661587158203125,0.048810500398278237,0.000207596602384001,-0.00592791961110197
1772522026269584100,4.671584228515625,0.05718903716504573,-0.004064399894699454,-0.005470083707850426
1772522026279581200,4.681581298828125,0.038783027380704875,0.004126505345478653,-0.011343030861858278
1772522026289578000,4.691577880859375,0.03459434351921081,-0.001067592698894441,-0.00853232082268223
1772522026299574000,4.701573974609375,0.044320787763595576,-0.001350428228266537,0.000030038945237174627
1772522026309571000,4.711571044921875,0.04836041854321956,0.006919442265946417,-0.001288076182315126
1772522026319568100,4.721568115234375,0.04477028509676456,0.008202486080117524,-0.009235902514774352
1772522026329564200,4.731564208984375,0.04462006297111511,-0.0010705701072700321,-0.008837651311652735
1772522026339561000,4.74156103515625,0.05165419939160347,-0.006698566056881099,-0.005422207711823284
1772522026349558000,4.75155810546875,0.04851005614697933,-0.0016744177519343792,0.0005746306833345442
1772522026359555000,4.76155517578125,0.04581541023552418,-0.0023374665042385457,-0.004930570003669709
1772522026369551000,4.771551025390625,0.05225158076286315,0.0005707125600427389,-0.007048512005712836
1772522026379548200,4.781548095703125,0.0467161584675312,0.002757427215669304,0.005087888590386137
1772522026389545000,4.791544921875,0.0504588521271944,0.005618607066757977,0.0015815975024830549
1772522026399542000,4.8015419921875,0.04926467390656471,-0.0026031317031010985,-0.002587230881070718
1772522026409538000,4.8115380859375,0.042678281253576276,-0.00010282105365768074,-0.00018418832733295857
1772522026419535000,4.82153515625,0.05255202501416206,-0.005735018254350871,0.004952206446742638
1772522026429532200,4.8315322265625,0.05719079073071479,-0.0029083617273718116,0.004316566291172057
1772522026439528000,4.84152783203125,0.050154900744557376,0.0000011142448522150516,-0.005952268601069227
1772522026449525000,4.85152490234375,0.04372106830477714,-0.009469583406485616,-0.004772447699354961
1772522026459522000,4.86152197265625,0.03833469909131527,0.00008791574547067284,0.004935209646169096
1772522026469519000,4.87151904296875,0.03698971422314644,0.0011133315367624164,0.004397942698001861
1772522026479515100,4.88151513671875,0.04596855497062206,-0.00640382089400664,-0.0032456765234936025
1772522026489512000,4.891511962890625,0.049857963624596595,-0.007664251017570495,0.002492684465413913
1772522026499509000,4.901509033203125,0.05838613799512386,0.0009923355055972934,0.000704239279218018
1772522026509506000,4.911506103515625,0.04985679458081722,-0.003824654588382691,0.0033874413480516523
1772522026519502000,4.921502197265625,0.04417231920361519,0.001598703900910914,0.001888297964632511
1772522026529499100,4.9314990234375,0.05524491735994815,-0.0022928967101499436,-0.00427068132283166
1772522026539496200,4.94149609375,0.04671440490186214,-0.0027210041954182085,-0.013449784749606623
1772522026549492200,4.9514921875,0.05419570056796073,-0.00249276666380465,-0.007089291540673002
1772522026559489000,4.961489013671875,0.05434416912794113,-0.0051644883573986585,-0.002520047396374866
1772522026569486000,4.971486083984375,0.05179565368890762,-0.004101023844350129,0.0059172794860787685
1772522026579483100,4.981483154296875,0.047157472494244575,-0.005020275847427547,0.004269174352334812
1772522026589479000,4.99147900390625,0.052395957669615745,-0.011192735670972615,-0.00737946099312976
1772522026599476200,5.001476318359375,0.04850654901564121,-0.002651336492691189,-0.0020485848265700043
1772522026609473000,5.01147314453125,0.04985094936192035,0.0022467194808647034,0.007970741417165845
1772522026619470000,5.021469970703125,0.0420674558788538,0.005084408858511596,-0.001441787172993645
1772522026629466000,5.031466064453125,0.04819733693599701,-0.00011652078544721007,0.007884186511719599
1772522026639463200,5.041463134765625,0.051640755388140676,-0.004639733830932528,-0.0013129092294722794
1772522026649460000,5.0514599609375,0.04984978031814098,-0.0038595797712914644,-0.004007436409918591
1772522026659456000,5.0614560546875,0.04701017297804355,-0.00238779018567875,0.005895031121652573
1772522026669453000,5.071453125,0.04476794700920581,0.0029349026744253932,0.005814823758602142
1772522026679450000,5.0814501953125,0.06047989540398121,-0.0008698416370898484,-0.0003265011411625892
1772522026689447200,5.091447265625,0.04805938977003097,-0.0025633294156752525,-0.004952105982042849
1772522026699443200,5.101443115234375,0.037135260173678394,-0.0009924451034516095,-0.005665067423833534
1772522026709440000,5.11143994140625,0.03833294552564621,-0.0008753580624237656,0.0006160678054206073
1772522026719437000,5.12143701171875,0.05299509260654449,-0.0037090105857700106,-0.007319538366282358
1772522026729433000,5.13143310546875,0.05688625482618809,0.0007908033178187907,0.0009575473200064152
1772522026739430100,5.14143017578125,0.04865735566318035,-0.0028062530597671863,-0.008549271957483142
1772522026749427200,5.15142724609375,0.041921909928321836,-0.004885397421382367,-0.004153101091459393
1772522026759424000,5.161424072265625,0.0476093079149723,-0.007112462353706359,-0.009599429464386775
1772522026769420000,5.171419921875,0.04970014271438122,0.0005152925783768296,-0.004280125004611909
1772522026779417000,5.1814169921875,0.047753100299835205,0.0030026158820837734,-0.004297267935657874
1772522026789414100,5.1914140625,0.051042789494991296,-0.0027532259645871816,-0.004937620798964053
1772522026799411000,5.201410888671875,0.04176408901810646,-0.004566577263176441,-0.004149749223748222
1772522026809407000,5.211406982421875,0.05148761065304279,0.002933861494809389,-0.00815301178204827
1772522026819404000,5.221404052734375,0.058819853237271305,0.0005630772428587079,-0.0020009919583331794
1772522026829401000,5.231401123046875,0.04370294812619686,-0.004075012620259076,-0.003986055695172399
1772522026839397000,5.241397216796875,0.03173193982541561,-0.0019120624327100813,-0.0045062801769934595
1772522026849394200,5.251394287109375,0.041160862427949904,0.005009261263068765,-0.014086018560221418
1772522026859391000,5.261390869140625,0.061063248249888416,-0.0025142843758687375,-0.013954985192231832
1772522026869388000,5.271387939453125,0.05268588052690029,-0.00980431351987645,-0.014261493858136236
1772522026879384000,5.281384033203125,0.031140403673052788,-0.0010084646564908325,-0.007597880383627489
1772522026889381000,5.291381103515625,0.04879705639481544,-0.0012718830993399023,-0.005799014268117025
1772522026899378200,5.301378173828125,0.048048283854126926,-0.004877926500979811,-0.004646373634273186
1772522026909375200,5.311375244140625,0.049093993514776224,0.0002613726162351668,0.004704734491696581
1772522026919371000,5.32137109375,0.040863340786099434,0.001072122743539512,-0.007371186355128884
1772522026929368000,5.3313681640625,0.03383095793128013,-0.01072338285986334,-0.00804946007602848
1772522026939364900,5.34136474609375,0.04325695792436599,0.0038075573231093583,-0.0037526670644059774
1772522026949361000,5.35136083984375,0.033383798685669895,0.004784603928029537,0.006826832079049199
1772522026959358000,5.36135791015625,0.050590369552373886,-0.0004017492013052106,0.0022747673984151334
1772522026969354800,5.371354736328125,0.05702537103593349,-0.008150098305754363,0.0011741309464443474
1772522026979352000,5.38135205078125,0.04311082745194435,-0.014628573604859411,0.005736306029139086
1772522026989347800,5.391347900390625,0.05029460147619247,-0.004128806900419294,0.010732433815998955
1772522026999345200,5.40134521484375,0.04834931262731552,0.00441177029395476,0.020024231236474586
1772522027009342000,5.411342041015625,0.04430909732580185,0.0005726853214204311,0.014238140382012352
1772522027019338000,5.421337890625,0.04490706321895122,0.0011493344319052994,0.012091072750184685
1772522027029335000,5.4313349609375,0.046401101168990135,-0.002669785464834422,0.005729054304445162
1772522027039331800,5.441331787109375,0.037725627282261844,-0.0016201302814297378,0.010117617252748458
1772522027049329200,5.4513291015625,0.040566403666138645,0.0022607297399081286,0.010455269975587725
1772522027059325000,5.461324951171875,0.04819382980465889,0.0030891981869935986,0.0007538049088325351
1772522027069322000,5.471322021484375,0.059715340772271155,0.002033241126965731,-0.007249395739519968
1772522027079319000,5.481319091796875,0.03966156378090381,0.004913545803632587,0.005066316079394891
1772522027089315800,5.49131591796875,0.029187516039609906,-0.001213869301788509,-0.011946905905986203
1772522027099312000,5.50131201171875,0.04654372451007366,0.0034791473526507616,-0.0004834452685434371
1772522027109309000,5.511308837890625,0.04489478825926781,0.003823576876148581,-0.001068679544283077
1772522027119305700,5.5213056640625,0.04803776246011257,-0.0009749277130700647,-0.008192722737928851
1772522027129302000,5.531302001953125,0.04115267912149429,-0.00585795051427558,0.001913322808034718
1772522027139298800,5.541298828125,0.0468383235424757,-0.003488481436576694,-0.008942244197288528
1772522027149296000,5.551296142578125,0.05611176332235336,-0.004904120388161391,-0.010116000684397294
1772522027159293000,5.56129296875,0.033064065212011336,-0.0024856793358922005,-0.005183914577076211
1772522027169289000,5.5712890625,0.036653614136576654,-0.0014888503182679414,0.0015823281548451632
1772522027179286000,5.5812861328125,0.04802724106609821,-0.004674878209549933,-0.010215469870343804
1772522027189282800,5.59128271484375,0.05520984604656696,0.003161423172987997,-0.016201302814297377
1772522027199280000,5.601280029296875,0.04278934041261673,0.004315835638809949,-0.011964879954094067
1772522027209276000,5.61127587890625,0.04503039733767509,0.0018524411999620495,-0.005960378842288628
1772522027219273000,5.62127294921875,0.04921908119916916,0.0003474251981824636,-0.00950062699872069
1772522027229270000,5.63127001953125,0.048320671054720876,0.0003289579597301781,-0.007595971554331481
1772522027239265800,5.641265869140625,0.051314592173695564,-0.0002088935103267431,-0.008542851349851116
1772522027249263000,5.65126318359375,0.05445931994020939,0.007434643512777984,-0.009327197527419775
1772522027259260000,5.661260009765625,0.05056698867678642,0.003156838329415768,-0.014434768065810203
1772522027269257000,5.671257080078125,0.04368248986005783,0.0012394786670804022,-0.009409560314938425
1772522027279253000,5.6812529296875,0.04592413130700588,-0.004280307667702436,-0.00591161693027243
1772522027289249800,5.691249755859375,0.05250760135054588,-0.00003483385136350989,0.0000969575684517622
1772522027299247000,5.7012470703125,0.05624561883509159,0.0011655914469622076,-0.0008210523256100714
1772522027309244000,5.711243896484375,0.04247895928919315,-0.0011178250487893818,-0.005650472642900422
1772522027319240000,5.721239990234375,0.040083588585257526,0.0021855821444652975,0.0026596293970011175
1772522027329238000,5.731238037109375,0.05459843614995479,-0.0009272161138243973,0.002725150647573173
1772522027339235000,5.741235107421875,0.049210313370823856,-0.0003772358145564794,-0.004887013989733532
1772522027349231900,5.75123193359375,0.05908405713140964,-0.002730374811962247,0.002949789716303348
1772522027359228000,5.761227783203125,0.052500002565979954,0.0011360913578420877,0.0027822876622900367
1772522027369225000,5.771224853515625,0.05130348625779152,-0.004663096440210938,0.0016574940165970473
1772522027379222000,5.781221923828125,0.046965164792537685,0.00005361161706969142,-0.00042770562646910544
1772522027389219000,5.791218994140625,0.04217676147222519,-0.0029537352390587327,0.0016182945173699409
1772522027399215000,5.801215087890625,0.04681786527633667,-0.002185673476010561,0.004616152025945485
1772522027409212000,5.8112119140625,0.04816635727584362,0.0002777940280735493,0.0028092304681427774
1772522027419209000,5.821208984375,0.06582476356327534,0.006607581571489572,-0.0006321786900050938
1772522027429205000,5.831205078125,0.0689671532422304,0.0032804099101573225,0.0017610457226168363
1772522027439201800,5.841201904296875,0.0370914210319519,-0.0004423917389474809,-0.0016506441507022826
1772522027449198800,5.85119873046875,0.037845454269647597,0.0043591633238829666,0.001271353376377374
1772522027459196000,5.86119580078125,0.029168811339139938,-0.003351082259882241,-0.008258673246763645
1772522027469192000,5.87119189453125,0.03680032913088798,-0.004071943880338221,0.008397688991809264
1772522027479189000,5.88118896484375,0.056550154739618295,-0.001554061041586101,0.00466411935351789
1772522027489186000,5.89118603515625,0.05176292046308517,-0.004093077999912202,-0.005438373395334929
1772522027499182000,5.90118212890625,0.049669747576117515,0.00196302543496713,-0.0009408793129958211
1772522027509179000,5.911178955078125,0.055956280499696726,0.006578501607477664,0.0015739804516080767
1772522027519176000,5.921176025390625,0.060444239568710326,0.004517386092897504,-0.010313970941910519
1772522027529173000,5.931173095703125,0.04892331312298774,0.00147763480450958,-0.008479814317310229
1772522027539168800,5.941168701171875,0.04757423660159111,0.0020085085445083676,-0.009270243175793438
1772522027549166000,5.951166015625,0.04563187036216259,0.00042829014835879206,-0.008310257303528487
1772522027559163000,5.961162841796875,0.04413900145590305,0.0020677827173843978,-0.0055716626524925225
1772522027569160000,5.971159912109375,0.049077626901865005,-0.002526066145207733,-0.011616039116960018
1772522027579156000,5.981156005859375,0.04892974286377429,-0.002717515330389142,-0.011218326769955456
1772522027589153000,5.991153076171875,0.04892974286377429,-0.0030801380977034565,-0.007731589765893295
1772522027599149800,6.00114990234375,0.04398819480836391,-0.0049256198339164255,-0.014109372036345302
1772522027609145900,6.011145751953125,0.042788171368837356,0.002498758013173938,-0.013614510324643924
1772522027619143000,6.021142822265625,0.047128246399760244,0.0071090465539135035,-0.008963560979953036
1772522027629140000,6.031139892578125,0.05805296051800251,0.005200381654687226,-0.007398786748107522
1772522027639137000,6.041136962890625,0.05491115536093712,-0.0038130737484432754,-0.0013435966286808251
1772522027649133000,6.051133056640625,0.05221709397137165,-0.0005298325603827834,-0.0010734287846367806
1772522027659129900,6.0611298828125,0.040544191834330556,0.005579754627402871,-0.0005645750802010297
1772522027669127000,6.071126953125,0.043539866518974304,0.0007497954539954662,-0.00011580839939415454
1772522027679124000,6.0811240234375,0.0483282698392868,-0.002994122048374265,0.008561400786694139
1772522027689120000,6.0911201171875,0.04683656997680664,0.0037502376453019677,0.0005813344187568873
1772522027699117000,6.101116943359375,0.04848609074950218,0.004425159498490393,-0.0006116930244024842
1772522027709113900,6.11111376953125,0.043697102907299994,0.006819306359719485,0.005199514005007222
1772522027719110000,6.12110986328125,0.03576572538614273,-0.0010506598304025829,-0.00046313313287682826
1772522027729107000,6.13110693359375,0.04115384816527366,-0.002230718194134533,0.005958250817283988
1772522027739104000,6.14110400390625,0.05656710587441921,-0.00763201098209247,0.002519517673412338
1772522027749100800,6.151100830078125,0.06001052432656288,-0.0023531207310967146,0.000772126016812399
1772522027759096800,6.161096923828125,0.04041033632159233,-0.003168218239955604,0.009649323887564242
1772522027769094000,6.171093994140625,0.04295826723873615,-0.004545607540383935,-0.0064448744236025955
1772522027779091000,6.181091064453125,0.04325988053381443,-0.00022613690607249735,-0.004961056473478675
1772522027789087000,6.1910869140625,0.058220718300342554,-0.005695782222505659,0.002688124839123338
1772522027799084000,6.201083984375,0.05059095407426357,0.0007324059277772903,-0.004842270665708929
1772522027809080800,6.211080810546875,0.038920390024781225,-0.00015937354648485778,-0.0009959157021716236
1772522027819078000,6.221077880859375,0.049994157224893566,8.767828345298767e-7,-0.0027353341148700565
1772522027829074000,6.231073974609375,0.05568564686477184,0.006138393157161772,0.0020471965870819983
1772522027839071000,6.241071044921875,0.043864276167750356,0.000840505944751203,0.0036162999341730027
1772522027849068000,6.251068115234375,0.04191957184076309,-0.0031828495535068213,-0.005586622759606689
1772522027859065000,6.261065185546875,0.05119885683953762,0.0002732457171194255,-0.003507743259472772
1772522027869061000,6.27106103515625,0.06167348910272121,0.005075714095402509,-0.00559007509201765
1772522027879058000,6.281057861328125,0.054936874324083326,-0.0012509133765473961,-0.017733563016029075
1772522027889055000,6.291054931640625,0.04805529811680317,0.005143536900915205,-0.005241444317437708
1772522027899052000,6.301052001953125,0.04461480227410793,-0.005663213393464684,0.004934689056361094
1772522027909047800,6.3110478515625,0.047458501267433166,-0.000470320925489068,0.008067662452999502
1772522027919044900,6.321044921875,0.05972936929762363,0.0010430975784547626,-0.006521245861751958
1772522027929042200,6.331042236328125,0.04506780673861503,-0.00440806223321706,-0.01659703326676972
1772522027939038200,6.3410380859375,0.031153263154625892,-0.0038205812014639375,-0.007327794737974181
1772522027949035300,6.35103515625,0.0389344185501337,0.00956175520196557,-0.00011227386859245598
1772522027959032300,6.3610322265625,0.050906595894694325,-0.00007438041046261786,-0.002989455006411299
1772522027969029000,6.371029052734375,0.05958908404409885,0.004107161324191838,-0.00310304404925555
1772522027979025200,6.381025146484375,0.048666123491525645,0.0022173289895989,-0.0013652696043718606
1772522027989022200,6.391022216796875,0.04447627058625221,-0.009049714026600122,0.0028935203512664882
1772522027999019300,6.401019287109375,0.05764204162955284,0.004487374547123908,0.0026932576719671487
1772522028009015000,6.41101513671875,0.05165595295727252,0.004104512709379196,-0.008338606615178287
1772522028019012000,6.42101220703125,0.06661971333324909,-0.006333532136771828,-0.0027773740251548587
1772522028029009200,6.431009033203125,0.06856383313834667,-0.008346753389015794,0.002312806987017393
1772522028039006200,6.441006103515625,0.03699088326692581,0.004164864594489336,0.005246714147599414
1772522028049002200,6.451002197265625,0.02591711606681347,-0.0016187785745598374,-0.0005377053395844996
1772522028058999300,6.460999267578125,0.05554302352368831,-0.005826842989958822,-0.0068568253585137426
1772522028068996000,6.47099609375,0.050155485266447065,0.0025136085224337873,0.0002015869867056608
1772522028078993200,6.4809931640625,0.04581599475741386,0.003418210945650935,0.005018065624032169
1772522028088989200,6.4909892578125,0.0511994413614273,0.0009825995628722011,0.0010469061038922518
1772522028098986200,6.500986328125,0.050749359506368635,-0.00013756357347592712,0.0006167436588555574
1772522028108983300,6.5109833984375,0.05284487048089504,0.006311283772345632,0.002327200838550925
1772522028118979300,6.520979248046875,0.04925006085932254,-0.005494578828290105,0.0028847159903030843
1772522028128976100,6.53097607421875,0.05284194787144661,-0.001271901365648955,0.0010071951480116696
1772522028138973200,6.54097314453125,0.046855274677276605,-0.008402958821970969,0.0056497785231564195
1772522028148970200,6.55097021484375,0.0459580335766077,-0.0027175883956253527,0.00047046705596148964
1772522028158966300,6.56096630859375,0.03593231412470341,-0.0006424808883108198,0.005549149426585063
1772522028168963000,6.570963134765625,0.042816812941432,-0.002068933494854718,0.0064296037892345335
1772522028178960100,6.580960205078125,0.04641162256300449,0.0088045070938766,0.003139649732597172
1772522028188957200,6.590957275390625,0.06377250720858574,0.004249035746604204,-0.002008855604380369
1772522028198953200,6.600953125,0.058684828680753705,-0.0025725721680559216,-0.0034510994351003316
1772522028208950300,6.6109501953125,0.052551440492272374,0.0031018019402399657,-0.002452051060926169
1772522028218947000,6.620947021484375,0.03953296896517276,0.0036298261360265312,-0.0007177837473805993
1772522028228943000,6.630943115234375,0.0320505042552948,-0.0016406068138778208,-0.004695902731269598
1772522028238940200,6.640940185546875,0.05988192951083183,-0.0018822518163360655,-0.0036458274227567015
1772522028248937200,6.650937255859375,0.053147068297863004,-0.005546656075399369,0.0017643701908644288
1772522028258934300,6.660934326171875,0.04626140043735504,-0.00006690949006006121,-0.0003618464491795748
1772522028268930300,6.670930419921875,0.051046881148219106,-0.0023887583000585435,-0.006089028456946834
1772522028278927000,6.680927001953125,0.04566051193475723,0.001892024291679263,-0.004799408771516755
1772522028288924200,6.690924072265625,0.03878010477125644,-0.007965992176812141,-0.0010155702507123352
1772522028298921200,6.700921142578125,0.03878010477125644,-0.001959006846975535,-0.006976551881199702
1772522028308917200,6.710917236328125,0.04865794018507003,-0.0034152700698934493,-0.007918837699992581
1772522028318914000,6.7209140625,0.05225274980664253,-0.008753964216727764,-0.006157143523404374
1772522028328911400,6.730911376953125,0.04941255794465541,0.0034740327861160036,-0.004793581818928942
1772522028338907100,6.7409072265625,0.045076574566960334,0.0024433745641261337,0.009632007426582276
1772522028348904200,6.750904296875,0.05405483079254627,0.0010853658176027238,0.00465713249030523
1772522028358901200,6.7609013671875,0.056448447930812835,0.0010402480342425406,0.004107060859492049
1772522028368898000,6.77089794921875,0.050612581384181975,0.004426328542269766,-0.0046316144565586
1772522028378894000,6.78089404296875,0.04746843813955783,0.004120130403619259,-0.002161991206323728
1772522028388891100,6.79089111328125,0.03983516678214073,-0.000865768250171095,-0.00037760114073753353
1772522028398888200,6.80088818359375,0.05195289007723331,0.0021050642541609703,-0.0044407315269578244
1772522028408885200,6.81088525390625,0.052553194057941434,-0.003026855274196714,-0.003023110680840909
1772522028418881300,6.82088134765625,0.04312485597729682,-0.009454915560316295,-0.003983251816732809
1772522028428878300,6.83087841796875,0.03534662319123745,0.00012132482472807168,0.004572541213082149
1772522028438875100,6.840875244140625,0.05180909769237041,0.002161580214370042,0.005263062494201586
1772522028448871200,6.85087109375,0.05794190135896206,0.004122925148904323,0.0011043810453265906
1772522028458868200,6.8608681640625,0.05794131683707237,0.0004414966898038983,0.005935134803177789
1772522028468865300,6.870865234375,0.05434767625927925,0.007881620095297694,0.007690280507970601
1772522028478862300,6.8808623046875,0.04312368693351745,-0.0044238808568567035,0.0056262149844784285
1772522028488858000,6.890858154296875,0.04791267477571964,0.000796922531351447,0.0019004815927706658
1772522028498855200,6.900855224609375,0.045368835511803624,0.004261274173669517,0.010166607493627815
1772522028508852200,6.910852294921875,0.03953530705273151,0.00037725408086553214,0.0027966997801326214
1772522028518849000,6.92084912109375,0.03983516678214073,0.001199018792528659,0.008576150831254199
1772522028528845300,6.93084521484375,0.0527028316617012,0.0037317521405406296,0.008638009686861186
1772522028538842000,6.940842041015625,0.054946811196208,-0.0011556363085284827,-0.0007631663922220469
1772522028548839200,6.950839111328125,0.04148118042349815,-0.003478635895997286,0.002841543568857014
1772522028558835200,6.960835205078125,0.052554947623610494,0.0003324650910682976,-0.0044003721171058715
1772522028568832300,6.970832275390625,0.043728667089343067,-0.006458784217946231,-0.001039252520399168
1772522028578829300,6.980829345703125,0.052260348591208455,-0.005451981795579194,0.014181633554957806
1772522028588826000,6.990826171875,0.04986614693105221,-0.002315839194320142,0.0037089740531519055
1772522028598822100,7.000822265625,0.051513329616189,0.005953976500965654,0.0002158347077667713
1772522028608819200,7.010819091796875,0.05091887085437774,0.0005486103260889649,0.005326254790369421
1772522028618816300,7.020816162109375,0.03610474808216095,0.0025978527397848665,-0.0014481986474711448
1772522028628813300,7.030813232421875,0.042241058880090714,-0.001456409353390336,-0.0005024970288854092
1772522028638809000,7.04080908203125,0.04089432044625282,-0.004756327681615948,0.0002539656279142946
1772522028648806100,7.05080615234375,0.06603402239978313,0.002535254098661244,-0.010556967651238664
1772522028658803200,7.06080322265625,0.05017068283557891,0.003617843437287956,-0.004628335654083639
1772522028668799200,7.07079931640625,0.03729892630279064,-0.00014443170567974447,0.008302256660163402
1772522028678796300,7.08079638671875,0.041189504000544545,0.0006175656427629292,0.001570783847523853
1772522028688793000,7.09079296875,0.05271043044626712,-0.005989413140527903,-0.006453669651411474
1772522028698790400,7.100790283203125,0.05630056389272212,-0.0027218261793255805,-0.006106609779410064
1772522028708786200,7.1107861328125,0.0576478868484497,0.0006054002809338272,-0.010252513945102692
1772522028718783200,7.120783203125,0.041783962762355804,0.00028718291092664003,-0.006403254638426005
1772522028728780300,7.1307802734375,0.05255377857983112,0.00023046602131798863,-0.011061209112638607
1772522028738776300,7.1407763671875,0.04507306743562221,-0.0019254699035547672,-0.009415195471281185
1772522028748773000,7.150773193359375,0.04836392567455768,-0.008932499121408909,0.003385706048691645
1772522028758770200,7.160770263671875,0.04581774832308292,-0.0026728359384462236,0.0017619773043785244
1772522028768767200,7.170767333984375,0.04806523498892784,-0.009091525608021766,-0.001230957433907315
1772522028778763300,7.18076318359375,0.03504734798371792,-0.0037609234360978004,-0.005888418717775494
1772522028788760000,7.190760009765625,0.029962007543444632,-0.0009992036378011107,-0.001503125438792631
1772522028798757400,7.20075732421875,0.04417816442251205,0.0027601123631000517,-0.002180622841557488
1772522028808754200,7.210754150390625,0.06333236222565174,0.000512223838455975,0.0011537548786960542
1772522028818750200,7.220750244140625,0.05300678304433822,-0.004429853939916939,0.0027419830513652414
1772522028828747300,7.230747314453125,0.04866553896963596,0.00006237944541499018,0.00008188786348327994
1772522028838744000,7.240744140625,0.060488078710436814,0.002194843163155019,-0.003127968427957967
1772522028848740000,7.250739990234375,0.058092708006501195,0.003816708743944764,0.0072573415839578955
1772522028858737200,7.260737060546875,0.039386253970861436,-0.0026409429628401994,-0.002285836781701073
1772522028868734200,7.270734130859375,0.04971475576162338,-0.00889881604751572,0.011101632454572245
1772522028878731300,7.280731201171875,0.05600187320709228,-0.00010978051740676164,0.003577027369709685
1772522028888727300,7.290727294921875,0.04074117571115494,-0.005225022905599326,-0.0014345080488361416
1772522028898724400,7.300724365234375,0.04957096337676048,0.0006868497529998422,-0.00636142479069531
1772522028908721200,7.31072119140625,0.04298515524566173,-0.0016237835432402789,0.0018257267229724674
1772522028918718200,7.32071826171875,0.048670215144753455,-0.004924121996574104,0.005185905604762956
1772522028928713700,7.330713623046875,0.05375964723825454,-0.00030407924680039285,0.008731460123974829
1772522028938710800,7.340710693359375,0.04956804076731205,0.0081979377691634,0.008173798841750249
1772522028948707800,7.350707763671875,0.042382513177394866,-0.004949713095556944,0.005200290323141962
1772522028958703900,7.360703857421875,0.033704116681218144,-0.003333820597827434,0.004585026235319673
1772522028968701000,7.370700927734375,0.050017538100481033,-0.0001232975861057639,-0.002316588112991303
1772522028978697700,7.38069775390625,0.0462760134845972,-0.00302764072548598,-0.0028573987251147626
1772522028988694800,7.39069482421875,0.04926701199412346,0.006120601772144437,-0.004135008312342688
1772522028998690800,7.40069091796875,0.04552431833446026,0.0013904497114010153,0.0005934906474314629
1772522029008687600,7.4106875,0.04522387408316135,-0.0034198549134656785,-0.009808067246386781
1772522029018685000,7.420684814453125,0.04492284530997276,-0.001404697432462126,-0.010120183669170365
1772522029028681700,7.430681640625,0.05584171420931816,0.002803933238517493,-0.0006218490922357886
1772522029038677800,7.440677734375,0.05329845946729183,0.0002789813381619751,-0.006581296352762728
1772522029048674800,7.4506748046875,0.05045826760530472,0.0012514978984370826,-0.010642490510223432
1772522029058671600,7.460671630859375,0.05016016144156456,-0.0017698226841166614,-0.0052131863373331725
1772522029068668000,7.47066796875,0.0553998156607151,0.0027373342757113276,-0.012843955210410058
1772522029078664700,7.480664794921875,0.05270633879303932,0.0070835467864759265,-0.009097270362218841
1772522029088661800,7.490661865234375,0.0516571220010519,-0.004002550172246992,-0.0036649979141075164
1772522029098658800,7.500658935546875,0.055097617843747136,-0.008400639000721275,-0.014080136808706447
1772522029108654800,7.51065478515625,0.049859132668375966,-0.00437187667498365,-0.010025290193641557
1772522029118652000,7.52065185546875,0.04252572104036808,0.0018538659720681607,-0.010997231365181505
1772522029128648700,7.530648681640625,0.05150631535351276,0.0006484357050620019,-0.010092875537136569
1772522029138645800,7.540645751953125,0.05823942300081253,-0.004114522646740079,-0.006833033490972593
1772522029148641800,7.550641845703125,0.056743046963214874,0.011516725194640457,0.004333864485844969
1772522029158638600,7.560638671875,0.036546646630764006,-0.0022483451823703945,-0.011402231969498097
1772522029168636000,7.570635986328125,0.04986439336538315,-0.0014190730176866053,-0.00041718423245474693
1772522029178631700,7.580631591796875,0.05615151081085205,0.0013333309629932045,0.0029123163832817226
1772522029188628700,7.590628662109375,0.04881926822662353,0.0006738258746452629,-0.0004394599963445216
1772522029198625800,7.600625732421875,0.03999123412668705,0.004429579945281148,0.0016980178232304751
1772522029208622600,7.61062255859375,0.050314475220441815,-0.0005085157777182757,0.00761435659439303
1772522029218619000,7.620618896484375,0.052556116667389866,-0.003448880078550428,-0.000292927665123716
1772522029228615700,7.63061572265625,0.05285656091868877,0.0056462257260456675,0.006008072175225243
1772522029238613000,7.640613037109375,0.045076574566960334,-0.0009452266945503651,0.0021942951738834378
1772522029248609800,7.65060986328125,0.040435470762848855,-0.008278766186721622,0.001636962685221806
1772522029258605800,7.660605712890625,0.045375849774479865,-0.006381919589452445,0.004131555979931727
1772522029268603000,7.670602783203125,0.05405541531443596,-0.005186736721824854,0.005502159346546977
1772522029278599700,7.680599609375,0.03834346691966056,-0.002908471325226128,0.0031596970067825168
1772522029288595700,7.690595703125,0.04447977771759033,-0.003945888081565499,0.004145073048630729
1772522029298592800,7.7005927734375,0.04851823945343494,-0.0008607084825634956,0.0000703252898529172
1772522029308589800,7.71058984375,0.04971592480540275,0.0003150207659229636,-0.0014068071911577135
1772522029318587000,7.7205869140625,0.05404840105175972,0.0012821122324094176,0.002725780835235491
1772522029328582700,7.730582763671875,0.06287351254224777,-0.008408657910395414,0.002516595063963905
1772522029338580000,7.740580078125,0.04805938977003097,0.00018081819331273435,0.003746703114500269
1772522029348576800,7.75057666015625,0.045963878795504565,-0.0009929017611779271,-0.00568573575252667
1772522029358573600,7.760573486328125,0.05060205999016761,0.0053096689817495645,-0.0038789694583509114
1772522029368569900,7.77056982421875,0.05524199475049972,-0.007826528907194734,-0.00031212555593810974
1772522029378566700,7.780566650390625,0.0595826543033123,-0.0054555802584625775,-0.004914203390758484
1772522029388564000,7.79056396484375,0.06601531769931315,-0.0007114727376028895,-0.010882208417076617
1772522029398559700,7.800559814453125,0.038481998607516284,0.006620696781389415,0.006342400429816916
1772522029408556800,7.810556884765625,0.04357143070101738,0.007284823245927691,-0.0031066881779115646
1772522029418553900,7.820553955078125,0.05224807363152504,-0.002354326307494193,-0.008088440379546955
1772522029428550700,7.830550537109375,0.048507133537530896,-0.0075856145570985965,-0.005513804118568077
1772522029438547000,7.840546875,0.04147358163893223,-0.003814224525913596,-0.008720052813971415
1772522029448543700,7.850543701171875,0.045215106254816055,-0.0020072847018018365,0.0004019318643957376
1772522029458540800,7.860540771484375,0.05419219343662262,0.0035895671908743676,-0.0046561187101528045
1772522029468537900,7.870537841796875,0.05075169759392738,0.004974427411705255,-0.0027587697893846777
1772522029478533600,7.88053369140625,0.04162672637403011,0.003954783774074167,0.0016480503348167985
1772522029488531000,7.890531005859375,0.038034254840016365,0.00211943983938545,0.0006440061251167207
1772522029498527700,7.90052783203125,0.05658873318433761,0.0014899097641929984,-0.004687555028032512
1772522029508523800,7.910523681640625,0.05748305167555809,-0.0025555479680187997,-0.00410177276302129
1772522029518520800,7.920520751953125,0.046406946387887,0.0024458222495391964,-0.008590133690834044
1772522029528517600,7.930517578125,0.038920390024781225,-0.0023584727596491573,-0.006640424395166337
1772522029538515000,7.940514892578125,0.05088906023800373,0.0011238163981586694,0.0013540632237680256
1772522029548510700,7.9505107421875,0.05148410352170467,-0.000747822692617774,0.005679671337921172
1772522029558507800,7.9605078125,0.048640989050269125,0.00162520831534639,-0.000037418534094467756
1772522029568504800,7.9705048828125,0.04460135827064514,0.0012963964860886335,0.0020761852195486426
1772522029578501600,7.980501708984375,0.04894143330156803,-0.0038696993065066632,0.00052032494652085
1772522029588498000,7.990497802734375,0.055224459093809124,-0.0009440393844619393,-0.0023480700966436413
1772522029598494700,8.00049462890625,0.03636661388874054,0.0003807429458945989,0.0055258142167702315
1772522029608491800,8.01049169921875,0.04354746530354023,-0.0008026946850121021,-0.0007203866964206099
1772522029618487800,8.02048779296875,0.044592005920410155,-0.0021705489721149207,0.006138228760380298
1772522029628484600,8.030484619140625,0.05326981789469719,-0.0013966419901698826,-0.005889295500610023
1772522029638482000,8.04048193359375,0.04324409844279289,0.0021180333335883914,-0.0025486341700423506
1772522029648478700,8.050478759765625,0.03696457978188991,-0.0038791247219778593,-0.004637213080283254
1772522029658474800,8.060474853515625,0.03965981021523476,-0.001442198164947331,-0.001237113180058077
1772522029668471800,8.070471923828125,0.047588849648833274,0.001953490421641618,0.0002837031790520996
1772522029678468600,8.080468505859375,0.054469841334223744,0.0011215879084542392,-0.006380047292774543
1772522029688466000,8.0904658203125,0.05506605366170406,0.0032534305716864762,-0.014566322023607789
1772522029698461700,8.100461669921875,0.043992286461591715,-0.005735073053278029,0.0023010434839874504
1772522029708459000,8.110458984375,0.06075228260457515,-0.0037588776094838973,-0.014243583742110058
1772522029718455800,8.120455810546876,0.05775894600749015,0.0046698549745604395,-0.0038803394315298644
1772522029728451800,8.130451904296875,0.04309329179525375,0.003944719037786126,-0.0036366120698396115
1772522029738449000,8.140448974609376,0.03695815004110336,-0.0032377763448283073,-0.006492293761903419
1772522029748445700,8.15044580078125,0.05147241308391094,0.0035039347340352833,-0.013545892934687435
1772522029758442800,8.16044287109375,0.04339139795899391,0.0018720774821937083,-0.005891551389778033
1772522029768438800,8.170438720703125,0.048777182650566096,0.00032501243697479365,-0.0064249093478079885
1772522029778435600,8.180435546875,0.046530865028500554,0.0002313428041525185,-0.002898178260074928
1772522029788433000,8.190432861328125,0.05251812274456024,-0.003368416987173259,-0.00817762563349679
1772522029798429700,8.2004296875,0.05356324788331985,0.0022594510982744394,-0.0053830082125961775
1772522029808426000,8.210426025390625,0.0516179590344429,0.005170315309986472,-0.0016612477431073784
1772522029818422800,8.2204228515625,0.05416355186402797,-0.002078925165906548,-0.0016441870104521512
1772522029828419600,8.230419677734375,0.06014847149252891,0.0015324337316676973,-0.0027065646781120447
1772522029838416000,8.240415771484376,0.04727905304729938,-0.000048149990662932394,-0.003551737664826214
1772522029848412700,8.25041259765625,0.04398585672080516,-0.0005569580293260514,0.002906818224256858
1772522029858410000,8.260409912109376,0.04652794241905212,0.006481142180226743,0.005052388018742204
1772522029868406800,8.27040673828125,0.05251461561322212,0.004955576580762863,0.0022591771036386487
1772522029878402800,8.28040283203125,0.04608136769533157,-0.0012391681398265064,0.00029320165975950656
1772522029888400000,8.29039990234375,0.044286885493993754,0.008299790708441286,-0.00010805435120128094
1772522029898396700,8.300396728515626,0.041297056028246876,0.0007308532915078104,-0.007349778240919112
1772522029908394000,8.31039404296875,0.061196519240736956,-0.003984448259975761,0.0012587587562855333
1772522029918389800,8.3203896484375,0.05521043056845665,0.0007009696098975837,0.002034912494244054
1772522029928387600,8.3303876953125,0.05611234784424304,0.0006046696285717189,0.008163998966943472
1772522029938384600,8.340384521484374,0.04114975651204586,0.00012156228674575686,-0.000934714433690533
1772522029948381400,8.35038134765625,0.0474351203918457,0.004138031386490911,0.002799229663936421
1772522029958377500,8.36037744140625,0.05895780040323734,0.004142926757317036,-0.0008727916460018604
1772522029968374500,8.37037451171875,0.04219721973836422,-0.005254723924119025,-0.004074199769506231
1772522029978371600,8.38037158203125,0.036812019568681714,0.0008030234785750508,-0.0003012205694336444
1772522029988367600,8.39036767578125,0.04908171855509281,0.0012839936622418462,-0.001491818593489006
1772522029998364400,8.400364501953124,0.043694764819741244,0.008775445396173745,0.004807984803617001
1772522030008361500,8.410361572265625,0.04489186564981937,-0.006114281629212201,-0.0006516688417643309
1772522030018358500,8.420358642578124,0.048778351694345475,0.0028073673046194016,-0.004704926287941634
1772522030028354600,8.4303544921875,0.05461597180664539,0.0008396656945347785,0.001519793445803225
1772522030038351600,8.4403515625,0.05551438195109367,0.00543203498609364,-0.001919149760622531
1772522030048348400,8.450348388671875,0.04967793088257313,0.005650226047728211,-0.0023362700609955937
1772522030058345500,8.460345458984374,0.043537528431415555,0.00043565147090703245,-0.006775275421747938
1772522030068341500,8.470341552734375,0.041140404161810876,-0.0010959237442351877,-0.006703169166762382
1772522030078338600,8.480338623046874,0.040838206344842906,0.003902176804002374,-0.010412627277104184
1772522030088335600,8.490335693359375,0.04742284543216228,-0.002225384431891143,-0.010504406346939504
1772522030098331400,8.500331298828126,0.05415946021080017,-0.009731942403409629,0.0007314560797065496
1772522030108328700,8.51032861328125,0.054307344248890874,-0.002506247199885547,-0.007989363919245079
1772522030118325500,8.520325439453124,0.037546179062128066,-0.0069207757065072656,-0.011916200240468605
1772522030128322600,8.530322509765625,0.046073768910765645,0.0005872983686625957,0.002673730987589806
1772522030138318600,8.540318603515624,0.04921674311161041,0.00416698348633945,-0.007194587679207325
1772522030148315400,8.5503154296875,0.04756839138269424,0.002883209019806236,-0.00141360225812532
1772522030158312400,8.5603125,0.04023907140791416,0.007250847911089658,-0.002759135115565732
1772522030168309500,8.5703095703125,0.03993804263472557,-0.001207275164220482,0.0006680719872936606
1772522030178305500,8.580305419921874,0.05370353313684463,0.0012187098736874758,-0.002954237562557682
1772522030188302600,8.590302490234375,0.04726736260950565,0.00639660570193082,-0.0017648542480543255
1772522030198299600,8.600299560546874,0.05145780003666878,-0.0013653518027625978,0.001145443708077073
1772522030208295700,8.610295654296875,0.052954760596156114,-0.0021703663090243933,-0.0005112465909216553
1772522030218292500,8.62029248046875,0.04203296908736229,-0.0026082828022539616,0.0019885708681773393
1772522030228289500,8.63028955078125,0.05415244594812393,0.001233907442819327,-0.004675846323929727
1772522030238286600,8.64028662109375,0.050261283728480335,0.0028895656953565776,-0.0058867290841881185
1772522030248282400,8.650282470703125,0.050564650589227676,0.003919255802966654,-0.006426580715086311
1772522030258279700,8.66027978515625,0.05296469746828079,0.0014466734106652439,-0.004393430919665843
1772522030268276500,8.6702763671875,0.05745557914674282,0.005356394200306386,-0.0017650825769174843
1772522030278273500,8.6802734375,0.06448562391400336,-0.01009723205184564,-0.0057188160382211205
1772522030288269600,8.69026953125,0.050265375381708145,0.004900320995878428,-0.00595266132671386
1772522030298266600,8.7002666015625,0.03874152632653713,-0.0012695632780902087,-0.00969252370847389
1772522030308263400,8.710263427734375,0.029466917502880094,0.0043493543159216635,-0.002828419225802645
1772522030318259500,8.720259521484374,0.045779754400253295,0.00756038878429681,-0.006986059495061636
1772522030328256500,8.730256591796875,0.04981763161420822,0.00448616897072643,-0.0033150793647393584
1772522030338253600,8.740253662109374,0.0502671289473772,0.0037545302279293536,-0.01207292517214082
1772522030348250600,8.750250732421875,0.042484804508090016,0.0026099633026868104,-0.005516014341963455
1772522030358246700,8.76024658203125,0.046824879539012904,0.0030553141837008297,-0.004260132529353723
1772522030368243500,8.770243408203125,0.04203998335003853,0.0006729856244288385,-0.006893485840782523
1772522030378240500,8.780240478515625,0.05281505986452102,-0.0023354754765518007,0.0028635727375745774
1772522030388237600,8.790237548828125,0.050420273682475085,0.009983761740010231,-0.007417126122396439
1772522030398233600,8.800233642578124,0.04652969598472118,0.004404829096514731,-0.006426114924205467
1772522030408230700,8.810230712890625,0.054012745216488835,-0.0013492957171052694,0.0017983181262388823
1772522030418227500,8.8202275390625,0.0538660302221775,0.001124346121121198,-0.0022728311696555465
1772522030428223500,8.830223388671875,0.06329319925904274,-0.006332582288701087,0.0025329160111024975
1772522030438220500,8.840220458984374,0.054016252347826955,0.004106595068611205,-0.002121860125334933
1772522030448217600,8.850217529296875,0.04309387631714344,-0.002395662964880466,-0.01124636555435136
1772522030458214400,8.86021435546875,0.02663549346923828,0.0023261961915530265,-0.010020266958652064
1772522030468210400,8.87021044921875,0.040701428222656245,0.004110467526130378,-0.01257647251379676
1772522030478207500,8.88020751953125,0.053121349334716794,-0.006787833509221673,0.003317563582770526
1772522030488204500,8.89020458984375,0.05266892939209938,-0.00015407631685957312,0.006342345630889758
1772522030498201600,8.90020166015625,0.055659343379735944,0.004303524146508426,0.00003029467356391251
1772522030508197600,8.91019775390625,0.050719548889994616,0.00046306920079514384,0.0016338939453009514
1772522030518194400,8.9201943359375,0.045181788507103915,-0.0014412117842584847,-0.004090657713962719
1772522030528191500,8.93019140625,0.042191374519467355,-0.0005406462153419852,0.002599368843436241
1772522030538188500,8.9401884765625,0.04323533061444759,0.007934756788332015,-0.0012498904632404445
1772522030548184600,8.9501845703125,0.05670096138715744,0.00654653556663543,-0.005751960255997255
1772522030558181600,8.960181640625,0.036349662753939624,-0.0031755430298857387,-0.013552824998972937
1772522030568178400,8.970178466796876,0.04458031548261642,-0.004465637639351189,-0.0005688859291374683
1772522030578174500,8.980174560546875,0.04099135107994079,0.005827628441248089,-0.00437322838185355
1772522030588171500,8.990171630859376,0.05131809930503368,-0.0004974098618142306,-0.0042743985167238855
1772522030598168600,9.00016845703125,0.04458382261395454,0.002905548715777695,-0.01046677775029093
1772522030608165400,9.010165283203126,0.04712532379031181,0.00842970069842413,-0.004167275747284293
1772522030618161400,9.020161376953125,0.05535422295331954,-0.00153710990678519,0.003607294643810019
1772522030628158500,9.030158447265626,0.05595218884646892,0.0004138962968252599,0.0020784685081802305
1772522030638155500,9.040155517578125,0.051018239575624465,-0.00048672407101839777,-0.008251942111877724
1772522030648152600,9.050152587890626,0.04727729948163032,0.007586473073624074,0.0014758081736043094
1772522030658148600,9.060148681640625,0.051017655053734776,0.003804963507223874,-0.006690044823708012
1772522030668145400,9.0701455078125,0.054012745216488835,0.0030436054795980453,-0.010744480446819216
1772522030678142500,9.080142578125,0.04338905987143516,0.00312215060852468,0.0029749241575598713
1772522030688138500,9.090138427734376,0.04294073158204555,0.0013905593092553316,-0.0058913687266875054
1772522030698135600,9.100135498046875,0.04593406817913055,-0.002445329059194773,-0.0020348302958533167
1772522030708132600,9.110132568359376,0.041297640550136565,0.0009579400456510484,-0.0037047819352243093
1772522030718129700,9.120129638671875,0.05087678527832031,0.0027126930247992277,0.00220578468227759
1772522030728125700,9.130125732421876,0.03755903854370117,-0.0021184534586966034,-0.0033750111247412857
1772522030738122500,9.14012255859375,0.04848433718383312,0.00019612536029890178,-0.0069474171182606365
1772522030748119600,9.15011962890625,0.05102876096963882,-0.0006395217462442815,-0.005335050018178299
1772522030758116600,9.16011669921875,0.04579202935993671,0.001832549189403653,0.00045870355293154715
1772522030768112400,9.1701123046875,0.049233109724521634,0.003843852479197085,0.001980488026421517
1772522030778109400,9.180109375,0.05432195729613304,0.0026538389770314097,0.0016329806298483163
1772522030788106500,9.1901064453125,0.04878653500080108,0.005482577863242477,-0.006520688739325851
1772522030798102500,9.2001025390625,0.05267535913288593,0.001775558305159211,-0.0014959193798713384
1772522030808099600,9.210099609375,0.05387304448485374,0.005504570499341934,-0.010635668043792247
1772522030818096600,9.2200966796875,0.0499795441776514,-0.005990892711561173,-0.006162349421484395
1772522030828093400,9.230093505859376,0.047584757995605464,-0.00039886312447488304,0.0034561683358624576
1772522030838089500,9.24008935546875,0.037112463819980616,0.00296370864380151,-0.003794624776300043
1772522030848086500,9.25008642578125,0.04145253885090351,0.004614087933022528,0.0076103745390195396
1772522030858083600,9.26008349609375,0.04893208095133304,0.00073571212971583,0.007528824602253735
1772522030868080600,9.27008056640625,0.05057458746135234,0.00183428448876366,0.003352607496688142
1772522030878076700,9.28007666015625,0.052070963498950004,0.006730513831414282,-0.002402147504594177
1772522030888073500,9.290073486328126,0.05087444719076156,0.004276654405891895,-0.002130344825889915
1772522030898070500,9.300070556640625,0.048778351694345475,0.008361384702567011,-0.012028117916034534
1772522030908066600,9.310066650390626,0.04189619096517563,0.004450677532237023,0.0010271967564243823
1772522030918063600,9.320063720703125,0.05042319629192352,-0.012350216876715421,-0.007811851927870884
1772522030928059600,9.3300595703125,0.04518646468222141,-0.004723576189484447,-0.0017973408787045626
1772522030938055000,9.340054931640625,0.03755611593425274,-0.0017715762497857212,0.006042979091824963
1772522030948052000,9.350052001953125,0.03336860111653805,-0.007080112720374018,-0.007088076831120997
1772522030958049000,9.360049072265625,0.04219780426025391,0.0010352613318711519,-0.0023658249490428715
1772522030968045800,9.3700458984375,0.05043137959837913,0.0033046127696521577,0.008655865003960206
1772522030978042000,9.3800419921875,0.055072483402490616,0.005706687209010124,0.005791497681941837
1772522030988039000,9.390038818359375,0.04235737873613834,0.0029615897519513963,0.0027805066971573976
1772522030998036200,9.4000361328125,0.05866963111162185,0.004342084324918687,0.0014724471727386116
1772522031008033000,9.410032958984376,0.05896481466591358,0.00539963055383414,0.010222228404693305
1772522031018029000,9.420029052734375,0.04519873964190483,0.004532236602157354,0.0016447897986508904
1772522031028026000,9.430026123046876,0.046695700201392173,0.0008530001001432537,0.0034125575229991224
1772522031038023000,9.44002294921875,0.0478928010314703,0.0005564831052906811,0.005192919867439195
1772522031048020200,9.450020263671876,0.0429559291511774,0.0009143748985603451,0.0044262828764971346
1772522031058016000,9.46001611328125,0.04624678739011288,0.005452255790214985,0.0012647135730367153
1772522031068013000,9.470012939453126,0.044299160453677176,0.0030916458724066613,-0.00020673808585852383
1772522031078010000,9.480010009765625,0.04145546146035194,0.0047761648932471866,-0.004816496903635561
1772522031088006100,9.490006103515626,0.04909048638343811,-0.0021781842892989517,0.00040799627900123595
1772522031098003200,9.500003173828125,0.04131050003170967,0.0020025719940662385,0.004959951361780986
1772522031108000000,9.51,0.0443026675850153,-0.001577149656228721,0.00256030634152703
1772522031117997000,9.5199970703125,0.05597732328772544,0.004787435205932706,-0.009607996363332495
1772522031127993000,9.5299931640625,0.05448270081579685,0.005674246244132519,-0.005937080165091902
1772522031137990000,9.539989990234375,0.04984393509924411,-0.0054246736635454,-0.0023495131350588054
1772522031147987200,9.5499873046875,0.05298515573441982,-0.00572961142687127,-0.001993119179131463
1772522031157984000,9.55998388671875,0.04625497069656849,0.0032693039942532777,-0.0011866616344545036
1772522031167980000,9.56997998046875,0.03263794875442982,0.0050715859095565976,-0.0055175578450784085
1772522031177977000,9.57997705078125,0.041915480187535284,0.00003401186745613813,0.003796414874587208
1772522031187974000,9.589973876953126,0.04176584258377552,0.0010914850311353802,0.0021557167291641234
1772522031197970200,9.59997021484375,0.05119359614253044,-0.0012561558072455227,0.0010174973463173956
1772522031207967000,9.609967041015626,0.056580549877882,0.0011247297136113047,-0.0020163721905555577
1772522031217964000,9.619964111328125,0.04041910414993763,0.006852003052923828,-0.001237012715358287
1772522031227961000,9.629961181640626,0.050290509822964666,0.006093275373801589,-0.009323781727626919
1772522031237957000,9.63995703125,0.05298515573441982,0.00537140910634771,-0.006273335515288636
1772522031247954200,9.6499541015625,0.053282092854380604,0.0005156579045578837,0.0026478293613530694
1772522031257951000,9.659950927734375,0.030986674416065216,-0.005647723563387989,0.0020528774091973898
1772522031267948000,9.669947998046876,0.036223406025767325,-0.0033244499812833963,0.005574932321812957
1772522031277944000,9.679944091796875,0.05253156674802303,-0.0022934629657305776,-0.001159134306712076
1772522031287940900,9.68994091796875,0.06464870552122592,0.0003246288444846868,0.0016926657946780322
1772522031297939000,9.69993896484375,0.031279519882798194,0.0008410904666408896,-0.002877153738355264
1772522031307936000,9.70993603515625,0.03951134165525436,-0.000660655865818262,0.0026978059829212723
1772522031317932000,9.71993212890625,0.04295476010739803,-0.004797646072693169,-0.0005787954017985612
1772522031327929000,9.72992919921875,0.05582417855262756,-0.00033063846016302706,0.002263871545065194
1772522031337926100,9.739926025390625,0.05163491016924381,-0.00396486677667126,0.006146220270590856
1772522031347923000,9.7499228515625,0.050288171735405916,0.005659761061053723,0.0018483495467342436
1772522031357919000,9.7599189453125,0.04624737191200256,0.005034359171707183,-0.0039033641140908
1772522031367916000,9.769916015625,0.05612403828203678,0.0037155499244108793,-0.0053854010990820825
1772522031377913000,9.7799130859375,0.061958735784888266,0.0020646226459182797,0.005172078008810058
1772522031387910100,9.78991015625,0.046398763081431385,0.004770758065767586,-0.0071238787968643
1772522031397906200,9.79990625,0.043405426484346386,-0.003655106707755476,-0.0008252809761557727
1772522031407903000,9.809903076171874,0.04385317025184631,0.003886796571779996,-0.0027656379215884952
1772522031417900000,9.819900146484375,0.04998480487465858,0.001333239631447941,-0.0005461261080577969
1772522031427896000,9.82989599609375,0.05866378589272499,0.0023956081659533084,-0.0023370463791303336
1772522031437893000,9.83989306640625,0.0451958170324564,-0.0015160305861383675,-0.007188103139493614
1772522031447890000,9.849889892578124,0.038162265133857724,-0.001687094570416957,-0.010124457985488697
1772522031457887000,9.859886962890625,0.04818623102009296,-0.002801120226923376,-0.009800870320620015
1772522031467883000,9.869883056640624,0.051176645007729525,-0.0028405023892410096,-0.005335826336313039
1772522031477880000,9.879880126953125,0.0496790999263525,-0.005071896436810493,-0.001659320647502318
1772522031487877000,9.889877197265625,0.047585927039384836,0.0029905053191818295,-0.005899177573807537
1772522031497874000,9.8998740234375,0.05880640923380851,-0.0009826908944174646,-0.0085236808585003
1772522031507870000,9.909869873046874,0.05042904151082039,-0.006065053926315158,-0.01273970025149174
1772522031517867000,9.919866943359375,0.055068391749262806,0.0030535058191046116,-0.0073415949344635
1772522031527864000,9.929864013671875,0.0474351203918457,0.004628920175973326,-0.0033243586497381326
1772522031537859800,9.93985986328125,0.053119011247158045,-0.004794833061099052,-0.008213692460721359
1772522031547857200,9.949857177734375,0.04533844037353992,0.005390077274199575,-0.007247852236405014
1772522031557854000,9.95985400390625,0.05087620075643062,0.0046298334914259606,-0.00852411011676304
1772522031567851000,9.96985107421875,0.053720484271645545,-0.0009788001705892384,-0.0005997194588184357
1772522031577847000,9.979846923828125,0.04309679892659187,-0.0020029373202472924,-0.010104739504866301
1772522031587844000,9.989843994140625,0.0493786556750536,0.006971409915201366,-0.00400583810787648
1772522031597841200,9.999841064453125,0.0528203205615282,0.00700290103200823,-0.0066441415890585625
1772522031607838000,10.009837890625,0.06284662453532218,0.014207297719176858,-0.002962749662576243
1772522031617834000,10.019833984375,0.04549450771808624,0.0061930642201565205,-0.0006646927201189101
1772522031627831000,10.0298310546875,0.017514613902568817,-0.0034846455116756257,-0.0031684374356642365
1772522031637828000,10.039828125,0.04909165542721748,0.0034668541266582903,-0.0009501677311491221
1772522031647825000,10.049824951171875,0.07587678650021552,0.004314283002540469,-0.00024145320621319114
1772522031657821000,10.059821044921875,0.040561142969131464,0.001263772858120501,0.004132743290020152
1772522031667818000,10.06981787109375,0.043705286213755606,-0.0012163169872015714,0.0007018555258866399
1772522031677815000,10.07981494140625,0.052238136759400366,0.0014263612749986349,0.006935379620594904
1772522031687812000,10.08981201171875,0.06660276219844817,0.0026850195665843782,-0.0036141536428593098
1772522031697808100,10.09980810546875,0.05149053326249122,-0.00015791224176064133,0.0006290368848480284
1772522031707805000,10.109804931640625,0.0523889434069395,-0.002823094596713781,0.0027998324521351604
1772522031717802000,10.119802001953126,0.046102410483360286,0.0019588059175759554,0.0012021697308402508
1772522031727798000,10.129798095703125,0.039814123994112015,0.0020169475792907177,-0.00045408217674121256
1772522031737795000,10.139795166015626,0.0489426023453474,0.002446772097609937,0.010000301882857457
1772522031747792100,10.149792236328125,0.04983984344601631,0.00010567059786990285,0.003922762934304774
1772522031757789200,10.1597890625,0.056873979866504665,0.004779507627803832,0.0068524414443410925
1772522031767785000,10.169784912109375,0.043107904842495916,0.0008716317353770136,0.0016105404691770671
1772522031777782000,10.179781982421876,0.05208616106808185,-0.0017118819518014787,-0.010543176587903871
1772522031787779000,10.189779052734375,0.05313245525062084,-0.0025791115066967902,0.003318823958095163
1772522031797776000,10.19977587890625,0.03846913912594318,-0.0024704635004512963,-0.0017411628452129661
1772522031807772000,10.20977197265625,0.05178396325111389,0.001877009385637939,-0.003445053286803886
1772522031817769000,10.21976904296875,0.05522504361569881,0.0006496047488413751,0.0006811871971935034
1772522031827766000,10.22976611328125,0.046099487873911854,-0.00004619549559429288,0.0005538618899416178
1772522031837762000,10.239761962890626,0.03337795346677303,-0.001969491708371788,-0.010338840521685778
1772522031847759000,10.249759033203125,0.05013619604408741,-0.0007729571338742971,0.003940015463205054
1772522031857756200,10.259756103515626,0.05806991165280342,-0.0054610784174874425,-0.010166844955645502
1772522031867753000,10.2697529296875,0.06435527553260326,0.0005893441952764987,-0.010178352730348705
1772522031877749000,10.2797490234375,0.0410129783898592,0.004775251577794551,-0.007695669069141149
1772522031887746000,10.28974609375,0.02874211035966873,-0.00011768982922658324,-0.009186839208658783
1772522031897743000,10.2997431640625,0.05702186390459537,0.0023052995339967308,-0.010324501469079404
1772522031907740200,10.309740234375,0.06510521711707115,0.001178597059007734,-0.003028225247375667
1772522031917736000,10.31973583984375,0.04340893361568451,-0.005156560779269784,0.0005822660005185753
1772522031927733000,10.32973291015625,0.03757482063472271,0.0020787242365069686,-0.011384440584480762
1772522031937730300,10.339730224609376,0.05523030431270599,0.002761464069969952,-0.0034984091755468397
1772522031947727000,10.34972705078125,0.05223872128129005,0.0032575587575323878,-0.00024432101673446595
1772522031957723100,10.35972314453125,0.055982583984732624,-0.0030490305733866987,0.00422355424547568
1772522031967720200,10.36972021484375,0.05673077200353145,-0.0005209551341831684,-0.0035826990586705506
1772522031977717200,10.37971728515625,0.043862522602081296,-0.0035450887283310292,0.006281372691271827
1772522031987713000,10.389713134765625,0.05194295320510864,-0.002029094674810767,0.0010763057283125817
1772522031997710300,10.39971044921875,0.0540361260920763,-0.011957783493027091,0.0016724906563293188
1772522032007707100,10.40970703125,0.054935120758414266,0.0046160606944002204,-0.0029067999579478056
1772522032017704200,10.4197041015625,0.04954875154495239,0.001336344903986901,-0.0050916879826691
1772522032027700200,10.4297001953125,0.04625730878412723,-0.0042587534230202435,0.0011538918760139495
1772522032037697300,10.439697265625,0.04640986899733543,0.007333996149897575,0.0014010807032696902
1772522032047694000,10.449694091796875,0.051048634713888166,-0.000020531331375241277,-0.0014839640805963427
1772522032057691100,10.459691162109374,0.04745616317987442,-0.0005961392622441053,-0.001984342217631638
1772522032067687200,10.469687255859375,0.050150224569439884,-0.004603073348663747,-0.000272067540185526
1772522032077684200,10.479684326171874,0.06601005700230599,-0.0052849181329831475,0.0004590597459580749
1772522032087681300,10.489681396484375,0.033389059382677076,0.0027935031760483978,-0.00043367870952934023
1772522032097677300,10.49967724609375,0.03294306918084621,-0.005972863864526152,0.002631773275695741
1772522032107674000,10.509674072265625,0.05419160891473293,0.0007904927905648946,-0.002875400172686204
1772522032117671200,10.519671142578124,0.06466624117791653,-0.0011440554685890674,-0.004325909508252516
1772522032127668200,10.529668212890625,0.044916415569186206,-0.006900737565476447,-0.004129172226600349
1772522032137664300,10.539664306640624,0.04057341792881489,-0.002463851096574217,0.0034097171119414267
1772522032147661300,10.549661376953125,0.05089665902256965,-0.0009588533611036837,-0.0046545660738833245
1772522032157658000,10.559658203125,0.05508651192784309,-0.0011054222249425947,-0.004948178725596517
1772522032167655200,10.5696552734375,0.057031216254830354,0.0016117460455745457,-0.00899535349085927
1772522032177651200,10.579651123046874,0.03877192146480083,-0.001880973174702376,-0.004630418013315648
1772522032187648300,10.589648193359375,0.0413134226411581,-0.001132291965559125,-0.0026719226229935883
1772522032197645300,10.599645263671874,0.0446031118363142,-0.0037640287086367604,0.0030791699833236635
1772522032207641000,10.60964111328125,0.04071194961667061,0.003310494521167129,-0.004477118014590814
1772522032217638100,10.61963818359375,0.041759412842988966,0.001402706404775381,-0.007143058421369641
1772522032227635200,10.62963525390625,0.0543278025150299,-0.000862297651451081,0.00279838028056547
1772522032237632300,10.63963232421875,0.04954232180416584,0.004160754674952477,0.0021448665415868162
1772522032247628300,10.649628173828125,0.042808045113086696,-0.0033549729837104676,0.0032792134669143705
1772522032257625000,10.659625,0.05222878440916538,0.006327449455857276,-0.00027973938998766243
1772522032267622100,10.6696220703125,0.050128012737631795,0.005723053821921348,-0.00012577267098240553
1772522032277619200,10.679619140625,0.05535656104087829,-0.00002078705970197916,-0.004771762712765484
1772522032287615200,10.689615234375,0.04188216243982315,0.005739804027322679,-0.0006023772067856043
1772522032297612300,10.6996123046875,0.04247895928919315,0.0025822898444719613,0.004344623341877013
1772522032307609300,10.709609375,0.03963642933964729,-0.002012892458681017,0.0009401212611701338
1772522032317606100,10.719606201171874,0.05131108504235744,-0.0013622099976055323,0.0007282229430042207
1772522032327602200,10.729602294921875,0.03815057469606399,0.002016746649891138,-0.0027997593868989497
1772522032337599200,10.73959912109375,0.03650923722982406,0.0016134448123164473,0.00710457130819559
1772522032347596300,10.74959619140625,0.06045476096272468,-0.005316500581335276,-0.0024097462891601025
1772522032357593300,10.75959326171875,0.05357376927733421,-0.003693721685092896,-0.007068933739233761
1772522032367589000,10.769589111328125,0.06120587159097194,-0.0013481814722530543,-0.0010851557550486176
