time,seconds_elapsed,z,y,x
1772522021691083000,0.0930830078125,0.0004272516816854477,-0.0023537443485111,0.0008585257455706596
1772522021701078800,0.103078857421875,-0.0009556375443935394,-0.0018862634897232056,0.0002183876931667328
1772522021711076000,0.113076171875,-0.0004363209009170532,-0.0013690777122974396,-0.00008734315633773804
1772522021721073000,0.123072998046875,-0.00016223639249801636,-0.0012893537059426308,-0.00043138768523931503
1772522021731070000,0.133070068359375,-0.0004490585997700691,0.0004603434354066849,-0.0019129044376313686
1772522021741066000,0.14306591796875,0.00043737050145864487,0.001379222609102726,0.0008358308114111423
1772522021751062800,0.153062744140625,0.00021100137382745743,0.002276974730193615,0.00041238823905587196
1772522021761060000,0.16306005859375,0.0008474243804812431,0.0005031689070165157,-0.0008403952233493328
1772522021771057000,0.173056884765625,0.0018466426990926266,-0.0001253369264304638,-0.0015256265178322792
1772522021781053200,0.18305322265625,0.0012229513376951218,0.0006442368030548096,-0.0009809606708586216
1772522021791050000,0.193050048828125,0.000005087815225124359,0.00023996876552700996,-0.0006414074450731277
1772522021801046800,0.203046875,0.00041961856186389923,0.0004213741049170494,-0.0004269946366548538
1772522021811044000,0.213044189453125,-0.0011188890784978867,-0.00013549299910664558,0.0003378652036190033
1772522021821039900,0.223039794921875,0.0005156621336936951,-0.003245983039960265,-0.0003398745320737362
1772522021831037000,0.233036865234375,0.0001524072140455246,0.0006771194748580456,0.001760560553520918
1772522021841034000,0.243033935546875,-0.0008457610383629799,0.0007203556597232819,-0.00046723242849111557
1772522021851029800,0.25302978515625,0.001293023582547903,-0.0006756731308996677,-0.0006033200770616531
1772522021861027000,0.263027099609375,-0.002293570898473263,0.0000987066887319088,0.001412267331033945
1772522021871023900,0.27302392578125,0.0010870457626879215,0.0008920622058212757,0.00013847742229700089
1772522021881021000,0.28302099609375,-0.0016145678237080574,0.001463934313505888,0.0008246302604675293
1772522021891017000,0.293016845703125,-0.0007783351466059685,0.0016788514330983162,-0.0006678053177893162
1772522021901013800,0.303013671875,-0.00166401918977499,-0.000504328403621912,-0.002671335358172655
1772522021911011000,0.313010986328125,0.0027552307583391666,0.0002299048937857151,-0.0017642625607550144
1772522021921007900,0.3230078125,-0.0007522460073232651,0.0008900091052055359,0.0016832845285534859
1772522021931004400,0.33300439453125,-0.0010502533987164497,-0.00008710473775863647,0.001209508627653122
1772522021941001500,0.34300146484375,-0.0007008109241724014,0.00008888589218258858,-0.0014451430179178715
1772522021950998300,0.352998291015625,-0.0009210538119077682,0.0019634850323200226,0.0006470363587141037
1772522021960994600,0.36299462890625,0.00047518685460090637,0.0005992725491523743,-0.0003777984529733658
1772522021970991400,0.372991455078125,-0.00005637947469949722,0.0010693203657865524,0.0006331373006105423
1772522021980988400,0.382988525390625,-0.001233440823853016,0.002035744022578001,-0.0014251666143536568
1772522021990985500,0.3929853515625,-0.0018765944987535477,-0.0006655002944171429,-0.0014185085892677307
1772522022000981200,0.402981201171875,-0.00011872686445713043,0.0008480441756546497,0.0021668006666004658
1772522022010978600,0.412978515625,-0.0017051724717020988,0.0005316603928804398,0.0011337599717080593
1772522022020975400,0.422975341796875,0.0005184067413210869,0.0004914295859634876,-0.00005773967131972313
1772522022030972400,0.432972412109375,-0.0013298271223902702,-0.001212460920214653,-0.0015696161426603794
1772522022040968400,0.442968505859375,-0.0009338418021798134,-0.0009600319899618626,-0.0012611676938831806
1772522022050965200,0.45296533203125,-0.00040893256664276123,-0.0013459241017699242,0.0023500784300267696
1772522022060962600,0.462962646484375,0.0003900015726685524,-0.0008992678485810757,0.00014097057282924652
1772522022070959400,0.47295947265625,0.0021913633681833744,-0.0014071324840188026,0.000036308541893959045
1772522022080955400,0.482955322265625,-0.0009059812873601913,-0.0013079047203063965,-0.0015458157286047935
1772522022090952400,0.492952392578125,-0.0011206325143575668,0.0011696340516209602,0.001959969289600849
1772522022100949500,0.502949462890625,-0.0011136634275317192,-0.0028186547569930553,0.0011416729539632797
1772522022110945500,0.512945556640625,0.0012570824474096298,0.0036384453997015953,-0.0009350604377686977
1772522022120942300,0.5229423828125,-0.00019260216504335403,0.00022480357438325882,-0.0001232139766216278
1772522022130939400,0.532939453125,-0.0007049944251775742,0.0008748816326260567,0.00041181501001119614
1772522022140936400,0.5429365234375,-0.00129790510982275,-0.00025233905762434006,0.0006684111431241035
1772522022150932200,0.55293212890625,0.002357283141463995,-0.001093897968530655,0.00012486008927226067
1772522022160929500,0.562929443359375,-0.0021517882123589516,-0.0012955120764672756,-0.00009245332330465317
1772522022170926300,0.57292626953125,-0.000013269484043121338,-0.0017810063436627388,-0.0011412063613533974
1772522022180923400,0.58292333984375,-0.001165410503745079,-0.003871261840686202,0.0019468306563794613
1772522022190919400,0.59291943359375,0.000472167506814003,0.0014673108235001564,-0.0025107678957283497
1772522022200916200,0.602916259765625,0.0001446520909667015,-0.0006601032800972462,-0.0017256736755371094
1772522022210913500,0.61291357421875,0.0031044892966747284,-0.0008342741057276726,-0.00041779549792408943
1772522022220909300,0.622909423828125,0.000023445114493370056,0.0031681424006819725,-0.00025395816192030907
1772522022230906400,0.63290625,0.0048996927216649055,-0.00031154416501522064,-0.00020522251725196838
1772522022240903400,0.6429033203125,0.0003772936761379242,-0.0013099275529384613,-0.002697892487049103
1772522022250900500,0.652900390625,-0.00028210505843162537,-0.0002896701917052269,-0.0013926774263381958
1772522022260896500,0.662896484375,-0.0005311528220772743,-0.0007978943176567554,-0.0037888966035097837
1772522022270893300,0.672893310546875,0.0027479971759021282,-0.0009020236320793629,-0.001727876253426075
1772522022280890400,0.682890380859375,-0.0005473345518112183,-0.0005981572903692722,0.0004038689658045769
1772522022290887400,0.692887451171875,0.0004132678732275963,-0.0019092313013970852,0.0006909575313329697
1772522022300883200,0.70288330078125,-0.0002565169706940651,-0.0003501228056848049,0.001031490508466959
1772522022310880500,0.712880615234375,-0.0009486721828579903,-0.0010891496203839779,-0.0006982325576245785
1772522022320877300,0.722877197265625,0.0002916799858212471,0.0011970717459917068,0.0012511694803833961
1772522022330873600,0.73287353515625,0.0003742380067706108,0.0034775370731949806,-0.0025805863551795483
1772522022340870400,0.742870361328125,0.0003382517024874687,-0.00102214515209198,-0.00034726737067103386
1772522022350867500,0.752867431640625,-0.0008979877457022667,0.00040184706449508667,-0.0013265116140246391
1772522022360864500,0.762864501953125,0.0002687806263566017,0.0025330958887934685,-0.0014401101507246494
1772522022370860300,0.7728603515625,-0.0029999827966094017,-0.0005111629143357277,-0.0013586170971393585
1772522022380857300,0.782857421875,0.001984562259167433,0.0004958123899996281,-0.000501368660479784
1772522022390854400,0.7928544921875,0.0006407313048839569,0.0025371257215738297,-0.003909948281943798
1772522022400851500,0.8028515625,-0.0003823526203632355,-0.0006164214573800564,0.002822051290422678
1772522022410847500,0.812847412109375,-0.0004547899588942528,-0.0013360073789954185,-0.0006211497820913792
1772522022420844300,0.82284423828125,-0.0016639046370983124,-0.0006892676465213299,-0.0005123191513121128
1772522022430841300,0.83284130859375,0.0015465361066162586,-0.001249863300472498,-0.00021377857774496078
1772522022440838400,0.84283837890625,0.00011499226093292236,-0.0003397194668650627,0.0021941950544714928
1772522022450834400,0.85283447265625,0.0000928882509469986,-0.000229730736464262,0.0005986951291561127
1772522022460831500,0.86283154296875,-0.0020929882302880287,-0.0014202087186276913,0.001731734722852707
1772522022470828300,0.872828369140625,-0.0007662009447813034,-0.0003970223478972912,-0.0006272937171161175
1772522022480824600,0.882824462890625,-0.0007157186046242714,0.0004868367686867714,0.00009223399683833122
1772522022490821400,0.8928212890625,-0.00097697414457798,0.0010200017131865025,0.0005143447779119015
1772522022500818400,0.902818359375,0.00385164562612772,-0.001022685319185257,-0.0008373172022402287
1772522022510815500,0.9128154296875,-0.0017247479408979416,-0.001274886541068554,0.0003770841285586357
1772522022520811300,0.922811279296875,-0.0009734844788908958,-0.0010187774896621704,0.0034079933539032936
1772522022530808600,0.93280859375,-0.0005250079557299614,0.00007524900138378143,0.00007930770516395569
1772522022540805400,0.942805419921875,-0.0010971035808324814,0.0005002822726964951,0.001944790594279766
1772522022550802400,0.952802490234375,0.00044167134910821915,-0.001155938021838665,0.0014353282749652863
1772522022560798500,0.962798583984375,-0.0001423228532075882,-0.00025478657335042953,0.002934930380433798
1772522022570795300,0.972795166015625,-0.00011089816689491272,0.001493845134973526,0.000796944834291935
1772522022580792300,0.982792236328125,0.0003449171781539917,0.002165768761187792,0.00034872861579060555
1772522022590788400,0.992788330078125,0.000576346181333065,-0.001879839226603508,-0.00010933540761470795
1772522022600785400,1.002785400390625,-0.002431228756904602,-0.0015123337507247925,0.0012969686649739742
1772522022610782500,1.012782470703125,-0.0022666454315185547,0.0012174062430858612,0.0012194705195724964
1772522022620779500,1.022779541015625,0.0007089581340551376,0.0020853658206760883,-0.00007540406659245491
1772522022630775600,1.032775634765625,0.0011521084234118462,-0.0008867220021784306,-0.0012666359543800354
1772522022640772400,1.0427724609375,0.0017255283892154694,0.0003837789408862591,0.002059401012957096
1772522022650769400,1.052769287109375,0.00030393339693546295,-0.000897733960300684,-0.00053371861577034
1772522022660766500,1.062766357421875,0.0003701113164424896,0.0010174689814448357,-0.0023508924059569836
1772522022670762200,1.07276220703125,0.0010470869019627571,-0.0012086671777069569,-0.0023631430231034756
1772522022680759600,1.082759521484375,-0.0009393049404025078,0.000584745779633522,0.0006265556439757347
1772522022690756400,1.09275634765625,0.0015531480312347412,0.0018018102273344994,-0.0008520311675965786
1772522022700753400,1.10275341796875,0.0022209584712982178,0.0011613210663199425,0.00019807973876595497
1772522022710749400,1.11274951171875,0.0016680862754583359,0.0012420150451362133,-0.0015486879274249077
1772522022720746500,1.12274658203125,0.0007906816899776459,0.0006672423332929611,-0.00025444384664297104
1772522022730743300,1.132743408203125,0.001312661450356245,-0.00108405202627182,0.0019200271926820278
1772522022740739300,1.1427392578125,-0.0004837857559323311,-0.00022850092500448227,0.0007325015030801296
1772522022750736400,1.152736328125,-0.0006302595138549805,0.0005824319086968899,0.0008368976414203644
1772522022760733400,1.1627333984375,0.0014832387678325176,-0.002070651389658451,0.0005094753578305244
1772522022770730500,1.17273046875,0.00013408157974481583,0.002295068930834532,-0.0035928578581660986
1772522022780726500,1.1827265625,0.000042100436985492706,0.000030416063964366913,-0.0005655665881931782
1772522022790723300,1.192723388671875,-0.00034325849264860153,0.0014038081280887127,0.0025093196891248226
1772522022800720400,1.202720458984375,-0.002180740237236023,0.0010099890641868114,-0.0017518838867545128
1772522022810717400,1.212717529296875,-0.0012403782457113266,0.0007394119165837765,0.002239661756902933
1772522022820713500,1.22271337890625,-0.00026352517306804657,-0.0011067488230764866,0.0027566314674913883
1772522022830710500,1.23271044921875,-0.0027245525270700455,0.00048821838572621346,0.00046897633001208305
1772522022840707300,1.242707275390625,-0.0011103469878435135,-0.0013391063548624516,0.0017884131520986557
1772522022850703400,1.252703369140625,0.0004862183704972267,-0.0002591945230960846,-0.0011152313090860844
1772522022860700400,1.262700439453125,-0.000489615835249424,-0.0002493569627404213,-0.0009898548014461994
1772522022870697500,1.272697509765625,-0.00042623281478881836,-0.0008096862584352493,-0.0005954406224191189
1772522022880694300,1.2826943359375,-0.002460446208715439,0.001787784043699503,-0.001364189200103283
1772522022890690300,1.292690185546875,-0.004084175452589989,0.000756608322262764,-0.0017295749858021736
1772522022900687400,1.302687255859375,-0.0007690368220210075,-0.00021142559126019478,0.0008063218556344509
1772522022910684400,1.312684326171875,-0.0022982247173786163,-0.00021834950894117355,0.0003522527404129505
1772522022920681500,1.322681396484375,0.000516028143465519,0.0012958822771906853,0.0005155354738235474
1772522022930676700,1.3326767578125,0.0006326744332909584,0.0002087797038257122,-0.00006689783185720444
1772522022940673800,1.342673828125,0.0017578257247805595,0.001058411318808794,-0.00025262869894504547
1772522022950670600,1.352670654296875,0.0009700627997517586,0.0011806506663560867,0.0014507295563817024
1772522022960667000,1.3626669921875,-0.0009317751973867416,-0.0007297242991626263,0.0024124872870743275
1772522022970663700,1.37266357421875,0.000418979674577713,0.00011130236089229584,0.0000851508229970932
1772522022980660700,1.38266064453125,0.00007633306086063385,-0.0008916533552110195,0.0023835869506001472
1772522022990657800,1.39265771484375,-0.0007082344964146614,0.00026362575590610504,0.0010506752878427505
1772522023000653800,1.40265380859375,0.0018438971601426601,-0.0007371758110821247,-6.812624633312225e-7
1772522023010651000,1.41265087890625,-0.0022144941613078117,-0.0001270459033548832,0.0017378302291035652
1772522023020647700,1.422647705078125,-0.0003223959356546402,0.001891227439045906,-0.00035565486177802086
1772522023030645000,1.43264501953125,0.002310139127075672,-0.00038151396438479424,0.0009250594303011894
1772522023040640800,1.442640869140625,-0.0010136757045984268,-0.000818226020783186,-0.0006656954064965248
1772522023050637800,1.452637939453125,0.00028328411281108856,-0.0006067710928618908,0.0014312774874269962
1772522023060635000,1.462634765625,-0.0010094242170453072,-0.0006660427898168564,-0.0014785099774599075
1772522023070631700,1.472631591796875,0.0006310828030109406,-0.001091349869966507,-0.0006926110945641994
1772522023080627700,1.482627685546875,-0.000454707071185112,0.00037031620740890503,0.0023365728557109833
1772522023090624800,1.492624755859375,-0.0007335403934121132,-0.001476585865020752,0.0009962040930986404
1772522023100621800,1.502621826171875,0.0019355635158717632,0.0011596651747822762,-0.0018060309812426567
1772522023110617900,1.512617919921875,-0.00042745936661958694,-0.0018355920910835266,-0.0008835121989250183
1772522023120614700,1.52261474609375,0.00016584061086177826,-0.0019682585261762142,0.00039736367762088776
1772522023130612000,1.532612060546875,0.0004380159080028534,-0.0005546524189412594,-0.00006256438791751862
1772522023140608800,1.54260888671875,0.0005625076591968536,-0.001260700635612011,0.000415086280554533
1772522023150604800,1.552604736328125,0.0019518788903951645,-0.0004883836954832077,0.002035353798419237
1772522023160601900,1.562601806640625,0.0003353096544742584,-0.001302060205489397,-0.0002580704167485237
1772522023170598700,1.5725986328125,-0.0011198408901691437,-0.0008157668635249138,-0.0017049657180905342
1772522023180596000,1.582595947265625,0.002769273705780506,-0.00035739224404096603,0.00019046850502490997
1772522023190591700,1.592591796875,-0.0006646057590842247,-0.0005898857489228249,-0.0013507027179002762
1772522023200588800,1.6025888671875,0.0022028167732059956,-0.0012266263365745544,0.0006362996064126492
1772522023210585900,1.6125859375,0.00031916331499814987,0.0010647578164935112,0.0011146031320095062
1772522023220582000,1.622581787109375,0.001572906505316496,-0.0017914092168211937,0.0007288884371519089
1772522023230579000,1.632578857421875,0.0008634403347969055,-0.0008166925981640816,-0.002258113119751215
1772522023240575700,1.64257568359375,-0.0015465514734387398,-0.000849149189889431,-0.0010469150729477406
1772522023250572800,1.65257275390625,0.00033017806708812714,-0.0019932431168854237,-0.0017923335544764996
1772522023260568800,1.66256884765625,-0.000015780329704284668,0.00016297399997711182,-0.001714180689305067
1772522023270565600,1.672565673828125,-0.0010197926312685013,0.00020505208522081375,0.0001202048733830452
1772522023280563000,1.68256298828125,-0.0006152642890810966,-0.000004834961146116257,0.00018120510503649712
1772522023290559700,1.692559814453125,0.0013128644786775112,0.0009336629882454872,-0.0008928477764129639
1772522023300555800,1.7025556640625,-0.002131677232682705,-0.00031297607347369194,0.000532164704054594
1772522023310552800,1.712552734375,0.0001514507457613945,0.0001924918033182621,-0.00037091318517923355
1772522023320549600,1.722549560546875,0.0021193455904722214,-0.0020008590072393417,0.0006329459138214588
1772522023330546000,1.7325458984375,-0.0009323703125119209,-0.0000484958291053772,0.00270248856395483
1772522023340542700,1.742542724609375,0.00019085872918367386,-0.0005884552374482155,0.00046187592670321465
1772522023350539800,1.752539794921875,0.0017562643624842167,-0.00042626913636922836,0.0016214167699217796
1772522023360536800,1.762536865234375,-0.0005158130079507828,-0.0020244820043444633,-0.0013060634955763817
1772522023370532900,1.772532958984375,-0.00008198339492082596,-0.000819135457277298,-0.0008115144446492195
1772522023380530000,1.782530029296875,-0.0009900536388158798,0.00029502809047698975,0.0007591350004076958
1772522023390526700,1.792526611328125,-0.0008201440796256065,0.00047825369983911514,-0.0009450218640267849
1772522023400522800,1.802522705078125,-0.0009788312017917633,-0.0014830282889306545,0.002083626575767994
1772522023410519800,1.812519775390625,-0.0019500860944390297,0.0003060828894376755,0.0007259468547999859
1772522023420516600,1.8225166015625,-0.001841505989432335,-0.0016804547049105167,0.0001016431488096714
1772522023430514000,1.832513916015625,0.0007292432710528374,0.00021598255261778831,0.0022175246849656105
1772522023440509700,1.842509765625,-0.0019221687689423561,0.0014515132643282413,-0.002222529612481594
1772522023450506800,1.8525068359375,0.0002131536602973938,0.00007039820775389671,0.00006299512460827827
1772522023460503800,1.86250390625,0.0005660569295287132,0.00018894299864768982,-0.0013743815943598747
1772522023470500600,1.87250048828125,-0.0019413093104958534,-0.0013716691173613071,0.0003649289719760418
1772522023480497000,1.882496826171875,-0.001014246605336666,0.0024764644913375378,-0.0029948034789413214
1772522023490493700,1.89249365234375,-0.00043021515011787415,0.0038850107230246067,-0.0009204670786857605
1772522023500490800,1.90249072265625,-0.0019503040239214897,-0.00026625487953424454,0.0004473589360713959
1772522023510487800,1.91248779296875,-0.00046718958765268326,0.0014067431911826134,-0.0005185692571103573
1772522023520483800,1.92248388671875,-0.0008363509550690651,0.0015751351602375507,-0.0012719654478132725
1772522023530481000,1.93248095703125,-0.001629972830414772,0.0003245151601731777,-0.0004160255193710327
1772522023540477700,1.942477783203125,-0.001254551112651825,-0.002990412525832653,0.0012193741276860237
1772522023550473700,1.9524736328125,0.0012429612688720226,-0.001115813385695219,0.0004936628974974155
1772522023560470800,1.962470703125,-0.0022587748244404793,-0.0016685184091329575,0.0011898074299097061
1772522023570467600,1.972467529296875,0.0008557923138141632,-0.00040165288373827934,-0.0008009057492017746
1772522023580465000,1.98246484375,0.0001569436863064766,-0.0012508598156273365,-0.002444783691316843
1772522023590460700,1.992460693359375,-0.0015789046883583069,0.0009553031995892525,-0.00167379854246974
1772522023600457700,2.002457763671875,0.0016012853011488914,0.0002766498364508152,-0.00013400521129369736
1772522023610454800,2.012454833984375,0.001914472784847021,-0.0016317716799676418,-0.0008685048669576645
1772522023620451600,2.02245166015625,-0.001613362692296505,-0.0006516855210065842,-0.000225018709897995
1772522023630447900,2.03244775390625,-0.001078067347407341,-0.0003097360022366047,-0.0003991895355284214
1772522023640444700,2.042444580078125,-0.0004739919677376747,-0.001869460567831993,-0.0002940217964351177
1772522023650442000,2.05244189453125,0.0002053799107670784,0.000492496881633997,-0.001861292403191328
1772522023660438800,2.062438720703125,0.0019187317229807377,0.0013268492184579372,-0.0026931297034025192
1772522023670434800,2.072434814453125,-0.0020547043532133102,-0.003519571153447032,-0.0024196230806410313
1772522023680431900,2.082431884765625,-0.0008401898667216301,0.0005464358255267143,-0.000054821837693452835
1772522023690428700,2.0924287109375,0.00038912519812583923,-0.00014332309365272522,-0.0001818547025322914
1772522023700424700,2.1024248046875,0.00036140065640211105,-0.00026245415210723877,-0.0004324871115386486
1772522023710421800,2.112421875,-0.0007430119439959526,0.0010576746426522732,0.0017627570778131485
1772522023720418800,2.122418701171875,0.0016549481078982353,0.0003964514471590519,-0.0017506112344563007
1772522023730415900,2.132415771484375,0.0000703670084476471,0.0016356203705072403,-0.0018605999648571014
1772522023740411600,2.14241162109375,-0.00006102118641138077,0.0006063804030418396,0.00004749651998281479
1772522023750409000,2.152408935546875,0.0028391615487635136,-0.0003973650746047497,-0.0024710549041628838
1772522023760405800,2.16240576171875,-0.002064066007733345,-0.0003763376735150814,0.0012771515175700188
1772522023770401800,2.17240185546875,0.0019240179099142551,-0.0004149535670876503,0.002290750853717327
1772522023780398800,2.18239892578125,-0.00045419204980134964,-0.0005250968970358372,-0.00006576487794518471
1772522023790395600,2.192395751953125,0.00037831254303455353,0.0013966402038931847,0.0000961553305387497
1772522023800393000,2.20239306640625,0.0011094063520431519,-0.000008458271622657776,-0.002476744819432497
1772522023810388700,2.212388671875,0.0018902448937296867,-0.0009445594623684883,0.0003419448621571064
1772522023820385800,2.2223857421875,0.0010074404999613762,0.0029032579623162746,-0.0017401846125721931
1772522023830382800,2.2323828125,0.0008298074826598167,0.0005085431039333344,0.0004454716108739376
1772522023840379600,2.242379638671875,-0.0010999469086527824,0.0018245452083647251,-0.0007165051065385342
1772522023850376000,2.2523759765625,-0.0008173855021595955,0.0007659387774765491,0.0013080299831926823
1772522023860372700,2.262372802734375,0.00008161831647157669,-0.0004886030219495296,-0.00072128651663661
1772522023870369800,2.272369873046875,-0.00095328688621521,-0.00013227201998233795,-0.000757239293307066
1772522023880366800,2.282366943359375,0.0016877735033631325,0.00102612329646945,0.0010645007714629173
1772522023890362600,2.292362548828125,-0.00005366746336221695,-0.0026708771474659443,-0.0007571009919047356
1772522023900360000,2.30235986328125,0.0003803502768278122,-0.00040207989513874054,-0.0005771270953118801
1772522023910356700,2.312356689453125,0.001106327399611473,-0.0017437804490327835,-0.00009376322850584984
1772522023920352800,2.322352783203125,-0.0016623921692371368,0.0023363344371318817,-0.0008528484031558037
1772522023930349600,2.332349609375,0.0007264632731676102,0.0005237874574959278,0.00009443797171115875
1772522023940346400,2.342346435546875,0.0015696026384830475,-0.0006619743071496487,-0.0001675160601735115
1772522023950343700,2.35234375,0.00019061751663684845,-0.00019751908257603645,0.0006133229471743107
1772522023960339500,2.36233935546875,-0.0015371059998869896,-0.000742629636079073,0.000922823790460825
1772522023970336500,2.37233642578125,0.0008932948112487793,-0.00039242394268512726,-0.0024468740448355675
1772522023980333600,2.38233349609375,0.00030292849987745285,0.0012222891673445702,-0.00017348211258649826
1772522023990330400,2.392330322265625,0.0002017281949520111,-0.0008917278610169888,-0.001579897478222847
1772522024000326700,2.40232666015625,-0.003026902675628662,-0.0007782154716551304,-0.0011406647972762585
1772522024010323500,2.412323486328125,-0.000950702466070652,-0.00115292239934206,-0.00019364478066563606
1772522024020320500,2.422320556640625,-0.0017072372138500214,0.00040119048207998276,0.00019760103896260262
1772522024030316500,2.432316650390625,0.0013229073956608772,0.0007995995692908764,0.0008990778587758541
1772522024040313600,2.442313720703125,0.0011451467871665955,0.0011406135745346546,0.000795003492385149
1772522024050310700,2.452310546875,-0.0008873781189322472,0.00022421963512897491,-0.0029792282730340958
1772522024060307500,2.462307373046875,0.0019982843659818172,0.0004003695212304592,-0.002848835662007332
1772522024070303500,2.472303466796875,0.00019798707216978073,0.0014696288853883743,0.0008335169404745102
1772522024080300500,2.482300537109375,0.0002191942185163498,-0.000550699420273304,0.0010918169282376766
1772522024090297300,2.49229736328125,-0.0005347467958927155,-0.0018396694213151932,-0.001712758094072342
1772522024100294700,2.502294677734375,-0.000713747926056385,-0.00015361513942480087,0.0012591485865414143
1772522024110290400,2.51229052734375,-0.001988602802157402,-0.003725446527823806,0.00029801344498991966
1772522024120287500,2.52228759765625,-0.0014745742082595825,0.0025965399108827114,-0.0020906245335936546
1772522024130284500,2.532284423828125,0.003165984060615301,-0.0007752883248031139,-0.000410968903452158
1772522024140280600,2.542280517578125,0.0006035948172211647,-0.00012892438098788261,0.0019759382121264935
1772522024150277600,2.552277587890625,-0.0017109578475356102,0.0008356724865734577,-0.0006486070342361927
1772522024160274400,2.5622744140625,-0.0009603872895240784,-0.001227406319230795,-0.0013980581425130367
1772522024170271700,2.572271728515625,-0.0005518579855561256,-0.0004423065111041069,-0.0009170915000140667
1772522024180267500,2.582267578125,-0.0001593204215168953,-0.0002843285910785198,0.00006638048216700554
1772522024190264600,2.5922646484375,0.001373861450701952,-0.0022606602869927883,-0.0028439220041036606
1772522024200261600,2.60226171875,0.0016364054754376411,0.0007290574721992016,0.0008298712782561779
1772522024210257400,2.61225732421875,0.0004928437992930412,0.00011173682287335396,0.0015071132220327854
1772522024220254500,2.62225439453125,0.0009956182911992073,-0.0012655858881771564,0.0015969127416610718
1772522024230251500,2.63225146484375,-0.0019719423726201057,0.0018987823277711868,-0.00008913455531001091
1772522024240248300,2.642248291015625,-0.000013417564332485199,-0.001329490914940834,0.0018145237118005753
1772522024250244600,2.65224462890625,-0.0007375311106443405,-0.00213136849924922,-0.0008976394310593605
1772522024260241400,2.662241455078125,-0.00028134509921073914,-0.0010176077485084534,-0.0008363053202629089
1772522024270238700,2.67223876953125,-0.0017375610768795013,-0.0008421055972576141,-0.0006815758533775806
1772522024280235500,2.682235595703125,0.000799163244664669,-0.0015705549158155918,-0.0008106683380901814
1772522024290231600,2.6922314453125,0.00023111049085855484,-0.0010669510811567307,-0.0013800524175167084
1772522024300228600,2.702228515625,-0.0023651830852031708,0.00006955396384000778,-0.0015065553598105907
1772522024310225400,2.712225341796875,-0.0007228115573525429,0.0011523952707648277,0.0010095993056893349
1772522024320222700,2.72222265625,0.0013934066519141197,0.0016791489906609058,-0.000020219478756189346
1772522024330218500,2.732218505859375,0.0011598477140069008,-0.0003049061633646488,0.0032578655518591404
1772522024340215600,2.742215576171875,0.0005619991570711136,0.0014646071940660477,0.0021553905680775642
1772522024350212600,2.752212646484375,-0.00001990143209695816,-0.001608947291970253,0.001032068394124508
1772522024360208400,2.76220849609375,-0.0016938112676143646,0.0012813443318009377,0.0006140279583632946
1772522024370205700,2.772205810546875,-0.00022720824927091599,0.001442465465515852,-0.0015572472475469112
1772522024380202500,2.782202392578125,-0.0006019128486514091,-0.0007919701747596264,-0.0013074902817606926
1772522024390199300,2.79219921875,0.0016276850365102291,-0.0017352616414427757,-0.003612988628447056
1772522024400195600,2.802195556640625,-0.0008397027850151062,-0.0006766654551029205,0.00007641781121492386
1772522024410192400,2.8121923828125,0.0012719174847006798,-0.0018404670991003513,0.0014575328677892685
1772522024420189700,2.822189697265625,-0.0017633400857448578,-0.000678554642945528,-0.000279952771961689
1772522024430186500,2.8321865234375,-0.0004389500245451927,0.0012455792166292667,0.001079590991139412
1772522024440182500,2.8421826171875,-0.0006130747497081757,0.0011152047663927078,-0.0007930491119623184
1772522024450179600,2.8521796875,0.0007848180830478668,0.000806011725217104,-0.001710241660475731
1772522024460176400,2.86217626953125,0.0014940239489078522,0.0008380906656384468,0.0022711623460054398
1772522024470172700,2.872172607421875,0.00008760858327150345,-0.0001161196269094944,-0.002912681084126234
1772522024480169500,2.88216943359375,-0.0032081082463264465,-0.0012044450268149376,0.0017135953530669212
1772522024490166500,2.89216650390625,0.00041858479380607605,-0.00011680973693728447,-0.0005069482140243053
1772522024500163600,2.90216357421875,0.0005710003897547722,0.0015560798346996307,0.0007212548516690731
1772522024510159600,2.91215966796875,-0.0016242433339357376,-0.0002740444615483284,-0.0014982232823967934
1772522024520156700,2.92215673828125,0.001247029285877943,0.0012569688260555267,-0.000173123087733984
1772522024530153500,2.932153564453125,-0.00036977604031562805,0.0013672239147126675,-0.000687645748257637
1772522024540150500,2.942150634765625,0.001408726442605257,0.0012017246335744858,-0.0008744494989514351
1772522024550146600,2.952146484375,0.0005839457735419273,0.0012137088924646378,-0.0018715374171733856
1772522024560143400,2.962143310546875,-0.00046234484761953354,-0.00017368560656905174,0.002956738695502281
1772522024570140700,2.972140625,0.0002633659169077873,-0.0017702504992485046,0.00026934267953038216
1772522024580136400,2.982136474609375,0.0009357444941997528,0.0003361334092915058,-0.004005055408924818
1772522024590133500,2.992133544921875,-0.001758309081196785,0.0005742199718952179,0.0020808004774153233
1772522024600130600,3.002130615234375,-0.001477191224694252,0.0007093204185366631,0.0012021600268781185
1772522024610127400,3.01212744140625,0.0022919801995158195,-0.00023556919768452644,0.00005913153290748596
1772522024620123600,3.02212353515625,-0.0004088534042239189,0.001956045161932707,0.0013590147718787193
1772522024630120400,3.032120361328125,-0.0009310990571975708,-0.0008168378844857216,0.00319872610270977
1772522024640117800,3.04211767578125,-0.0010839980095624924,0.0000035241246223449707,-0.001905019860714674
1772522024650114600,3.052114501953125,-0.0010270057246088982,0.0016922345384955406,0.0013280571438372135
1772522024660110600,3.062110595703125,-0.000531170517206192,-0.0013526538386940956,-0.0013832035474479198
1772522024670107600,3.072107666015625,0.0017737955786287785,0.0005602948367595673,-0.0005770646966993809
1772522024680104400,3.0821044921875,-0.00030557531863451004,0.0009675710462033749,-0.0001572086475789547
1772522024690100500,3.0921005859375,0.0019937981851398945,0.000977691262960434,0.00028514210134744644
1772522024700097500,3.10209765625,0.0007206210866570473,0.002810549456626177,-0.00043866410851478577
1772522024710094300,3.11209423828125,-0.002138282172381878,-0.0010821926407516003,-0.0013814233243465424
1772522024720091600,3.122091552734375,-0.0008266894146800041,0.0006162808276712894,-0.00010226434096693993
1772522024730087400,3.13208740234375,0.0005791932344436646,0.00015528779476881027,-0.00013422220945358276
1772522024740084700,3.142084716796875,-0.0005384627729654312,-0.000862940214574337,0.0020915684290230274
1772522024750081500,3.15208154296875,-0.0009118374437093735,0.0006286962889134884,0.002682523336261511
1772522024760078300,3.162078369140625,0.00018847733736038208,-0.0014738407917320728,0.00032319221645593643
1772522024770074600,3.17207470703125,-0.002034463919699192,0.0005810540169477463,-0.0006587156094610691
1772522024780071400,3.182071533203125,-0.0007237009704113007,0.0016096411272883415,0.0016273106448352337
1772522024790068700,3.19206884765625,0.0011442406103014946,0.0006940462626516819,-0.00007418310269713402
1772522024800064500,3.202064453125,0.001454575452953577,0.0009726169519126415,0.0005449852906167507
1772522024810061600,3.2120615234375,0.002341408282518387,0.0016389400698244572,-0.0007136249914765358
1772522024820058600,3.22205859375,0.00023887678980827332,-0.001558104995638132,0.00005525816231966019
1772522024830055400,3.232055419921875,-0.00044635403901338577,-0.0003178706392645836,0.0002286299131810665
1772522024840051700,3.2420517578125,-0.00018012616783380508,0.0013736477121710777,0.00010980479419231415
1772522024850048500,3.252048583984375,-0.0009814715012907982,-0.0017651538364589214,-0.002002880908548832
1772522024860045300,3.26204541015625,0.0006287526339292526,0.00047728652134537697,0.00019379984587430954
1772522024870041600,3.27204150390625,0.0005025193095207214,-0.0011126208119094372,0.00025984644889831543
1772522024880038400,3.282038330078125,0.0019246628507971764,-0.0016344161704182625,0.0000010104849934577942
1772522024890035700,3.29203564453125,0.0005089258775115013,0.00031049037352204323,-0.00047516264021396637
1772522024900032500,3.302032470703125,0.002160489559173584,0.0032759131863713264,0.00297919986769557
1772522024910028500,3.312028564453125,-0.001520531252026558,0.0009485771879553795,-0.0015617557801306248
1772522024920025600,3.322025634765625,0.0016251690685749054,0.0006516072899103165,-0.0017975885421037674
1772522024930023200,3.332023193359375,-0.0006467737257480621,-0.0003364258445799351,0.001033085398375988
1772522024940020000,3.34202001953125,-0.00016674771904945374,0.0015793335624039173,0.00041955383494496346
1772522024950016300,3.352016357421875,-0.001624029129743576,0.0010214014910161495,-0.0007178820669651031
1772522024960013000,3.362012939453125,0.000892002135515213,-0.0022547245025634766,-0.0007699974812567234
1772522024970010400,3.37201025390625,-0.0010076304897665977,-0.0005052941851317883,0.00029766419902443886
1772522024980006100,3.382006103515625,0.001054464839398861,0.0010042688809335232,0.0003371206112205982
1772522024990003200,3.392003173828125,0.0008581895381212234,-0.0004586055874824524,0.00018745101988315582
1772522025000000300,3.402000244140625,0.00020624417811632156,0.00011497456580400467,-0.0038717705756425858
1772522025009997000,3.4119970703125,-0.00009416043758392334,0.001103007234632969,0.0004950147122144699
1772522025019993300,3.421993408203125,-0.0013224566355347633,-0.00039748474955558777,0.0012448602356016636
1772522025029990100,3.431990234375,0.0007782448083162308,-0.0009064148180186749,-0.0016728988848626614
1772522025039987200,3.4419873046875,-0.00027739256620407104,-0.0005888901650905609,-0.0003798459656536579
1772522025049984300,3.451984375,0.00021822191774845123,-0.0011843731626868248,0.0001466609537601471
1772522025059980000,3.46197998046875,-0.001560799777507782,0.000441522803157568,0.00043884851038455963
1772522025069977300,3.471977294921875,-0.0011605266481637955,-0.000059151556342840195,0.0003946400247514248
1772522025079974100,3.48197412109375,-0.0008347537368535995,0.00031876517459750175,0.002242131158709526
1772522025089970200,3.49197021484375,0.0002560773864388466,0.0028836559504270554,-0.0005227620713412762
1772522025099967200,3.50196728515625,-0.00012973789125680923,0.0006661154329776764,-0.0010307151824235916
1772522025109964000,3.511964111328125,-0.000730280764400959,-0.0014135469682514668,-0.0003119278699159622
1772522025119961300,3.52196142578125,-0.0009200526401400566,0.00012411922216415405,-0.0019848067313432693
1772522025129957000,3.53195703125,-0.00010113045573234558,-0.0009664450772106647,0.000784347765147686
1772522025139954200,3.5419541015625,-0.0009196484461426735,0.0007113036699593067,0.0013187951408326626
1772522025149951200,3.551951171875,0.0004854360595345497,-0.0006543654017150402,-0.0004290379583835602
1772522025159948000,3.561947998046875,0.0007278695702552795,0.0023421114310622215,0.0006087250076234341
1772522025169944300,3.5719443359375,0.000045301392674446106,0.00008721323683857918,-0.0008339094929397106
1772522025179941000,3.581941162109375,0.000569353811442852,-0.0008029448799788952,-0.0011895839124917984
1772522025189938400,3.5919384765625,0.0020719091407954693,-0.00046472344547510147,-0.0022697621025145054
1772522025199934200,3.601934326171875,-0.00009107869118452072,0.000038850586861371994,0.0014616698026657104
1772522025209931000,3.611930908203125,-0.0008649928495287895,0.001125686801970005,0.0001375460997223854
1772522025219928300,3.62192822265625,-0.00014620553702116013,0.0013376874849200249,-0.0019563515670597553
1772522025229925000,3.631925048828125,0.001056477427482605,0.0016370262019336224,0.0005416935309767723
1772522025239921200,3.641921142578125,-0.0011772410944104195,-0.00031358329579234123,-0.0002758242189884186
1772522025249918200,3.651918212890625,-0.00023821089416742325,0.0009852400980889797,-0.0006702383980154991
1772522025259915000,3.6619150390625,-0.0007561240345239639,-0.0012426748871803284,-0.0004596104845404625
1772522025269912300,3.671912353515625,0.0017062346450984478,-0.0002248147502541542,-0.00018929969519376755
1772522025279908000,3.681908203125,0.0014357557520270348,-0.0011867969296872616,0.001278141513466835
1772522025289905400,3.691905517578125,-0.0009530996903777122,0.0008348082192242146,-0.0014438759535551071
1772522025299902200,3.701902099609375,0.00042181089520454407,-0.0014555398374795914,-0.0019098068587481976
1772522025309898200,3.711898193359375,0.0012231562286615372,-0.0013527418486773968,-0.00001896219328045845
1772522025319895300,3.721895263671875,-0.00170066487044096,-0.002404774772003293,-0.0012846887111663818
1772522025329892000,3.73189208984375,-0.0014945361763238907,-0.0010894392617046833,0.0006809905171394348
1772522025339889400,3.741889404296875,0.0003645215183496475,0.002134171314537525,-0.0001976597122848034
1772522025349885200,3.75188525390625,0.00021751504391431808,0.00022095674648880959,0.0009536244906485081
1772522025359882200,3.76188232421875,-0.001762188971042633,0.0014040619134902954,0.0015886169858276844
1772522025369879300,3.77187939453125,-0.00007827207446098328,-0.00012512505054473877,-0.0007160822860896587
1772522025379876000,3.7818759765625,0.0003479663282632828,0.000559304840862751,-0.0018751155585050583
1772522025389872400,3.791872314453125,0.0003002956509590149,0.00009618140757083893,-0.0004364759661257267
1772522025399869200,3.801869140625,-0.001012483611702919,0.00032185623422265053,0.0009200661443173885
1772522025409866000,3.811865966796875,-0.0006289882585406303,-0.0011932160705327988,-0.00011696899309754372
1772522025419862300,3.8218623046875,-0.002064038999378681,-0.000349611509591341,0.000009316951036453247
1772522025429859000,3.831859130859375,0.00007367972284555435,-0.0007759835571050644,-0.001027718186378479
1772522025439856400,3.8418564453125,-0.00012740027159452438,0.00030698347836732864,-0.0013475501909852028
1772522025449853200,3.851853271484375,-0.00041635334491729736,0.0008609211072325706,-0.0005845548585057259
1772522025459849200,3.86184912109375,0.002574685961008072,-0.001313613262027502,0.0005649910308420658
1772522025469846300,3.87184619140625,0.00044309161603450775,-0.00009681470692157745,0.0013194642961025238
1772522025479843000,3.881843017578125,-0.00034494325518608093,0.0006203614175319672,-0.0012152371928095818
1772522025489840400,3.89184033203125,0.0017320564948022366,-0.001248645130544901,0.0003613540902733803
1772522025499836200,3.901836181640625,0.0005333041772246361,0.00018329033628106117,-0.00042868079617619514
1772522025509833200,3.911833251953125,0.00008349679410457611,-0.0006630620919167995,-0.00015863636508584023
1772522025519830300,3.921830322265625,0.0008632894605398178,-0.00041484180837869644,-0.0026533007621765137
1772522025529826000,3.931825927734375,-0.0006696265190839767,-0.00007076142355799675,-0.0007573962211608887
1772522025539823400,3.9418232421875,0.0005729394033551216,0.00024804379791021347,0.0013616480864584446
1772522025549820200,3.951820068359375,-0.0005932589992880821,0.0009974576532840729,-0.0006884532049298286
1772522025559817200,3.961817138671875,0.0009089633822441101,0.0004137558862566948,0.0006319195963442326
1772522025569813200,3.971813232421875,-0.00036855414509773254,-0.0019386145286262035,-0.0015382901765406132
1772522025579810000,3.98181005859375,0.000756426714360714,0.0014826739206910133,-0.000036893412470817566
1772522025589807400,3.991807373046875,-0.001608460210263729,0.001082134898751974,0.002182052470743656
1772522025599803100,4.00180322265625,-0.0014430824667215347,0.001712652388960123,-0.0006467457860708237
1772522025609800200,4.01180029296875,0.0008038263767957687,0.0014822888188064098,0.0008558095432817936
1772522025619797200,4.02179736328125,-0.0010854154825210571,-0.0013718069531023502,0.0011572958901524544
1772522025629794000,4.0317939453125,-0.00011256244033575058,-0.0007965643890202045,-0.0006358111277222633
1772522025639790300,4.041790283203125,0.00036064814776182175,0.0016423501074314117,-0.00036579882726073265
1772522025649787100,4.051787109375,0.0008474737405776978,-0.0018325429409742355,-0.0008859140798449516
1772522025659784200,4.0617841796875,-0.0004984764382243156,-0.00243400945328176,0.0006116381846368313
1772522025669781200,4.07178125,0.0019215382635593414,0.001138088759034872,-0.0008285990916192532
1772522025679777000,4.081777099609375,0.0016300110146403313,-0.000395309180021286,0.0006728689186275005
1772522025689774300,4.0917744140625,0.0010853945277631283,0.00042893923819065094,0.00043371692299842834
1772522025699771100,4.101771240234375,-0.0014212671667337418,-0.002130032517015934,0.0002953563816845417
1772522025709767200,4.11176708984375,0.0015894360840320587,-0.0012621083296835423,-0.000004249159246683121
1772522025719764200,4.12176416015625,-0.00041962601244449615,0.0016835513524711132,0.0012417910620570183
1772522025729761000,4.131760986328125,0.0011985106393694878,-0.000931939110159874,0.0007075616158545017
1772522025739758300,4.14175830078125,0.0000305958092212677,0.00017923442646861076,-0.00045619672164320946
1772522025749754000,4.151754150390625,-0.0006727445870637894,0.001925468910485506,0.001800832338631153
1772522025759751400,4.16175146484375,0.0015480048023164272,-0.0005535166710615158,-0.0007631657645106316
1772522025769748200,4.171748291015625,0.0001762108877301216,-0.0007649720646440983,0.0008264752104878426
1772522025779745000,4.1817451171875,-0.0006496701389551163,-0.0003100428730249405,-0.00013337843120098114
1772522025789741300,4.1917412109375,-0.00008401460945606232,0.0001978222280740738,0.0007846131920814514
1772522025799738000,4.201738037109375,0.0017432188615202904,0.0011783689260482788,0.0008965106680989265
1772522025809735400,4.2117353515625,0.00011043436825275421,-0.001549507025629282,0.0004672091454267502
1772522025819731200,4.221731201171875,0.0012883003801107407,-0.002182427328079939,0.0005064471624791622
1772522025829728000,4.23172802734375,-0.00010932609438896179,0.0005718139000236988,0.0013967417180538177
1772522025839725300,4.241725341796875,-0.0015397854149341583,0.0010861372575163841,0.00036246562376618385
1772522025849722000,4.25172216796875,0.0007452070713043213,0.00035243621096014977,-0.0005507324822247028
1772522025859718100,4.26171826171875,0.00020996388047933578,0.0008812723681330681,-0.0021539623849093914
1772522025869715200,4.271715087890625,-0.0013328054919838905,-0.002304400783032179,-0.0003179791383445263
1772522025879712000,4.2817119140625,-0.000005745328962802887,-0.0011413181200623512,-0.001104750670492649
1772522025889709300,4.291709228515625,0.001827574335038662,-0.0007796608842909336,-0.0005265781655907631
1772522025899705000,4.301705078125,-0.002116478979587555,-0.0007897065952420235,-0.0018058293499052525
1772522025909702400,4.311702392578125,0.0010090069845318794,-0.0005074115470051765,-0.000021245330572128296
1772522025919699200,4.32169921875,0.000719861127436161,-0.00003388151526451111,0.00006304867565631866
1772522025929695200,4.3316953125,0.0005408972501754761,0.0001951507292687893,-0.0013742595911026
1772522025939692000,4.341692138671875,0.0001683579757809639,0.0005418467335402966,-0.0009326147846877575
1772522025949689000,4.351689208984375,0.00008020736277103424,-0.00139293959364295,0.00031800568103790283
1772522025959686100,4.36168603515625,-0.0010706661269068718,-0.0007538925856351852,0.0007977215573191643
1772522025969682000,4.371681884765625,-0.0021572355180978775,0.00015424517914652824,0.0005441885441541672
1772522025979679200,4.38167919921875,0.000758931040763855,0.0005328580737113953,-0.001964169554412365
1772522025989676000,4.391676025390625,-0.0007241833955049515,0.002212247811257839,-0.0015710871666669846
1772522025999673000,4.401673095703125,-0.0010471176356077194,0.000022201798856258392,-0.0005839369259774685
1772522026009669000,4.411669189453125,-0.002235153689980507,0.0014805486425757408,0.00018944498151540756
1772522026019666200,4.421666259765625,-0.0008055856451392174,0.0018941606394946575,-0.0018814513459801674
1772522026029663000,4.4316630859375,-0.001200266182422638,0.0005721678026020527,-0.0019136755727231503
1772522026039659000,4.441658935546875,0.0015524881891906261,0.0010937140323221684,0.00013648532330989838
1772522026049656000,4.451656005859375,0.0007737800478935242,0.0010060961358249187,-0.0011586099863052368
1772522026059653000,4.461653076171875,-0.001305420882999897,-0.0006270492449402809,0.00026206159964203835
1772522026069650200,4.471650146484375,-0.00153418630361557,-0.0013197371736168861,0.00008229818195104599
1772522026079646200,4.481646240234375,-0.00021922122687101364,0.0007567140273749828,-0.0008689435198903084
1772522026089643000,4.49164306640625,0.0004484327509999275,0.0003836052492260933,-0.0008740033954381943
1772522026099640000,4.50164013671875,-0.000829002819955349,0.0004452378489077091,0.000045365188270807266
1772522026109637000,4.51163720703125,-0.0018114428967237473,0.0016234205104410648,0.0009766723960638046
1772522026119633000,4.5216328125,-0.0024175699800252914,-0.0003560120239853859,-0.0031647849828004837
1772522026129630200,4.531630126953125,-0.000016730278730392456,-0.0009970348328351974,-0.0007969685830175877
1772522026139627000,4.541626953125,0.00045508798211812973,0.0002374504692852497,-0.00019107339903712273
1772522026149623000,4.551623046875,-0.004192926920950413,-0.0008672289550304413,-0.0013934904709458351
1772522026159620000,4.5616201171875,0.0007763141766190529,0.0003696950152516365,0.00208819517865777
1772522026169617200,4.5716171875,-0.0008998792618513107,0.00017341971397399902,0.0006887041963636875
1772522026179614000,4.581614013671875,0.0006314879283308983,-0.000742780975997448,-0.0007236022502183914
1772522026189610000,4.59160986328125,0.00021150801330804825,0.0006921305321156979,-0.0027603874914348125
1772522026199607000,4.60160693359375,-0.0000858549028635025,0.002661714795976877,0.0013016043230891228
1772522026209604000,4.61160400390625,-0.0012272857129573822,-0.0014163833111524582,-0.0001093386672437191
1772522026219600000,4.621599853515625,-0.0018974235281348228,0.0008513880893588066,-0.0005714772269129753
1772522026229597200,4.63159716796875,-0.001374911516904831,-0.0003728670999407768,-0.0007973131723701954
1772522026239594000,4.641593994140625,0.0010972223244607449,-0.0008467826992273331,-0.000011781696230173111
1772522026249591000,4.651591064453125,0.000566454604268074,-0.00006221560761332512,0.00030433526262640953
1772522026259587000,4.661587158203125,-0.0015129698440432549,0.0006317081861197948,0.00150982104241848
1772522026269584100,4.671584228515625,-0.0027334969490766525,-0.0014780480414628983,0.0015774648636579514
1772522026279581200,4.681581298828125,-0.00020346976816654205,-0.0004631495103240013,0.003364733885973692
1772522026289578000,4.691577880859375,0.0014628698118031025,-0.0016517182812094688,-0.00014158431440591812
1772522026299574000,4.701573974609375,0.0008052317425608635,0.0007298770360648632,0.0006335009820759296
1772522026309571000,4.711571044921875,0.0013626315630972385,0.00039831362664699554,0.0013104765675961971
1772522026319568100,4.721568115234375,-0.00005885772407054901,0.0005922969430685043,0.0007472517900168896
1772522026329564200,4.731564208984375,-0.0009211888536810875,0.0019574337638914585,-0.0016165701672434807
1772522026339561000,4.74156103515625,0.0007769092917442322,-0.0002071424387395382,-0.0006281002424657345
1772522026349558000,4.75155810546875,-0.000542154535651207,-0.00005507608875632286,0.0009197290055453777
1772522026359555000,4.76155517578125,0.0013114367611706257,0.001040634699165821,0.0012753484770655632
1772522026369551000,4.771551025390625,-0.001961055211722851,0.0008270489051938057,-0.0020799683406949043
1772522026379548200,4.781548095703125,-0.00006049126386642456,0.0021081045269966125,-0.0006066183559596539
1772522026389545000,4.791544921875,0.00016188248991966248,0.0005243229679763317,-0.0001996876671910286
1772522026399542000,4.8015419921875,-0.0009164698421955109,0.0008004298433661461,-0.00143386609852314
1772522026409538000,4.8115380859375,-0.0005838414654135704,0.0025059180334210396,0.0007757586427032948
1772522026419535000,4.82153515625,-0.0002749348059296608,-0.00019048107787966728,-0.0009212186560034752
1772522026429532200,4.8315322265625,0.0008848719298839569,-0.0017268587835133076,0.001207712572067976
1772522026439528000,4.84152783203125,-0.0005921348929405212,0.0024613207206130028,0.00027525052428245544
1772522026449525000,4.85152490234375,-0.002913879230618477,0.0008945828303694725,-0.000367902684956789
1772522026459522000,4.86152197265625,-0.0005666892975568771,0.00032894546166062355,-0.0005891774781048298
1772522026469519000,4.87151904296875,-0.002233029343187809,-0.00024656346067786217,-0.0013806689530611038
1772522026479515100,4.88151513671875,0.0016872952692210674,0.0004894002340734005,0.00034517375752329826
1772522026489512000,4.891511962890625,0.0011139167472720146,0.0012358841486275196,-0.0004132944159209728
1772522026499509000,4.901509033203125,-0.0007873019203543663,0.0016831760294735432,0.0007483433000743389
1772522026509506000,4.911506103515625,0.0006350921466946602,-0.002949126297608018,0.001247952226549387
1772522026519502000,4.921502197265625,0.0015935744158923626,-0.0002529672347009182,-0.0010939310304820538
1772522026529499100,4.9314990234375,-0.0013161953538656235,0.0022141854278743267,-0.00003106333315372467
1772522026539496200,4.94149609375,0.0024374877102673054,-0.0003028339706361294,-0.00029007066041231155
1772522026549492200,4.9514921875,0.0018156394362449646,0.0004716133698821068,0.0008766599930822849
1772522026559489000,4.961489013671875,-0.00036523398011922836,-0.000554179772734642,-0.0005807406269013882
1772522026569486000,4.971486083984375,-0.0015564654022455215,0.0021776906214654446,0.0018014567904174328
1772522026579483100,4.981483154296875,0.0011020186357200146,-0.00014101946726441383,0.00014137756079435349
1772522026589479000,4.99147900390625,0.00013049785047769547,0.0002501988783478737,0.00011341460049152374
1772522026599476200,5.001476318359375,-0.0009157983586192131,0.0007005124352872372,0.000016392208635807037
1772522026609473000,5.01147314453125,0.0003079241141676903,0.0008187568746507168,0.0015202797949314117
1772522026619470000,5.021469970703125,0.0005573173984885216,0.000708532053977251,0.0008649402298033237
1772522026629466000,5.031466064453125,-0.00008929800242185593,0.0007165214046835899,-0.0004985984414815903
1772522026639463200,5.041463134765625,0.00229589082300663,-0.0010612960904836655,-0.0003402489237487316
1772522026649460000,5.0514599609375,-0.0016716867685317993,-0.0010876613669097424,-0.0024939472787082195
1772522026659456000,5.0614560546875,0.00021125935018062592,-0.0009731189347803593,-0.0014609643258154392
1772522026669453000,5.071453125,-0.00037197303026914597,-0.0006101299077272415,0.0003792797215282917
1772522026679450000,5.0814501953125,0.0010507088154554367,-0.0013419948518276215,0.0004993877373635769
1772522026689447200,5.091447265625,-0.0003636963665485382,0.002157132141292095,0.0012983358465135098
1772522026699443200,5.101443115234375,0.00205962173640728,0.0004429440014064312,-0.00017867330461740494
1772522026709440000,5.11143994140625,-0.0003401525318622589,0.001290095504373312,0.001393923070281744
1772522026719437000,5.12143701171875,-0.0005613863468170166,0.00019963271915912628,-0.0012658420018851757
1772522026729433000,5.13143310546875,0.0007211919873952866,-0.0014083841815590858,-0.00048127444460988045
1772522026739430100,5.14143017578125,0.0008438332006335258,-0.0003955620341002941,0.0017593540251255035
1772522026749427200,5.15142724609375,-0.0002717645838856697,-0.001726876012980938,0.00013668974861502647
1772522026759424000,5.161424072265625,-0.000141276977956295,-0.00037405826151371,0.0006769527681171894
1772522026769420000,5.171419921875,0.0013543544337153435,0.0011857552453875542,0.0001493804156780243
1772522026779417000,5.1814169921875,0.0004539554938673973,-0.0010060640051960945,0.0004939534701406956
1772522026789414100,5.1914140625,-0.0015495410189032555,0.0032853535376489162,-0.0028682874981313944
1772522026799411000,5.201410888671875,-0.00020246859639883041,-0.0018812958151102066,0.0004515135660767555
1772522026809407000,5.211406982421875,-0.0006243130192160606,0.0013123671524226665,0.0007425970397889614
1772522026819404000,5.221404052734375,0.0009029405191540718,0.0006923801265656948,0.0011455644853413105
1772522026829401000,5.231401123046875,-0.0022867275401949883,-0.00009618187323212624,-0.000020100735127925873
1772522026839397000,5.241397216796875,-0.002055518329143524,0.00006004096940159798,-0.0003045424818992615
1772522026849394200,5.251394287109375,-0.0003327196463942528,0.0012861602008342743,-0.0008329139091074467
1772522026859391000,5.261390869140625,-0.0012069623917341232,-0.0003030351363122463,-0.0006561647169291973
1772522026869388000,5.271387939453125,0.00020211655646562576,0.0000647474080324173,-0.002072433941066265
1772522026879384000,5.281384033203125,0.00022038351744413376,0.0012737116776406765,-0.002440221607685089
1772522026889381000,5.291381103515625,-0.0018893731757998466,-0.0005204598419368267,0.0020189755596220493
1772522026899378200,5.301378173828125,-0.001139865256845951,0.0011029583401978016,-0.0005045374855399132
1772522026909375200,5.311375244140625,0.00008465629070997238,-0.0005593867972493172,0.001847300212830305
1772522026919371000,5.32137109375,-0.0006012469530105591,0.0004532583989202976,-0.0009483289904892445
1772522026929368000,5.3313681640625,0.00034710485488176346,-0.0006061471067368984,-0.00048387376591563225
1772522026939364900,5.34136474609375,-0.0017134025692939758,-0.0015814541839063168,-0.0003281906247138977
1772522026949361000,5.35136083984375,-0.001088624820113182,-0.00038303155452013016,-0.0004749307408928871
1772522026959358000,5.36135791015625,0.0003470126539468765,0.00018027564510703087,0.001561114564538002
1772522026969354800,5.371354736328125,0.0027350690215826035,-0.0035071370657533407,-0.001147586852312088
1772522026979352000,5.38135205078125,0.0009528803639113903,-0.0015662256628274918,-0.002168464008718729
1772522026989347800,5.391347900390625,0.00044528208673000336,0.0003935946151614189,0.00008377153426408768
1772522026999345200,5.40134521484375,-0.0022298861294984818,-0.0016768504865467548,0.0010449164547026157
1772522027009342000,5.411342041015625,0.000376017764210701,-0.00017402833327651024,-0.0003532432019710541
1772522027019338000,5.421337890625,0.00033044256269931793,-0.00004585320129990578,-0.000542069785296917
1772522027029335000,5.4313349609375,0.0025856071151793003,-0.0006820820271968842,-0.00002967752516269684
1772522027039331800,5.441331787109375,0.0003802860155701637,-0.0015840870328247547,-0.0015223203226923943
1772522027049329200,5.4513291015625,-0.0013289302587509155,0.00009903078898787498,0.002352046314626932
1772522027059325000,5.461324951171875,-0.0013258503749966621,0.0004379129968583584,0.0011333241127431393
1772522027069322000,5.471322021484375,0.0022659548558294773,0.001579343806952238,-0.0010320921428501606
1772522027079319000,5.481319091796875,0.0017721783369779587,-0.0006014872342348099,0.0012354589998722076
1772522027089315800,5.49131591796875,-0.001907244324684143,-0.00014928262680768967,-0.0007848148234188557
1772522027099312000,5.50131201171875,0.0017958516255021095,0.0009982283227145672,0.0007855985313653946
1772522027109309000,5.511308837890625,-0.0012811645865440369,0.0008429661393165588,-0.0008514462970197201
1772522027119305700,5.5213056640625,-0.0017586611211299896,0.000707737635821104,0.0012217005714774132
1772522027129302000,5.531302001953125,0.0013093003071844578,0.001775931566953659,0.0011609802022576332
1772522027139298800,5.541298828125,0.0005636513233184814,-0.00140841631218791,0.0012838607653975487
1772522027149296000,5.551296142578125,0.000049394555389881134,0.00019853515550494194,0.003331032581627369
1772522027159293000,5.56129296875,0.0016474728472530842,-0.000877956859767437,0.003382755909115076
1772522027169289000,5.5712890625,0.0000551687553524971,0.00030555203557014465,-0.0000319494865834713
1772522027179286000,5.5812861328125,-0.00112199317663908,-0.00023771775886416435,-0.000046298839151859283
1772522027189282800,5.59128271484375,-0.0004841657355427742,0.0027807094156742096,0.0003342670388519764
1772522027199280000,5.601280029296875,-0.0021767783910036087,0.002378906589001417,-0.00048396922647953033
1772522027209276000,5.61127587890625,-0.0020638611167669296,-0.0002722702920436859,0.0010587996803224087
1772522027219273000,5.62127294921875,-0.0003595631569623947,-0.0005237939767539501,0.0010329289361834526
1772522027229270000,5.63127001953125,-0.003485049121081829,0.00021390151232481003,-0.0015649846754968166
1772522027239265800,5.641265869140625,-0.00011629797518253326,-0.000012174714356660843,-0.0013700155541300774
1772522027249263000,5.65126318359375,0.000318063423037529,0.00023842882364988327,-0.0010797311551868916
1772522027259260000,5.661260009765625,-0.0008937772363424301,0.00033841095864772797,0.0009012618102133274
1772522027269257000,5.671257080078125,0.0007113097235560417,0.001111526507884264,0.0021886341273784637
1772522027279253000,5.6812529296875,0.00023435987532138824,-0.0003207819536328316,0.001171016599982977
1772522027289249800,5.691249755859375,0.000360327772796154,0.0007884246297180653,0.002236014697700739
1772522027299247000,5.7012470703125,-0.0019523948431015015,-0.00013729417696595192,0.0009201434440910816
1772522027309244000,5.711243896484375,-0.0012011174112558365,0.0010070661082863808,-0.0018593976274132729
1772522027319240000,5.721239990234375,0.00042861606925725937,-0.00035327719524502754,0.0012899348512291908
1772522027329238000,5.731238037109375,-0.0014201505109667778,0.0004997332580387592,0.0011605052277445793
1772522027339235000,5.741235107421875,0.0007112668827176094,0.00039864610880613327,0.0007414482533931732
1772522027349231900,5.75123193359375,0.0014798548072576523,0.0025241151452064514,0.0003185383975505829
1772522027359228000,5.761227783203125,-0.0005425000563263893,-0.0009955819696187973,-0.001946532167494297
1772522027369225000,5.771224853515625,-0.0001289108768105507,-0.0003518955782055855,-0.0009869951754808426
1772522027379222000,5.781221923828125,-0.0012937970459461212,0.0004344047047197819,-0.00127484742552042
1772522027389219000,5.791218994140625,-0.00010869000107049942,0.000719096977263689,-0.0014175930991768837
1772522027399215000,5.801215087890625,0.0016789170913398266,0.0003853444941341877,-0.002186443656682968
1772522027409212000,5.8112119140625,-0.0010372409597039223,0.0005722981877624989,0.0013102865777909756
1772522027419209000,5.821208984375,-0.0019818944856524467,-0.0002798927016556263,0.0014268578961491585
1772522027429205000,5.831205078125,-0.0007917275652289391,-0.0025268015451729298,0.0011693304404616356
1772522027439201800,5.841201904296875,-0.0001013297587633133,-0.0024911900982260704,-0.0009528044611215591
1772522027449198800,5.85119873046875,-0.0034012524411082268,0.00002123601734638214,0.0005867686122655869
1772522027459196000,5.86119580078125,0.0003048703074455261,0.0012463675811886787,-0.0015830472111701965
1772522027469192000,5.87119189453125,0.00040473882108926773,-0.0024756663478910923,0.0022146208211779594
1772522027479189000,5.88118896484375,0.0005487455055117607,-0.0005479389801621437,0.000903845764696598
1772522027489186000,5.89118603515625,0.0005585988983511925,-0.0006898855790495872,-0.00010016560554504395
1772522027499182000,5.90118212890625,0.001782198902219534,-0.0007638349197804928,0.0001741410233080387
1772522027509179000,5.911178955078125,0.000044220127165317535,-0.0019257720559835434,2.3655593395233154e-7
1772522027519176000,5.921176025390625,0.0016452041454613209,0.0005391896702349186,0.0006590974517166615
1772522027529173000,5.931173095703125,-0.001306110993027687,0.0004595611244440079,0.0009957212023437023
1772522027539168800,5.941168701171875,-0.0018836921080946922,-0.00008671637624502182,-0.00013191159814596176
1772522027549166000,5.951166015625,0.0024820277467370033,-0.0008920561522245407,-0.0030304959509521723
1772522027559163000,5.961162841796875,0.0018277228809893131,-0.002450624480843544,-0.0025222902186214924
1772522027569160000,5.971159912109375,-0.0014929724857211113,-0.000588542316108942,-0.0007052156142890453
1772522027579156000,5.981156005859375,-0.0004209177568554878,-0.0015481458976864815,-0.0017901267856359482
1772522027589153000,5.991153076171875,-0.00006005913019180298,0.0011674794368445873,-0.0015283380635082722
1772522027599149800,6.00114990234375,-0.00015097204595804214,0.0012261709198355675,0.00035115843638777733
1772522027609145900,6.011145751953125,0.0005574282258749008,0.0009236359037458897,0.0008110860362648964
1772522027619143000,6.021142822265625,-0.0006677918136119843,0.001605660654604435,-0.0035787809174507856
1772522027629140000,6.031139892578125,-0.003042798489332199,-0.0012164907529950142,0.002477247267961502
1772522027639137000,6.041136962890625,0.0009052501991391182,-0.001767345704138279,0.0012920820154249668
1772522027649133000,6.051133056640625,0.001494075171649456,0.0008510742336511612,-0.0009766649454832077
1772522027659129900,6.0611298828125,0.0008242717012763023,0.0010813330300152302,0.0006487309001386166
1772522027669127000,6.071126953125,-0.0001975828781723976,-0.000040922779589891434,0.00020904326811432838
1772522027679124000,6.0811240234375,-0.00166982039809227,0.0014290828257799149,-0.0003726738505065441
1772522027689120000,6.0911201171875,-0.0011707441881299019,0.00042294058948755264,-0.0004999730736017227
1772522027699117000,6.101116943359375,-0.0020501893013715744,0.0002835686318576336,-0.0006123529747128487
1772522027709113900,6.11111376953125,-0.0008682776242494583,0.0013355170376598835,0.0007591750472784042
1772522027719110000,6.12110986328125,0.0017834445461630821,-0.0026108338497579098,-0.000004612840712070465
1772522027729107000,6.13110693359375,-0.0012118127197027206,0.000904538668692112,0.0007919385097920895
1772522027739104000,6.14110400390625,0.001577214803546667,-0.0014765448868274689,-0.0019249273464083672
1772522027749100800,6.151100830078125,0.0012096986174583435,-0.0003923722542822361,0.00036192918196320534
1772522027759096800,6.161096923828125,-0.0004126913845539093,0.00014573661610484123,-0.0016715284436941147
1772522027769094000,6.171093994140625,-0.0012635719031095505,-0.003567508654668927,0.00020919553935527802
1772522027779091000,6.181091064453125,0.0001885499805212021,0.0010212226770818233,-0.00025433115661144257
1772522027789087000,6.1910869140625,-0.0020996378734707832,0.00043585989624261856,0.00264931283891201
1772522027799084000,6.201083984375,0.0003689555451273918,-0.00224487017840147,-0.00023061130195856094
1772522027809080800,6.211080810546875,-0.0018281517550349236,-0.000666947104036808,-0.0011089215986430645
1772522027819078000,6.221077880859375,0.0029086549766361713,-0.0025225551798939705,0.0004960247315466404
1772522027829074000,6.231073974609375,-0.0007137767970561981,-0.001885260920971632,-0.0032526408322155476
1772522027839071000,6.241071044921875,0.00022912397980690002,0.0027034557424485683,0.003147250972688198
1772522027849068000,6.251068115234375,0.0007878551259636879,-0.0023810516577214003,0.000008715316653251648
1772522027859065000,6.261065185546875,0.0015328442677855492,-0.0005753044970333576,-0.0011362754739820957
1772522027869061000,6.27106103515625,0.002105956431478262,0.0009906343184411526,0.002321306150406599
1772522027879058000,6.281057861328125,0.0013295081444084644,0.0005797366611659527,-0.00037335557863116264
1772522027889055000,6.291054931640625,-0.0018793344497680664,-0.000355033203959465,0.00024476414546370506
1772522027899052000,6.301052001953125,-0.0003617871552705765,-0.0013687522150576115,-0.001761545892804861
1772522027909047800,6.3110478515625,0.0005474155768752098,-0.000911487266421318,-0.00022197281941771507
1772522027919044900,6.321044921875,0.0010480890050530434,-0.0020170779898762703,0.0010326425544917583
1772522027929042200,6.331042236328125,-0.002377268858253956,0.0000447416678071022,-0.0003820285201072693
1772522027939038200,6.3410380859375,-0.00011348538100719452,-0.0009925751946866512,-0.0008793552406132221
1772522027949035300,6.35103515625,0.000017276033759117126,0.0014585983008146286,-0.0008276901207864285
1772522027959032300,6.3610322265625,-0.0021524690091609955,-0.00026303576305508614,-0.0011539878323674202
1772522027969029000,6.371029052734375,0.0015698308125138283,-0.0012761023826897144,0.0008428506553173065
1772522027979025200,6.381025146484375,0.0011387895792722702,0.00021584238857030869,-0.0009362767450511456
1772522027989022200,6.391022216796875,-0.0013611195608973503,-0.00008376315236091614,0.0008027674630284309
1772522027999019300,6.401019287109375,0.001687273383140564,0.0009147529490292072,0.0004153824411332607
1772522028009015000,6.41101513671875,-0.0006041107699275017,-0.0010139085352420807,-0.00007916660979390144
1772522028019012000,6.42101220703125,-0.00025442522019147873,0.0005146418698132038,0.00008584139868617058
1772522028029009200,6.431009033203125,-0.001635008491575718,0.00003287568688392639,-0.0014811623841524124
1772522028039006200,6.441006103515625,0.0007088072597980499,0.0006507318466901779,-0.0012327744625508785
1772522028049002200,6.451002197265625,0.0011676698923110962,0.0006856191903352737,0.0012575481086969376
1772522028058999300,6.460999267578125,0.00016143731772899628,0.0017995298840105534,0.0007773782126605511
1772522028068996000,6.47099609375,-0.00011899322271347046,-0.0006897267885506153,-0.00018908269703388214
1772522028078993200,6.4809931640625,-0.001853407360613346,-0.0003341538831591606,0.0014373217709362507
1772522028088989200,6.4909892578125,0.0004337150603532791,0.00018063513562083244,0.0008042887784540653
1772522028098986200,6.500986328125,-0.0012819040566682816,-0.0003901338204741478,0.00048451125621795654
1772522028108983300,6.5109833984375,0.00048084184527397156,-0.00035418104380369186,0.0008139447309076786
1772522028118979300,6.520979248046875,-0.0004403796046972275,-0.00015121418982744217,0.0008614165708422661
1772522028128976100,6.53097607421875,0.0006006499752402306,-0.0018039718270301819,-0.0016352967359125614
1772522028138973200,6.54097314453125,-0.001147957518696785,0.001461070030927658,-0.0011831005103886127
1772522028148970200,6.55097021484375,0.0013293148949742317,-0.0013584182597696781,0.002756779547780752
1772522028158966300,6.56096630859375,0.0009312373585999012,0.00027705635875463486,-0.0006447993218898773
1772522028168963000,6.570963134765625,-0.001966015435755253,0.001013952773064375,-0.00178836053237319
1772522028178960100,6.580960205078125,-0.0005661379545927048,-0.0029102691914886236,-0.0018689106218516827
1772522028188957200,6.590957275390625,-0.00014296174049377441,0.0037984997034072876,-0.00020736409351229668
1772522028198953200,6.600953125,0.0011775260791182518,0.00007588695734739304,-0.0013254317454993725
1772522028208950300,6.6109501953125,-0.0006363531574606895,-0.0024413326755166054,0.000371001660823822
1772522028218947000,6.620947021484375,0.0013399627059698105,0.000014600344002246857,0.0002536284737288952
1772522028228943000,6.630943115234375,-0.0021386584267020226,-0.000056772492825984955,0.0017764237709343433
1772522028238940200,6.640940185546875,-0.00025709159672260284,0.0006031030789017677,0.0023486455902457237
1772522028248937200,6.650937255859375,-0.0013721566647291183,-0.0011577787809073925,0.00011771544814109802
1772522028258934300,6.660934326171875,-0.0014301678165793419,-0.0003323489800095558,0.001767474226653576
1772522028268930300,6.670930419921875,0.00029928889125585556,-0.00015871087089180946,0.0016484307125210762
1772522028278927000,6.680927001953125,0.00007164385169744492,0.0004102890379726887,-0.0026168450713157654
1772522028288924200,6.690924072265625,-0.002477000467479229,-0.0008392659947276115,-0.0012727477587759495
1772522028298921200,6.700921142578125,-0.00044501759111881256,0.0015931138768792152,0.0016008876264095306
1772522028308917200,6.710917236328125,-0.0005177222192287445,0.00007484573870897293,0.00021284818649291992
1772522028318914000,6.7209140625,-0.0016907621175050735,-0.0010606693103909492,0.0008559664711356163
1772522028328911400,6.730911376953125,-0.0009120544418692589,-0.003521696664392948,-0.0018551312386989594
1772522028338907100,6.7409072265625,0.0007040733471512794,0.000553179532289505,-0.001978600863367319
1772522028348904200,6.750904296875,-0.0009364336729049683,0.0027633365243673325,-0.0003127935342490673
1772522028358901200,6.7609013671875,-0.002883431501686573,0.002329994458705187,-0.0012304573319852352
1772522028368898000,6.77089794921875,0.001148860901594162,-0.001413610763847828,0.0013205846771597862
1772522028378894000,6.78089404296875,-0.0005849422886967659,0.0005403226241469383,0.00043897656723856926
1772522028388891100,6.79089111328125,-0.0018653897568583488,0.00197842950001359,-0.000059567391872406006
1772522028398888200,6.80088818359375,-0.0013036848977208138,-0.00011204881593585014,0.00041761528700590134
1772522028408885200,6.81088525390625,0.000644683837890625,-0.0011687912046909332,0.001259440090507269
1772522028418881300,6.82088134765625,-0.00015902426093816757,-0.0009612548165023327,-0.0006761364638805389
1772522028428878300,6.83087841796875,-0.0013667671009898186,-0.0019005518406629562,0.0009832791984081268
1772522028438875100,6.840875244140625,0.00021217204630374908,0.001230659894645214,-0.0008155554533004761
1772522028448871200,6.85087109375,-0.003369513899087906,0.002207240555435419,0.0032018227502703667
1772522028458868200,6.8608681640625,0.002131831832230091,-0.0012007676996290684,0.0010996274650096893
1772522028468865300,6.870865234375,0.0007246173918247223,0.0007273610681295395,0.000424250029027462
1772522028478862300,6.8808623046875,-0.0014050183817744255,0.0014422186650335789,-0.000300633255392313
1772522028488858000,6.890858154296875,0.001952695194631815,0.000045124441385269165,0.0009486558847129345
1772522028498855200,6.900855224609375,-0.0014137160032987595,0.00014396477490663528,-0.00032408908009529114
1772522028508852200,6.910852294921875,-0.0007742913439869881,0.0009447773918509483,0.00004742201417684555
1772522028518849000,6.92084912109375,0.001340264454483986,0.0016236184164881706,-0.00016626762226223946
1772522028528845300,6.93084521484375,-0.000993463210761547,0.0018111048266291618,-0.00040941452607512474
1772522028538842000,6.940842041015625,-0.0011343294754624367,-0.001398423220962286,-0.00003312528133392334
1772522028548839200,6.950839111328125,-0.0013314038515090942,-0.0002894829958677292,-0.002335694618523121
1772522028558835200,6.960835205078125,-0.000341290608048439,-0.00009513739496469498,-0.0017795851454138756
1772522028568832300,6.970832275390625,0.0002483334392309189,-0.0013098050840198994,0.00020207278430461884
1772522028578829300,6.980829345703125,0.002831587567925453,-0.001054865773767233,-0.0018580025061964989
1772522028588826000,6.990826171875,-0.0024079158902168274,0.0005302480421960354,0.001287722960114479
1772522028598822100,7.000822265625,-0.0001824377104640007,0.0002732309512794018,-0.0026255561970174313
1772522028608819200,7.010819091796875,0.00038721226155757904,0.00020292354747653008,-0.00045987358316779137
1772522028618816300,7.020816162109375,0.001638602465391159,-0.0010556229390203953,-0.0005863807164132595
1772522028628813300,7.030813232421875,0.001722758635878563,-0.0009821197018027306,-0.0017485842108726501
1772522028638809000,7.04080908203125,0.00004486553370952606,0.00015640538185834885,-0.00046585220843553543
1772522028648806100,7.05080615234375,0.00013940781354904175,-0.0018622707575559616,0.0008782451041042805
1772522028658803200,7.06080322265625,-0.001970963552594185,0.0016497792676091194,-0.0003276066854596138
1772522028668799200,7.07079931640625,-0.0012100990861654282,0.0009096870198845863,-0.0023473482578992844
1772522028678796300,7.08079638671875,-0.002777187153697014,-0.001027348916977644,0.0018712221644818783
1772522028688793000,7.09079296875,-0.0025356383994221687,-0.0005676872096955776,-0.0007424037903547287
1772522028698790400,7.100790283203125,0.0011717523448169231,0.0014024651609361172,0.0007445737719535828
1772522028708786200,7.1107861328125,0.0007642889395356178,0.00003919284790754318,0.00020049000158905983
1772522028718783200,7.120783203125,-0.0008724713698029518,0.002382696606218815,0.002424818929284811
1772522028728780300,7.1307802734375,-0.0008184090256690979,0.0011376687325537205,-0.0006644478999078274
1772522028738776300,7.1407763671875,0.0008849753066897392,0.00038837920874357224,-0.0012581315822899342
1772522028748773000,7.150773193359375,-0.0006322283297777176,-0.00021908804774284363,0.0014609554782509804
1772522028758770200,7.160770263671875,-0.00023621506989002228,0.0004233461804687977,-0.000572598073631525
1772522028768767200,7.170767333984375,-0.000034081749618053436,0.001433216966688633,-0.00017472170293331146
1772522028778763300,7.18076318359375,0.001812751404941082,-0.0010667042806744576,0.0009338282980024815
1772522028788760000,7.190760009765625,-0.00023868214339017868,-0.0010400726459920406,0.0008882880210876465
1772522028798757400,7.20075732421875,-0.0007239459082484245,-0.00098878750577569,0.002315795049071312
1772522028808754200,7.210754150390625,0.0000960417091846466,0.00035371165722608566,-0.0005268636159598827
1772522028818750200,7.220750244140625,-0.00006252806633710861,-0.001242568250745535,0.00010665226727724075
1772522028828747300,7.230747314453125,0.00038887839764356613,0.002760428935289383,-0.0006504845805466175
1772522028838744000,7.240744140625,-0.000084645114839077,0.0008617215789854527,-0.0003701583482325077
1772522028848740000,7.250739990234375,0.0002911277115345001,0.000505923293530941,-0.00032275402918457985
1772522028858737200,7.260737060546875,-0.0008708517998456955,-0.000127407256513834,0.0004276912659406662
1772522028868734200,7.270734130859375,0.0009171944111585617,-0.0010406048968434334,0.0002465960569679737
1772522028878731300,7.280731201171875,0.0001950794830918312,-0.0005779443308711052,-0.0021755173802375793
1772522028888727300,7.290727294921875,-0.0003700433298945427,0.0005400506779551506,-0.000623426865786314
1772522028898724400,7.300724365234375,-0.0006915926933288574,-0.0005094450898468494,0.0003141965717077255
1772522028908721200,7.31072119140625,0.001890874933451414,0.0017020436935126781,0.0011690715327858925
1772522028918718200,7.32071826171875,-0.0013375692069530487,0.0004439246840775013,-0.0017895381897687912
1772522028928713700,7.330713623046875,0.0006669918075203896,-0.001067685429006815,-0.0004403810016810894
1772522028938710800,7.340710693359375,-0.0004614749923348427,-0.0022819023579359055,0.0005147806368768215
1772522028948707800,7.350707763671875,0.000057308003306388855,0.0004893830046057701,0.0011502103880047798
1772522028958703900,7.360703857421875,-0.002363859675824642,-0.001314404420554638,-0.00014109397307038307
1772522028968701000,7.370700927734375,-0.0006349356845021248,0.0002954765222966671,0.00018780631944537163
1772522028978697700,7.38069775390625,0.0027059176936745644,-0.000847929622977972,-0.0008706795051693916
1772522028988694800,7.39069482421875,-0.001225973479449749,0.00009163375943899155,-0.0015934612601995468
1772522028998690800,7.40069091796875,0.0007988521829247475,-0.0003650002181529999,0.0033626891672611237
1772522029008687600,7.4106875,0.000965566374361515,-0.000038230326026678085,-0.0003036847338080406
1772522029018685000,7.420684814453125,-0.000914732925593853,-0.00015347078442573547,0.0011211885139346123
1772522029028681700,7.430681640625,0.0027630929835140705,0.0014500184915959835,0.0008175880648195744
1772522029038677800,7.440677734375,0.0010486450046300888,-0.0020651957020163536,-0.0005883988924324512
1772522029048674800,7.4506748046875,0.0004704724997282028,-0.0008244290947914124,0.00031148316338658333
1772522029058671600,7.460671630859375,-0.0005086595192551613,-0.0006866306066513062,0.0009717750363051891
1772522029068668000,7.47066796875,0.000300409272313118,0.0006851637735962868,-0.0013656816445291042
1772522029078664700,7.480664794921875,-0.0007689362391829491,0.0015872204676270485,0.0015740632079541683
1772522029088661800,7.490661865234375,0.0008713044226169586,-0.0008069612085819244,-0.0005628569051623344
1772522029098658800,7.500658935546875,-0.00014641229063272476,0.0025918749161064625,0.0011931303888559341
1772522029108654800,7.51065478515625,0.00022909324616193771,0.0016488502733409405,0.0017870152369141579
1772522029118652000,7.52065185546875,0.0017116200178861618,-0.002866709139198065,0.0006491979584097862
1772522029128648700,7.530648681640625,0.0009704623371362686,0.000009238719940185547,0.0016132621094584465
1772522029138645800,7.540645751953125,0.0012453217059373856,0.0002574981190264225,0.0006911414675414562
1772522029148641800,7.550641845703125,-0.00038799457252025604,-0.0014738226309418678,0.0005736961029469967
1772522029158638600,7.560638671875,-0.0007110526785254478,-0.000229761004447937,-0.0018165204674005508
1772522029168636000,7.570635986328125,0.00007191672921180725,0.001066132914274931,-0.00029026297852396965
1772522029178631700,7.580631591796875,0.00044744741171598434,-0.00008605653420090675,0.0014651082456111908
1772522029188628700,7.590628662109375,0.0012200302444398403,0.0014987904578447342,0.0013212980702519417
1772522029198625800,7.600625732421875,0.0007511628791689873,0.00044384971261024475,0.0014038728550076485
1772522029208622600,7.61062255859375,-0.001265915110707283,-0.001463772263377905,-0.00008323648944497108
1772522029218619000,7.620618896484375,-0.0014899512752890587,0.0015027732588350773,-0.00017749052494764328
1772522029228615700,7.63061572265625,-0.0015882216393947601,-0.0008266940712928772,0.0006811125203967094
1772522029238613000,7.640613037109375,-0.0031505106016993523,-0.0021654656156897545,-0.000035305507481098175
1772522029248609800,7.65060986328125,0.0020165545865893364,0.00035494985058903694,-0.00023184716701507568
1772522029258605800,7.660605712890625,-0.002598436549305916,-0.00023969868198037148,-0.00011311518028378487
1772522029268603000,7.670602783203125,0.000060463324189186096,0.0016434225253760815,0.0009854389354586601
1772522029278599700,7.680599609375,-0.0017091501504182816,-0.0012000203132629395,0.00033429451286792755
1772522029288595700,7.690595703125,-0.0003096591681241989,-0.00037736957892775536,-0.0010707895271480083
1772522029298592800,7.7005927734375,0.001091537531465292,0.0013622986152768135,0.00010216888040304184
1772522029308589800,7.71058984375,-0.0007873224094510078,0.00037186918780207634,0.0023852968588471413
1772522029318587000,7.7205869140625,-0.00133599154651165,0.0018653767183423042,0.00028443383052945137
1772522029328582700,7.730582763671875,0.0013279682025313377,0.0012965253554284573,-0.0009169178083539009
1772522029338580000,7.740580078125,-0.0003003319725394249,0.0012802369892597198,-0.00020571518689393997
1772522029348576800,7.75057666015625,0.001538580283522606,0.0001281537115573883,-0.000708253588527441
1772522029358573600,7.760573486328125,-0.0001609986647963524,-0.002439074916765094,0.0011199102737009525
1772522029368569900,7.77056982421875,-0.00047631748020648956,-0.0028457397129386663,-0.00022285524755716324
1772522029378566700,7.780566650390625,-0.0018412386998534203,0.0006053019315004349,0.0022973637096583843
1772522029388564000,7.79056396484375,0.0019207429140806198,0.00059118727222085,0.002338642720133066
1772522029398559700,7.800559814453125,-0.00117538683116436,0.00004531955346465111,-0.0015839743427932262
1772522029408556800,7.810556884765625,-0.0006739143282175064,-0.0003264578990638256,0.0006480207666754723
1772522029418553900,7.820553955078125,-0.002266630530357361,-0.00037311017513275146,0.001131315715610981
1772522029428550700,7.830550537109375,0.00008653849363327026,0.0012833760119974613,-0.0006042663007974625
1772522029438547000,7.840546875,0.0006182147189974785,0.0027321549132466316,-0.0013616839423775673
1772522029448543700,7.850543701171875,-0.000131998211145401,0.0006378446705639362,-0.001946247648447752
1772522029458540800,7.860540771484375,0.0007149241864681244,-0.0004764506593346596,0.0014908830635249615
1772522029468537900,7.870537841796875,-0.0009189248085021973,-0.0007302495650947094,-0.0014058370143175125
1772522029478533600,7.88053369140625,-0.00025080516934394836,0.000374755822122097,-0.0004059718921780586
1772522029488531000,7.890531005859375,-0.0007501477375626564,0.00015238160267472267,-0.0007058437913656235
1772522029498527700,7.90052783203125,0.00027439650148153305,-0.0011477237567305565,0.00077873095870018
1772522029508523800,7.910523681640625,-0.0006140340119600296,0.00004457356408238411,0.0014344011433422565
1772522029518520800,7.920520751953125,0.0026008673012256622,0.0018536732532083988,-0.0005809501744806767
1772522029528517600,7.930517578125,0.0005893819034099579,0.0011846870183944702,0.0010582255199551582
1772522029538515000,7.940514892578125,-0.00017958041280508041,0.000019791070371866226,0.0012118942104279995
1772522029548510700,7.9505107421875,0.002591704949736595,0.002189734485000372,-0.0005090399645268917
1772522029558507800,7.9605078125,0.0007159020751714706,-0.001388551201671362,0.0007030917331576347
1772522029568504800,7.9705048828125,0.00146531593054533,0.002387545071542263,-0.0003137029707431793
1772522029578501600,7.980501708984375,-0.0010974230244755745,0.0005695819854736328,0.0004138522781431675
1772522029588498000,7.990497802734375,0.0003880877047777176,-0.0000863545574247837,0.0009494139812886715
1772522029598494700,8.00049462890625,0.0007484983652830124,0.001555163413286209,0.000491071492433548
1772522029608491800,8.01049169921875,-0.0004174336791038513,0.00042837997898459435,0.0009342217817902565
1772522029618487800,8.02048779296875,-0.0009404551237821579,0.0010521621443331242,0.003882511518895626
1772522029628484600,8.030484619140625,-0.0003162100911140442,0.0003040800802409649,-0.00012421375140547752
1772522029638482000,8.04048193359375,0.0004683639854192734,-0.0014815120957791805,-0.0014966502785682678
1772522029648478700,8.050478759765625,0.0021453569643199444,0.0012088129296898842,-0.0015610991977155209
1772522029658474800,8.060474853515625,-0.0018288083374500275,0.0015173167921602726,0.0003568078391253948
1772522029668471800,8.070471923828125,0.00040238816291093826,0.00035830913111567497,0.002203709911555052
1772522029678468600,8.080468505859375,0.001565681304782629,0.0006339470855891705,0.0006208145059645176
1772522029688466000,8.0904658203125,-0.00006364099681377411,0.0006320830434560776,-0.00042740534991025925
1772522029698461700,8.100461669921875,0.00028720591217279434,-0.000406753271818161,-0.00012877723202109337
1772522029708459000,8.110458984375,0.0008091852068901062,0.00014585256576538086,0.00020065577700734138
1772522029718455800,8.120455810546876,0.00009177345782518387,-0.0007364312186837196,0.00007925601676106453
1772522029728451800,8.130451904296875,0.0001266608014702797,0.00032643647864460945,0.002075561322271824
1772522029738449000,8.140448974609376,-0.0016933111473917961,0.00086161307990551,0.000489882193505764
1772522029748445700,8.15044580078125,-0.0020365919917821884,0.00018676789477467537,0.0009351628832519054
1772522029758442800,8.16044287109375,-5.532056093215942e-7,-0.0013470831327140331,0.0018236711621284485
1772522029768438800,8.170438720703125,-0.0018719565123319626,-0.000014703720808029175,0.000797022134065628
1772522029778435600,8.180435546875,0.0002329908311367035,-0.0017345678061246872,0.0007153823971748352
1772522029788433000,8.190432861328125,0.00023565348237752914,0.0015760078094899654,0.0021987627260386944
1772522029798429700,8.2004296875,0.0003981860354542732,0.000317930243909359,0.0019130045548081398
1772522029808426000,8.210426025390625,0.000060230493545532227,-0.0003212285228073597,-0.0027983940672129393
1772522029818422800,8.2204228515625,0.0002178233116865158,-0.0003000684082508087,0.0010292809456586838
1772522029828419600,8.230419677734375,0.0001272754743695259,-0.0008372277952730656,-0.0018863477744162083
1772522029838416000,8.240415771484376,0.0000924374908208847,-0.0004882202483713627,0.0021661478094756603
1772522029848412700,8.25041259765625,0.0014397306367754936,0.0008795792236924171,-0.0013281856663525105
1772522029858410000,8.260409912109376,-0.0021594660356640816,-0.001483510248363018,0.002168365754187107
1772522029868406800,8.27040673828125,0.0001609455794095993,0.0010568792931735516,-0.0014340919442474842
1772522029878402800,8.28040283203125,-0.0012172069400548935,0.0020083757117390633,-0.001788593828678131
1772522029888400000,8.29039990234375,-0.00046140141785144806,-0.0008143088780343533,-0.0014463774859905243
1772522029898396700,8.300396728515626,0.00013425108045339584,-0.0008937395177781582,-0.0007239584811031818
1772522029908394000,8.31039404296875,-0.000159495510160923,0.001181129366159439,0.001151705626398325
1772522029918389800,8.3203896484375,0.0008047167211771011,-0.0018270420841872692,-0.0013970634900033474
1772522029928387600,8.3303876953125,-0.0006171455606818199,-0.002151148859411478,0.0002695424482226372
1772522029938384600,8.340384521484374,-0.001010853797197342,0.0015347087755799294,0.00022615864872932434
1772522029948381400,8.35038134765625,-0.0010100547224283218,-0.000028300564736127853,-0.0009352462366223335
1772522029958377500,8.36037744140625,-0.002218366600573063,-0.0020388844422996044,-0.0001552174799144268
1772522029968374500,8.37037451171875,0.00004372280091047287,0.0010716873221099377,-0.0016828062944114208
1772522029978371600,8.38037158203125,-0.0007559601217508316,-0.0011639161966741085,-0.001714416779577732
1772522029988367600,8.39036767578125,-0.0002925703302025795,0.0010025654919445515,0.0009756423532962799
1772522029998364400,8.400364501953124,0.0000466667115688324,-0.003527238266542554,-0.00045000528916716576
1772522030008361500,8.410361572265625,0.0011683907359838486,0.0021162666380405426,0.00009061628952622414
1772522030018358500,8.420358642578124,-0.0011630859225988388,0.000041833147406578064,0.00009650271385908127
1772522030028354600,8.4303544921875,0.001621781848371029,-0.0011147777549922466,-0.0004196176305413246
1772522030038351600,8.4403515625,0.001865822821855545,0.0015408890321850777,0.0020260619930922985
1772522030048348400,8.450348388671875,0.001648508943617344,-0.0002479562535881996,-0.0008014156483113766
1772522030058345500,8.460345458984374,0.0006242105737328529,0.0017552431672811508,0.000902869738638401
1772522030068341500,8.470341552734375,-0.0002527683973312378,-0.00014971615746617317,0.001492227427661419
1772522030078338600,8.480338623046874,-0.002272488549351692,-0.00013404525816440582,-0.0004974491894245148
1772522030088335600,8.490335693359375,0.0009901495650410652,-0.002529825083911419,0.0003635506145656109
1772522030098331400,8.500331298828126,-0.0004835808649659157,-0.0005584787577390671,0.001624321099370718
1772522030108328700,8.51032861328125,-0.0007850509136915207,-0.000840773805975914,0.001335101667791605
1772522030118325500,8.520325439453124,-0.0019082752987742424,0.0000665108673274517,-0.0019145687110722065
1772522030128322600,8.530322509765625,-0.0012241089716553688,-0.001103416085243225,0.0009099799208343029
1772522030138318600,8.540318603515624,-0.00036585796624422073,0.00041322456672787666,0.0009340480901300907
1772522030148315400,8.5503154296875,-0.001444704830646515,-0.0010544434189796448,-0.0011251079849898815
1772522030158312400,8.5603125,0.0026809610426425934,0.0019039246253669262,-0.001535831019282341
1772522030168309500,8.5703095703125,0.00020315591245889664,-0.0002982430160045624,0.0013840585015714169
1772522030178305500,8.580305419921874,0.0008693933486938477,0.0011452296748757362,0.00004497729241847992
1772522030188302600,8.590302490234375,0.00009734369814395905,-0.00010805390775203705,0.0005983817391097546
1772522030198299600,8.600299560546874,-0.0008780229836702347,-0.0005202116444706917,-0.00043377233669161797
1772522030208295700,8.610295654296875,0.00019416585564613342,-0.00002566259354352951,-0.0016811969690024853
1772522030218292500,8.62029248046875,0.0010655424557626247,-0.0006360197439789772,0.00013393955305218697
1772522030228289500,8.63028955078125,-0.0005573881790041924,0.0012739994563162327,0.0011544632725417614
1772522030238286600,8.64028662109375,0.0015281150117516518,0.000067196786403656,-0.0011814692988991737
1772522030248282400,8.650282470703125,0.0007992079481482506,-0.0016140569932758808,-0.00249680457636714
1772522030258279700,8.66027978515625,-0.0005060024559497833,0.0004618959501385689,-0.0037268507294356823
1772522030268276500,8.6702763671875,0.0008716508746147156,-0.0003975061699748039,0.0005432618781924248
1772522030278273500,8.6802734375,0.0009617675095796585,0.00039499998092651367,0.0003556045703589916
1772522030288269600,8.69026953125,-0.0010928614065051079,0.0018264492973685265,0.00045041320845484734
1772522030298266600,8.7002666015625,-0.00040225405246019363,0.0015432820655405521,0.0006214804016053677
1772522030308263400,8.710263427734375,0.0006073499098420143,-0.0012080296874046326,-0.0005092979408800602
1772522030318259500,8.720259521484374,-0.0007709646597504616,0.000009618699550628662,-0.0011663087643682957
1772522030328256500,8.730256591796875,-0.0007232939824461937,-0.0013432670384645462,0.002124292775988579
1772522030338253600,8.740253662109374,0.0019254838116467,-0.0001265103928744793,-0.0004920708015561104
1772522030348250600,8.750250732421875,-0.000501987524330616,0.0011382251977920532,-0.0005850149318575859
1772522030358246700,8.76024658203125,0.0020305411890149117,-0.001869498286396265,0.0001655295491218567
1772522030368243500,8.770243408203125,-0.00043794233351945877,-0.0004662787541747093,-0.0016768453642725945
1772522030378240500,8.780240478515625,-0.0014607161283493042,0.001526685431599617,0.002086171880364418
1772522030388237600,8.790237548828125,0.000009348616003990173,-0.00015589967370033264,-0.00140683026984334
1772522030398233600,8.800233642578124,-0.0000882437452673912,-0.0001237844116985798,-0.0010076812468469143
1772522030408230700,8.810230712890625,0.000009227544069290161,-0.0008457675576210022,-0.00046865735203027725
1772522030418227500,8.8202275390625,-0.002181381918489933,-0.0006560748443007469,0.0001384723000228405
1772522030428223500,8.830223388671875,-0.000013568438589572906,0.00016018422320485115,-0.0006932327523827553
1772522030438220500,8.840220458984374,-0.0020671794191002846,0.00020667118951678276,-0.0010418989695608616
1772522030448217600,8.850217529296875,-0.00034597795456647873,0.0005856389179825783,-0.0034525920636951923
1772522030458214400,8.86021435546875,0.000166403129696846,0.001120805274695158,0.0008151386864483356
1772522030468210400,8.87021044921875,-0.0013784971088171005,-0.0005186367779970169,-0.0007273643277585506
1772522030478207500,8.88020751953125,-0.001109277829527855,-0.0013131285086274147,0.0022322777658700943
1772522030488204500,8.89020458984375,0.0004891520366072655,0.0005625360645353794,0.0012847250327467918
1772522030498201600,8.90020166015625,0.0006718523800373077,0.000020549166947603226,-0.0009660301730036736
1772522030508197600,8.91019775390625,-0.0023013008758425713,0.001146799884736538,0.0024726437404751778
1772522030518194400,8.9201943359375,0.0006425539031624794,0.00026089930906891823,-0.00040782568976283073
1772522030528191500,8.93019140625,0.001516070682555437,-0.00004616333171725273,0.0009003188461065292
1772522030538188500,8.9401884765625,0.00032607000321149826,0.0023219999857246876,-0.0010382896289229393
1772522030548184600,8.9501845703125,0.001188135240226984,0.00028548063710331917,-0.0007109874859452248
1772522030558181600,8.960181640625,-0.0009103743359446526,0.0004620412364602089,0.00020544789731502533
1772522030568178400,8.970178466796876,-0.0004850681871175766,-0.001165416557341814,-0.0014518373645842075
1772522030578174500,8.980174560546875,-0.0008022170513868332,-0.0013239984400570393,-0.0020282925106585026
1772522030588171500,8.990171630859376,0.0020167389884591103,-0.0010422361083328724,0.0009179622866213322
1772522030598168600,9.00016845703125,-0.0004243748262524605,0.0007409299723803997,0.0016230209730565548
1772522030608165400,9.010165283203126,0.0027128285728394985,-0.00025455979630351067,0.0010989108122885227
1772522030618161400,9.020161376953125,0.00029009580612182617,-0.0009914878755807877,0.0013896203599870205
1772522030628158500,9.030158447265626,-0.0007208399474620819,-0.002482858020812273,-0.0007792585529386997
1772522030638155500,9.040155517578125,0.0018023266457021236,-0.0014562993310391903,0.00005996460095047951
1772522030648152600,9.050152587890626,0.0007298719137907028,0.0020430944859981537,0.001747875940054655
1772522030658148600,9.060148681640625,0.0010456573218107224,-0.0011029909364879131,0.000048656947910785675
1772522030668145400,9.0701455078125,0.00014470983296632767,-0.0014603869058191776,-0.0006948974914848804
1772522030678142500,9.080142578125,-0.0003093741834163666,0.002048798371106386,-0.000600877683609724
1772522030688138500,9.090138427734376,-0.0007772920653223991,-0.0014990647323429585,0.001553353387862444
1772522030698135600,9.100135498046875,0.0017586811445653439,-0.00018367357552051544,0.0010792138054966927
1772522030708132600,9.110132568359376,0.00005825236439704895,-0.00024492619559168816,-0.0015226942487061024
1772522030718129700,9.120129638671875,-0.0003042658790946007,-0.0003018230199813843,0.0001359577290713787
1772522030728125700,9.130125732421876,0.0008531445637345314,0.0001591700129210949,-0.0035953973419964314
1772522030738122500,9.14012255859375,0.0008512511849403381,-0.000510052777826786,0.000605760607868433
1772522030748119600,9.15011962890625,-0.0003812601789832115,-0.0004647788591682911,-0.00004245247691869736
1772522030758116600,9.16011669921875,-0.001984214410185814,0.0010208436287939548,0.000379717443138361
1772522030768112400,9.1701123046875,0.00022620894014835358,-0.0016010385006666183,-0.00010045012459158897
1772522030778109400,9.180109375,0.0016472423449158669,-0.00153651786968112,-0.000007944181561470032
1772522030788106500,9.1901064453125,-0.00025478750467300415,-0.00030773505568504333,-0.001945926807820797
1772522030798102500,9.2001025390625,0.0011315308511257172,0.000283299945294857,-0.0003487425856292248
1772522030808099600,9.210099609375,-0.0009782249107956886,0.0005637309513986111,0.00035539688542485237
1772522030818096600,9.2200966796875,0.0013804743066430092,0.0024928166531026363,0.00129664596170187
1772522030828093400,9.230093505859376,-0.0008299490436911583,-0.003221261315047741,-0.0016629253514111042
1772522030838089500,9.24008935546875,-0.000012264586985111237,-0.0002785027027130127,-0.0005395952612161636
1772522030848086500,9.25008642578125,-0.002537474036216736,-0.0011107404716312885,0.0007453798316419125
1772522030858083600,9.26008349609375,-0.00013216864317655563,0.0005155312828719616,0.001818666234612465
1772522030868080600,9.27008056640625,0.0003354819491505623,0.0004023467190563679,0.00006577325984835625
1772522030878076700,9.28007666015625,0.000344742089509964,0.0009244317188858986,0.001676937099546194
1772522030888073500,9.290073486328126,0.00028535351157188416,-0.00003217579796910286,-0.000526829157024622
1772522030898070500,9.300070556640625,0.0003416389226913452,0.002112526446580887,-0.002520195208489895
1772522030908066600,9.310066650390626,0.0020910692401230335,-0.0006307954899966717,0.0005887793377041817
1772522030918063600,9.320063720703125,-0.000757790170609951,0.000330192968249321,0.0005546393804252148
1772522030928059600,9.3300595703125,-0.002100023441016674,-0.0013718330301344395,0.0010672975331544876
1772522030938055000,9.340054931640625,-0.000880916602909565,-0.0008257385343313217,0.0007647708989679813
1772522030948052000,9.350052001953125,-0.00025560706853866577,0.0008690971881151199,-0.0015977192670106888
1772522030958049000,9.360049072265625,-0.0012620585039258003,-0.0010895784944295883,-0.0006009978242218494
1772522030968045800,9.3700458984375,0.00022718124091625214,-0.0009992970153689384,-0.0015293760225176811
1772522030978042000,9.3800419921875,0.001053307205438614,0.0006014388054609299,-0.0022141938097774982
1772522030988039000,9.390038818359375,0.0009675538167357445,-0.0020425477996468544,-0.0005441256798803806
1772522030998036200,9.4000361328125,0.000988825224339962,0.0008555385284125805,-0.00024459557607769966
1772522031008033000,9.410032958984376,0.0010849647223949432,-0.00031385570764541626,-0.0004898728802800179
1772522031018029000,9.420029052734375,0.001233820803463459,-0.0015540868043899536,0.00021868525072932243
1772522031028026000,9.430026123046876,-0.0013811374083161354,-0.0005745762027800083,0.0019603921100497246
1772522031038023000,9.44002294921875,-0.00006613042205572128,0.0016782032325863838,-0.0005343626253306866
1772522031048020200,9.450020263671876,0.00041670072823762894,-0.002040368039160967,-0.0016715321689844131
1772522031058016000,9.46001611328125,0.002380844671279192,0.002678548451513052,-0.00009151967242360115
1772522031068013000,9.470012939453126,-0.000527859665453434,-0.00034307362511754036,-0.0005200225859880447
1772522031078010000,9.480010009765625,0.001884430181235075,0.0013368739746510983,-0.001237652264535427
1772522031088006100,9.490006103515626,-0.0005273288115859032,-0.00037181051447987556,-0.00041233887895941734
1772522031098003200,9.500003173828125,-0.00003283657133579254,-0.00043908925727009773,-0.0010224641300737858
1772522031108000000,9.51,-0.0009689377620816231,-0.0023198137059807777,0.000603129155933857
1772522031117997000,9.5199970703125,-0.0009607812389731407,-0.00023601623252034187,-0.0001727682538330555
1772522031127993000,9.5299931640625,0.0026035932824015617,-0.0010376274585723877,-0.0005402849055826664
1772522031137990000,9.539989990234375,0.003573964349925518,0.0023512295447289944,0.0010338998399674892
1772522031147987200,9.5499873046875,-0.0018751295283436775,0.0005176425911486149,0.0010088663548231125
1772522031157984000,9.55998388671875,-0.0006327340379357338,0.0013847374357283115,-0.0017406642436981201
1772522031167980000,9.56997998046875,0.0012216251343488693,0.0008401209488511086,-0.000975538045167923
1772522031177977000,9.57997705078125,0.00034326687455177307,0.0005885320715606213,0.00008184229955077171
1772522031187974000,9.589973876953126,0.0019094720482826233,0.0004945225082337856,0.00032552191987633705
1772522031197970200,9.59997021484375,-0.001481328159570694,0.0013689477927982807,-0.0007270793430507183
1772522031207967000,9.609967041015626,0.0008390843868255615,-0.001343481708317995,-0.0007057739421725273
1772522031217964000,9.619964111328125,0.0005611730739474297,0.0011847401037812233,0.0004848330281674862
1772522031227961000,9.629961181640626,0.000042389146983623505,0.0033189975656569004,0.00041212886571884155
1772522031237957000,9.63995703125,-0.0013024825602769852,0.0004747901111841202,-0.0008984734304249287
1772522031247954200,9.6499541015625,0.0008754506707191467,0.0008004950359463692,-0.0002939356490969658
1772522031257951000,9.659950927734375,0.0012212730944156647,-0.0014989511109888554,-0.00005753803998231888
1772522031267948000,9.669947998046876,-0.000056245364248752594,-0.0005452730692923069,0.00046923523768782616
1772522031277944000,9.679944091796875,-0.0011642882600426674,-0.0007944661192595959,0.0012428555637598038
1772522031287940900,9.68994091796875,0.00017208606004714966,0.0004604156129062176,-0.0018083280883729458
1772522031297939000,9.69993896484375,0.0006226645782589912,0.0005914708599448204,0.00024164607748389244
1772522031307936000,9.70993603515625,-0.0007097152993083,0.0009517963044345379,-0.002117382362484932
1772522031317932000,9.71993212890625,0.0018705129623413086,-0.0009171091951429844,-0.002609569113701582
1772522031327929000,9.72992919921875,0.0018867580220103264,0.0005186009220778942,0.0000730329193174839
1772522031337926100,9.739926025390625,0.0014848490245640278,-0.0000810408964753151,0.000005559530109167099
1772522031347923000,9.7499228515625,0.0008675288408994675,-0.0007614786736667156,-0.0007161572575569153
1772522031357919000,9.7599189453125,-0.000629449263215065,0.0025923484936356544,-0.0001214323565363884
1772522031367916000,9.769916015625,0.0016092043370008469,0.001399518921971321,-0.0031198852229863405
1772522031377913000,9.7799130859375,-0.0016228454187512398,0.0010583181865513325,0.0024006403982639313
1772522031387910100,9.78991015625,0.001412359531968832,0.0013275640085339546,-0.0035573840141296387
1772522031397906200,9.79990625,-0.0013631489127874374,-0.00008069630712270737,0.0008369693532586098
1772522031407903000,9.809903076171874,-0.002009764313697815,-0.0007874988950788975,0.00043030502274632454
1772522031417900000,9.819900146484375,0.0005492875352501869,0.0022490033879876137,0.0002602068707346916
1772522031427896000,9.82989599609375,0.0018092291429638863,0.0004825280047953129,0.0011694100685417652
1772522031437893000,9.83989306640625,-0.0009177764877676964,0.0024087680503726006,0.0005840258672833443
1772522031447890000,9.849889892578124,0.0009299246594309807,0.0006193900480866432,0.001695629209280014
1772522031457887000,9.859886962890625,0.002202717587351799,-0.0010535437613725662,0.0002526412717998028
1772522031467883000,9.869883056640624,-0.000059903599321842194,0.002120944205671549,0.0001447834074497223
1772522031477880000,9.879880126953125,0.0009952597320079803,0.0011339043267071247,0.0004578656516969204
1772522031487877000,9.889877197265625,-0.0006649550050497055,-0.00028502801433205605,0.00003069499507546425
1772522031497874000,9.8998740234375,-0.00005359109491109848,0.0009266408160328865,-0.0017919116653501987
1772522031507870000,9.909869873046874,-0.0001454697921872139,-0.0013714008964598179,-0.0011085444130003452
1772522031517867000,9.919866943359375,0.00022798310965299606,0.001447248738259077,0.001576288603246212
1772522031527864000,9.929864013671875,-0.0010636504739522934,0.0002901051193475723,0.000696912407875061
1772522031537859800,9.93985986328125,0.0014814110472798347,-0.0007011154666543007,0.0010035582818090916
1772522031547857200,9.949857177734375,0.00040735770016908646,-0.0002845972776412964,-0.0004340163432061672
1772522031557854000,9.95985400390625,0.0005590962246060371,0.00012398837134242058,-0.0008612358942627907
1772522031567851000,9.96985107421875,0.0016089142300188541,-0.002135970164090395,-0.00013579102233052254
1772522031577847000,9.979846923828125,0.0016437144950032234,0.0005886978469789028,0.0003821365535259247
1772522031587844000,9.989843994140625,-0.0010434146970510483,0.0011375751346349716,0.0017970739863812923
1772522031597841200,9.999841064453125,-0.0009971968829631805,-0.002446722472086549,-0.0005534212104976177
1772522031607838000,10.009837890625,0.00005528423935174942,0.0007892847061157227,-0.00008363928645849228
1772522031617834000,10.019833984375,-0.00006873998790979385,0.0005865320563316345,-0.0012424360029399395
1772522031627831000,10.0298310546875,0.0003563007339835167,0.0006003803573548794,-0.0013047540560364723
1772522031637828000,10.039828125,-0.0004201941192150116,-0.0003808969631791115,-0.002364886924624443
1772522031647825000,10.049824951171875,0.0009020650759339333,-0.00006291549652814865,-0.0009012138471007347
1772522031657821000,10.059821044921875,-0.00023765582591295242,-0.0025209744926542044,0.0010229377076029778
1772522031667818000,10.06981787109375,0.0033355075865983963,0.0015038605779409409,-0.0006527234800159931
1772522031677815000,10.07981494140625,-0.00018431060016155243,-0.0014639124274253845,-0.0017522736452519894
1772522031687812000,10.08981201171875,0.001562989316880703,-0.00010490138083696365,0.00002938089892268181
1772522031697808100,10.09980810546875,-0.0007970165461301804,0.00022377865388989449,-0.00020734919235110283
1772522031707805000,10.109804931640625,0.0001332256942987442,-0.0022159432992339134,0.0009647081606090069
1772522031717802000,10.119802001953126,-0.0008990466594696045,0.0014646677300333977,0.002435414120554924
1772522031727798000,10.129798095703125,-0.0008047707378864288,0.0021307244896888733,0.00020874571055173874
1772522031737795000,10.139795166015626,-0.0012016650289297104,0.0005559129640460014,-0.0011889301240444183
1772522031747792100,10.149792236328125,0.0007032938301563263,-0.00019776122644543648,-0.00048026302829384804
1772522031757789200,10.1597890625,-0.00025952234864234924,-0.00006561866030097008,-0.000810832716524601
1772522031767785000,10.169784912109375,-0.000049398280680179596,0.0006276019848883152,0.00046109315007925034
1772522031777782000,10.179781982421876,-0.000016276724636554718,0.0004676850512623787,0.0011241822503507137
1772522031787779000,10.189779052734375,0.00039598066359758377,-0.000119808129966259,-0.0012308508157730103
1772522031797776000,10.19977587890625,-0.0025593778118491173,-0.00012825476005673409,0.00025714607909321785
1772522031807772000,10.20977197265625,-0.0012030303478240967,0.0021287743002176285,-0.0007809540256857872
1772522031817769000,10.21976904296875,0.001293074805289507,-0.0014293189160525799,-0.0005510905757546425
1772522031827766000,10.22976611328125,-0.0008957777172327042,-0.0007877633906900883,-0.0005052844062447548
1772522031837762000,10.239761962890626,0.00043194834142923355,0.0011480385437607765,-0.00007851002737879753
1772522031847759000,10.249759033203125,0.001653274055570364,0.0006545549258589745,-0.00006173178553581238
1772522031857756200,10.259756103515626,0.0003063073381781578,-0.0020525730215013027,-0.0006138542667031288
1772522031867753000,10.2697529296875,-0.00037040188908576965,0.0006286976858973503,-0.0015848428010940552
1772522031877749000,10.2797490234375,-0.0000015133991837501526,-0.0013735541142523289,0.0006606783717870712
1772522031887746000,10.28974609375,0.0018429923802614212,0.0012786881998181343,0.000947234220802784
1772522031897743000,10.2997431640625,-0.0005153864622116089,-0.0007156785577535629,0.0007345005869865417
1772522031907740200,10.309740234375,0.0012865085154771805,-0.002397997537627816,-0.0008583362214267254
1772522031917736000,10.31973583984375,0.0009217401966452599,0.0008492143824696541,-0.0009877495467662811
1772522031927733000,10.32973291015625,-0.001545412465929985,-0.0011140680871903896,-0.00021916115656495094
1772522031937730300,10.339730224609376,0.0004567168653011322,0.00045812083408236504,0.0004996936768293381
1772522031947727000,10.34972705078125,-0.0011963071301579475,-0.0008710627444088459,-0.0015975460410118103
1772522031957723100,10.35972314453125,-0.0005959374830126762,-0.0010545141994953156,0.00006456859409809113
1772522031967720200,10.36972021484375,0.0027274214662611485,0.0003236718475818634,0.00006510131061077118
1772522031977717200,10.37971728515625,-0.0017757294699549675,0.0005427924916148186,-0.0017250953242182732
1772522031987713000,10.389713134765625,-0.00010566134005784988,0.00015876488760113716,0.0009457888081669807
1772522031997710300,10.39971044921875,0.0008545611053705215,0.0008352282457053661,0.00030748452991247177
1772522032007707100,10.40970703125,-0.0020597362890839577,-0.00002310890704393387,-0.0005750870332121849
1772522032017704200,10.4197041015625,-0.0010141655802726746,-0.0002926066517829895,0.0003848033957183361
1772522032027700200,10.4297001953125,0.0003195451572537422,-0.0005586566403508186,-0.00037526246160268784
1772522032037697300,10.439697265625,0.000016650184988975525,0.0003949417732656002,-0.000437835231423378
1772522032047694000,10.449694091796875,0.0002962825819849968,0.0019073509611189365,0.002031981013715267
1772522032057691100,10.459691162109374,0.0010243197903037071,-0.0012088282965123653,0.00026105577126145363
1772522032067687200,10.469687255859375,-0.0010569402948021889,-0.000018927734345197678,-0.0002635871060192585
1772522032077684200,10.479684326171874,-0.0017099520191550255,0.00040376046672463417,0.0011274567805230618
1772522032087681300,10.489681396484375,-0.00035014189779758453,-0.0014801598154008389,-0.0018518217839300632
1772522032097677300,10.49967724609375,-0.000044696033000946045,0.0007717292755842209,-0.0001572803594172001
1772522032107674000,10.509674072265625,0.00009139161556959152,-0.0012847636826336384,0.0004382021725177765
1772522032117671200,10.519671142578124,0.001303075347095728,-0.00043818121775984764,-0.0002711247652769089
1772522032127668200,10.529668212890625,-0.0015824595466256142,-0.0012874631211161613,-0.0006250585429370403
1772522032137664300,10.539664306640624,0.0013899612240493298,0.0020660492591559887,-0.00004097307100892067
1772522032147661300,10.549661376953125,0.00013002008199691772,0.0010308781638741493,-0.0017576469108462334
1772522032157658000,10.559658203125,0.00017501972615718842,-0.00017316360026597977,0.0011733565479516983
1772522032167655200,10.5696552734375,-0.000735514797270298,0.0002825031988322735,0.0007826709188520908
1772522032177651200,10.579651123046874,-0.0005835294723510742,0.001517253927886486,-0.000285537913441658
1772522032187648300,10.589648193359375,-0.0007443847134709358,0.0034885257482528687,-0.00044452864676713943
1772522032197645300,10.599645263671874,0.0015741335228085518,-0.0019566668197512627,0.0022219792008399963
1772522032207641000,10.60964111328125,0.003917715512216091,-0.0025633350014686584,0.0004885275848209858
1772522032217638100,10.61963818359375,-0.0004974575713276863,-0.00037595443427562714,-0.0016291886568069458
1772522032227635200,10.62963525390625,-0.000954456627368927,-0.0000015138648450374603,-0.0024371915496885777
1772522032237632300,10.63963232421875,0.00199113879352808,-0.0007700864225625992,0.00019143568351864815
1772522032247628300,10.649628173828125,-0.00009970925748348236,-0.00015862472355365753,-0.0007012556307017803
1772522032257625000,10.659625,-0.0004977928474545479,-0.00011024810373783112,0.0029785209335386753
1772522032267622100,10.6696220703125,-0.001570248045027256,0.0017960425466299057,0.0019678506068885326
1772522032277619200,10.679619140625,-0.0009449310600757599,0.003086408134549856,0.0031808307394385338
1772522032287615200,10.689615234375,-0.0014485344290733337,0.002982811536639929,0.0016116965562105179
1772522032297612300,10.6996123046875,-0.00062510184943676,0.0017265197820961475,0.00006727548316121101
1772522032307609300,10.709609375,0.0017570960335433483,0.00019626738503575325,-0.001500261016190052
1772522032317606100,10.719606201171874,0.0016048550605773926,-0.0018458310514688492,-0.0006733094342052937
1772522032327602200,10.729602294921875,0.0018437406979501247,-0.00214996375143528,-0.0012437584809958935
1772522032337599200,10.73959912109375,0.0014789970591664314,-0.0025296886451542377,-0.0017629698850214481
1772522032347596300,10.74959619140625,-0.0010123904794454575,-0.002254317980259657,-0.0003291238099336624
1772522032357593300,10.75959326171875,-0.0014506243169307709,0.0006034569814801216,0.0016722232103347778
1772522032367589000,10.769589111328125,0.0021411809138953686,-0.001630668994039297,0.0026384172961115837
