time,seconds_elapsed,z,y,x
1772480017765871400,0.081871337890625,-3.617945874749124,1.6182003362804651,0.20647899653092025
1772480017775868400,0.091868408203125,-3.9351843167215583,2.022690652987361,1.0575026820346713
1772480017785866200,0.1018662109375,-3.91826533062458,2.316008997929096,1.7486866648465393
1772480017795864300,0.1118642578125,-3.5502518101826306,2.4507675969868896,2.25567844786793
1772480017805862400,0.1218623046875,-2.8262662124872207,2.420760581257939,2.6075056804016232
1772480017815860200,0.131860107421875,-1.7607564573466776,2.132945509907603,2.610720550794899
1772480017825858300,0.1418583984375,-0.45823067472279067,1.8029770579606295,2.4429908255055546
1772480017835856400,0.1518564453125,0.622298370373249,1.4471148708224295,2.5599533633708953
1772480017845854200,0.161854248046875,1.355091251641512,0.8118190717101097,2.68577637630105
1772480017855852300,0.171852294921875,1.8660496002063154,0.13617664916217326,2.7093223793223498
1772480017865849600,0.181849609375,2.2576628996834156,-0.39230186626315117,2.7463410273790356
1772480017875847400,0.191847412109375,2.5296684074833986,-0.7457289352089166,2.68273627795279
1772480017885845500,0.201845458984375,2.601284906190634,-1.0059896446794272,2.5434905966088173
1772480017895843300,0.21184326171875,2.462109951995313,-1.2285235578238964,2.3028578399330377
1772480017905841400,0.22184130859375,2.107598887205124,-1.3812632192522287,1.994685332469642
1772480017915839500,0.231839599609375,1.5618933426469563,-1.3483341785967349,1.755406913012266
1772480017925837300,0.24183740234375,0.8567027540534734,-1.1988958968013523,1.6075415796220303
1772480017935835400,0.25183544921875,0.1629226172685623,-0.9427882153570651,1.4503040222525596
1772480017945832400,0.26183251953125,-0.3950608095824718,-0.5052034382998943,1.2462070985525846
1772480017955830300,0.271830322265625,-0.8247650625228882,-0.10004618211686611,0.9860036722272634
1772480017965828400,0.281828369140625,-1.094379875794053,0.1785427957266569,0.7739490675210953
1772480017975826200,0.291826171875,-1.1348173923835159,0.4164601559638977,0.6037532443791628
1772480017985824300,0.30182421875,-1.0766767535820603,0.5629962865769863,0.43597149664163587
1772480017995822300,0.311822265625,-0.9572025251567363,0.6778951699107885,0.25328824010938406
1772480018005820200,0.321820068359375,-0.6509680000185966,0.6793196497559547,0.1173655657082796
1772480018015818200,0.331818359375,-0.25913375126719473,0.5066103824883699,-0.009683774146437644
1772480018025816300,0.34181640625,0.15300971054136753,0.23848843812346457,-0.1732549184516072
1772480018035813400,0.3518134765625,0.47178865995407104,-0.043104397711157795,-0.29051790056824683
1772480018045811500,0.3618115234375,0.7252706690698861,-0.2562731011390686,-0.27021073333770035
1772480018055809300,0.371809326171875,0.9925333662569522,-0.4015981023967266,-0.34098376695811744
1772480018065807400,0.381807373046875,1.203051847437024,-0.6395341673344374,-0.3649696227014065
1772480018075805400,0.391805419921875,1.3283704179763793,-0.8142097662389278,-0.4577192180693149
1772480018085803300,0.40180322265625,1.3738918137013911,-0.9622674073308706,-0.49735389384329315
1772480018095801300,0.41180126953125,1.351877550292015,-0.9640490300506352,-0.4985092013582587
1772480018105799400,0.42179931640625,1.2001356677293777,-0.9728636201471089,-0.5262286906719208
1772480018115797200,0.43179736328125,0.9486877947896718,-0.9715367554575204,-0.5262526560693979
1772480018125794300,0.441794189453125,0.6779030609562993,-0.8861895453006029,-0.49944326733797784
1772480018135792400,0.45179248046875,0.4392155931293964,-0.7373258485227823,-0.35291532003134485
1772480018145790500,0.46179052734375,0.27376959486305713,-0.5866390279710293,-0.22119711158275604
1772480018155788500,0.47178857421875,0.2605909643381834,-0.43185996966958046,-0.1627361547857523
1772480018165786400,0.481786376953125,0.2971621608883142,-0.2089069543302059,-0.020976444794237614
1772480018175784400,0.491784423828125,0.339112127867341,-0.1063467435657978,0.07919891666024922
1772480018185782500,0.501782470703125,0.3110714437752962,-0.0932142902702093,0.11072130538821219
1772480018195780400,0.5117802734375,0.2502519411534071,-0.08187047395706176,0.138741531214118
1772480018205777400,0.52177734375,0.21411942828148603,-0.08124854266643523,0.2744353652954101
1772480018215775500,0.531775390625,0.2538368139028549,-0.13436580034792422,0.3765180216759443
1772480018225773300,0.541773193359375,0.4417947959676385,-0.19473989728987215,0.3802364576771855
1772480018235771400,0.551771484375,0.7308736036434769,-0.21169629278779029,0.36823505423814057
1772480018245769200,0.561769287109375,0.9958812153801322,-0.18866203868091105,0.20104922656714916
1772480018255767300,0.571767333984375,0.9694447516143322,-0.08816168305575847,-0.13788988282084463
1772480018265765400,0.581765380859375,0.952450946715474,0.005755787047743797,-0.28343904822319743
1772480018275763200,0.59176318359375,1.0992851834923028,-0.038624621948599815,-0.3080342680364847
1772480018285761300,0.60176123046875,1.282577804094553,-0.19016425993740557,-0.367919120156765
1772480018295758600,0.611758544921875,1.4653162979453802,-0.3145972798138857,-0.4183715425431728
1772480018305756400,0.62175634765625,1.5953443613499403,-0.3636550329715013,-0.5283981436654925
1772480018315754500,0.63175439453125,1.665312216067314,-0.41933425009548664,-0.6913941184312105
1772480018325752300,0.64175244140625,1.715534921351075,-0.4655354447782039,-0.8582455995813012
1772480018335750400,0.65175048828125,1.7291782467782497,-0.5009136321514844,-1.0658294886142015
1772480018345748500,0.66174853515625,1.650526734867692,-0.5800841995000839,-1.3533122592702507
1772480018355746300,0.671746337890625,1.5093930478200315,-0.5945850185394287,-1.6516835036873816
1772480018365744400,0.681744384765625,1.310099432748556,-0.5734107130855322,-2.0035040142193434
1772480018375741400,0.691741455078125,0.9755597273632883,-0.579449993249774,-2.3503601803421974
1772480018385739300,0.7017392578125,0.4844444356486201,-0.5468535455495119,-2.557854053004086
1772480018395737300,0.7117373046875,-0.22984774328917262,-0.3858727099984884,-2.6196839017122984
1772480018405735400,0.7217353515625,-1.2085676882490515,-0.0849316150933504,-2.675503988611698
1772480018415733200,0.731733154296875,-2.3967475452467797,0.5141618207812308,-2.4289254752740264
1772480018425731300,0.7417314453125,-3.563137302979827,1.2285235578238964,-1.7887202768102288
1772480018435729200,0.751729248046875,-4.762786648496985,1.5620996788740158,-1.2093331196635961
1772480018445727200,0.761727294921875,-5.760716320839524,1.6519558908879757,-0.7199892215356231
1772480018455725300,0.771725341796875,-5.904681139659881,1.8921756828486918,-0.0703334731593728
1772480018465722400,0.781722412109375,-5.087247735199332,2.0033885711461306,0.5635442758485675
1772480018475720400,0.791720458984375,-3.501965918180346,1.7120190221846103,0.8432707332894206
1772480018485718500,0.801718505859375,-1.3720891481935977,1.3839338997662067,0.89220018389225
1772480018495716400,0.81171630859375,0.497212439545989,1.025727195328474,1.097322943508625
1772480018505714400,0.82171435546875,1.8676532360106706,0.787097887429595,1.351135207492113
1772480018515712300,0.831712158203125,2.771068641400337,0.5014882171690463,1.538335356926918
1772480018525710300,0.84171044921875,3.0936709484934806,0.3623749300330877,1.4948448825076222
1772480018535708400,0.85170849609375,2.5371006033107637,0.3796159876912832,0.8606418470680713
1772480018545706200,0.861706298828125,2.1028493545904756,0.1917313631236553,0.347965296408534
1772480018555703300,0.871703369140625,1.5596332887604831,-0.028060557836294173,0.20423048695176838
1772480018565701400,0.881701416015625,0.855707605536282,-0.1886129388421774,0.22496610872745512
1772480018575699500,0.891699462890625,0.14083587314486504,-0.40864568282067776,0.27120237472355363
1772480018585697500,0.901697509765625,-0.6248734815582633,-0.6622638855367898,0.26719109325557944
1772480018595695600,0.911695556640625,-1.413655961073935,-0.8819681282132863,0.24178192671090362
1772480018605693400,0.921693359375,-2.195690135373175,-1.0428653771340846,0.2687535202667117
1772480018615691500,0.93169140625,-2.944579872700572,-1.117405362072587,0.4665788163512945
1772480018625689300,0.941689453125,-3.6028140643298623,-1.1462409959346056,0.7334010762944817
1772480018635686400,0.951686279296875,-4.100068589451909,-0.9904881241649389,0.8586527190774679
1772480018645684500,0.9616845703125,-4.23809641943872,-0.946335678705573,0.8255185112386941
1772480018655682300,0.971682373046875,-3.970772931975126,-1.076401151511073,0.8030278624892234
1772480018665680400,0.981680419921875,-3.4560458785265684,-1.1728057622551917,0.9387591059714555
1772480018675678500,0.991678466796875,-2.678696647173166,-1.0908692373245954,1.1844422779045998
1772480018685676300,1.00167626953125,-1.6998001766026019,-0.9833002584874629,1.3111287757962942
1772480018695674400,1.01167431640625,-0.6816182820871471,-0.9265174640357494,1.3403865805931388
1772480018705672200,1.021672119140625,0.1282379651173949,-0.9510586155742407,1.349656367111206
1772480018715670300,1.031670166015625,0.7540425900459289,-0.9551181200981139,1.312823158624023
1772480018725667600,1.04166748046875,1.2747411191195248,-0.9694260469138621,1.1361652998611331
1772480018735665400,1.05166552734375,1.5615473056882618,-0.984241923251748,0.8961525747798382
1772480018745663500,1.06166357421875,1.5598530689910053,-0.9961901351988315,0.671837623437494
1772480018755661600,1.07166162109375,1.5355869350016116,-0.997944285389781,0.442334601932764
1772480018765659400,1.081659423828125,1.481831379416585,-0.934028570318222,0.2698163271926343
1772480018775657500,1.091657470703125,1.3461959975242614,-0.8950017973095178,-0.09103782301396131
1772480018785655300,1.1016552734375,1.1469418376803397,-0.8556938692718744,-0.4939112060435116
1772480018795653400,1.1116533203125,0.7552730086237192,-0.8356658112436532,-0.7654352139368653
1772480018805651500,1.1216513671875,0.208714646628499,-0.8403332185328006,-0.9708433663658798
1772480018815648300,1.131648193359375,-0.36152035903036595,-0.8720593131393194,-1.2593942046448587
1772480018825646300,1.141646240234375,-0.9288111279308795,-0.8811889605343342,-1.5503659864604473
1772480018835644400,1.15164453125,-1.4758172336935995,-0.9248790491789579,-1.5870947116598486
1772480018845642200,1.161642333984375,-1.8186410755604505,-0.9306132089167832,-1.317473760908842
1772480018855640300,1.171640380859375,-2.0094220060914756,-0.9540075285077094,-1.0617471877366305
1772480018865638400,1.181638427734375,-2.0715879548862577,-0.9525970771878958,-0.8496998895540833
1772480018875636200,1.19163623046875,-1.9647522587597368,-0.9649936174243688,-0.7346225809134542
1772480018885634300,1.20163427734375,-1.7145438644871114,-0.9741928229242562,-0.7657770131118595
1772480018895631400,1.21163134765625,-1.407948689343035,-0.9291671017616987,-0.918912834250927
1772480018905629400,1.22162939453125,-1.1243845534354449,-0.8225602459549903,-1.0594327733144164
1772480018915627500,1.23162744140625,-0.926335385467112,-0.8041659266084432,-1.1090798706673084
1772480018925625300,1.241625244140625,-0.7727458292111754,-0.8273410504907369,-0.960341992226243
1772480018935623400,1.25162353515625,-0.6162111594140529,-0.8321826453030109,-0.713192254871875
1772480018945621500,1.26162158203125,-0.4068874409765005,-0.890566445210576,-0.4306554161854088
1772480018955619300,1.271619384765625,-0.2493488548338413,-0.9232891496390103,-0.17327756867483257
1772480018965617400,1.281617431640625,-0.0798515353500843,-0.8347644784897565,0.06192556416764855
1772480018975615200,1.291615234375,0.13054887240827082,-0.6911579715877771,0.20032617298960684
1772480018985612300,1.3016123046875,0.23003625159859656,-0.5642226135015488,0.1470525557026267
1772480018995610400,1.3116103515625,0.3059387570619583,-0.43881344206929207,-0.002294248417019844
1772480019005608400,1.3216083984375,0.4706219542622566,-0.3068167089402675,-0.06459259141981602
1772480019015606500,1.3316064453125,0.6811363437891006,-0.20835048949122428,-0.05802782607674598
1772480019025604600,1.3416044921875,0.8041600813895463,-0.07617197005450725,-0.19035291437730192
1772480019035602400,1.3516025390625,0.9091542413026094,0.055333764687180514,-0.3583642330870032
1772480019045600500,1.3616005859375,1.0490870281279085,0.11963467968404293,-0.4714551902160048
1772480019055598300,1.371598388671875,1.2017653147578238,0.12489596121311188,-0.4516561186380684
1772480019065596400,1.381596435546875,1.248065878161788,0.1779208644360304,-0.4957622407376766
1772480019075593500,1.391593505859375,1.127630988010764,0.1229471652328968,-0.5748628115899861
1772480019085591300,1.40159130859375,0.8241694347172975,-0.017484218764305115,-0.6321490255191922
1772480019095589400,1.41158935546875,0.3405047512695193,-0.12036708561182022,-0.7765997281603515
1772480019105587200,1.421587158203125,-0.3242074042022228,-0.007016016241908073,-0.9106975252218544
1772480019115585300,1.431585205078125,-1.1900339604318142,0.12775953395068645,-0.9810326058164238
1772480019125583400,1.441583251953125,-2.131151612228155,0.3108838122487068,-1.1463568773992359
1772480019135581200,1.451581298828125,-2.9898084229588506,0.6492670413196087,-1.2604296851724386
1772480019145579300,1.461579345703125,-3.6096138074725865,0.8548428054004907,-1.2951200364120303
1772480019155576300,1.471576416015625,-3.916963892637193,1.0964169345796109,-1.4198157988779245
1772480019165574400,1.481574462890625,-3.910868790632486,1.187811023685336,-1.2638745649293064
1772480019175572500,1.491572509765625,-3.628046705263853,1.2927742039382457,-0.9075131960973143
1772480019185570300,1.5015703125,-3.106344552105665,1.3238473875939845,-0.40841099728196856
1772480019195568400,1.511568359375,-2.5291268479526043,1.35466571970582,0.12860723682120442
1772480019205566500,1.52156640625,-1.975688371054828,1.4018880741298199,0.4768640635222196
1772480019215564300,1.531564208984375,-1.4283026183247565,1.3836018913328647,0.5158363298647105
1772480019225562400,1.541562255859375,-0.8803998559832572,1.3524106342554092,0.4274062051311135
1772480019235560400,1.551560546875,-0.3304296397179365,1.2549702507227658,0.30810601809844373
1772480019245557200,1.56155712890625,0.07824000850021838,1.0484452230930328,0.15999971555918455
1772480019255555300,1.571555419921875,0.3368868530333042,0.778048904055357,0.16126695901602506
1772480019265553200,1.58155322265625,0.46507250344157214,0.47885085342526434,0.2910065608680248
1772480019275551200,1.59155126953125,0.46044016746580596,0.13854337829351424,0.4126899897754192
1772480019285549300,1.60154931640625,0.3942465705901384,-0.13563655093610286,0.6990764896273612
1772480019295547100,1.611547119140625,0.2069084739893675,-0.37109132045209403,1.095489298340678
1772480019305545200,1.621545166015625,-0.0745385236337781,-0.6170996326863766,1.4379311551526188
1772480019315543300,1.631543212890625,-0.3554100594565272,-0.7500801161557435,1.8168267196148633
1772480019325540400,1.641540283203125,-0.6354021820962429,-0.8472048578679561,2.1327616777732965
1772480019335538400,1.651538330078125,-0.8772583430871367,-0.8390221359342336,2.3731074342012404
1772480019345536300,1.661536376953125,-0.9836302210941911,-0.7296943307310343,2.64800077239722
1772480019355534300,1.671534423828125,-0.8763187241494655,-0.5009656545996666,2.8460388344496486
1772480019365532400,1.681532470703125,-0.5860697036504745,-0.28658289920687674,2.998020955508947
1772480019375530200,1.6915302734375,-0.17633154941797255,-0.04895838443636894,2.9993817224681374
1772480019385528300,1.7015283203125,0.6986103334203362,0.22183774757385252,2.772173387771845
1772480019395526400,1.7115263671875,1.650327120642364,0.25552958929538727,2.3349045447960495
1772480019405524200,1.721524169921875,1.947282653042674,0.16993278829157352,1.990826611214876
1772480019415521300,1.731521240234375,1.9651386277288196,0.17114391764700412,1.7340575432524084
1772480019425519000,1.74151904296875,1.8999761274665592,0.1818020897835493,1.4155729006111621
1772480019435517200,1.75151708984375,2.0311729423895475,0.1795271305888891,1.0871972708135842
1772480019445515500,1.761515625,2.0907956364423037,0.10406944628357886,0.7532119844406843
1772480019455513300,1.771513427734375,2.0730220793426035,-0.05723287630677223,0.4651186806708574
1772480019465511400,1.781511474609375,2.020560070699453,-0.16572189259827136,0.24981091938763855
1772480019475509500,1.791509521484375,1.8648817254707215,-0.33539456864893435,-0.0007464344531297683
1772480019485507300,1.80150732421875,1.605163744574785,-0.5203934086471795,-0.21336276469528673
1772480019495505400,1.81150537109375,1.2919295698076485,-0.6486439409852027,-0.2522004448726773
1772480019505502200,1.821502197265625,1.025766650556028,-0.7230272740572691,-0.20453852998763322
1772480019515500300,1.831500244140625,0.8478048695877194,-0.7542191156566143,-0.1969052586302161
1772480019525498400,1.841498291015625,0.7991285169631243,-0.7643646620959043,-0.3106570177555084
1772480019535496200,1.85149609375,0.8192705567598343,-0.7418664145618676,-0.5807938090741634
1772480019545494300,1.861494384765625,0.8942585777267813,-0.6818003606557845,-0.8351578617215156
1772480019555492400,1.871492431640625,0.8511375211417674,-0.6150964761704206,-1.030439464672655
1772480019565490200,1.881490234375,0.7583014165341854,-0.5100163915395737,-1.1361449877254663
1772480019575488300,1.89148828125,0.6661693685427308,-0.3506839077174663,-1.0822717971101403
1772480019585486300,1.901486328125,0.6177709560766815,-0.16536533424556255,-0.8975447597905993
1772480019595483400,1.9114833984375,0.648108226673305,-0.0051256724506616586,-0.8237634842649102
1772480019605481500,1.9214814453125,0.7949024237006902,0.12203998726010322,-0.8497713473550975
1772480019615479300,1.931479248046875,1.0695850417554378,0.24948037225902078,-0.7950162593387067
1772480019625477400,1.941477294921875,1.4038187499314545,0.2176420494496822,-0.7711223196625709
1772480019635475500,1.951475341796875,1.7214438531339167,0.0766191293001175,-0.825566295903176
1772480019645473300,1.961473388671875,1.9254706342071293,-0.055042672786116596,-0.7049469890959561
1772480019655471400,1.971471435546875,1.9586989500701426,-0.14440262571573256,-0.5298302222952246
1772480019665469400,1.981469482421875,1.8529203617811203,-0.29847733514010905,-0.5386212853856385
1772480019675467300,1.99146728515625,1.6612784305065869,-0.3235159148067236,-0.5585651722617447
1772480019685464300,2.00146435546875,1.4151952994704247,-0.1781727933704853,-0.5829599010668695
1772480019695462100,2.011462158203125,1.0701543660759925,-0.11358195551633835,-0.7979746707528829
1772480019705460200,2.021460205078125,0.7273588735207915,-0.0430868620544672,-0.9513269111216067
1772480019715458300,2.031458251953125,0.4140495876908302,0.08871697885096072,-1.0091362721420825
1772480019725456100,2.0414560546875,0.20105390274226664,0.21507775191962716,-1.065125139737129
1772480019735454200,2.0514541015625,0.12899813583493233,0.3218494428992271,-1.1034963714465498
1772480019745452300,2.061452392578125,0.2291352111056447,0.4263414985090494,-1.0350349757693706
1772480019755450400,2.071450439453125,0.2866542108774185,0.39150867005884643,-1.197950286514312
1772480019765448400,2.081448486328125,0.11708850233256816,0.32417467097640035,-1.4890823734581469
1772480019775445200,2.0914453125,-0.18796265823990105,0.6684370212137699,-1.39525272776857
1772480019785443300,2.101443359375,-0.6534151009097695,1.2149398536294698,-1.0283366471745072
1772480019795441400,2.11144140625,-1.2505074260950089,1.4295885664820671,-0.66745283248201
1772480019805439200,2.121439208984375,-1.871863547182083,1.5076859516412018,-0.3970087287798524
1772480019815437300,2.131437255859375,-2.281307102382183,1.421528009623289,-0.13369418469667435
1772480019825435400,2.141435302734375,-2.3804350006103516,1.3739075957924127,0.1492296074807644
1772480019835433200,2.15143310546875,-2.260396416300535,1.2786211754232644,0.2811976990371942
1772480019845431300,2.161431396484375,-2.4019778471156954,1.3794009325116872,0.5391130144253373
1772480019855428000,2.171427978515625,-2.53663152449429,1.5904448988705873,0.518691865426302
1772480019865426200,2.18142626953125,-2.519535136003792,1.645207585671544,0.34577889228016134
1772480019875424500,2.191424560546875,-2.231994497680664,1.6037211445510386,0.17354074965566396
1772480019885422300,2.20142236328125,-2.112535466824472,1.8636913466423748,0.039303836384415626
1772480019895420400,2.21142041015625,-1.8623586367338896,1.7778981462836265,-0.14599194073379038
1772480019905418500,2.22141845703125,-1.4503484459161757,1.609602603805065,-0.3396925581037998
1772480019915416300,2.231416259765625,-1.0386305160433054,1.2409323730200528,-0.29255846648514267
1772480019925414400,2.241414306640625,-0.6093395200788975,0.7622504464209079,0.07032762794047594
1772480019935412500,2.25141259765625,-0.2407043606072664,0.22136896101832387,0.4288561116784811
1772480019945409300,2.2614091796875,0.00913198548257351,-0.32515491418540476,0.9321648222729563
1772480019955407400,2.271407470703125,0.17292963201999664,-0.7947989633262157,1.415942318445444
1772480019965405200,2.2814052734375,0.20371464638411999,-1.1180775622457266,1.783727290828526
1772480019975403300,2.2914033203125,0.03761544490605592,-1.341259710165858,1.9636931050956248
1772480019985401300,2.3014013671875,-0.3592155892193317,-1.4810504581719637,1.989547092798352
1772480019995399200,2.311399169921875,-0.9972533805161714,-1.511340967017412,1.9157719547525047
1772480020005397200,2.321397216796875,-1.696396505638957,-1.3613281002044677,1.7201520597577094
1772480020015395300,2.331395263671875,-2.2529431776851414,-1.2160609666138886,1.3596858859553933
1772480020025392400,2.341392333984375,-2.5059634145081042,-1.157480767351389,0.9665510759994387
1772480020035390500,2.351390380859375,-2.493352354738116,-1.2555308072149753,0.6711398504316807
1772480020045388300,2.36138818359375,-2.2679396712869404,-1.3052081535756588,0.5738375601954758
1772480020055386400,2.371386474609375,-1.8199632640749215,-1.2849316737443208,0.5692090236119925
1772480020065384400,2.381384521484375,-1.2557210690900682,-1.302369130757451,0.6389189580455422
1772480020075382300,2.39138232421875,-0.7082745260834693,-1.2973866661697626,0.7407834416307508
1772480020085380400,2.40138037109375,-0.2075762902483344,-1.2203928583383559,0.8533164726160466
1772480020095378400,2.41137841796875,0.22547084337919948,-1.1393465602457522,0.8063190129891038
1772480020105376300,2.421376220703125,0.5320759553954005,-1.1094868440330028,0.7046244791433215
1772480020115374300,2.431374267578125,0.8089297800093889,-1.1257798071861267,0.6176086051218211
1772480020125372200,2.4413720703125,1.0134040125891566,-1.1522627404421568,0.47313408321365713
1772480020135370200,2.451370361328125,1.1018243465811013,-1.2032844871491193,0.15902356400340795
1772480020145368300,2.461368408203125,1.1570417914122342,-1.2397305960148572,-0.17172376336157322
1772480020155366100,2.4713662109375,1.1467401776283979,-1.2040858666598797,-0.37732436962276694
1772480020165364200,2.4813642578125,0.9957838924854994,-1.2192477799564598,-0.5913830076277256
1772480020175362300,2.4913623046875,0.700057901880145,-1.281589377579093,-0.7123211711257695
1772480020185360100,2.501360107421875,0.30860709948837756,-1.3021294767826794,-0.7455451030746102
1772480020195358200,2.511358154296875,-0.17374036388099193,-1.289291622519493,-0.688301851504296
1772480020205355300,2.521355224609375,-0.6208364811271428,-1.1765712522685527,-0.47905938160941003
1772480020215353300,2.531353271484375,-0.9904746801614761,-1.0631424414873123,-0.19513211147785187
1772480020225351400,2.541351318359375,-1.1795973220914602,-0.8851303916364908,-0.037882133018225427
1772480020235349200,2.551349365234375,-1.1044663855224848,-0.6968880396723747,-0.04879603348150849
1772480020245347300,2.561347412109375,-0.9390291550844907,-0.6429828464835882,-0.20871508501991629
1772480020255345400,2.571345458984375,-0.742455028104782,-0.5396867226600647,-0.3385207378454506
1772480020265343200,2.58134326171875,-0.5052545839652419,-0.46642216448485846,-0.4282318423002958
1772480020275341300,2.59134130859375,-0.2142225963950157,-0.41107963196933267,-0.5110267376258969
1772480020285338000,2.601338134765625,0.03038812400102615,-0.34211247872710226,-0.6325587753638625
1772480020295336200,2.611336181640625,0.2736108971700072,-0.219416073384881,-0.7867062577635049
1772480020305334300,2.621334228515625,0.5851584340244531,-0.2176817969381809,-1.0440969647556542
1772480020315332000,2.63133203125,0.8170780151516198,-0.2649690332919359,-1.1933359245866537
1772480020325330200,2.641330078125,0.9583440964072942,-0.29432956781089303,-1.288085607730597
1772480020335328300,2.651328369140625,1.0172945902869104,-0.3458136713325977,-1.353431940127164
1772480020345326000,2.661326171875,0.9989631070435047,-0.3327519451856613,-1.4009173294015227
1772480020355324200,2.67132421875,0.9189581346973776,-0.3797854990392923,-1.5610051616355776
1772480020365322200,2.681322265625,0.7631359970837831,-0.3566629821270704,-1.7507297149814665
1772480020375319300,2.6913193359375,0.5808867480546236,-0.2943143702417612,-1.8677783236950636
1772480020385317400,2.7013173828125,0.42334114764928815,-0.11016191793978214,-1.8667754302628337
1772480020395315200,2.711315185546875,0.25900223384201526,0.026261983981728552,-1.7459098936095834
1772480020405313300,2.721313232421875,0.18022329615950583,0.04055179061889648,-1.5918037661336362
1772480020415311400,2.731311279296875,0.147091134147346,0.04668517880737781,-1.3867249917894602
1772480020425309200,2.74130908203125,0.11966536708325147,0.0317062208622694,-1.2952788802355528
1772480020435307300,2.751307373046875,0.20068039325475692,0.12007307110130787,-1.0794061785459519
1772480020445305300,2.761305419921875,0.36025253105163574,0.19304536833167074,-0.898137318856269
1772480020455303200,2.77130322265625,0.4647580306649208,0.2919879731208086,-0.7447291105166077
1772480020465300200,2.78130029296875,0.5941483806878328,0.2638403215229511,-0.6514231964401901
1772480020475298000,2.791298095703125,0.6721040192887187,0.3240677034705877,-0.5761690718829632
1772480020485296000,2.801296142578125,0.41385786451101303,0.2539151398360729,-0.553532731052488
1772480020495294200,2.811294189453125,-0.07942775698006152,0.417390130290389,-0.5729305283531546
1772480020505292300,2.821292236328125,-0.8906561693206428,0.6982090591430664,-0.9703415543235838
1772480020515290400,2.831290283203125,-2.002622847470641,1.2707464965254067,-1.324607558311522
1772480020525288400,2.841288330078125,-3.1874750213503837,1.79488142978847,-1.4957963380135595
1772480020535286300,2.851286376953125,-4.287957305672765,2.257526998344064,-1.2723475019812582
1772480020545284400,2.861284423828125,-5.039534966909885,2.665785727673769,-1.2755125418834388
1772480020555281200,2.87128125,-5.073589212203026,2.739371188366413,-1.4217998123019933
1772480020565279200,2.881279296875,-4.811701778313517,2.9084570044398306,-1.5932823142535983
1772480020575277300,2.89127734375,-3.9595542033463715,2.7495962297827004,-1.6296517046213148
1772480020585275100,2.901275146484375,-2.7163503782629963,2.2085358806818722,-1.5475577971719205
1772480020595273200,2.911273193359375,-1.4225506306692957,1.5301327612489461,-1.357756086936593
1772480020605271300,2.921271240234375,-0.15223580355942248,1.113589603176713,-0.8841349508583545
1772480020615269000,2.93126904296875,0.46724400226175783,0.626776392570138,0.060883653899282214
1772480020625267200,2.94126708984375,0.814158912834525,0.1736065083682537,1.0893287298843264
1772480020635265300,2.951265380859375,1.0064619383662938,-0.23695815981626508,2.2578739120855924
1772480020645262300,2.961262451171875,1.192682721374929,-0.4906792383849621,3.190780492636561
1772480020655260400,2.971260498046875,1.2735019327133894,-0.8954577243834734,3.735872289210558
1772480020665258200,2.98125830078125,1.3117957152724264,-1.3401584709256886,3.9007179834961887
1772480020675256300,2.99125634765625,1.3340472945690154,-1.532441622713208,3.9297643374994395
1772480020685254400,3.00125439453125,1.3057432833656668,-1.5470996781408786,3.748034143908322
1772480020695252200,3.011252197265625,1.1167772933021187,-1.3891770611166954,3.2788495289728044
1772480020705250300,3.021250244140625,1.0216457712337375,-1.376730836519599,2.8890909174516795
1772480020715248400,3.031248291015625,0.6189271403744816,-1.3994196381896733,2.4737299549013376
1772480020725246200,3.04124609375,0.028982348856329915,-1.1385299831658602,2.081596430942416
1772480020735243300,3.0512431640625,-0.6299117679864168,-0.8249269750863313,1.5190651315286754
1772480020745241000,3.061240966796875,-1.1836325689569116,-0.6075526366621256,0.9058999156817793
1772480020755239200,3.0712392578125,-1.7073241423666476,-0.36234862654805183,0.4906900520399213
1772480020765237200,3.0812373046875,-2.181529508073628,-0.07786006927192211,0.23379209700077772
1772480020775235000,3.091235107421875,-2.498599023219943,0.17513269502222537,-0.022644085745513437
1772480020785233200,3.101233154296875,-2.6875787495478987,0.3734937054187059,-0.42849341584593054
1772480020795231200,3.111231201171875,-2.754377326579392,0.4910556704819202,-0.6789490628778934
1772480020805229300,3.121229248046875,-2.559022804522514,0.4625269106119871,-0.7414370832338929
1772480020815226400,3.131226318359375,-1.9357658182501791,0.2693225523263216,-0.735244950595498
1772480020825224200,3.14122412109375,-1.1396519729331136,-0.062295420393347734,-0.7072086504176258
1772480020835222300,3.15122216796875,-0.3548801903635263,-0.3371750223249197,-0.6850088013082742
1772480020845220400,3.161220458984375,0.3784223939925432,-0.6128904905587435,-0.6875093859523534
1772480020855218200,3.17121826171875,1.0442974557638167,-0.8265688970744609,-0.6831053057745099
1772480020865216300,3.18121630859375,1.5204612620621918,-1.0417238058835268,-0.609392711570859
1772480020875214300,3.19121435546875,1.872072513757646,-1.2216834826707839,-0.40883536017388106
1772480020885212200,3.201212158203125,2.0795310228452086,-1.2624129679441451,-0.20925912876874206
1772480020895210200,3.211210205078125,2.1893740840941667,-1.240115211418271,-0.09233721517473459
1772480020905207000,3.22120703125,2.263564524942636,-1.238123160818219,-0.15764496912658213
1772480020915205000,3.231205078125,2.2189853785037994,-1.1644617122799157,-0.2509028062775731
1772480020925203200,3.241203125,2.0180439962252974,-1.026159741526842,-0.301707695363462
1772480020935201300,3.251201171875,1.684969394956529,-0.8668716813683509,-0.43492286437153815
1772480020945199400,3.261199462890625,1.3110688623026012,-0.7367115160167217,-0.623587241140008
1772480020955197400,3.271197509765625,0.9155708303466439,-0.5563374132096767,-0.6893281258121132
1772480020965195300,3.2811953125,0.604483896741271,-0.46837914377152917,-0.7584034156039356
1772480020975193300,3.291193359375,0.41431028445363044,-0.4007248266935348,-0.7940738639220595
1772480020985191400,3.30119140625,0.3001949527129531,-0.3430132269591093,-0.8472150870010257
1772480020995188200,3.311188232421875,0.19786884296536444,-0.28619477667212484,-0.8791942795857787
1772480021005186300,3.321186279296875,0.02962093902081251,-0.18463643642663954,-0.8821025682479142
1772480021015184100,3.33118408203125,-0.25281068572551013,0.010251344901323317,-0.8743547306001186
1772480021025182200,3.34118212890625,-0.5871630518451333,0.2315858191281557,-0.8707888548120856
1772480021035180300,3.35118017578125,-0.8617246738687158,0.4775806873589754,-0.8030506588429213
1772480021045178000,3.36117822265625,-0.9628194882556795,0.6187444772839545,-0.8234563180118799
1772480021055176200,3.37117626953125,-0.9142471805274486,0.6131763217628002,-0.9922019423455
1772480021065174300,3.38117431640625,-0.7739549127399921,0.6418897905498743,-1.0600658105209468
1772480021075172000,3.391172119140625,-0.6289271408632398,0.7383832486212253,-1.0788424071833491
1772480021085169400,3.40116943359375,-0.658337652003765,0.8715589624017477,-1.0352110629886389
1772480021095167200,3.411167236328125,-0.9215969587683677,0.9833189631879329,-0.9639879475131631
1772480021105165300,3.421165283203125,-1.3278054775699972,1.117908635419607,-0.7868167324006557
1772480021115163000,3.431162841796875,-1.7256506571739911,1.17601712551713,-0.5626259919598698
1772480021125161000,3.441160888671875,-2.075817263019085,0.9910282223910093,-0.34612376019507646
1772480021135159000,3.451158935546875,-2.054337837138772,0.49441199517250056,-0.2764005278885364
1772480021145156900,3.461156982421875,-1.7110703431576488,-0.08816694375276565,-0.10499415991306305
1772480021155155000,3.471155029296875,-1.4352873626455664,-0.7767273000627756,0.22241291711330413
1772480021165153000,3.481153076171875,-1.3274027419880032,-1.3937041831523178,0.5343965072974562
1772480021175149800,3.49114990234375,-1.2220967396467923,-1.9644997453033923,0.8261679150581359
1772480021185148000,3.50114794921875,-1.1372387743115424,-2.482653266069293,0.9289917451947927
1772480021195145700,3.511145751953125,-1.0991893219023943,-2.813179936420917,0.9870373991891741
1772480021205143800,3.521143798828125,-1.2668150022953748,-2.9348896688133475,0.9519193240568041
1772480021215142000,3.531141845703125,-1.7754069139897821,-2.7563457040429116,0.7707327358230948
1772480021225140000,3.541139892578125,-2.564842596717179,-2.2438456789940595,0.5120502354547382
1772480021235138000,3.551137939453125,-3.474657055494189,-1.5054612613290548,0.17338935848623513
1772480021245136100,3.56113623046875,-4.354078129573166,-0.6030535716772079,-0.32248160332292314
1772480021255134000,3.571134033203125,-5.181178649306297,0.0720522597759962,-0.9755524208396673
1772480021265131000,3.581131103515625,-5.760210709404945,0.30152386322915553,-1.4068378054916857
1772480021275128800,3.59112890625,-5.824224039632082,0.3943430167019367,-1.5535682896330951
1772480021285127000,3.601126953125,-5.293365935593843,0.27090836021304127,-1.3776286621421574
1772480021295125000,3.611125,-4.255832274876535,-0.03290390621423721,-1.4494532506421207
1772480021305122800,3.621122802734375,-2.927527615612745,-0.5436807607322931,-1.3626824374228714
1772480021315121000,3.631120849609375,-1.9914736769467591,-0.8955793049365282,-0.6287015154138207
1772480021325119000,3.641118896484375,-1.4793594363451004,-1.1543594204604626,0.027266192588210104
1772480021335116800,3.65111669921875,-1.3085349599108098,-1.188525309434533,0.699895697055757
1772480021345114000,3.661114013671875,-1.0825570437923073,-1.156533257368207,1.1982061609715222
1772480021355112200,3.6711123046875,-0.6254261470049619,-1.283483813023567,1.1847235790640116
1772480021365110000,3.681110107421875,-0.22527064463198185,-1.6792425417423247,1.3215683367460966
1772480021375108000,3.691108154296875,0.01927723966091871,-1.9307184717327355,1.5433271738648413
1772480021385106000,3.70110595703125,0.010302782827615738,-2.1727812612116337,1.4868001077398656
1772480021395104000,3.71110400390625,-0.24521482376903295,-2.55095523340106,1.5118959705516695
1772480021405102000,3.72110205078125,-0.4703402147114277,-2.359874443140626,1.3115227435499428
1772480021415100000,3.731099853515625,-0.7935545162230729,-2.3461925392687317,1.0104755579218268
1772480021425098000,3.741097900390625,-1.163836273857951,-2.313231934431195,0.7482216288074851
1772480021435095000,3.751094970703125,-1.5173860924005507,-2.2699270457118748,0.4414981511086225
1772480021445092900,3.7610927734375,-1.877654405543208,-2.1390023257285353,0.12518135402575134
1772480021455091000,3.771091064453125,-2.268087847585976,-1.8667840519607066,-0.3401069841235876
1772480021465088800,3.7810888671875,-2.691628901721537,-1.4998323155313729,-0.8806289885640144
1772480021475086800,3.7910869140625,-3.084320936346054,-1.0340770905226468,-1.389811121236533
1772480021485085000,3.8010849609375,-3.461236432906985,-0.5641963100165128,-1.8109665954098104
1772480021495082800,3.811082763671875,-3.7425492827564475,-0.31017537171840665,-2.0710044559098777
1772480021505080800,3.821080810546875,-3.775871998904645,-0.3077116119533777,-1.9200218672819434
1772480021515079000,3.831078857421875,-3.5205554678380486,-0.3911012583017349,-1.7602493846073746
1772480021525076000,3.841075927734375,-3.1297941090151666,-0.5555179135203361,-1.6789954351134597
1772480021535074000,3.851073974609375,-2.7496944294601677,-0.695801998001337,-1.529956966290623
1772480021545072000,3.861072021484375,-2.4023078097224233,-0.7218938861131667,-1.1809493212223052
1772480021555070000,3.871070068359375,-2.051305045314133,-0.7237912441670894,-0.8396827918000519
1772480021565068000,3.881068115234375,-1.7290198413461446,-0.7686217350184917,-0.6250431390367448
1772480021575065900,3.89106591796875,-1.487301335260272,-0.770167210894823,-0.4623123910784721
1772480021585064000,3.90106396484375,-1.4287825107961891,-0.722115419909358,-0.40294411017820236
1772480021595062000,3.91106201171875,-1.4813433036386965,-0.6533335601061582,-0.3230009510219097
1772480021605059800,3.921059814453125,-1.5191805746018885,-0.5733113443642854,-0.05906053012534976
1772480021615057000,3.931056884765625,-1.4470219318419695,-0.4858960957616567,0.21852307006791233
1772480021625055000,3.941054931640625,-1.31350485727787,-0.468051226991415,0.3555713874980807
1772480021635052800,3.951052734375,-1.0924445238173008,-0.4235568362265825,0.48818157635033127
1772480021645051000,3.96105078125,-0.8291326100826263,-0.4262748630136251,0.5083011120542884
1772480021655049000,3.971049072265625,-0.57477615621984,-0.4422223737299442,0.5315910944879054
1772480021665047000,3.981047119140625,-0.46140608988851306,-0.474272877985239,0.5113439868815243
1772480021675045000,3.991045166015625,-0.4207417788058519,-0.5054173733115196,0.479065957480669
1772480021685043000,4.00104296875,-0.4093172984719276,-0.5904693999141455,0.28626784190833565
1772480021695041000,4.011041015625,-0.38592823957800865,-0.6895557970881462,0.024337737920880315
1772480021705038000,4.0210380859375,-0.3153238405227661,-0.6921183410525321,-0.24306451386734843
1772480021715036000,4.031035888671875,-0.3188473384737968,-0.6568932984143495,-0.5130740255445242
1772480021725034000,4.041033935546875,-0.42456630553007124,-0.675396923354268,-0.7666546727292239
1772480021735031800,4.05103173828125,-0.539579755154252,-0.6274579450935125,-0.8516953011550009
1772480021745030000,4.06102978515625,-0.6503846471726894,-0.5936567977786064,-0.8793661290213465
1772480021755028000,4.071028076171875,-0.7366857970535755,-0.5899865848332643,-0.9032873950958251
1772480021765025800,4.08102587890625,-0.7777025748357176,-0.548100915262103,-0.9309653833553194
1772480021775023900,4.09102392578125,-0.7788438538253307,-0.5244049823760986,-1.0387890676058829
1772480021785022000,4.10102197265625,-0.722078010508418,-0.4944114106506109,-1.1007649006560445
1772480021795019000,4.11101904296875,-0.6915919790908693,-0.4591740930527448,-1.0717734917104245
1772480021805017000,4.12101708984375,-0.730662883502245,-0.36026012983620165,-0.920634981868416
1772480021815015200,4.13101513671875,-0.934832287916541,-0.17311609450280666,-0.8760615345180034
1772480021825013000,4.141012939453125,-1.232177988678217,0.11716682826578616,-0.9788127378098667
1772480021835011000,4.151010986328125,-1.6065017151802776,0.4532850350141525,-1.1431164341732858
1772480021845009000,4.1610087890625,-1.9510528192311525,0.6341647492557764,-1.2380910121142863
1772480021855007000,4.171007080078125,-2.2648814527601004,0.6196878956139087,-1.2231611540079117
1772480021865005000,4.181005126953125,-2.4027213589593766,0.5397469284147024,-1.1567628283403812
1772480021875003000,4.1910029296875,-2.1769211374953388,0.30814182006418706,-0.9272541077472269
1772480021885000000,4.201,-1.6038105764001607,0.10996201145350933,-0.6591632891729474
1772480021894998000,4.210998046875,-0.9587944705232977,-0.08541735278367996,-0.28776377955451604
1772480021904995800,4.220995849609375,-0.4263379913777113,-0.16143442453742027,0.1689874702654779
1772480021914994000,4.230993896484375,-0.1545189460605383,-0.14188918159008027,0.7270606212265789
1772480021924991700,4.24099169921875,-0.1305979722470045,0.03151157507300377,1.0396404237382113
1772480021934989800,4.25098974609375,-0.23498861330896614,0.2396376081585884,1.1249702443689107
1772480021944988000,4.26098779296875,-0.3590367255210876,0.39244565864801406,1.2057353874325751
1772480021954986000,4.270986083984375,-0.4338222096532583,0.48803895300924777,1.3155705576360226
1772480021964984000,4.280984130859375,-0.337140827794373,0.4094306957185268,1.1835386070631444
1772480021974981000,4.290981201171875,-0.12586100685298443,0.18460662581026552,1.029552014313638
1772480021984979000,4.30097900390625,0.09072422702014446,-0.0799082339733839,0.9852598681226372
1772480021994977000,4.31097705078125,0.10972937174141406,-0.2546142280161381,0.8685345000140369
1772480022004974800,4.320974853515625,-0.049852702927589414,-0.3885615106910467,0.7662294330544769
1772480022014973000,4.330972900390625,-0.3659574646949768,-0.4166764290630817,0.7041615378066897
1772480022024971000,4.340970947265625,-0.7684940169855952,-0.35020576881170273,0.646674102216959
1772480022034968800,4.35096875,-1.134451481680572,-0.2280512152612209,0.6306866978816688
1772480022044967000,4.360966796875,-1.3443062382549047,-0.0679874945551157,0.6734029730580747
1772480022054964000,4.3709638671875,-1.3425485809326172,0.09776830031275749,0.604890431715548
1772480022064961800,4.3809619140625,-1.1721788625285028,0.2549129187017679,0.4669676695384085
1772480022074960000,4.3909599609375,-0.8428852411031722,0.32354338733553883,0.42242900124043226
1772480022084958000,4.4009580078125,-0.459515161575377,0.3420049266993999,0.45928281412422656
1772480022094956000,4.4109560546875,-0.10338818602114916,0.33685821146070954,0.5633373550996184
1772480022104954000,4.4209541015625,0.2926145805865526,0.30673019970059395,0.6083566465213894
1772480022114951200,4.430951171875,0.6449807423025369,0.2549737089782953,0.6001308160983025
1772480022124949200,4.44094921875,0.8483470136404037,0.1579869144320488,0.4523506767734885
1772480022134947300,4.450947265625,0.9436039156541228,0.12119067695438861,0.13847308953627943
1772480022144945200,4.460945068359375,1.047531030857563,0.11507540894448756,-0.10730419042110442
1772480022154942200,4.470942138671875,1.175078675623238,0.06687865653038025,-0.28577304412871596
1772480022164940300,4.480940185546875,1.2944143723607062,0.03240238643288612,-0.4334491385571658
1772480022174938000,4.490938232421875,1.3479232597082853,0.009321955096721648,-0.581040769572556
1772480022184936200,4.500936279296875,1.4373369886517524,-0.08668868789374828,-0.6739306501939892
1772480022194934300,4.510934326171875,1.4429530749678612,-0.24699615422785282,-0.685569796191901
1772480022204932000,4.52093212890625,1.3658873709440231,-0.39813656376600265,-0.7368278358727693
1772480022214930200,4.53093017578125,1.2123574359208344,-0.5135603477567434,-0.7596466936632991
1772480022224928300,4.54092822265625,1.04598847759068,-0.49174599083364007,-0.6664188132591545
1772480022234926300,4.55092626953125,0.9352066741868853,-0.47361762894690035,-0.3878822962552309
1772480022244923400,4.56092333984375,0.7746826424926518,-0.4481219531625509,-0.13866203623712062
1772480022254921200,4.570921142578125,0.7146043136268854,-0.3979945249468088,0.04562134896814823
1772480022264919300,4.580919189453125,0.6882455912724137,-0.34088848989009857,0.11139014456048607
1772480022274917400,4.59091748046875,0.6542752248704433,-0.33583822076320646,-0.03710398825258016
1772480022284915200,4.600915283203125,0.6326368090361356,-0.31272856333255766,-0.1822140315853059
1772480022294913300,4.610913330078125,0.7097346617639064,-0.22692016540467738,-0.2506651981294155
1772480022304911000,4.6209111328125,0.7659533925920724,-0.14165478831231593,-0.20146014545559882
1772480022314909200,4.6309091796875,0.8422636020734906,-0.22858488374650476,-0.4941913381591439
1772480022324906200,4.64090625,0.9712959324389695,-0.22427286576628683,-0.6532637097403406
1772480022334904300,4.650904296875,1.0861658819392324,-0.20589666659831998,-0.8675976575553417
1772480022344902400,4.66090234375,1.280949326109886,-0.2620329798400402,-0.9951246979244053
1772480022354900500,4.670900390625,1.4426953008145094,-0.36378187422156333,-0.9152893830567598
1772480022364898300,4.680898193359375,1.4705167891979216,-0.46916474119126794,-0.7150007655985653
1772480022374896400,4.690896484375,1.3290806120723486,-0.6125993986576795,-0.508309295360744
1772480022384894500,4.70089453125,1.1055255391865968,-0.7175152326375246,-0.3629758185356855
1772480022394892300,4.710892333984375,0.872891672310233,-0.6635983490109443,-0.24059271692633627
1772480022404890400,4.720890380859375,0.6406450511857867,-0.5130664267599583,-0.34786008246839045
1772480022414888200,4.73088818359375,0.4336293174296617,-0.370375281137228,-0.6562924099117518
1772480022424885200,4.74088525390625,0.2540542560458183,-0.1455769301921129,-1.0224737464904785
1772480022434883300,4.75088330078125,0.0705360099941492,0.1836632074803114,-1.2988485554158686
1772480022444881200,4.760881103515625,-0.0063052376240491865,0.5196048886179924,-1.5875737273484467
1772480022454879200,4.770879150390625,0.09430968429148197,0.7372364166736602,-1.882216306631267
1772480022464877300,4.780877197265625,0.1639203961342573,0.9670675010889768,-2.039057850420475
1772480022474875100,4.790875244140625,0.4807657471358776,0.9957903222262858,-1.920059130552411
1772480022484873200,4.800873291015625,0.8149562006920575,0.977889923876524,-1.3802762540414928
1772480022494871000,4.81087109375,0.4533031551927328,1.1037404093354939,-1.1605401549220085
1772480022504868400,4.820868408203125,-0.14570523274689912,1.3881190764963627,-1.014809203211963
1772480022514866400,4.830866455078125,-0.8649801685333252,1.630971555048227,-0.7591551107540726
1772480022524864300,4.8408642578125,-1.593392350499332,1.658600151208043,-0.5364788665294646
1772480022534862300,4.8508623046875,-1.9326386261403559,1.3879688543707132,-0.6160939627751708
1772480022544860400,4.8608603515625,-2.017209298966825,0.9476210423409939,-0.4648661672145128
1772480022554858200,4.870858154296875,-2.2636092408671975,0.43585576130747794,-0.17790391330122945
1772480022564856300,4.880856201171875,-2.499322076797485,0.01465571734011173,-0.1087973515883088
1772480022574854100,4.890854248046875,-2.797369203826785,-0.31183658292889593,0.05431728112101555
1772480022584852200,4.900852294921875,-3.208837542852759,-0.48402504119276996,0.36525896103680133
1772480022594849300,4.910849365234375,-3.68809551577419,-0.5114490546911955,0.6568187718734145
1772480022604847000,4.92084716796875,-4.053402699866891,-0.39836861895620823,0.9733514036640525
1772480022614845200,4.93084521484375,-4.1613539560198785,-0.36494507278203964,1.1722443289801479
1772480022624843300,4.94084326171875,-3.9664948162645097,-0.55866264128685,1.1951038110420107
1772480022634841000,4.950841064453125,-3.451607019296288,-0.7281862642556428,0.9737921331688761
1772480022644839200,4.960839111328125,-2.8009195897847414,-0.8659592426985502,0.9503504673048854
1772480022654837200,4.970837158203125,-1.79361360180974,-1.1567243960261344,0.8673428060114383
1772480022664835300,4.98083544921875,-0.7884457949072122,-1.3193898236632347,0.909846899741888
1772480022674833400,4.99083349609375,0.05322597875297069,-1.5020809712409973,1.1892588844060896
1772480022684830200,5.000830322265625,0.6502291643500328,-1.6100199524343013,1.3305699738472698
1772480022694828300,5.010828369140625,0.9145055392026901,-1.7658944047570229,1.5418305055662989
1772480022704826400,5.020826416015625,0.8839970036923884,-1.78067053360641,1.848336833383143
1772480022714824200,5.03082421875,0.5175871190547943,-1.7873393438458443,1.8706576785236595
1772480022724822300,5.040822265625,-0.12086597504466771,-1.670993184313178,1.5145520380184054
1772480022734820400,5.0508203125,-0.9720505501985549,-1.4582055891573429,0.9705749246880412
1772480022744818200,5.060818115234375,-1.6479741277754305,-1.2004945641696452,0.47041854064464567
1772480022754816300,5.070816162109375,-2.0333856500029563,-1.0355325500279664,0.09393968193531035
1772480022764814000,5.08081396484375,-2.18611332873255,-0.9884136559784412,-0.18451514813452957
1772480022774811400,5.090811279296875,-2.053285697737336,-0.9746160167723894,-0.3375990929558873
1772480022784809500,5.1008095703125,-1.6164233897358178,-1.0486457141011953,-0.46931613236069675
1772480022794807300,5.110807373046875,-1.1064449921190738,-1.2011071431100369,-0.5760894307754933
1772480022804805400,5.120805419921875,-0.6516548132389783,-1.256516311120987,-0.5412015111371874
1772480022814803500,5.130803466796875,-0.3751239369690418,-1.2075842301696538,-0.5191955771647393
1772480022824801300,5.14080126953125,-0.08660685482919216,-1.1836159100830554,-0.4847700143411755
1772480022834799400,5.15079931640625,0.17593582809865474,-1.1887515194058418,-0.47734819377735255
1772480022844797200,5.160797119140625,0.3692760877236724,-1.2564333090126514,-0.4327938895188272
1772480022854795300,5.170795166015625,0.5164195365801453,-1.1393792934715747,-0.3252139508962631
1772480022864793300,5.18079345703125,0.554076482540369,-1.1227098982214927,-0.29374679948687554
1772480022874790100,5.1907900390625,0.4581199078246951,-1.0191647680729627,-0.34728491292893887
1772480022884788200,5.200788330078125,0.24933833343982695,-0.8855471557438374,-0.4807438275650143
1772480022894786300,5.210786376953125,-0.06948094798326492,-0.6974257998108864,-0.5631394944399595
1772480022904784100,5.2207841796875,-0.37728637569993734,-0.47245559943020343,-0.6078751466147602
1772480022914782200,5.2307822265625,-0.7035378529503941,-0.2696796952009201,-0.7414402981042861
1772480022924780300,5.2407802734375,-0.9454816922247409,-0.20071780265569686,-0.9798952723495662
1772480022934778000,5.250778076171875,-1.0856661157235503,-0.12321662982404231,-1.1553013774856924
1772480022944776200,5.260776123046875,-1.198805295908451,-0.05532265877127647,-1.1636644244223833
1772480022954774000,5.27077392578125,-1.249853930622339,-0.09298983386456966,-1.2149166188843548
1772480022964771300,5.280771240234375,-1.1575742908537388,-0.1581739614367485,-1.189183042690903
1772480022974769400,5.290769287109375,-0.9689175128698349,-0.20913608691096305,-1.1182431280709801
1772480022984767200,5.300767333984375,-0.6789671830564737,-0.25747487814426423,-0.9139145875722169
1772480022994765300,5.310765380859375,-0.40454789211302994,-0.3266384307414293,-0.75242726380378
1772480023004763400,5.320763427734375,-0.06199702196866273,-0.4621943176567554,-0.6432993650868535
1772480023014761200,5.33076123046875,0.22852117086052892,-0.6256827521145344,-0.4099354303702712
1772480023024759300,5.34075927734375,0.37045594515800473,-0.7738029370486735,-0.26424904845431446
1772480023034757000,5.350757080078125,0.4427396756023168,-0.8024211287677288,-0.059895081253349775
1772480023044755200,5.360755126953125,0.40814211721271276,-0.6648959876060485,-0.002413198621571064
1772480023054752300,5.370752197265625,0.30635522890836,-0.5046569103330374,-0.24705533706918356
1772480023064750000,5.38075,0.28566432305723427,-0.3907891236126423,-0.5505908323816955
1772480023074748200,5.390748046875,0.3535480649769306,-0.3044967415601015,-0.8618664204269647
1772480023084746200,5.400746337890625,0.48253626393973825,-0.24461598109304902,-1.0823010232046246
1772480023094744300,5.410744384765625,0.6368330916821956,-0.11839724684357643,-1.1103462373413144
1772480023104742400,5.420742431640625,0.7384791102111339,-0.041491117295622826,-0.9863935483276843
1772480023114740700,5.43074072265625,0.7965662652596831,-0.04987725284695625,-0.8164927626095712
1772480023124738800,5.44073876953125,0.9390645186588168,-0.12445406266450881,-0.7359747261747718
1772480023134737000,5.45073681640625,1.069297164724767,-0.16767594927549362,-0.6518946133442223
1772480023144734000,5.46073388671875,0.9966092373937367,-0.152309453317523,-0.5581108526229858
1772480023154731800,5.470731689453125,0.6009224048674107,0.02720481778979301,-0.6999006654918194
1772480023164729900,5.480729736328125,-0.07752426144629716,0.2885901473760605,-0.7575146500706672
1772480023174728000,5.49072802734375,-0.9318260918378829,0.6706529436975717,-0.7686477462425828
1772480023184725800,5.500725830078125,-1.8762123900413512,1.0451543648540973,-0.997526352238655
1772480023194723800,5.510723876953125,-2.725279534649849,1.260757017430663,-1.3755096241615712
1772480023204722000,5.520721923828125,-3.3908164505079386,1.4443769702911375,-1.832129502686858
1772480023214719700,5.5307197265625,-3.897704188632965,1.6071768379628657,-2.1800103356823324
1772480023224717800,5.5407177734375,-4.18468164011538,1.7287141363978384,-2.2455508754767477
1772480023234714600,5.550714599609375,-4.196818068110942,1.7421406042039393,-1.8845523483633995
1772480023244712700,5.560712646484375,-3.8687785383999347,1.725844718441367,-1.5538387771375477
1772480023254711000,5.5707109375,-3.25473361710906,1.6702216154187917,-1.1742534768454729
1772480023264708900,5.580708984375,-2.3933614099398253,1.4503589673101902,-0.9716706109702586
1772480023274707000,5.59070703125,-1.450208160662651,1.1988047113865614,-0.8101070070952177
1772480023284705000,5.600705078125,-0.511658898049593,0.9515940376251936,-0.4937608377873897
1772480023294702800,5.610702880859375,0.3502706507414579,0.7278010643303394,0.031331250070035455
1772480023304701000,5.620700927734375,1.0694292666718364,0.4553805459886789,0.47453649735748765
1772480023314699000,5.630698974609375,1.572709335693717,0.17599778741896152,0.7948566848628222
1772480023324695800,5.64069580078125,1.9340625214636324,-0.0107096100628376,1.258968672709167
1772480023334694000,5.65069384765625,2.1025304978996515,-0.24638766694068906,1.8965590124994516
1772480023344691700,5.660691650390625,2.090384425292909,-0.49087037704288955,2.552737732903659
1772480023354689800,5.670689697265625,1.9008847667440771,-0.8101052535295487,3.041542701849341
1772480023364688000,5.68068798828125,1.5262623495563863,-1.085610878404975,3.3857664736419912
1772480023374685700,5.690685791015625,1.0541840590059757,-1.2375906613767147,3.5163431108400225
1772480023384683800,5.700683837890625,0.6434826126992702,-1.2392390131056308,3.456903956660628
1772480023394681900,5.710681884765625,0.21198387755751608,-1.1271464193642138,3.072724022054672
1772480023404679700,5.7206796875,-0.529739913663268,-0.657709290972352,2.4149746913328767
1772480023414677800,5.730677734375,-1.1603142372116446,-0.1117845507055521,2.110218714314699
1772480023424674800,5.7406748046875,-1.5048688483938575,0.23047113588452336,2.0784417663037775
1772480023434673000,5.7506728515625,-1.411182556697726,0.49189855104684826,1.9060151153698563
1772480023444671000,5.7606708984375,-1.0777256781131028,0.8102864553153515,1.65116444824934
1772480023454668800,5.770668701171875,-0.44500878957808016,0.9908727395683526,1.4361919102698564
1772480023464667000,5.7806669921875,0.5275210685700178,0.975498644825816,0.9889286197632551
1772480023474665000,5.7906650390625,1.495061447867751,0.9057844726085662,0.5252744586870074
1772480023484662800,5.800662841796875,2.268744265668094,0.720207540461421,0.06859802766889334
1772480023494660900,5.810660888671875,2.889888205309212,0.5144277782410382,-0.22468203108906745
1772480023504657700,5.82065771484375,3.199967423176765,0.30235914500951766,-0.18807108705043793
1772480023514655700,5.83065576171875,3.187045397761464,-0.05612520732581615,-0.12460165444165468
1772480023524653800,5.84065380859375,3.0654499393984675,-0.41920682432353495,-0.3096092622682452
1772480023534651600,5.850651611328125,2.92966345859766,-0.71422262083292,-0.5729436800956725
1772480023544649700,5.860649658203125,2.81826586138308,-1.0064537550598383,-0.7871133772596717
1772480023554647800,5.870647705078125,2.670499896714091,-1.1089128435373306,-1.032472577935457
1772480023564646000,5.88064599609375,2.381273205000162,-1.1289765574008226,-1.2761571233972906
1772480023574644000,5.89064404296875,1.8983111168637872,-1.1918775424718857,-1.4238047223836183
1772480023584642000,5.90064208984375,1.3830655924990773,-1.1938134789705275,-1.3826885758802294
1772480023594638800,5.910638916015625,0.8615046013772487,-1.0787743103832006,-1.136381572960317
1772480023604637000,5.920636962890625,0.32134938442260025,-0.9863631531894207,-0.8435238312676548
1772480023614634800,5.930634765625,-0.05113806656301021,-0.8667349032461643,-0.6811532949239015
1772480023624632800,5.9406328125,-0.13726678248643875,-0.6873790375709533,-0.6715440473183989
1772480023634631000,5.950630859375,-0.04617635250240564,-0.627100802218914,-0.7744026565074921
1772480023644628700,5.960628662109375,0.03730243343412876,-0.4805845453500747,-0.9645987728878855
1772480023654626800,5.970626708984375,0.17668810777068136,-0.3694090664535761,-1.0993187935009598
1772480023664625000,5.980625,0.3667535835087299,-0.20241466970145702,-1.2620952802971004
1772480023674622700,5.990622802734375,0.5973094750672578,-0.06353109966814517,-1.4999930590510366
1772480023684619800,6.000619873046875,0.7914782944709062,0.09651216277182102,-1.7153417368665336
1772480023694617900,6.010617919921875,1.025969771912694,0.30069559571146964,-1.718274867708981
1772480023704616000,6.020615966796875,1.2351260248288511,0.48416006574928755,-1.5339873908504842
1772480023714614000,6.030614013671875,1.3100766363948584,0.6452846936851739,-1.3545944080352783
1772480023724611800,6.04061181640625,1.2311930692940949,0.8205068205565214,-1.138177516466379
1772480023734610000,6.05060986328125,1.1454694270402193,0.9488409395247698,-0.9158224670201539
1772480023744608000,6.06060791015625,1.1778747360825539,0.9745908823311328,-0.7256599606484174
1772480023754605800,6.070605712890625,1.3222595338806509,0.8769839100599288,-0.548873068678379
1772480023764604000,6.08060400390625,1.4715525619864462,0.725239104887843,-0.45528234631121156
1772480023774602000,6.09060205078125,1.4272043016940354,0.6715232967913151,-0.4630798683196306
1772480023784598800,6.100598876953125,1.0872282504737376,0.7037818908393383,-0.506940345095098
1772480023794596900,6.110596923828125,0.2919637154623866,0.8056231396794319,-0.46470980760902164
1772480023804594700,6.1205947265625,-0.8204378469735384,0.935516763049364,-0.38678164153695105
1772480023814592800,6.1305927734375,-2.0141326680004594,1.204331365853548,-0.14885755929797886
1772480023824590800,6.1405908203125,-3.071875588531792,1.4866349803060293,0.14854805495738982
1772480023834588700,6.150588623046875,-3.8369466453313827,1.626855936422944,0.3722413672700524
1772480023844586800,6.160586669921875,-4.347711224889755,1.7444588180184364,0.4200771774172783
1772480023854584800,6.170584716796875,-4.603165410861373,1.8469845419913529,0.44155426521003244
1772480023864582700,6.180582763671875,-4.7303585431009525,1.9381150117248296,0.45639819859862324
1772480023874580000,6.190580078125,-4.429567085799575,1.9118594574838876,0.2654062556654215
1772480023884577800,6.200577880859375,-3.5565655233740805,1.7238795558482407,0.056464814543724054
1772480023894575900,6.210575927734375,-2.4556524464190006,1.4736615169644356,-0.1228182781562209
1772480023904574000,6.220573974609375,-1.320776894107461,1.2229250071644782,-0.06169511641263961
1772480023914571800,6.23057177734375,-0.3574164308428764,0.7705997570931911,0.1507169234290719
1772480023924569900,6.24056982421875,0.37363691328167914,0.2935691048324108,0.4555760685607791
1772480023934568000,6.25056787109375,0.8926537728786468,-0.1170563536286354,0.9687944710120558
1772480023944565800,6.260565673828125,1.2361439696997403,-0.5311772529900074,1.433441442517936
1772480023954563800,6.270563720703125,1.4952642769634723,-0.8619570213198662,1.7922370527595282
1772480023964560600,6.280560546875,1.6050012474894522,-1.1250117454230786,2.0657956352204083
1772480023974558700,6.290558837890625,1.5263254779204725,-1.365078392648697,2.3683701765462755
1772480023984556800,6.300556884765625,1.171013033619523,-1.4712369201660156,2.606955060781538
1772480023994555000,6.310554931640625,0.5578805509984492,-1.5285019451767206,2.7650854753375054
1772480024004553000,6.320552978515625,-0.18416589630544183,-1.577498323535919,2.6731287839129565
1772480024014551000,6.330551025390625,-0.9836351895302533,-1.483328924497962,2.435806174698472
1772480024024548900,6.340548828125,-1.7639006005913018,-1.3425035727471113,2.2026491607308385
1772480024034547000,6.350546875,-2.4771198896005746,-1.2500374704957007,1.7722560487434267
1772480024044545000,6.360544921875,-2.793905619369447,-1.1129892991960049,1.3098308449402452
1772480024054542800,6.37054296875,-2.6220091297894714,-0.9134440474510193,0.8525798289045691
1772480024064540000,6.380539794921875,-2.212238826853037,-0.8315747425377369,0.37984979644715783
1772480024074537700,6.390537841796875,-1.647818352691829,-0.7815501901745796,0.09125029672086238
1772480024084535800,6.400535888671875,-1.094120932596922,-0.7234568976461887,0.19846154816150663
1772480024094534000,6.410533935546875,-0.5060989258348941,-0.7435714649140834,0.44381402683556076
1772480024104531700,6.42053173828125,0.07170066985934972,-0.8168588194429874,0.6220157540395855
1772480024114530300,6.4305302734375,0.517550294175744,-0.8497165484279393,0.6682537736013531
1772480024124528000,6.440528076171875,0.7714283168718218,-0.8555681970655917,0.49307694717645645
1772480024134526200,6.450526123046875,1.037616370564699,-0.8685925138115882,0.28437545229047534
1772480024144524300,6.460524169921875,1.2586919015944003,-0.8709183264106511,0.009572714987397193
1772480024154521300,6.470521240234375,1.4217860760375856,-0.9192840056508779,-0.22812691084593534
1772480024164519400,6.48051953125,1.5146294871687889,-0.9168664231151342,-0.5069932443261146
1772480024174517200,6.490517333984375,1.4505562434479593,-0.8387509177774191,-0.7124354451552033
1772480024184515300,6.500515380859375,1.234727380900085,-0.7178805588185787,-0.8908718578979372
1772480024194513400,6.510513427734375,0.9541723636806011,-0.6281009191721677,-1.0339058256089686
1772480024204511200,6.52051123046875,0.6425476699367165,-0.574442394220829,-1.0826716100826859
1772480024214509300,6.53050927734375,0.27314883261621,-0.539589107504487,-1.0941820151343942
1772480024224507400,6.54050732421875,-0.12296060923635958,-0.5039730197221041,-1.1681890622399747
1772480024234505200,6.550505126953125,-0.48300621953904627,-0.4928308634608984,-1.185305324474722
1772480024244502300,6.560502197265625,-0.7405462718740106,-0.5031429986387491,-1.0886962771996855
1772480024254500000,6.5705,-0.8339540388897061,-0.5602139623820781,-0.9947640479184686
1772480024264498200,6.580498291015625,-0.7970528797328472,-0.612231149867177,-1.0100994180858134
1772480024274496300,6.590496337890625,-0.641416620080173,-0.6400427013784646,-1.0373428143203258
1772480024284494000,6.600494140625,-0.47525399797707796,-0.6546726997554302,-1.007353041987121
1772480024294492200,6.6104921875,-0.32830811751931904,-0.5882786118716001,-0.9965570688150822
1772480024304490200,6.620490234375,-0.19289163907468318,-0.5060533331274986,-0.9713725048065185
1772480024314488000,6.630488037109375,-0.08042699715048074,-0.4319593383908272,-0.923369083007425
1772480024324486100,6.640486083984375,0.008074293123185633,-0.36717093213796614,-0.862860838291794
1772480024334484200,6.650484130859375,0.06764964090287685,-0.29742870287001133,-0.8366216506637633
1772480024344481300,6.660481201171875,0.14761954193562268,-0.24834230813980102,-0.8692387027606367
1772480024354479400,6.670479248046875,0.2832517089575529,-0.23650164822041986,-0.952684170949459
1772480024364477200,6.680477294921875,0.44517683962136506,-0.16829788056612013,-0.9960144863709807
1772480024374475300,6.690475341796875,0.5070978737443685,-0.14971125351786613,-0.9450184586271643
1772480024384473300,6.700473388671875,0.5367623596459626,-0.1832920360803604,-0.8299909804776311
1772480024394471200,6.71047119140625,0.5785188498795032,-0.1933212626636028,-0.682836425705254
1772480024404469200,6.72046923828125,0.6257447114348411,-0.2248977196663618,-0.5477797204837203
1772480024414467300,6.73046728515625,0.6513549535095692,-0.244957341876626,-0.40629532030224796
1772480024424465200,6.740465087890625,0.5321966591656208,-0.21363047572076319,-0.3054094724908471
1772480024434462200,6.750462158203125,0.2544578684106469,-0.05889759464859962,-0.2318336564093828
1772480024444460000,6.7604599609375,-0.17523673991858957,0.11139993530213832,-0.15992080510407686
1772480024454458000,6.7704580078125,-0.7704176785245538,0.23349662118554113,-0.18796032015234232
1772480024464456200,6.780456298828125,-1.4435364278137683,0.4138724775582552,-0.3362105612069368
1772480024474454300,6.790454345703125,-2.051713333854079,0.5995803426086902,-0.5521943220555782
1772480024484452400,6.800452392578125,-2.424707273057103,0.6963719068437815,-0.8502408645629882
1772480024494450400,6.810450439453125,-2.5566297719061373,0.6540747338622808,-1.0938833244487642
1772480024504448300,6.8204482421875,-2.5108172842800616,0.6400064610213041,-0.976080828627944
1772480024514446300,6.8304462890625,-2.5421406433045863,0.7282330260068178,-0.6180325296223164
1772480024524443100,6.840443115234375,-2.6610768193304537,0.92218966396451,-0.3912403745114803
1772480024534441200,6.850441162109375,-2.7423209780827165,1.1802139926850794,-0.15142331813275814
1772480024544439300,6.860439208984375,-2.8353806623131037,1.39854928509593,0.265295196506381
1772480024554437000,6.87043701171875,-2.753354705533385,1.5622183368176221,0.7213710312828421
1772480024564435200,6.880435302734375,-2.265976846781373,1.5198095201551913,1.0061436661973595
1772480024574433300,6.890433349609375,-1.3566697530046106,1.2172346865683794,1.0744570317059754
1772480024584431000,6.90043115234375,-0.3417497828945517,0.8849363303691148,1.0855641166538
1772480024594429200,6.91042919921875,0.41687633554935455,0.5325310056865215,1.2335460621610284
1772480024604427300,6.92042724609375,0.9881421455606818,0.09661094697117804,1.4285638996094465
1772480024614425000,6.930425048828125,1.3565259606197475,-0.31289047589600083,1.6481044761568306
1772480024624422400,6.94042236328125,1.5819026959747076,-0.5835983451008796,1.9655068765193222
1772480024634420200,6.950420166015625,1.7131392583861946,-0.7171142506211996,2.2733488368541
1772480024644418300,6.960418212890625,1.709807775875926,-0.7592500955611466,2.419777415439486
1772480024654416400,6.97041650390625,1.4105845908045769,-0.6626718818157911,2.261310024014115
1772480024664414200,6.980414306640625,0.8455009765595197,-0.4604775768667459,2.0256942187175153
1772480024674412300,6.990412353515625,0.389827292843163,-0.3025993835061788,1.5328917045682668
1772480024684410400,7.000410400390625,-0.10256547146141529,-0.05286942040026187,0.9992711500793695
1772480024694408200,7.010408203125,-0.5806988242670893,0.2560901457875967,0.5893307512730359
1772480024704406300,7.02040625,-0.8446849840015173,0.468618213224411,0.2674842309832573
1772480024714403000,7.030403076171875,-0.8090539909109473,0.5544762955129147,0.1521542627558112
1772480024724401200,7.040401123046875,-0.5604670603603125,0.5107143106758594,0.0571577652439475
1772480024734399200,7.050399169921875,-0.21513678863048552,0.46910336639285083,-0.059688745026290416
1772480024744397000,7.06039697265625,0.041516251736879346,0.37699849866926666,-0.10293576607853173
1772480024754395100,7.07039501953125,0.3159241445034742,0.2712047128111124,-0.035030396848917005
1772480024764393200,7.080393310546875,0.6324433322906494,0.10318155753314494,0.029343875645101068
1772480024774391300,7.090391357421875,0.8244260398268699,-0.05193944607377052,-0.05384148030281066
1772480024784389400,7.100389404296875,0.9720201550602913,-0.18863281258642672,-0.15769553027004002
1772480024794387500,7.110387451171875,1.1765656993106006,-0.3872761470556259,-0.06399462552666664
1772480024804384300,7.12038427734375,1.4208259988337755,-0.6484393583238125,-0.07053016477525234
1772480024814382300,7.13038232421875,1.7138269483894109,-0.8300134845703839,-0.050071606375277036
1772480024824380200,7.140380126953125,1.8852868001177905,-0.9219324743330478,-0.0061883332461118695
1772480024834378200,7.150378173828125,1.7112065367579459,-0.9861924727976321,-0.0881780496686697
1772480024844376300,7.160376220703125,1.3957754364684223,-0.9826748200654983,-0.181079036206007
1772480024854374100,7.1703740234375,1.011125838524103,-0.8648521582394838,-0.24967180317789314
1772480024864372200,7.180372314453125,0.5882610762149095,-0.6792927617490291,-0.2681120074927807
1772480024874370300,7.190370361328125,0.2392670212805271,-0.49889235545694827,-0.35079993531256914
1772480024884368100,7.2003681640625,0.022262100690603255,-0.3367033131599426,-0.52830023624897
1772480024894366200,7.2103662109375,-0.135073071834445,-0.16035831973850725,-0.7055173363298177
1772480024904363300,7.22036328125,-0.16988164262622593,0.058229486128687856,-0.7337801387399434
1772480024914361300,7.230361328125,-0.07632599157243966,0.2270201186478138,-0.7156576220721006
1772480024924359400,7.240359375,0.20115911668241024,0.25638474481999873,-0.6871800078675151
1772480024934357200,7.250357177734375,0.5408306319981813,0.2655103005617857,-0.6212336637511849
1772480024944355300,7.260355224609375,0.8282651795983315,0.2389046177089214,-0.4905734399229288
1772480024954353400,7.270353515625,1.0556100001558661,0.1919353612631559,-0.3150073219195008
1772480024964351200,7.280351318359375,1.1802496485203504,0.1300315705358982,-0.1958271080046892
1772480024974349300,7.290349365234375,1.2296902635157108,0.02182137118577957,-0.09196545925289391
1772480024984347400,7.300347412109375,1.1650421425163746,-0.04533259515464306,0.07497691505104304
1772480024994344200,7.31034423828125,0.8727505102738737,0.010381693282723425,0.19662936429828404
1772480025004342300,7.32034228515625,0.5801034887224435,0.09979892935752868,0.20097411550432442
1772480025014340000,7.330340087890625,0.4766770165175199,0.1476993291735649,0.049181379537284374
1772480025024338200,7.340338134765625,0.3655895081654191,0.18434534452557563,-0.2524231477126479
1772480025034336300,7.350336181640625,0.3241600579291582,0.2645692203193903,-0.5050877029657364
1772480025044334000,7.360333984375,0.4354059717133641,0.27766777134537696,-0.7396721193879843
1772480025054332200,7.370332275390625,0.6763400494232773,0.184913499802351,-0.9440683182954788
1772480025064330200,7.380330322265625,0.974322002261877,0.007207739421725273,-0.9752680509403348
1772480025074328000,7.390328125,1.1345002892583609,-0.1764081217855215,-0.9433514021977781
1772480025084325400,7.400325439453125,1.05086543597728,-0.17612287510335445,-0.8805942095115781
1772480025094323200,7.4103232421875,0.7357435477674007,0.11736615023016929,-0.7069277876496315
1772480025104321300,7.4203212890625,0.2818219684153795,0.38349195234179495,-0.5999602818369865
1772480025114319400,7.4303193359375,-0.311691036978364,0.5508914227634668,-0.6007789047434926
1772480025124317200,7.440317138671875,-0.9836264217019081,0.6655103201121092,-0.4701473224878311
1772480025134315300,7.450315185546875,-1.4730840093374251,0.6126093355298042,-0.3881248728394508
1772480025144313000,7.46031298828125,-1.551140770225227,0.40324236247241496,-0.23624504311084746
1772480025154311200,7.470311279296875,-1.3366180218398571,0.11501520318984984,-0.0574824671536684
1772480025164309200,7.480309326171875,-1.082263029281795,-0.18221768484711645,0.29832214457839723
1772480025174307000,7.49030712890625,-0.9097475310206413,-0.4601420613020658,0.7088444349259138
1772480025184304000,7.50030419921875,-0.9298281960189342,-0.6445365056663751,1.150203177563846
1772480025194302200,7.51030224609375,-1.20616471876055,-0.6659978113681078,1.5876766032010317
1772480025204300300,7.52030029296875,-1.6266995768174528,-0.5673077200353145,1.9103335630908607
1772480025214298400,7.53029833984375,-2.1788579507768153,-0.3291863616585731,2.1058283704012632
1772480025224296200,7.540296142578125,-2.7824609730303287,0.014658055427670479,1.9530591906175017
1772480025234294300,7.550294189453125,-3.1633997337579727,0.395084774979949,1.43938369204849
1772480025244292400,7.560292236328125,-3.2698148663848636,0.701818481811881,0.7570134225502609
1772480025254290200,7.570290283203125,-2.938910594892502,0.8422340837180614,0.18345365638285874
1772480025264288300,7.580288330078125,-2.1013819123864175,0.7492372355908155,-0.19124767125993966
1772480025274285300,7.590285400390625,-1.1651298207998275,0.469518961456418,-0.43821752200275654
1772480025284283100,7.600283203125,-0.4729629644304514,0.2023059486299753,-0.46191696202009913
1772480025294281200,7.61028125,-0.0668675506144762,-0.023868951365351675,-0.20207593926638365
1772480025304279300,7.620279296875,0.03985241017788648,-0.17466215490102768,0.2537225398734212
1772480025314277000,7.630277099609375,-0.03715601070076227,-0.2640712076693773,0.6425049998387694
1772480025324275200,7.640275146484375,-0.19555822793543337,-0.31766543521285057,0.9227899679452181
1772480025334273000,7.65027294921875,-0.3895385390296578,-0.45218204220831393,0.9020151832029223
1772480025344271000,7.66027099609375,-0.5736351694911718,-0.42472354191839695,0.9876394567355513
1772480025354269200,7.670269287109375,-0.7037909509286284,-0.42208208749890325,0.947635655388236
1772480025364266200,7.680266357421875,-0.9593056349158287,-0.5535913293719291,0.5970481937825679
1772480025374264300,7.690264404296875,-1.335868080255389,-0.586807370275259,0.4409922474130988
1772480025384262400,7.700262451171875,-1.689469628985226,-0.5598778622955084,0.35573651493191716
1772480025394260200,7.71026025390625,-1.8906936275973916,-0.5237269369840621,0.3291165112927556
1772480025404258300,7.72025830078125,-1.8808441414952277,-0.5611357534021139,0.42432109859734773
1772480025414256000,7.730256103515625,-1.676200105306506,-0.6420739149451256,0.5381421235665679
1772480025424254200,7.740254150390625,-1.3994769213348626,-0.7631167078614235,0.5960004382953047
1772480025434252300,7.750252197265625,-1.061755371043086,-0.8572025202691554,0.9463122978299856
1772480025444250000,7.76025,-0.7389233468472958,-0.9939695365399122,1.2389935139119623
1772480025454247200,7.7702470703125,-0.46425884897112846,-1.0622206504672764,1.4222826273828744
1772480025464245200,7.780245361328125,-0.16567600762993095,-1.0876210491836071,1.5442095096573232
1772480025474243000,7.7902431640625,0.08356967909038067,-1.1880763966232537,1.4820800934806466
1772480025484241200,7.8002412109375,0.19884967069625853,-1.246465457227826,1.3915885061725972
1772480025494239000,7.810239013671875,0.286041631937027,-1.2931284242033958,1.230901977393031
1772480025504237000,7.820237060546875,0.3953507324397564,-1.3378110310167073,1.0861503921091555
1772480025514235100,7.830235107421875,0.4643897818744182,-1.295360128778219,1.0025494410976767
1772480025524233200,7.840233154296875,0.37794074795544147,-1.2507862430363892,0.80118778758049
1772480025534231300,7.850231201171875,0.11838263379633426,-1.172001460134983,0.5205214189410209
1772480025544229400,7.8602294921875,-0.270772751134634,-1.102532202589512,0.1508952026054263
1772480025554226200,7.87022607421875,-0.7986462864041328,-0.9768670105695724,-0.27975597579628225
1772480025564224300,7.880224365234375,-1.3249033263877033,-0.7757131545841693,-0.6417575424723326
1772480025574222300,7.890222412109375,-1.7738082466214895,-0.49660395225882525,-0.8475802670516073
1772480025584220200,7.90022021484375,-2.1042390553832053,-0.17998013505339622,-1.024438324561715
1772480025594218200,7.91021826171875,-2.20609667083621,0.14270868127942085,-1.2112776778601109
1772480025604216000,7.920216064453125,-2.0465821084454654,0.3761573716700077,-1.3980324216149747
1772480025614214100,7.930214111328125,-1.6538327906757593,0.3868313258975744,-1.5254342281691728
1772480025624212200,7.940212158203125,-0.9190262314975262,0.10041559995114803,-1.5087420365653932
1772480025634210000,7.9502099609375,-0.28604572359025476,-0.17373977935910223,-1.539221492111683
1772480025644207400,7.960207275390625,-0.01040156702697277,-0.3793886086761951,-1.4650379193954168
1772480025654205400,7.970205322265625,0.08028583511412143,-0.5395335779249668,-1.1646395530648528
1772480025664203300,7.980203369140625,0.030981413719058035,-0.650353667512536,-0.722051999284327
1772480025674201300,7.990201416015625,-0.11797902143150567,-0.700567020446062,-0.30677579240798947
1772480025684199200,8.00019921875,-0.37360096518546343,-0.6889514014542102,-0.13041487076506017
1772480025694197200,8.010197265625,-0.5938379995644092,-0.5109972192704677,-0.05765022493600845
1772480025704195300,8.0201953125,-0.741660662856698,-0.44269992811381814,-0.09200272252336143
1772480025714193200,8.030193115234376,-0.8230804704368114,-0.5491425332695246,-0.29122064201012254
1772480025724191200,8.040191162109375,-0.856351164136827,-0.7370955468982457,-0.5231603891424834
1772480025734188300,8.050188232421876,-0.9164239400446414,-0.8368488835483789,-0.7139899811208248
1772480025744186000,8.06018603515625,-1.0545707202360033,-0.8642711434811353,-0.7704476352714001
1772480025754184200,8.07018408203125,-1.3151008942976594,-0.7736573910981416,-0.5744761503599584
1772480025764182300,8.080182373046876,-1.7260171523988246,-0.6478074901610612,-0.2566476335398853
1772480025774180000,8.09018017578125,-2.1111223851561545,-0.4315478349804878,-0.042255233535915614
1772480025784178200,8.10017822265625,-2.41954711381495,-0.12131167298555373,0.013975626121461391
1772480025794176000,8.110176025390626,-2.5811425741329788,0.24930033951699732,0.0483282698392868
1772480025804174000,8.120174072265625,-2.587992293897271,0.45629473822414873,0.037924949246644975
1772480025814172200,8.130172119140624,-2.3880983748450872,0.4814005379080772,-0.05372735240384936
1772480025824170200,8.140170166015626,-1.8184698106467723,0.18198913678824902,-0.2551071260996163
1772480025834167300,8.150167236328125,-0.9660355276927352,-0.24406594599485396,-0.26273075284585357
1772480025844165400,8.160165283203124,-0.14421762453764675,-0.5485246936321259,-0.04693798452466726
1772480025854163200,8.1701630859375,0.29241029018610715,-0.8339660215884447,0.26854192334264515
1772480025864161300,8.180161376953125,0.3288660436630249,-0.9120914637982844,0.7142904253721237
1772480025874159000,8.1901591796875,0.109106563667953,-0.7901268798619508,1.0444099762275814
1772480025884157200,8.2001572265625,-0.193003867277503,-0.6157300978988409,1.3117736495710908
1772480025894155300,8.2101552734375,-0.34700200433433054,-0.4864958152204752,1.385994047166407
1772480025904153000,8.220153076171876,-0.41487990103513,-0.3738952719569206,1.3107342235207557
1772480025914151200,8.230151123046875,-0.5383905453696847,-0.25542671344280243,1.238393794453144
1772480025924148200,8.240148193359374,-0.6415595356822014,-0.21133155112862587,1.0222392070822417
1772480025934146000,8.25014599609375,-0.5921472699984908,-0.2532142980903387,0.7213751229360699
1772480025944144100,8.26014404296875,-0.5822171198755502,-0.4107341795325279,0.40124329760968686
1772480025954142200,8.27014208984375,-0.590358340755105,-0.5139537309885025,0.25818741032779213
1772480025964140300,8.280140380859375,-0.6213163735985756,-0.6075748484939336,0.2586890762396157
1772480025974138400,8.290138427734375,-0.7213099487453699,-0.70428224157691,0.30943375957086683
1772480025984136200,8.30013623046875,-0.8930074086219072,-0.731925450783968,0.3838642927855253
1772480025994134300,8.31013427734375,-1.2423036613732577,-0.6629670653700828,0.40361908683031794
1772480026004132400,8.32013232421875,-1.6337015645340085,-0.467581271392107,0.3932020299732685
1772480026014130200,8.330130126953126,-1.8469614533767102,-0.19180793549120426,0.372687941993773
1772480026024127200,8.340127197265625,-1.8113538411617278,0.1156225214332342,0.2530892104059458
1772480026034125300,8.350125244140624,-1.5609306350946426,0.4067208522379398,-0.04279518563151359
1772480026044123100,8.360123046875,-1.3815914282932877,0.6778630212068557,-0.36369317302480336
1772480026054121200,8.370121337890625,-1.2041308748453854,0.9613578912705183,-0.6796171713978052
1772480026064119000,8.380119140625,-1.0086150247469543,1.0403881733655929,-1.0675221178762615
1772480026074117000,8.3901171875,-0.79428750667274,0.9076748163998126,-1.4467097971528768
1772480026084115200,8.400115234375,-0.3789680451765656,0.7909422878980636,-1.6024052396468818
1772480026094115300,8.410115234375,0.09225947376340628,0.6767892544955014,-1.5255018865779042
1772480026104113200,8.420113037109376,0.38560090731978414,0.4117360500514507,-1.3267862175248561
1772480026114111200,8.430111328125,0.45256782665550704,0.07362462365925311,-1.008766708177328
1772480026124109000,8.440109130859375,0.41016134808063504,-0.27552783670723435,-0.620737404666841
1772480026134106000,8.450106201171875,0.33849662631750105,-0.6283627849787473,-0.2980962268680334
1772480026144104000,8.46010400390625,0.17901508941352368,-0.9490168806135654,-0.050125966911017894
1772480026154102000,8.47010205078125,0.05267389782816171,-1.1980302198827266,0.23120967929214237
1772480026164100000,8.48010009765625,-0.09334697673916816,-1.3620020539432762,0.47540071297138925
1772480026174098000,8.490097900390625,-0.42118601544201373,-1.5470961710095406,0.404667134578526
1772480026184096000,8.500095947265624,-0.7980477359890937,-1.6011732136338948,0.18059739016890525
1772480026194094000,8.510093994140625,-1.1638929724812508,-1.5096078596144913,-0.07914630969017744
1772480026204092000,8.520091796875,-1.3999433698028325,-1.3533575597167014,-0.3587111468285322
1772480026214090000,8.530090087890626,-1.455596283441782,-1.226627368813753,-0.6769377230554818
1772480026224087000,8.540087158203125,-1.3638184557154773,-1.0561357775956393,-0.7140127774745225
1772480026234085000,8.550085205078124,-1.273933309867978,-0.9205208539694547,-0.9050799776010214
1772480026244083200,8.560083251953126,-1.2602099049419164,-0.7951596133321523,-1.1511398738920688
1772480026254081000,8.5700810546875,-1.2838789498209953,-0.6510749675244093,-1.2035104048594831
1772480026264079000,8.5800791015625,-1.51020699455142,-0.5227490318626165,-1.0930481887988746
1772480026274077200,8.5900771484375,-1.8472201043128966,-0.4447755653440952,-0.8166242800347506
1772480026284075000,8.600074951171875,-2.012591868299246,-0.3650812663823366,-0.4097634348042309
1772480026294073000,8.610072998046874,-2.0921204553052783,-0.3489677514493465,-0.06874854205548762
1772480026304071200,8.6200712890625,-2.0517665253460406,-0.4101122482419014,0.08595730487927794
1772480026314069000,8.630069091796875,-1.788800064048171,-0.4699316339105367,0.15135244485363364
1772480026324066000,8.640066162109376,-1.4469874450504778,-0.5752952116578817,0.0930515009239316
1772480026334064000,8.650064208984375,-1.1024228969961405,-0.7354518713444471,0.0643555677935481
1772480026344062200,8.660062255859375,-0.8986401538118719,-0.8476736444234848,0.15233897167295216
1772480026354060300,8.670060302734376,-0.7358084296971559,-0.9607704467713832,0.32206571599841116
1772480026364058000,8.68005810546875,-0.6366837463393807,-1.026020040795207,0.5357835777416825
1772480026374056200,8.69005615234375,-0.6063982059299945,-1.068849713218212,0.8069450359329581
1772480026384054300,8.70005419921875,-0.6028688627600669,-1.0157616816312074,1.1348133007302879
1772480026394052000,8.710052001953125,-0.5707376944839954,-1.0098013119220732,1.4294979655891655
1772480026404050200,8.72005029296875,-0.5173433734267949,-1.0059960744202137,1.6025748971253633
1772480026414047000,8.730046875,-0.4169041003391146,-0.942215968427062,1.7059157368734479
1772480026424045000,8.740045166015625,-0.2618161222189665,-0.8202356023997068,1.6478899566233156
1772480026434043100,8.750043212890626,-0.21912965765893458,-0.6307809520363807,1.266083473150432
1772480026444041000,8.760041015625,-0.4096890543937683,-0.3728811264783144,0.7524152811050414
1772480026454039000,8.7700390625,-0.6334054553210735,-0.1413251179665327,0.4371577838167548
1772480026464037000,8.780037109375,-0.8693494696587324,0.016962825238704682,0.2739104646384716
1772480026474035000,8.790034912109375,-1.1135530705586074,0.12223521757125853,0.13328560389578342
1772480026484033000,8.800032958984374,-1.350148534542322,0.2017564980536699,0.04933247844576835
1772480026494031000,8.810031005859376,-1.6379074917912482,0.3276151668190956,0.18091522394642232
1772480026504028200,8.820028076171875,-1.9441285729259252,0.47062020069658755,0.4329986183106899
1772480026514026200,8.830026123046874,-2.073791894671321,0.5924392386823892,0.6626518619410693
1772480026524024000,8.840024169921875,-1.9651514872103928,0.6215344002634287,0.7339052264243364
1772480026534022100,8.850022216796875,-1.7028662861749528,0.5157148954421281,0.7097051434084772
1772480026544020200,8.860020263671874,-1.3811995063662528,0.395340211045742,0.6915550080813467
1772480026554018000,8.87001806640625,-1.0035711853608489,0.17664076149761676,0.6969035295024514
1772480026564016000,8.88001611328125,-0.659738458712399,0.002297171026468277,0.9050115885399281
1772480026574014200,8.89001416015625,-0.2786228801131248,-0.18878069662451744,1.1319238628990949
1772480026584012000,8.900011962890625,-0.040540684702992436,-0.4382850342810154,1.1532499979138373
1772480026594009000,8.910009033203124,0.072740826562047,-0.6248989082604647,1.176324584031105
1772480026604007000,8.9200068359375,0.03240121738910675,-0.7747527851194143,1.2773619691424072
1772480026614005000,8.9300048828125,-0.09951192910969257,-0.8507815473109483,1.3725455136589706
1772480026624003000,8.940003173828124,-0.33676410343647,-0.912536284956336,1.4497138012744486
1772480026634001000,8.9500009765625,-0.6050345163613557,-0.9347107073634863,1.5312448141440749
1772480026643999000,8.9599990234375,-0.8315197974801063,-0.8928893352001905,1.6293286101467908
1772480026653997000,8.9699970703125,-1.0449895296812057,-0.7729244006484747,1.413953336585313
1772480026663995100,8.9799951171875,-1.0574719946354627,-0.7022738243639469,0.9667404610916972
1772480026673993200,8.9899931640625,-1.028854971960187,-0.6169499950826167,0.5606957545496523
1772480026683991300,8.9999912109375,-0.9766936998292803,-0.38717619381248947,0.2796900709532201
1772480026693988000,9.009988037109375,-0.6965776585489512,-0.3113771487236023,0.2054997762352228
1772480026703986200,9.019986083984374,-0.37692660247683524,-0.2942144169986248,0.3710965811491012
1772480026713984000,9.02998388671875,-0.12552081511318683,-0.39083237823247907,0.4808588322468102
1772480026723982000,9.039982177734375,-0.04502922829389572,-0.5519143360704183,0.5772499989874661
1772480026733980200,9.049980224609374,-0.17513503310978412,-0.6000766016930341,0.754656045769155
1772480026743978000,9.05997802734375,-0.3542494912445545,-0.6199918469965457,0.7971658385880291
1772480026753976000,9.06997607421875,-0.6426292107403277,-0.5304080221831798,0.7554533336266874
1772480026763974100,9.07997412109375,-0.841925163899362,-0.5071253462731838,0.8424905426971614
1772480026773972000,9.089971923828125,-1.1615960937157273,-0.5207353539526463,0.6124814713664353
1772480026783969300,9.09996923828125,-1.4429934069782495,-0.4908943424403667,0.5220131188035011
1772480026793967000,9.109967041015626,-1.5952110903590917,-0.4127250610888004,0.5412205080986022
1772480026803965200,9.119965087890625,-1.5814678116887806,-0.33229192645847794,0.39796091493815183
1772480026813963300,9.12996337890625,-1.5952072909668087,-0.2969616698801517,0.14204992510974407
1772480026823961000,9.139961181640626,-1.5762643978267907,-0.19984569599628446,-0.07253785133585333
1772480026833959200,9.149959228515625,-1.4284291673138736,-0.03699614396393299,-0.10442264363542199
1772480026843957200,9.159957275390624,-1.2247533916354179,0.004223755174875259,-0.1422331727221608
1772480026853955000,9.169955078125,-0.9548357960253954,0.0767407098531723,-0.25098098608031866
1772480026863953200,9.179953125,-0.6550462092429399,0.10824936231672763,-0.4510137290813028
1772480026873950000,9.189949951171876,-0.30404841327071186,0.05113748204112053,-0.6690409784562885
1772480026883948000,9.199947998046875,-0.09163900377750396,0.008240589600801467,-0.7580844127826393
1772480026893946000,9.209946044921875,-0.04203764526247978,0.0496615642696619,-0.7307404787831008
1772480026903944000,9.21994384765625,0.0697130031734705,-0.04101064030230045,-0.6744177030585706
1772480026913942000,9.22994189453125,0.17814181371033191,-0.13297522277235985,-0.5789180783301592
1772480026923940000,9.239940185546875,0.2701099033117294,-0.244321382060647,-0.5274073790624737
1772480026933938000,9.24993798828125,0.3624012335181236,-0.2863613654106855,-0.47356619102060793
1772480026943936000,9.25993603515625,0.44655017380118367,-0.34426527284681796,-0.5189455479264259
1772480026953934000,9.26993408203125,0.48620530784130095,-0.4252174629151821,-0.6138458915874362
1772480026963932200,9.27993212890625,0.48132045840919013,-0.4970417591542005,-0.7535828635796904
1772480026973929200,9.28992919921875,0.4276449823230505,-0.5300900422751903,-0.8748194255024194
1772480026983927000,9.299927001953124,0.35529812351465223,-0.5505611678957939,-0.9639287646718323
1772480026993925000,9.309925048828125,0.23194880722165107,-0.5163748206555843,-1.012165118443966
1772480027003923200,9.319923095703125,0.0966653075069189,-0.47603053530752654,-1.0565466964840888
1772480027013921000,9.329921142578126,-0.021405191600322723,-0.48351709167063234,-1.056885719180107
1772480027023919000,9.339919189453125,-0.05664484728574753,-0.5368354248821735,-0.9367708547636866
1772480027033917200,9.349917236328125,-0.08176642906069755,-0.5472773239195347,-0.7887250502400099
1772480027043915000,9.3599150390625,-0.1741208876311779,-0.51655076174438,-0.6725722213223576
1772480027053913000,9.3699130859375,-0.3066360916763544,-0.47556408683955664,-0.5914090188518166
1772480027063910000,9.379909912109374,-0.3562690143734216,-0.4767828149795532,-0.5122444428525865
1772480027073908000,9.389907958984375,-0.35806349657475944,-0.5038754045665264,-0.5308429064691066
1772480027083906000,9.399906005859375,-0.3550853575468063,-0.5443623132556676,-0.6565674274608493
1772480027093904100,9.409904052734374,-0.42954234037697314,-0.5270037666976451,-0.8116155119620263
1772480027103902200,9.419902099609375,-0.5268775099694728,-0.5646060598611832,-0.9239904297761619
1772480027113900300,9.429900390625,-0.6648086015835404,-0.5868401035010814,-0.9521281445018946
1772480027123898400,9.4398984375,-0.7902896692082285,-0.5192734647065401,-0.8814150243751704
1772480027133896400,9.449896484375,-0.7919330525010824,-0.46806700908243654,-0.7271176121108234
1772480027143894300,9.459894287109375,-0.6499930175065994,-0.3708919984877109,-0.5912396536342799
1772480027153892400,9.469892333984374,-0.42307928184270854,-0.2907984710752964,-0.5808629287876188
1772480027163889200,9.47988916015625,-0.053662032082676885,-0.3013338936150074,-0.6736208535924554
1772480027173887200,9.48988720703125,0.42855566742718215,-0.19501520709991454,-0.6820986129499972
1772480027183885300,9.49988525390625,0.8745221961215138,-0.15897534094750881,-0.6590022533923388
1772480027193883100,9.509883056640625,1.2607006110683083,-0.17761808209717272,-0.6894174115307629
1772480027203881200,9.519881103515624,1.4449386958271264,-0.10098141714036464,-0.7251068568103015
1772480027213879300,9.52987939453125,1.3125894959986208,-0.07067395716011524,-0.7963470695510506
1772480027223877000,9.539877197265625,0.9120350574359297,0.09358546167016028,-0.7716166790507734
1772480027233875200,9.549875244140624,0.288272167468071,0.2907289129704237,-0.6596862901337445
1772480027243873300,9.559873291015625,-0.4229296442389488,0.4529436742305755,-0.6882710179746151
1772480027253870300,9.569870361328125,-1.1170371132820844,0.579479803866148,-0.813055043245852
1772480027263868400,9.579868408203126,-1.6507050140440462,0.5547112733125686,-0.8996205431513488
1772480027273866200,9.5898662109375,-1.9000579605311154,0.4302051881998777,-1.0778149638317525
1772480027283864300,9.5998642578125,-1.857366819795966,0.21318507004082202,-1.2047056059934198
1772480027293862400,9.6098623046875,-1.6725740237638353,0.020347206979990005,-1.1815990173026918
1772480027303860200,9.619860107421875,-1.7023416777789593,-0.038697687184810634,-0.8700997035041451
1772480027313858300,9.6298583984375,-1.9204145198613405,0.13887363316118717,-0.5080886383473873
1772480027323856400,9.6398564453125,-1.956581811785698,0.3827051858782768,-0.09849339971691369
1772480027333854200,9.649854248046875,-1.951245711454749,0.7257236735343933,0.515842028953135
1772480027343851300,9.659851318359374,-1.8073191788181662,0.9321049087792634,0.9559270983934401
1772480027353849000,9.66984912109375,-1.3786445611864329,0.9898919118374585,1.1501651836410165
1772480027363847200,9.67984716796875,-0.8022709066420793,0.9451853396266698,1.2710311586856842
1772480027373845200,9.68984521484375,-0.2229258350715041,0.8389081541657447,1.2710641841724515
1772480027383843000,9.699843017578125,0.2675572962194681,0.6934013666003942,1.2571107698827981
1772480027393841200,9.709841064453125,0.6671195088744163,0.5755424644172191,1.4125970996707677
1772480027403839200,9.719839111328126,0.9014671939313411,0.36741935394108294,1.5872624694421886
1772480027413837300,9.72983740234375,1.0190618922203778,0.05556231274604797,1.6672589662209152
1772480027423835400,9.73983544921875,1.0723042375862597,-0.29224107109904285,1.7273013469904661
1772480027433833500,9.74983349609375,1.0160650484919547,-0.6201473298192024,1.7604478297889232
1772480027443830300,9.759830322265625,0.8808891008049249,-0.8746949223399162,1.7728642437696456
1772480027453828400,9.769828369140624,0.6734072108417749,-1.0401461813032626,1.695797955223918
1772480027463826200,9.779826171875,0.4333624831870198,-1.0897978087007998,1.553959919299185
1772480027473824300,9.78982421875,0.1955070822700858,-0.9862474178552627,1.3000856959953904
1772480027483822300,9.799822265625,-0.11680705504268407,-0.7363970432400703,1.004020682694018
1772480027493820200,9.809820068359375,-0.38253041383326053,-0.46270635883212086,0.7099602872133255
1772480027503818200,9.819818359375,-0.5522755705982446,-0.16213292819559574,0.4627469831034541
1772480027513816300,9.82981640625,-0.5870160445898771,0.16879355512857436,0.26709640070945023
1772480027523814100,9.839814208984375,-0.5817763903707266,0.5429249739289284,0.08637772224843501
1772480027533811500,9.8498115234375,-0.4884019411027431,0.8286877889245748,-0.0207657246530056
1772480027543809300,9.859809326171876,-0.08656184664368628,0.9668547351211308,-0.20423574764877556
1772480027553807400,9.869807373046875,0.41778643613159655,1.0237041650682688,-0.47500177678167815
1772480027563805400,9.879805419921874,0.9772145088329911,0.9775684368371963,-0.7878441757522523
1772480027573803300,9.88980322265625,1.5473384553328156,0.8746838164240122,-1.0713242866382002
1772480027583801300,9.89980126953125,1.8919635014027356,0.7334650814414024,-1.1675142317183316
1772480027593799400,9.90979931640625,2.01489663811028,0.5782406174600124,-1.0916548347443342
1772480027603797200,9.91979736328125,1.9422423207879065,0.3654343176037073,-0.9407195923894643
1772480027613795300,9.92979541015625,1.8680518799394368,0.18759061005711555,-0.6659869977131485
1772480027623793400,9.93979345703125,1.7319757685422896,-0.08962766395509242,-0.47046091848164795
1772480027633790200,9.949790283203125,1.5225900907844303,-0.27565526247918604,-0.21592764674723147
1772480027643788300,9.959788330078124,1.3448007437735796,-0.4253156625926494,-0.06930880628675222
1772480027653786000,9.9697861328125,1.174043779617548,-0.5775415292799473,-0.01664396854788065
1772480027663784200,9.9797841796875,1.041013027265668,-0.715914227181673,-0.0867071003332734
1772480027673782300,9.9897822265625,0.9068997403740883,-0.8113479470670223,-0.15140256760567425
1772480027683780000,9.999780029296875,0.7031956153839826,-0.8477718441009521,-0.17816694815158843
1772480027693778200,10.009778076171875,0.5974196574434638,-0.8866513175934553,-0.20815262883156538
1772480027703776300,10.0197763671875,0.477911526748538,-0.7769272065490483,-0.2134752851590514
1772480027713774000,10.029774169921875,0.3296452113419771,-0.7345277422368526,-0.3579834170758724
1772480027723771400,10.039771484375,0.23614275178015232,-0.6676894177168607,-0.4826815176293254
1772480027733769200,10.049769287109376,0.2342322419837117,-0.553821046474576,-0.5286234768539667
1772480027743767300,10.059767333984375,0.3094552407503128,-0.5103747034579516,-0.45355654543191193
1772480027753765400,10.069765380859375,0.4451216023027897,-0.436573554188013,-0.35467385413646696
1772480027763763200,10.07976318359375,0.6614116526216268,-0.4149094193905592,-0.33662323366105557
1772480027773761300,10.08976123046875,0.9347934172108768,-0.43059506430029865,-0.33609190326333044
1772480027783759400,10.09975927734375,1.1407999739244579,-0.3086456779330969,-0.3077636344015598
1772480027793757200,10.109757080078126,1.118906414285302,-0.12199322550892829,-0.27826193784624337
1772480027803755300,10.11975537109375,1.1219453435897826,0.0368342314004898,-0.2972077535957098
1772480027813752000,10.129751953125,1.1908072828918694,0.15255495251119136,-0.3005816139429808
1772480027823750100,10.139750244140625,1.2992056982904672,0.18396072912216185,-0.4279559479683637
1772480027833748200,10.149748291015625,1.3544874405294656,0.1626391241520643,-0.6125301328137517
1772480027843746300,10.159746337890626,1.3078113218113778,0.2089069543302059,-0.7766837531819939
1772480027853744400,10.169744384765625,1.1789850354120135,0.27817338277995585,-1.1208318293899298
1772480027863742500,10.179742431640625,0.9831947522863745,0.2908808886617422,-1.4265510984823107
1772480027873740300,10.189740234375,0.8083376593351363,0.2719324425637722,-1.4692510070458054
1772480027883738400,10.19973828125,0.6589964081734418,0.16674012973010538,-1.183320434267819
1772480027893736400,10.209736328125,0.5103054376140237,0.016390578308701515,-0.8739020183965563
1772480027903734300,10.219734375,0.4854886840045452,-0.04079904337823391,-0.5062395033493637
1772480027913731300,10.2297314453125,0.3689145609349012,0.08904314206540584,-0.13468670286536216
1772480027923729200,10.239729248046874,0.17847177631706,0.25134265899956226,0.10391542476564646
1772480027933727200,10.249727294921875,-0.13401537947505712,0.45814533452689643,0.07042202822566032
1772480027943725300,10.259725341796875,-0.6084007779240608,0.6496452269822359,-0.16526275065392254
1772480027953723100,10.26972314453125,-1.171052196586132,0.9588637363672255,-0.16650573645234107
1772480027963721200,10.27972119140625,-1.567235580457747,1.11607557477355,0.01367635091394186
1772480027973719300,10.28971923828125,-1.760884467640519,1.1197171461462974,0.287261236859858
1772480027983717000,10.299717041015626,-1.6480588834494352,1.132625727558136,0.45478082652986046
1772480027993715200,10.309715087890625,-1.2080816582977771,1.115062598338723,0.4905971130594611
1772480028003712300,10.319712158203124,-0.6838008868232369,1.1823930902898312,0.6867433700159191
1772480028013710300,10.32971044921875,-0.38094226785898205,1.2048989366084337,0.9788973473533987
1772480028023708400,10.33970849609375,-0.33441023378670215,1.1827502331644295,1.3917884126588702
1772480028033706200,10.349706298828124,-0.44872693331837654,1.3180039222627877,1.6916130707547068
1772480028043704300,10.359704345703125,-0.7467693841725588,1.377756087914109,1.7933423836529254
1772480028053702400,10.369702392578125,-0.9863906257182359,1.4571300688803195,1.572988737156987
1772480028063700200,10.3797001953125,-0.9650278119549155,1.470833015540242,0.999268227469921
