time,seconds_elapsed,z,y,x
1772480017765871400,0.081871337890625,-0.5683147311210632,0.41163647174835205,0.17931266129016876
1772480017775868400,0.091868408203125,-0.5381565690040588,0.41378962993621826,0.38830795884132385
1772480017785866200,0.1018662109375,-0.5038136839866638,0.3563265800476074,0.5859295725822449
1772480017795864300,0.1118642578125,-0.4708668887615204,0.180715873837471,0.722038984298706
1772480017805862400,0.1218623046875,-0.4528330862522125,-0.005338804330676794,0.7980753779411316
1772480017815860200,0.131860107421875,-0.47180572152137756,-0.15750356018543243,0.8135430216789246
1772480017825858300,0.1418583984375,-0.4854172170162201,-0.2282760888338089,0.7680175304412842
1772480017835856400,0.1518564453125,-0.4768921732902527,-0.25049376487731934,0.6991724371910095
1772480017845854200,0.161854248046875,-0.44757336378097534,-0.21925759315490723,0.617911159992218
1772480017855852300,0.171852294921875,-0.3780054748058319,-0.11926628649234772,0.5095135569572449
1772480017865849600,0.181849609375,-0.2916523218154907,0.006029355805367231,0.36529597640037537
1772480017875847400,0.191847412109375,-0.20527559518814087,0.10190422087907791,0.19307680428028107
1772480017885845500,0.201845458984375,-0.12870047986507416,0.18559196591377258,0.025676432996988297
1772480017895843300,0.21184326171875,-0.07478983700275421,0.25771650671958923,-0.12232048064470291
1772480017905841400,0.22184130859375,-0.03747941181063652,0.3015211820602417,-0.25132301449775696
1772480017915839500,0.231839599609375,-0.002801857888698578,0.30316436290740967,-0.33700647950172424
1772480017925837300,0.24183740234375,0.035445090383291245,0.3266299068927765,-0.3551810085773468
1772480017935835400,0.25183544921875,0.0743192508816719,0.39878958463668823,-0.3211333155632019
1772480017945832400,0.26183251953125,0.10209088772535324,0.44242897629737854,-0.24417644739151
1772480017955830300,0.271830322265625,0.11484529823064804,0.4558206796646118,-0.12916038930416107
1772480017965828400,0.281828369140625,0.11320554465055466,0.45205405354499817,-0.02984730899333954
1772480017975826200,0.291826171875,0.09941835701465607,0.3485125005245209,0.02755393274128437
1772480017985824300,0.30182421875,0.07341667264699936,0.1631963849067688,0.05547773838043213
1772480017995822300,0.311822265625,0.053897030651569366,-0.028449486941099167,0.0718521848320961
1772480018005820200,0.321820068359375,0.035339586436748505,-0.15243615210056305,0.07063016295433044
1772480018015818200,0.331818359375,0.015513419173657894,-0.23910100758075714,0.053125470876693726
1772480018025816300,0.34181640625,-0.006159113720059395,-0.29667481780052185,0.02520665153861046
1772480018035813400,0.3518134765625,-0.0030927499756217003,-0.32765668630599976,0.009135538712143898
1772480018045811500,0.3618115234375,0.007182252127677202,-0.33920684456825256,-0.0014395047910511494
1772480018055809300,0.371809326171875,0.033716656267642975,-0.34061673283576965,-0.019552728161215782
1772480018065807400,0.381807373046875,0.04722268506884575,-0.32470887899398804,-0.045995090156793594
1772480018075805400,0.391805419921875,0.06177392974495888,-0.28702569007873535,-0.06750570237636566
1772480018085803300,0.40180322265625,0.07679431885480881,-0.21750076115131378,-0.08290570229291916
1772480018095801300,0.41180126953125,0.09265237301588058,-0.14022940397262573,-0.07856768369674683
1772480018105799400,0.42179931640625,0.10215049982070923,-0.052059970796108246,-0.049642354249954224
1772480018115797200,0.43179736328125,0.09714429080486298,0.025521637871861458,0.00037367502227425575
1772480018125794300,0.441794189453125,0.09749758988618851,0.08819932490587234,0.07262706011533737
1772480018135792400,0.45179248046875,0.11090074479579926,0.1410020887851715,0.15338130295276642
1772480018145790500,0.46179052734375,0.12157495319843292,0.15525026619434357,0.2163448929786682
1772480018155788500,0.47178857421875,0.13961359858512878,0.16408663988113403,0.25106772780418396
1772480018165786400,0.481786376953125,0.15868845582008362,0.1528671532869339,0.2578586935997009
1772480018175784400,0.491784423828125,0.18514962494373322,0.15870720148086548,0.26260897517204285
1772480018185782500,0.501782470703125,0.1972801387310028,0.15947629511356354,0.26254305243492126
1772480018195780400,0.5117802734375,0.21180689334869385,0.11913765221834183,0.2608679234981537
1772480018205777400,0.52177734375,0.2318013608455658,0.062173694372177124,0.27195918560028076
1772480018215775500,0.531775390625,0.25351837277412415,0.005514414981007576,0.2800290882587433
1772480018225773300,0.541773193359375,0.27679187059402466,-0.053651511669158936,0.26809555292129517
1772480018235771400,0.551771484375,0.28699791431427,-0.10226405411958694,0.21660174429416656
1772480018245769200,0.561769287109375,0.2794976830482483,-0.14946244657039642,0.1715756058692932
1772480018255767300,0.571767333984375,0.25739288330078125,-0.20992979407310486,0.16107583045959473
1772480018265765400,0.581765380859375,0.23780851066112518,-0.2845942974090576,0.15452921390533447
1772480018275763200,0.59176318359375,0.22172380983829498,-0.367206871509552,0.12951521575450897
1772480018285761300,0.60176123046875,0.2110137939453125,-0.45832568407058716,0.08547212183475494
1772480018295758600,0.611758544921875,0.21101006865501404,-0.5153418183326721,0.042151547968387604
1772480018305756400,0.62175634765625,0.21481123566627502,-0.548937201499939,-0.003931459039449692
1772480018315754500,0.63175439453125,0.2173265814781189,-0.6009860038757324,-0.06137983873486519
1772480018325752300,0.64175244140625,0.2216065227985382,-0.6909440159797668,-0.14396053552627563
1772480018335750400,0.65175048828125,0.21448630094528198,-0.7320824265480042,-0.23313727974891663
1772480018345748500,0.66174853515625,0.19990703463554382,-0.7241913080215454,-0.3109375834465027
1772480018355746300,0.671746337890625,0.16530299186706543,-0.7226743698120117,-0.39293229579925537
1772480018365744400,0.681744384765625,0.12357620149850845,-0.6965222358703613,-0.44829806685447693
1772480018375741400,0.691741455078125,0.0824628546833992,-0.6503017544746399,-0.47701331973075867
1772480018385739300,0.7017392578125,0.049894146621227264,-0.5689550042152405,-0.4824690818786621
1772480018395737300,0.7117373046875,0.005378612317144871,-0.43067967891693115,-0.4543210566043854
1772480018405735400,0.7217353515625,-0.06031472235918045,-0.2930075228214264,-0.3787063956260681
1772480018415733200,0.731733154296875,-0.09662719070911407,-0.13883179426193237,-0.2657311260700226
1772480018425731300,0.7417314453125,-0.07687658071517944,-0.002525669289752841,-0.061794593930244446
1772480018435729200,0.751729248046875,-0.04500679671764374,-0.013423856347799301,0.2717178761959076
1772480018445727200,0.761727294921875,-0.006761867552995682,-0.06718192994594574,0.6506390571594238
1772480018455725300,0.771725341796875,0.024705246090888977,-0.04293810948729515,0.9588884711265564
1772480018465722400,0.781722412109375,0.04773017391562462,-0.11843381822109222,1.156747817993164
1772480018475720400,0.791720458984375,0.03888501599431038,-0.28820526599884033,1.2009453773498535
1772480018485718500,0.801718505859375,0.06273636221885681,-0.4772748351097107,1.1250669956207275
1772480018495716400,0.81171630859375,0.09948559105396271,-0.6317520141601562,0.9572732448577881
1772480018505714400,0.82171435546875,0.1718190312385559,-0.7580917477607727,0.7253821492195129
1772480018515712300,0.831712158203125,0.259342223405838,-0.8173769116401672,0.48770803213119507
1772480018525710300,0.84171044921875,0.287491112947464,-0.8114045858383179,0.3093706965446472
1772480018535708400,0.85170849609375,0.30224183201789856,-0.793752908706665,0.16575521230697632
1772480018545706200,0.861706298828125,0.3147183060646057,-0.7197027802467346,0.05130640044808388
1772480018555703300,0.871703369140625,0.3399757146835327,-0.6877621412277222,-0.015498997643589973
1772480018565701400,0.881701416015625,0.38155436515808105,-0.6799313426017761,-0.04730529710650444
1772480018575699500,0.891699462890625,0.4306228458881378,-0.6526762843132019,-0.051508828997612
1772480018585697500,0.901697509765625,0.4885711073875427,-0.6085820198059082,-0.027774538844823837
1772480018595695600,0.911695556640625,0.5371066927909851,-0.5577308535575867,0.032165758311748505
1772480018605693400,0.921693359375,0.5866481065750122,-0.514309287071228,0.11156058311462402
1772480018615691500,0.93169140625,0.6522228121757507,-0.4603869318962097,0.22306287288665771
1772480018625689300,0.941689453125,0.7230939865112305,-0.3757736384868622,0.3617379665374756
1772480018635686400,0.951686279296875,0.7516849040985107,-0.3588023781776428,0.5312718749046326
1772480018645684500,0.9616845703125,0.7406651973724365,-0.40513429045677185,0.6806212067604065
1772480018655682300,0.971682373046875,0.7249797582626343,-0.4727168083190918,0.7928952574729919
1772480018665680400,0.981680419921875,0.7214837670326233,-0.5527645349502563,0.8757268190383911
1772480018675678500,0.991678466796875,0.7208584547042847,-0.6451285481452942,0.9345749616622925
1772480018685676300,1.00167626953125,0.7245532274246216,-0.7767888903617859,0.9260684251785278
1772480018695674400,1.01167431640625,0.7281346321105957,-0.8849419355392456,0.8754358291625977
1772480018705672200,1.021672119140625,0.7500671148300171,-0.9321210384368896,0.8129706382751465
1772480018715670300,1.031670166015625,0.783470869064331,-0.9475961327552795,0.7271031141281128
1772480018725667600,1.04166748046875,0.8124101161956787,-0.9838403463363647,0.6202177405357361
1772480018735665400,1.05166552734375,0.8515945672988892,-1.012352705001831,0.5258963108062744
1772480018745663500,1.06166357421875,0.8947699069976807,-1.025573968887329,0.4431556761264801
1772480018755661600,1.07166162109375,0.9451388120651245,-0.9858098030090332,0.35279834270477295
1772480018765659400,1.081659423828125,0.9756167531013489,-0.9559932947158813,0.2621435523033142
1772480018775657500,1.091657470703125,0.9859338402748108,-0.944896399974823,0.1612747460603714
1772480018785655300,1.1016552734375,0.9792990684509277,-0.8977563381195068,0.07427366822957993
1772480018795653400,1.1116533203125,0.9595767855644226,-0.8380357623100281,0.02897142805159092
1772480018805651500,1.1216513671875,0.9192736744880676,-0.7513229846954346,0.022023674100637436
1772480018815648300,1.131648193359375,0.8453661203384399,-0.6705527901649475,0.0331365130841732
1772480018825646300,1.141646240234375,0.7463025450706482,-0.6836754679679871,0.06846970319747925
1772480018835644400,1.15164453125,0.671914279460907,-0.7019618153572083,0.12910562753677368
1772480018845642200,1.161642333984375,0.6215106248855591,-0.7036479711532593,0.20318827033042908
1772480018855640300,1.171640380859375,0.5964220762252808,-0.7327553033828735,0.27388906478881836
1772480018865638400,1.181638427734375,0.5860940217971802,-0.7840204834938049,0.3284182846546173
1772480018875636200,1.19163623046875,0.5786169171333313,-0.8304412364959717,0.36635181307792664
1772480018885634300,1.20163427734375,0.555092990398407,-0.8642116189002991,0.37931397557258606
1772480018895631400,1.21163134765625,0.5207773447036743,-0.8762706518173218,0.3745170831680298
1772480018905629400,1.22162939453125,0.47541922330856323,-0.8618140816688538,0.3714463412761688
1772480018915627500,1.23162744140625,0.43267256021499634,-0.8288204669952393,0.3605460524559021
1772480018925625300,1.241625244140625,0.4101259112358093,-0.8005094528198242,0.35835790634155273
1772480018935623400,1.25162353515625,0.40446189045906067,-0.7807074785232544,0.34617045521736145
1772480018945621500,1.26162158203125,0.41293439269065857,-0.7525794506072998,0.3448554575443268
1772480018955619300,1.271619384765625,0.43569856882095337,-0.6878768801689148,0.3529064655303955
1772480018965617400,1.281617431640625,0.4540873169898987,-0.6637750864028931,0.3493753671646118
1772480018975615200,1.291615234375,0.4599132239818573,-0.6671929359436035,0.3413675129413605
1772480018985612300,1.3016123046875,0.45280471444129944,-0.6215835213661194,0.3350837528705597
1772480018995610400,1.3116103515625,0.43150076270103455,-0.6094749569892883,0.3229253590106964
1772480019005608400,1.3216083984375,0.40153855085372925,-0.6198174357414246,0.2837126851081848
1772480019015606500,1.3316064453125,0.3665006458759308,-0.6135810613632202,0.25307488441467285
1772480019025604600,1.3416044921875,0.32617345452308655,-0.6066522002220154,0.2053576409816742
1772480019035602400,1.3516025390625,0.2770695686340332,-0.6381790041923523,0.12547773122787476
1772480019045600500,1.3616005859375,0.23968720436096191,-0.7005589008331299,0.010773617774248123
1772480019055598300,1.371598388671875,0.20254835486412048,-0.7811565399169922,-0.13179312646389008
1772480019065596400,1.381596435546875,0.17445045709609985,-0.8595998883247375,-0.2874005138874054
1772480019075593500,1.391593505859375,0.17440810799598694,-0.9124151468276978,-0.4140934944152832
1772480019085591300,1.40159130859375,0.19968745112419128,-0.937267005443573,-0.506216287612915
1772480019095589400,1.41158935546875,0.22205853462219238,-0.8543883562088013,-0.5724884867668152
1772480019105587200,1.421587158203125,0.24237148463726044,-0.7136138081550598,-0.6168914437294006
1772480019115585300,1.431585205078125,0.23725129663944244,-0.6476297378540039,-0.6155329942703247
1772480019125583400,1.441583251953125,0.20739583671092987,-0.5741592049598694,-0.5424844026565552
1772480019135581200,1.451581298828125,0.18912336230278015,-0.4672223627567291,-0.40118566155433655
1772480019145579300,1.461579345703125,0.10254419595003128,-0.4223560392856598,-0.23392124474048615
1772480019155576300,1.471576416015625,0.021263454109430313,-0.43553414940834045,-0.07594093680381775
1772480019165574400,1.481574462890625,-0.04242086783051491,-0.46035900712013245,0.060034409165382385
1772480019175572500,1.491572509765625,-0.07189247012138367,-0.5124595165252686,0.1634524166584015
1772480019185570300,1.5015703125,-0.06306006759405136,-0.6169626712799072,0.22229033708572388
1772480019195568400,1.511568359375,-0.029449913650751114,-0.7407165169715881,0.23238824307918549
1772480019205566500,1.52156640625,-0.002956555224955082,-0.8490516543388367,0.21442697942256927
1772480019215564300,1.531564208984375,0.007884107530117035,-0.9378827214241028,0.18148021399974823
1772480019225562400,1.541562255859375,-0.0010476456955075264,-0.9746949076652527,0.13824589550495148
1772480019235560400,1.551560546875,-0.03460560739040375,-0.9631706476211548,0.08929779380559921
1772480019245557200,1.56155712890625,-0.08507261425256729,-0.9155539274215698,0.05024649202823639
1772480019255555300,1.571555419921875,-0.13094955682754517,-0.8058463335037231,0.026523320004343987
1772480019265553200,1.58155322265625,-0.18490341305732727,-0.6830928921699524,0.022909510880708694
1772480019275551200,1.59155126953125,-0.23145918548107147,-0.5790514349937439,0.02186315506696701
1772480019285549300,1.60154931640625,-0.24378623068332672,-0.4249952733516693,0.03680678457021713
1772480019295547100,1.611547119140625,-0.23988869786262512,-0.2611221969127655,0.07965784519910812
1772480019305545200,1.621545166015625,-0.22053174674510956,-0.11563624441623688,0.13884739577770233
1772480019315543300,1.631543212890625,-0.20113489031791687,-0.038779016584157944,0.22420570254325867
1772480019325540400,1.641540283203125,-0.192472904920578,-0.02306465245783329,0.32248395681381226
1772480019335538400,1.651538330078125,-0.17335940897464752,-0.0009217988699674606,0.4445329010486603
1772480019345536300,1.661536376953125,-0.14461849629878998,-0.02520107664167881,0.5636160373687744
1772480019355534300,1.671534423828125,-0.07341063022613525,-0.052664924412965775,0.6397004127502441
1772480019365532400,1.681532470703125,0.02670101821422577,0.0528736375272274,0.7282488942146301
1772480019375530200,1.6915302734375,0.12252794951200485,0.10910015553236008,0.7412869334220886
1772480019385528300,1.7015283203125,0.19607551395893097,0.07511989772319794,0.641833484172821
1772480019395526400,1.7115263671875,0.2595556974411011,0.058204829692840576,0.5152933597564697
1772480019405524200,1.721524169921875,0.3087734282016754,0.05599021911621094,0.38659289479255676
1772480019415521300,1.731521240234375,0.3527645766735077,0.044597748667001724,0.281068354845047
1772480019425519000,1.74151904296875,0.368257611989975,-0.04760640487074852,0.1532522439956665
1772480019435517200,1.75151708984375,0.372774600982666,-0.1769779771566391,0.023211143910884857
1772480019445515500,1.761515625,0.3827970027923584,-0.22885654866695404,-0.08377758413553238
1772480019455513300,1.771513427734375,0.3898051083087921,-0.2511732876300812,-0.17379909753799438
1772480019465511400,1.781511474609375,0.394335001707077,-0.2631119191646576,-0.2346915751695633
1772480019475509500,1.791509521484375,0.3879663348197937,-0.2696782052516937,-0.27519530057907104
1772480019485507300,1.80150732421875,0.3991139531135559,-0.29188013076782227,-0.27788153290748596
1772480019495505400,1.81150537109375,0.4151533842086792,-0.28986865282058716,-0.24361196160316467
1772480019505502200,1.821502197265625,0.4427250623703003,-0.30007266998291016,-0.1880081593990326
1772480019515500300,1.831500244140625,0.46974682807922363,-0.2909390926361084,-0.13622164726257324
1772480019525498400,1.841498291015625,0.49065569043159485,-0.2207006812095642,-0.07646714150905609
1772480019535496200,1.85149609375,0.4928285777568817,-0.19440649449825287,-0.05132823437452316
1772480019545494300,1.861494384765625,0.4806990325450897,-0.15292540192604065,-0.035109251737594604
1772480019555492400,1.871492431640625,0.4395017921924591,-0.1430690437555313,-0.013109145686030388
1772480019565490200,1.881490234375,0.3947681486606598,-0.1871531456708908,0.010929146781563759
1772480019575488300,1.89148828125,0.3677176237106323,-0.21493098139762878,0.04181968793272972
1772480019585486300,1.901486328125,0.3483274281024933,-0.22922858595848083,0.07595805078744888
1772480019595483400,1.9114833984375,0.3247201144695282,-0.25175920128822327,0.1060352623462677
1772480019605481500,1.9214814453125,0.29817938804626465,-0.3051567077636719,0.10371051728725433
1772480019615479300,1.931479248046875,0.27384287118911743,-0.38072654604911804,0.06696581840515137
1772480019625477400,1.941477294921875,0.22245043516159058,-0.4875659942626953,-0.009680258110165596
1772480019635475500,1.951475341796875,0.1643887311220169,-0.6171460747718811,-0.09355118870735168
1772480019645473300,1.961473388671875,0.15175305306911469,-0.7084630727767944,-0.1718735247850418
1772480019655471400,1.971471435546875,0.15068353712558746,-0.7086473703384399,-0.22607098519802094
1772480019665469400,1.981469482421875,0.15494036674499512,-0.7004476189613342,-0.27173981070518494
1772480019675467300,1.99146728515625,0.17296729981899261,-0.6652097105979919,-0.30222606658935547
1772480019685464300,2.00146435546875,0.18710175156593323,-0.5900787711143494,-0.30897876620292664
1772480019695462100,2.011462158203125,0.19352130591869354,-0.5285874605178833,-0.2974238395690918
1772480019705460200,2.021460205078125,0.19240060448646545,-0.497610479593277,-0.29319798946380615
1772480019715458300,2.031458251953125,0.17709089815616608,-0.5061712265014648,-0.28106996417045593
1772480019725456100,2.0414560546875,0.14355801045894623,-0.5814347267150879,-0.2844260036945343
1772480019735454200,2.0514541015625,0.1202383041381836,-0.6907063126564026,-0.3078775405883789
1772480019745452300,2.061452392578125,0.10421794652938843,-0.6928004622459412,-0.32635825872421265
1772480019755450400,2.071450439453125,0.07612265646457672,-0.6085202097892761,-0.3018296957015991
1772480019765448400,2.081448486328125,0.0493345782160759,-0.46617335081100464,-0.26542147994041443
1772480019775445200,2.0914453125,0.020629696547985077,-0.3734140992164612,-0.24748189747333527
1772480019785443300,2.101443359375,0.006001785397529602,-0.3427141308784485,-0.20692558586597443
1772480019795441400,2.11144140625,0.008811687119305134,-0.357805460691452,-0.15728825330734253
1772480019805439200,2.121439208984375,0.01823113113641739,-0.3814825117588043,-0.07842566072940826
1772480019815437300,2.131437255859375,0.05754551291465759,-0.45967450737953186,-0.015013935044407845
1772480019825435400,2.141435302734375,0.09115574508905411,-0.5191381573677063,0.0029881708323955536
1772480019835433200,2.15143310546875,0.16365550458431244,-0.34358787536621094,0.08889322727918625
1772480019845431300,2.161431396484375,0.23343928158283234,-0.2896786332130432,0.1483200043439865
1772480019855428000,2.171427978515625,0.2662496864795685,-0.3304034471511841,0.20786961913108826
1772480019865426200,2.18142626953125,0.2705535292625427,-0.4834516644477844,0.2193412333726883
1772480019875424500,2.191424560546875,0.23912501335144043,-0.43764129281044006,0.20667017996311188
1772480019885422300,2.20142236328125,0.19778560101985931,-0.48470938205718994,0.19692188501358032
1772480019895420400,2.21142041015625,0.11395303159952164,-0.5419050455093384,0.16256657242774963
1772480019905418500,2.22141845703125,0.006706423591822386,-0.5696001052856445,0.12631912529468536
1772480019915416300,2.231416259765625,-0.07250504195690155,-0.6159308552742004,0.10157409310340881
1772480019925414400,2.241414306640625,-0.1314304769039154,-0.7105467915534973,0.07796210795640945
1772480019935412500,2.25141259765625,-0.14302216470241547,-0.7711006999015808,0.05771782249212265
1772480019945409300,2.2614091796875,-0.09340658783912659,-0.7939634323120117,0.04897826164960861
1772480019955407400,2.271407470703125,0.01119544729590416,-0.7886195182800293,0.029881799593567848
1772480019965405200,2.2814052734375,0.15649297833442688,-0.7165600061416626,-0.005849566776305437
1772480019975403300,2.2914033203125,0.31371742486953735,-0.6208124160766602,-0.04069986194372177
1772480019985401300,2.3014013671875,0.46450942754745483,-0.5543419718742371,-0.04610877484083176
1772480019995399200,2.311399169921875,0.5987886786460876,-0.4778256118297577,0.002726411446928978
1772480020005397200,2.321397216796875,0.6917135119438171,-0.4020926356315613,0.09983345121145248
1772480020015395300,2.331395263671875,0.7354540824890137,-0.35424306988716125,0.2164708524942398
1772480020025392400,2.341392333984375,0.7333086133003235,-0.34863510727882385,0.3228851556777954
1772480020035390500,2.351390380859375,0.7108229994773865,-0.3755175769329071,0.4143112003803253
1772480020045388300,2.36138818359375,0.6729303598403931,-0.4270346462726593,0.4799163341522217
1772480020055386400,2.371386474609375,0.6245691776275635,-0.4880836009979248,0.5302264094352722
1772480020065384400,2.381384521484375,0.5809013247489929,-0.5462090373039246,0.5664769411087036
1772480020075382300,2.39138232421875,0.5687698125839233,-0.5463717579841614,0.588646411895752
1772480020085380400,2.40138037109375,0.5607641339302063,-0.5702308416366577,0.5713392496109009
1772480020095378400,2.41137841796875,0.5545970797538757,-0.6127786040306091,0.5390223264694214
1772480020105376300,2.421376220703125,0.5629603862762451,-0.6090661287307739,0.49213698506355286
1772480020115374300,2.431374267578125,0.5898346304893494,-0.5769273638725281,0.4307844042778015
1772480020125372200,2.4413720703125,0.597195565700531,-0.5358613133430481,0.3782958686351776
1772480020135370200,2.451370361328125,0.5851098895072937,-0.47680652141571045,0.32280808687210083
1772480020145368300,2.461368408203125,0.5659314393997192,-0.39220738410949707,0.2685098946094513
1772480020155366100,2.4713662109375,0.5358549952507019,-0.29869288206100464,0.217435821890831
1772480020165364200,2.4813642578125,0.498828649520874,-0.18720676004886627,0.19241805374622345
1772480020175362300,2.4913623046875,0.46020907163619995,-0.07758918404579163,0.1718994677066803
1772480020185360100,2.501360107421875,0.42144373059272766,0.0028949291445314884,0.16478556394577026
1772480020195358200,2.511358154296875,0.40428152680397034,0.010572556406259537,0.16680264472961426
1772480020205355300,2.521355224609375,0.3835010528564453,0.057031966745853424,0.20367707312107086
1772480020215353300,2.531353271484375,0.386544793844223,0.07542428374290466,0.252185195684433
1772480020225351400,2.541351318359375,0.39476582407951355,-0.017001966014504433,0.26759856939315796
1772480020235349200,2.551349365234375,0.36687320470809937,-0.04767785221338272,0.26715171337127686
1772480020245347300,2.561347412109375,0.3471089005470276,-0.12951123714447021,0.24627132713794708
1772480020255345400,2.571345458984375,0.3125080466270447,-0.24627193808555603,0.2181536704301834
1772480020265343200,2.58134326171875,0.28852376341819763,-0.4162275195121765,0.16588763892650604
1772480020275341300,2.59134130859375,0.2460934817790985,-0.449069619178772,0.14564041793346405
1772480020285338000,2.601338134765625,0.2280987948179245,-0.47341156005859375,0.1327575147151947
1772480020295336200,2.611336181640625,0.2037455141544342,-0.5001044273376465,0.0924401804804802
1772480020305334300,2.621334228515625,0.17956776916980743,-0.5223143696784973,0.03483487665653229
1772480020315332000,2.63133203125,0.16283752024173737,-0.5086078643798828,-0.03415936976671219
1772480020325330200,2.641330078125,0.15527117252349854,-0.4880388379096985,-0.0934736579656601
1772480020335328300,2.651328369140625,0.15675988793373108,-0.4706057906150818,-0.14807112514972687
1772480020345326000,2.661326171875,0.15887635946273804,-0.44614627957344055,-0.19763819873332977
1772480020355324200,2.67132421875,0.15047729015350342,-0.40255194902420044,-0.22760942578315735
1772480020365322200,2.681322265625,0.13454975187778473,-0.3606507182121277,-0.24757421016693115
1772480020375319300,2.6913193359375,0.099058598279953,-0.3457154631614685,-0.2499324381351471
1772480020385317400,2.7013173828125,0.06797270476818085,-0.36118409037590027,-0.23217405378818512
1772480020395315200,2.711315185546875,0.04621228575706482,-0.37813934683799744,-0.2256932407617569
1772480020405313300,2.721313232421875,0.04401902109384537,-0.3961704671382904,-0.2212921380996704
1772480020415311400,2.731311279296875,0.043538324534893036,-0.44332706928253174,-0.23478689789772034
1772480020425309200,2.74130908203125,0.05873618274927139,-0.5275324583053589,-0.27765101194381714
1772480020435307300,2.751307373046875,0.07630851864814758,-0.6456809639930725,-0.34767937660217285
1772480020445305300,2.761305419921875,0.09878220409154892,-0.7375349998474121,-0.4130515158176422
1772480020455303200,2.77130322265625,0.1032579094171524,-0.8588550686836243,-0.4887998104095459
1772480020465300200,2.78130029296875,0.14147278666496277,-1.0118165016174316,-0.5965723991394043
1772480020475298000,2.791298095703125,0.14954110980033875,-1.0201058387756348,-0.661229133605957
1772480020485296000,2.801296142578125,0.2567764222621918,-1.0343677997589111,-0.7019584774971008
1772480020495294200,2.811294189453125,0.2981307804584503,-0.8992451429367065,-0.6528468728065491
1772480020505292300,2.821292236328125,0.29673293232917786,-0.698765218257904,-0.5508784651756287
1772480020515290400,2.831290283203125,0.21082711219787598,-0.7326230406761169,-0.39021024107933044
1772480020525288400,2.841288330078125,0.20753641426563263,-0.8721745014190674,-0.1921992003917694
1772480020535286300,2.851286376953125,0.24071301519870758,-0.8734017014503479,0.002310893964022398
1772480020545284400,2.861284423828125,0.24237821996212006,-0.8493208289146423,0.18354973196983337
1772480020555281200,2.87128125,0.18890248239040375,-0.7335864901542664,0.36246806383132935
1772480020565279200,2.881279296875,0.10059381276369095,-0.7604724764823914,0.4741058945655823
1772480020575277300,2.89127734375,-0.03856727480888367,-0.7566316723823547,0.48634791374206543
1772480020585275100,2.901275146484375,-0.21181440353393555,-0.5796173810958862,0.44700440764427185
1772480020595273200,2.911273193359375,-0.41106703877449036,-0.6625293493270874,0.31837451457977295
1772480020605271300,2.921271240234375,-0.638164222240448,-0.7668869495391846,0.1737832874059677
1772480020615269000,2.93126904296875,-0.7965107560157776,-1.046146035194397,0.04654650017619133
1772480020625267200,2.94126708984375,-0.8607721328735352,-1.1537048816680908,-0.02034088969230652
1772480020635265300,2.951265380859375,-0.799299955368042,-1.1146804094314575,-0.0617905929684639
1772480020645262300,2.961262451171875,-0.6687517166137695,-0.9727160930633545,-0.06954235583543777
1772480020655260400,2.971260498046875,-0.504181981086731,-0.8014671206474304,-0.03763848543167114
1772480020665258200,2.98125830078125,-0.31312066316604614,-0.5989962816238403,-0.005225686356425285
1772480020675256300,2.99125634765625,-0.12494197487831116,-0.4390213191509247,-0.016708172857761383
1772480020685254400,3.00125439453125,-0.010655107907950878,-0.5843826532363892,-0.013899702578783035
1772480020695252200,3.011252197265625,0.12473946809768677,-0.7200802564620972,-0.06223288178443909
1772480020705250300,3.021250244140625,0.24134422838687897,-0.45023539662361145,-0.14087848365306854
1772480020715248400,3.031248291015625,0.3487186133861542,-0.11532903462648392,-0.17243161797523499
1772480020725246200,3.04124609375,0.4350073039531708,0.0269181989133358,-0.1707538366317749
1772480020735243300,3.0512431640625,0.46081972122192383,-0.013656390830874443,-0.1643446683883667
1772480020745241000,3.061240966796875,0.4507613778114319,-0.12516982853412628,-0.17665906250476837
1772480020755239200,3.0712392578125,0.45177045464515686,-0.3161001205444336,-0.19534699618816376
1772480020765237200,3.0812373046875,0.4580555558204651,-0.5320456027984619,-0.21803538501262665
1772480020775235000,3.091235107421875,0.42520466446876526,-0.6987259387969971,-0.1752096265554428
1772480020785233200,3.101233154296875,0.3562411367893219,-0.8133177757263184,-0.049619048833847046
1772480020795231200,3.111231201171875,0.30583202838897705,-0.9010695219039917,0.125027596950531
1772480020805229300,3.121229248046875,0.2582685053348541,-0.9852938055992126,0.2659265697002411
1772480020815226400,3.131226318359375,0.21588003635406494,-1.0496852397918701,0.3537616431713104
1772480020825224200,3.14122412109375,0.1869083046913147,-1.0900799036026,0.40647226572036743
1772480020835222300,3.15122216796875,0.17309315502643585,-1.1189429759979248,0.425821989774704
1772480020845220400,3.161220458984375,0.15267938375473022,-1.1066514253616333,0.4047870337963104
1772480020855218200,3.17121826171875,0.13970153033733368,-1.0754629373550415,0.3462342321872711
1772480020865216300,3.18121630859375,0.15288858115673065,-1.0522783994674683,0.28093409538269043
1772480020875214300,3.19121435546875,0.19003009796142578,-1.011506199836731,0.22021962702274323
1772480020885212200,3.201212158203125,0.23672086000442505,-0.9575929641723633,0.1673385351896286
1772480020895210200,3.211210205078125,0.27860066294670105,-0.9246275424957275,0.12010123580694199
1772480020905207000,3.22120703125,0.3065947890281677,-0.917079746723175,0.0824422761797905
1772480020915205000,3.231205078125,0.3300844132900238,-0.9105536937713623,0.05352141335606575
1772480020925203200,3.241203125,0.3563095033168793,-0.8846576809883118,0.036498524248600006
1772480020935201300,3.251201171875,0.358195036649704,-0.885158121585846,0.0323149636387825
1772480020945199400,3.261199462890625,0.36777254939079285,-0.9240336418151855,0.04761359468102455
1772480020955197400,3.271197509765625,0.3744634687900543,-0.9338111877441406,0.0897996574640274
1772480020965195300,3.2811953125,0.37480512261390686,-0.9548805952072144,0.12283042073249817
1772480020975193300,3.291193359375,0.37829601764678955,-1.0071974992752075,0.14182168245315552
1772480020985191400,3.30119140625,0.36738571524620056,-1.0937446355819702,0.14295952022075653
1772480020995188200,3.311188232421875,0.3541623055934906,-1.1898729801177979,0.14400267601013184
1772480021005186300,3.321186279296875,0.34787717461586,-1.255273699760437,0.17183011770248413
1772480021015184100,3.33118408203125,0.33688658475875854,-1.2955601215362549,0.24785777926445007
1772480021025182200,3.34118212890625,0.3534839153289795,-1.2917908430099487,0.3611360788345337
1772480021035180300,3.35118017578125,0.3908054530620575,-1.291917085647583,0.4637995958328247
1772480021045178000,3.36117822265625,0.40489670634269714,-1.3344881534576416,0.5336726307868958
1772480021055176200,3.37117626953125,0.41225317120552063,-1.3663978576660156,0.5816431045532227
1772480021065174300,3.38117431640625,0.42964988946914673,-1.3350028991699219,0.6105075478553772
1772480021075172000,3.391172119140625,0.46579110622406006,-1.2437061071395874,0.6195412278175354
1772480021085169400,3.40116943359375,0.5037624835968018,-1.1169161796569824,0.6023180484771729
1772480021095167200,3.411167236328125,0.5303106904029846,-0.9880442023277283,0.5708437561988831
1772480021105165300,3.421165283203125,0.5396561622619629,-0.8987860679626465,0.5257236957550049
1772480021115163000,3.431162841796875,0.5357437133789062,-0.8747499585151672,0.5146459937095642
1772480021125161000,3.441160888671875,0.47909802198410034,-1.0123969316482544,0.5125486254692078
1772480021135159000,3.451158935546875,0.38079649209976196,-1.245595097541809,0.493573397397995
1772480021145156900,3.461156982421875,0.30495795607566833,-1.4567883014678955,0.47808703780174255
1772480021155155000,3.471155029296875,0.26484543085098267,-1.5785754919052124,0.4913780689239502
1772480021165153000,3.481153076171875,0.29517537355422974,-1.6411638259887695,0.5166200995445251
1772480021175149800,3.49114990234375,0.33445674180984497,-1.7507156133651733,0.5070617198944092
1772480021185148000,3.50114794921875,0.4137219488620758,-1.9206700325012207,0.44086071848869324
1772480021195145700,3.511145751953125,0.5167548656463623,-2.0533885955810547,0.3406718075275421
1772480021205143800,3.521143798828125,0.6511988043785095,-2.1063811779022217,0.24792535603046417
1772480021215142000,3.531141845703125,0.8028748631477356,-2.067307710647583,0.1847389191389084
1772480021225140000,3.541139892578125,0.9627572894096375,-1.9803204536437988,0.15686781704425812
1772480021235138000,3.551137939453125,1.1005713939666748,-1.8808737993240356,0.1640293151140213
1772480021245136100,3.56113623046875,1.187208890914917,-1.8501864671707153,0.2247641235589981
1772480021255134000,3.571134033203125,1.215453863143921,-1.846077799797058,0.3654528260231018
1772480021265131000,3.581131103515625,1.1872191429138184,-1.774035096168518,0.5409534573554993
1772480021275128800,3.59112890625,1.1208670139312744,-1.7816327810287476,0.711334228515625
1772480021285127000,3.601126953125,0.9586157202720642,-2.0542151927948,0.8419222831726074
1772480021295125000,3.611125,0.7511631846427917,-2.568895101547241,0.926377534866333
1772480021305122800,3.621122802734375,0.6160333752632141,-2.463935613632202,0.9177731275558472
1772480021315121000,3.631120849609375,0.5573740601539612,-2.0254127979278564,0.9513853788375854
1772480021325119000,3.641118896484375,0.5343868136405945,-1.6069802045822144,1.0666502714157104
1772480021335116800,3.65111669921875,0.5543794631958008,-1.519959568977356,1.1786171197891235
1772480021345114000,3.661114013671875,0.5438356399536133,-1.6868535280227661,1.1945762634277344
1772480021355112200,3.6711123046875,0.5586095452308655,-1.8366683721542358,1.1280227899551392
1772480021365110000,3.681110107421875,0.6290575265884399,-1.8503385782241821,1.014988660812378
1772480021375108000,3.691108154296875,0.7122994065284729,-1.7974060773849487,0.9137043356895447
1772480021385106000,3.70110595703125,0.8605355620384216,-1.8534049987792969,0.8540151119232178
1772480021395104000,3.71110400390625,0.9680708050727844,-1.8707387447357178,0.7898281812667847
1772480021405102000,3.72110205078125,1.0808334350585938,-1.837964653968811,0.7401531934738159
1772480021415100000,3.731099853515625,1.1853119134902954,-1.8018276691436768,0.7196833491325378
1772480021425098000,3.741097900390625,1.2708357572555542,-1.8203392028808594,0.6850199103355408
1772480021435095000,3.751094970703125,1.3460477590560913,-1.8493634462356567,0.6629210114479065
1772480021445092900,3.7610927734375,1.4015896320343018,-1.8683561086654663,0.6454377770423889
1772480021455091000,3.771091064453125,1.4290354251861572,-1.8843910694122314,0.6279469728469849
1772480021465088800,3.7810888671875,1.419762372970581,-1.8676518201828003,0.6297240853309631
1772480021475086800,3.7910869140625,1.364410638809204,-1.8608067035675049,0.6583861112594604
1772480021485085000,3.8010849609375,1.2788975238800049,-1.8919835090637207,0.7343676090240479
1772480021495082800,3.811082763671875,1.2163140773773193,-1.877158761024475,0.8338254690170288
1772480021505080800,3.821080810546875,1.1508111953735352,-1.8307956457138062,0.902937650680542
1772480021515079000,3.831078857421875,1.0795327425003052,-1.7985841035842896,0.936472475528717
1772480021525076000,3.841075927734375,0.9888221025466919,-1.783408284187317,0.959304690361023
1772480021535074000,3.851073974609375,0.9153563976287842,-1.7522834539413452,0.9745718240737915
1772480021545072000,3.861072021484375,0.8630599975585938,-1.7165663242340088,0.9836384057998657
1772480021555070000,3.871070068359375,0.8123291730880737,-1.683970332145691,0.9734768867492676
1772480021565068000,3.881068115234375,0.7740854024887085,-1.628564715385437,0.9549540281295776
1772480021575065900,3.89106591796875,0.730792760848999,-1.5456820726394653,0.9338684678077698
1772480021585064000,3.90106396484375,0.6713330745697021,-1.4654544591903687,0.9351226687431335
1772480021595062000,3.91106201171875,0.635252833366394,-1.4063022136688232,0.9668781757354736
1772480021605059800,3.921059814453125,0.6219132542610168,-1.323486328125,0.9947602152824402
1772480021615057000,3.931056884765625,0.6229066252708435,-1.263770580291748,1.003783941268921
1772480021625055000,3.941054931640625,0.6369720697402954,-1.2271170616149902,0.9916741251945496
1772480021635052800,3.951052734375,0.6561233997344971,-1.1972278356552124,0.9407464861869812
1772480021645051000,3.96105078125,0.6825812458992004,-1.2105860710144043,0.8461898565292358
1772480021655049000,3.971049072265625,0.6992155909538269,-1.2812232971191406,0.7352284789085388
1772480021665047000,3.981047119140625,0.7364429831504822,-1.3269637823104858,0.6343976259231567
1772480021675045000,3.991045166015625,0.7563013434410095,-1.3482986688613892,0.5519919991493225
1772480021685043000,4.00104296875,0.7619174718856812,-1.3855602741241455,0.4708380699157715
1772480021695041000,4.011041015625,0.7588703036308289,-1.4239686727523804,0.3761744201183319
1772480021705038000,4.0210380859375,0.7505698204040527,-1.4554541110992432,0.2791527807712555
1772480021715036000,4.031035888671875,0.71579509973526,-1.4629881381988525,0.20549745857715607
1772480021725034000,4.041033935546875,0.6790233254432678,-1.4713058471679688,0.1543412059545517
1772480021735031800,4.05103173828125,0.6510233879089355,-1.4816309213638306,0.12114064395427704
1772480021745030000,4.06102978515625,0.635601282119751,-1.4664934873580933,0.10057511180639267
1772480021755028000,4.071028076171875,0.6283039450645447,-1.4196516275405884,0.08811365067958832
1772480021765025800,4.08102587890625,0.6185703277587891,-1.3547230958938599,0.07765474915504456
1772480021775023900,4.09102392578125,0.5949826836585999,-1.3193625211715698,0.048704326152801514
1772480021785022000,4.10102197265625,0.5622506737709045,-1.313029408454895,0.0026039741933345795
1772480021795019000,4.11101904296875,0.5428130626678467,-1.327539086341858,-0.04446233808994293
1772480021805017000,4.12101708984375,0.5322176814079285,-1.3103969097137451,-0.07249810546636581
1772480021815015200,4.13101513671875,0.5253638029098511,-1.2361632585525513,-0.07453382015228271
1772480021825013000,4.141012939453125,0.4910512864589691,-1.123121738433838,-0.05418306961655617
1772480021835011000,4.151010986328125,0.4328148663043976,-1.0122480392456055,-0.013910483568906784
1772480021845009000,4.1610087890625,0.3599274754524231,-0.9037627577781677,0.05587964504957199
1772480021855007000,4.171007080078125,0.26017558574676514,-0.7864523530006409,0.16669830679893494
1772480021865005000,4.181005126953125,0.17017178237438202,-0.7226487994194031,0.2777145206928253
1772480021875003000,4.1910029296875,0.08204218745231628,-0.6986163854598999,0.34729069471359253
1772480021885000000,4.201,0.010070213116705418,-0.705444872379303,0.38000360131263733
1772480021894998000,4.210998046875,-0.047256726771593094,-0.745477557182312,0.37241676449775696
1772480021904995800,4.220995849609375,-0.0683746263384819,-0.8397793173789978,0.33866775035858154
1772480021914994000,4.230993896484375,-0.058523327112197876,-0.9285065531730652,0.299704909324646
1772480021924991700,4.24099169921875,-0.028167452663183212,-0.9868065118789673,0.26218801736831665
1772480021934989800,4.25098974609375,0.027430560439825058,-1.0175385475158691,0.2378629595041275
1772480021944988000,4.26098779296875,0.10171709954738617,-1.041695475578308,0.2281775325536728
1772480021954986000,4.270986083984375,0.1554676741361618,-1.123742699623108,0.23723122477531433
1772480021964984000,4.280984130859375,0.20363450050354004,-1.1794956922531128,0.23150493204593658
1772480021974981000,4.290981201171875,0.26274392008781433,-1.177552580833435,0.201774463057518
1772480021984979000,4.30097900390625,0.3177134692668915,-1.1763614416122437,0.15364165604114532
1772480021994977000,4.31097705078125,0.3643222451210022,-1.1829352378845215,0.10313454270362854
1772480022004974800,4.320974853515625,0.4093741774559021,-1.1726278066635132,0.07525431364774704
1772480022014973000,4.330972900390625,0.4566279947757721,-1.1227787733078003,0.08269412070512772
1772480022024971000,4.340970947265625,0.49954864382743835,-1.034061312675476,0.13759957253932953
1772480022034968800,4.35096875,0.5491926670074463,-0.9417357444763184,0.2228659987449646
1772480022044967000,4.360966796875,0.5740451812744141,-0.8655927777290344,0.3136807680130005
1772480022054964000,4.3709638671875,0.5656415820121765,-0.8214899897575378,0.40057411789894104
1772480022064961800,4.3809619140625,0.5502023696899414,-0.8001711964607239,0.46150344610214233
1772480022074960000,4.3909599609375,0.5288875102996826,-0.8135373592376709,0.4829126000404358
1772480022084958000,4.4009580078125,0.5195916891098022,-0.8075132966041565,0.5045934319496155
1772480022094956000,4.4109560546875,0.5223307609558105,-0.8172125220298767,0.5162660479545593
1772480022104954000,4.4209541015625,0.5194910168647766,-0.8750920295715332,0.5017958283424377
1772480022114951200,4.430951171875,0.5185053944587708,-0.9455987215042114,0.4737314283847809
1772480022124949200,4.44094921875,0.5023248195648193,-0.9948124885559082,0.4526136815547943
1772480022134947300,4.450947265625,0.48868492245674133,-1.01469087600708,0.4370086193084717
1772480022144945200,4.460945068359375,0.47231927514076233,-1.0186954736709595,0.4005398154258728
1772480022154942200,4.470942138671875,0.4527927041053772,-1.0032984018325806,0.34922629594802856
1772480022164940300,4.480940185546875,0.43687060475349426,-0.9729746580123901,0.3042597472667694
1772480022174938000,4.490938232421875,0.4273945391178131,-0.9269073009490967,0.254497230052948
1772480022184936200,4.500936279296875,0.4367305338382721,-0.8819313049316406,0.19377949833869934
1772480022194934300,4.510934326171875,0.4472755789756775,-0.8171706795692444,0.13501018285751343
1772480022204932000,4.52093212890625,0.45605722069740295,-0.7473065853118896,0.09689895063638687
1772480022214930200,4.53093017578125,0.4365394413471222,-0.7062911987304688,0.07074590772390366
1772480022224928300,4.54092822265625,0.43673762679100037,-0.697880744934082,0.03409355878829956
1772480022234926300,4.55092626953125,0.44466719031333923,-0.7117313146591187,0.028837008401751518
1772480022244923400,4.56092333984375,0.47129908204078674,-0.7363944053649902,0.04381236061453819
1772480022254921200,4.570921142578125,0.4986089766025543,-0.7436821460723877,0.052436474710702896
1772480022264919300,4.580919189453125,0.5047555565834045,-0.777066171169281,0.054361212998628616
1772480022274917400,4.59091748046875,0.48955580592155457,-0.8549591302871704,0.067937470972538
1772480022284915200,4.600915283203125,0.45322665572166443,-0.9343783259391785,0.0705282986164093
1772480022294913300,4.610913330078125,0.42864301800727844,-0.9976577162742615,0.08283396810293198
1772480022304911000,4.6209111328125,0.3776920437812805,-1.0438686609268188,0.1078510731458664
1772480022314909200,4.6309091796875,0.32977163791656494,-1.0786546468734741,0.12108030915260315
1772480022324906200,4.64090625,0.2714465856552124,-1.099251389503479,0.13029761612415314
1772480022334904300,4.650904296875,0.20513759553432465,-1.1238443851470947,0.11163471639156342
1772480022344902400,4.66090234375,0.14951737225055695,-1.1460647583007812,0.07173554599285126
1772480022354900500,4.670900390625,0.1186196357011795,-1.156564474105835,0.022230306640267372
1772480022364898300,4.680898193359375,0.12013215571641922,-1.1702790260314941,-0.015420433133840561
1772480022374896400,4.690896484375,0.15147969126701355,-1.1931002140045166,-0.03508415073156357
1772480022384894500,4.70089453125,0.20761194825172424,-1.222826361656189,-0.042070452123880386
1772480022394892300,4.710892333984375,0.2791079580783844,-1.2182046175003052,-0.031960297375917435
1772480022404890400,4.720890380859375,0.33656343817710876,-1.2123394012451172,-0.00647244555875659
1772480022414888200,4.73088818359375,0.36396655440330505,-1.2121689319610596,0.026451682671904564
1772480022424885200,4.74088525390625,0.36683720350265503,-1.1986128091812134,0.07641691714525223
1772480022434883300,4.75088330078125,0.33656105399131775,-1.2124454975128174,0.13593509793281555
1772480022444881200,4.760881103515625,0.2573232352733612,-1.2888460159301758,0.17438556253910065
1772480022454879200,4.770879150390625,0.16714432835578918,-1.3775478601455688,0.20582416653633118
1772480022464877300,4.780877197265625,0.07596268504858017,-1.4793590307235718,0.20781341195106506
1772480022474875100,4.790875244140625,0.0447661466896534,-1.5514494180679321,0.1981258988380432
1772480022484873200,4.800873291015625,0.06353401392698288,-1.506657600402832,0.2280399203300476
1772480022494871000,4.81087109375,0.1040169894695282,-1.3807520866394043,0.27079030871391296
1772480022504868400,4.820868408203125,0.1733253300189972,-1.2155917882919312,0.3061562776565552
1772480022514866400,4.830866455078125,0.2721397876739502,-1.0793203115463257,0.36419615149497986
1772480022524864300,4.8408642578125,0.33145850896835327,-1.010050892829895,0.40324556827545166
1772480022534862300,4.8508623046875,0.36264464259147644,-1.0556831359863281,0.40970930457115173
1772480022544860400,4.8608603515625,0.41807472705841064,-1.033215045928955,0.40317413210868835
1772480022554858200,4.870858154296875,0.471841037273407,-0.9407812356948853,0.3932378590106964
1772480022564856300,4.880856201171875,0.5243308544158936,-0.868961751461029,0.3746326267719269
1772480022574854100,4.890854248046875,0.5848538279533386,-0.8198423981666565,0.3703731596469879
1772480022584852200,4.900852294921875,0.6368811726570129,-0.7836231589317322,0.38354456424713135
1772480022594849300,4.910849365234375,0.6668579578399658,-0.7944244146347046,0.4024655222892761
1772480022604847000,4.92084716796875,0.6792784929275513,-0.9004943370819092,0.45281335711479187
1772480022614845200,4.93084521484375,0.6798798441886902,-1.136734127998352,0.5688478350639343
1772480022624843300,4.94084326171875,0.6292974948883057,-1.303995132446289,0.6870571970939636
1772480022634841000,4.950841064453125,0.5830416083335876,-1.3374487161636353,0.8059473633766174
1772480022644839200,4.960839111328125,0.515515923500061,-1.3555048704147339,0.88791424036026
1772480022654837200,4.970837158203125,0.4468843936920166,-1.3498350381851196,0.9378075003623962
1772480022664835300,4.98083544921875,0.45536044239997864,-1.2506154775619507,0.9296395182609558
1772480022674833400,4.99083349609375,0.46725332736968994,-1.133751392364502,0.8626447319984436
1772480022684830200,5.000830322265625,0.5142979621887207,-1.0947178602218628,0.7548825144767761
1772480022694828300,5.010828369140625,0.6098681688308716,-1.04166579246521,0.6175665259361267
1772480022704826400,5.020826416015625,0.7328465580940247,-0.9582269191741943,0.506045401096344
1772480022714824200,5.03082421875,0.8413693308830261,-0.882034182548523,0.4444124102592468
1772480022724822300,5.040822265625,0.9024528861045837,-0.8295490741729736,0.43463820219039917
1772480022734820400,5.0508203125,0.9389246106147766,-0.7475945949554443,0.45684814453125
1772480022744818200,5.060818115234375,0.9398178458213806,-0.651746928691864,0.5116945505142212
1772480022754816300,5.070816162109375,0.9066686630249023,-0.5991342663764954,0.5906562209129333
1772480022764814000,5.08081396484375,0.8665205836296082,-0.582625150680542,0.6611300110816956
1772480022774811400,5.090811279296875,0.8089190721511841,-0.6018753051757812,0.7019152641296387
1772480022784809500,5.1008095703125,0.7320784330368042,-0.6465705037117004,0.7085921764373779
1772480022794807300,5.110807373046875,0.6517931818962097,-0.6980412006378174,0.6879795789718628
1772480022804805400,5.120805419921875,0.5848655104637146,-0.7269666790962219,0.6721867918968201
1772480022814803500,5.130803466796875,0.5439553260803223,-0.7056166529655457,0.6559681296348572
1772480022824801300,5.14080126953125,0.5115793943405151,-0.6822549700737,0.6323041319847107
1772480022834799400,5.15079931640625,0.5048373341560364,-0.6786746382713318,0.6011565923690796
1772480022844797200,5.160797119140625,0.5042112469673157,-0.6640180945396423,0.5595982074737549
1772480022854795300,5.170795166015625,0.5323333740234375,-0.6290950179100037,0.4948391914367676
1772480022864793300,5.18079345703125,0.5696331858634949,-0.617457389831543,0.4367230534553528
1772480022874790100,5.1907900390625,0.6166192889213562,-0.5586185455322266,0.3692670464515686
1772480022884788200,5.200788330078125,0.6735541820526123,-0.49184125661849976,0.3109983801841736
1772480022894786300,5.210786376953125,0.732525110244751,-0.4498160481452942,0.2634817361831665
1772480022904784100,5.2207841796875,0.7640897631645203,-0.43138355016708374,0.2419145554304123
1772480022914782200,5.2307822265625,0.7791432738304138,-0.414702832698822,0.24662302434444427
1772480022924780300,5.2407802734375,0.7540830373764038,-0.4026927351951599,0.24186871945858002
1772480022934778000,5.250778076171875,0.7218343019485474,-0.43116962909698486,0.2396758794784546
1772480022944776200,5.260776123046875,0.664726972579956,-0.43325522541999817,0.25543490052223206
1772480022954774000,5.27077392578125,0.593224287033081,-0.42973825335502625,0.27369675040245056
1772480022964771300,5.280771240234375,0.5161925554275513,-0.42326435446739197,0.2992522418498993
1772480022974769400,5.290769287109375,0.4454967975616455,-0.42605987191200256,0.3026251196861267
1772480022984767200,5.300767333984375,0.3885623514652252,-0.3992384672164917,0.30860283970832825
1772480022994765300,5.310765380859375,0.33886510133743286,-0.39717960357666016,0.3057103753089905
1772480023004763400,5.320763427734375,0.3116540312767029,-0.3509877324104309,0.26218366622924805
1772480023014761200,5.33076123046875,0.30055344104766846,-0.3231547772884369,0.2037392407655716
1772480023024759300,5.34075927734375,0.3142740726470947,-0.36794620752334595,0.1446722000837326
1772480023034757000,5.350757080078125,0.3200688362121582,-0.4013582170009613,0.10196387767791748
1772480023044755200,5.360755126953125,0.3012324273586273,-0.43823832273483276,0.08198098838329315
1772480023054752300,5.370752197265625,0.28063926100730896,-0.42294085025787354,0.08214396983385086
1772480023064750000,5.38075,0.2313385009765625,-0.3705681264400482,0.08150674402713776
1772480023074748200,5.390748046875,0.1634736955165863,-0.31426411867141724,0.07443711906671524
1772480023084746200,5.400746337890625,0.08361534774303436,-0.27599021792411804,0.06077011302113533
1772480023094744300,5.410744384765625,0.020755689591169357,-0.28960058093070984,0.02122243493795395
1772480023104742400,5.420742431640625,-0.02552509307861328,-0.3161933720111847,-0.03418629989027977
1772480023114740700,5.43074072265625,-0.06577104330062866,-0.3664437532424927,-0.11188189685344696
1772480023124738800,5.44073876953125,-0.0885222852230072,-0.4756092131137848,-0.22399744391441345
1772480023134737000,5.45073681640625,-0.06781381368637085,-0.5506083965301514,-0.3539980351924896
1772480023144734000,5.46073388671875,-0.04013696312904358,-0.5907912850379944,-0.46432507038116455
1772480023154731800,5.470731689453125,-0.00367775559425354,-0.5173847079277039,-0.5320359468460083
1772480023164729900,5.480729736328125,0.05424133315682411,-0.4158487021923065,-0.5614607930183411
1772480023174728000,5.49072802734375,0.1045612320303917,-0.3796217441558838,-0.5455042123794556
1772480023184725800,5.500725830078125,0.14025966823101044,-0.33354365825653076,-0.47385847568511963
1772480023194723800,5.510723876953125,0.13778559863567352,-0.2495986968278885,-0.34703367948532104
1772480023204722000,5.520721923828125,0.11864067614078522,-0.13077428936958313,-0.17664261162281036
1772480023214719700,5.5307197265625,0.07801921665668488,-0.0018695802427828312,-0.011874968186020851
1772480023224717800,5.5407177734375,0.050662580877542496,0.10405437648296356,0.15045404434204102
1772480023234714600,5.550714599609375,-0.0005406849086284637,0.09197614341974258,0.29918015003204346
1772480023244712700,5.560712646484375,-0.0704430416226387,0.046654582023620605,0.42351529002189636
1772480023254711000,5.5707109375,-0.16888199746608734,-0.052157483994960785,0.5087553262710571
1772480023264708900,5.580708984375,-0.3032379746437073,-0.20088422298431396,0.538913369178772
1772480023274707000,5.59070703125,-0.45002317428588867,-0.3206854462623596,0.5395349860191345
1772480023284705000,5.600705078125,-0.5791808366775513,-0.39464691281318665,0.500166118144989
1772480023294702800,5.610702880859375,-0.6856998205184937,-0.4347197711467743,0.4283556044101715
1772480023304701000,5.620700927734375,-0.7800568342208862,-0.43777355551719666,0.3473357558250427
1772480023314699000,5.630698974609375,-0.8511664271354675,-0.3786250054836273,0.2521594166755676
1772480023324695800,5.64069580078125,-0.8601141571998596,-0.2728825807571411,0.15396744012832642
1772480023334694000,5.65069384765625,-0.792468786239624,-0.11418429762125015,0.05976370349526405
1772480023344691700,5.660691650390625,-0.6803558468818665,0.04826986417174339,-0.026141617447137833
1772480023354689800,5.670689697265625,-0.5363485813140869,0.17564831674098969,-0.09808691591024399
1772480023364688000,5.68068798828125,-0.37234026193618774,0.3337205648422241,-0.15031802654266357
1772480023374685700,5.690685791015625,-0.21598850190639496,0.41423457860946655,-0.17927244305610657
1772480023384683800,5.700683837890625,-0.10122048109769821,0.4801027178764343,-0.18430255353450775
1772480023394681900,5.710681884765625,-0.05098261684179306,0.4745556116104126,-0.1271340698003769
1772480023404679700,5.7206796875,-0.012043753638863564,0.42048829793930054,-0.041500870138406754
1772480023414677800,5.730677734375,0.041741445660591125,0.459386944770813,0.06564848124980927
1772480023424674800,5.7406748046875,0.09747365117073059,0.5026218891143799,0.1865638792514801
1772480023434673000,5.7506728515625,0.1373441070318222,0.4531515836715698,0.29062265157699585
1772480023444671000,5.7606708984375,0.16382762789726257,0.3686228394508362,0.3645302653312683
1772480023454668800,5.770668701171875,0.1584637612104416,0.25231727957725525,0.3901972770690918
1772480023464667000,5.7806669921875,0.11681028455495834,0.12509529292583466,0.3462299704551697
1772480023474665000,5.7906650390625,0.0582210049033165,-0.026565341278910637,0.2480432242155075
1772480023484662800,5.800662841796875,-0.03141361474990845,-0.2566879987716675,0.0828130915760994
1772480023494660900,5.810660888671875,-0.07762371748685837,-0.4458470046520233,-0.11835703253746033
1772480023504657700,5.82065771484375,-0.07697442173957825,-0.5125374794006348,-0.283522367477417
1772480023514655700,5.83065576171875,-0.049399249255657196,-0.5261126756668091,-0.3779929578304291
1772480023524653800,5.84065380859375,-0.029063642024993896,-0.5147117972373962,-0.43781065940856934
1772480023534651600,5.850651611328125,0.011339175514876842,-0.45608100295066833,-0.4801408052444458
1772480023544649700,5.860649658203125,0.058930277824401855,-0.3675578534603119,-0.5296768546104431
1772480023554647800,5.870647705078125,0.08977420628070831,-0.30047255754470825,-0.5841646194458008
1772480023564646000,5.88064599609375,0.09705310314893723,-0.22879406809806824,-0.6147087216377258
1772480023574644000,5.89064404296875,0.10908180475234985,-0.1312749683856964,-0.6110426187515259
1772480023584642000,5.90064208984375,0.13899844884872437,-0.04632028937339783,-0.5668101906776428
1772480023594638800,5.910638916015625,0.18609459698200226,-0.021462079137563705,-0.46377116441726685
1772480023604637000,5.920636962890625,0.2492867112159729,-0.021993309259414673,-0.3110942542552948
1772480023614634800,5.930634765625,0.3083241879940033,-0.025556085631251335,-0.16868437826633453
1772480023624632800,5.9406328125,0.3530411124229431,-0.06449750810861588,-0.060074321925640106
1772480023634631000,5.950630859375,0.34860002994537354,-0.11195743083953857,0.01921677216887474
1772480023644628700,5.960628662109375,0.3297606408596039,-0.16030263900756836,0.085044264793396
1772480023654626800,5.970626708984375,0.29563888907432556,-0.20762301981449127,0.11129370331764221
1772480023664625000,5.980625,0.24305233359336853,-0.27119117975234985,0.10353601723909378
1772480023674622700,5.990622802734375,0.1604038029909134,-0.31049278378486633,0.08263952285051346
1772480023684619800,6.000619873046875,0.07408484816551208,-0.3328285813331604,0.036992039531469345
1772480023694617900,6.010617919921875,0.004513764753937721,-0.3709421455860138,-0.036666736006736755
1772480023704616000,6.020615966796875,-0.07305066287517548,-0.41346755623817444,-0.12324919551610947
1772480023714614000,6.030614013671875,-0.1307874470949173,-0.4297908544540405,-0.1715533435344696
1772480023724611800,6.04061181640625,-0.1851065307855606,-0.44321030378341675,-0.19248515367507935
1772480023734610000,6.05060986328125,-0.24202308058738708,-0.5045434236526489,-0.20374339818954468
1772480023744608000,6.06060791015625,-0.2805902063846588,-0.5698699951171875,-0.22509923577308655
1772480023754605800,6.070605712890625,-0.2923744320869446,-0.5755212306976318,-0.25173935294151306
1772480023764604000,6.08060400390625,-0.28965306282043457,-0.5095734000205994,-0.28497156500816345
1772480023774602000,6.09060205078125,-0.2815687656402588,-0.40577059984207153,-0.33971765637397766
1772480023784598800,6.100598876953125,-0.26217153668403625,-0.2726767659187317,-0.40482378005981445
1772480023794596900,6.110596923828125,-0.2291744500398636,-0.1051492914557457,-0.4175206422805786
1772480023804594700,6.1205947265625,-0.17320871353149414,0.05822316184639931,-0.33998745679855347
1772480023814592800,6.1305927734375,-0.09845272451639175,0.18846851587295532,-0.19863779842853546
1772480023824590800,6.1405908203125,-0.01094681303948164,0.31509900093078613,-0.050160568207502365
1772480023834588700,6.150588623046875,0.05763491243124008,0.41062018275260925,0.10597524046897888
1772480023844586800,6.160586669921875,0.12982754409313202,0.442560613155365,0.26712241768836975
1772480023854584800,6.170584716796875,0.20673537254333496,0.3436630666255951,0.47289636731147766
1772480023864582700,6.180582763671875,0.19887231290340424,0.24948494136333466,0.6431256532669067
1772480023874580000,6.190580078125,0.14208494126796722,0.07799812406301498,0.7411592602729797
1772480023884577800,6.200577880859375,0.045707911252975464,-0.10538042336702347,0.7552689909934998
1772480023894575900,6.210575927734375,-0.06754381209611893,-0.27336275577545166,0.6885837316513062
1772480023904574000,6.220573974609375,-0.16997142136096954,-0.38053593039512634,0.5897794365882874
1772480023914571800,6.23057177734375,-0.2674958407878876,-0.46037644147872925,0.487734317779541
1772480023924569900,6.24056982421875,-0.311947762966156,-0.522311270236969,0.39225441217422485
1772480023934568000,6.25056787109375,-0.30921056866645813,-0.5682013034820557,0.3084777593612671
1772480023944565800,6.260565673828125,-0.25891542434692383,-0.5832903981208801,0.22207245230674744
1772480023954563800,6.270563720703125,-0.17431452870368958,-0.5607177019119263,0.13077954947948456
1772480023964560600,6.280560546875,-0.04090902954339981,-0.4940286874771118,0.039520010352134705
1772480023974558700,6.290558837890625,0.13097378611564636,-0.40953749418258667,-0.06219702959060669
1772480023984556800,6.300556884765625,0.32336077094078064,-0.34508270025253296,-0.14388000965118408
1772480023994555000,6.310554931640625,0.5034855604171753,-0.35047268867492676,-0.195071280002594
1772480024004553000,6.320552978515625,0.6458480358123779,-0.33890300989151,-0.21409276127815247
1772480024014551000,6.330551025390625,0.7686287760734558,-0.294225811958313,-0.17571313679218292
1772480024024548900,6.340548828125,0.834226667881012,-0.25422579050064087,-0.05445434898138046
1772480024034547000,6.350546875,0.849837601184845,-0.25457945466041565,0.10906427353620529
1772480024044545000,6.360544921875,0.8066559433937073,-0.2729140520095825,0.2565698027610779
1772480024054542800,6.37054296875,0.7152005434036255,-0.3130319118499756,0.3834236264228821
1772480024064540000,6.380539794921875,0.5839495062828064,-0.36282670497894287,0.4689391255378723
1772480024074537700,6.390537841796875,0.4775375723838806,-0.4099891483783722,0.5138909220695496
1772480024084535800,6.400535888671875,0.4050317406654358,-0.44946587085723877,0.518047571182251
1772480024094534000,6.410533935546875,0.37000608444213867,-0.4975053071975708,0.48415911197662354
1772480024104531700,6.42053173828125,0.3581411838531494,-0.5439884066581726,0.4259994626045227
1772480024114530300,6.4305302734375,0.3526763916015625,-0.5469125509262085,0.3682171106338501
1772480024124528000,6.440528076171875,0.36196061968803406,-0.5279667973518372,0.2982158064842224
1772480024134526200,6.450526123046875,0.3664301931858063,-0.48377296328544617,0.222572460770607
1772480024144524300,6.460524169921875,0.3722965717315674,-0.3994904160499573,0.15694163739681244
1772480024154521300,6.470521240234375,0.3652612864971161,-0.3323425352573395,0.08480353653430939
1772480024164519400,6.48051953125,0.3604085147380829,-0.2583315670490265,0.011376792564988136
1772480024174517200,6.490517333984375,0.35033777356147766,-0.17081984877586365,-0.04691847041249275
1772480024184515300,6.500515380859375,0.32873398065567017,-0.11451277136802673,-0.09081266075372696
1772480024194513400,6.510513427734375,0.3074478805065155,-0.05252530053257942,-0.12427873909473419
1772480024204511200,6.52051123046875,0.2905043959617615,-0.0025149027351289988,-0.1500084400177002
1772480024214509300,6.53050927734375,0.26416015625,0.0317690335214138,-0.15434326231479645
1772480024224507400,6.54050732421875,0.22949570417404175,0.04839271306991577,-0.1373068243265152
1772480024234505200,6.550505126953125,0.19680699706077576,0.044206757098436356,-0.10848049819469452
1772480024244502300,6.560502197265625,0.1668402999639511,0.027274372056126595,-0.07184705138206482
1772480024254500000,6.5705,0.13054221868515015,0.004083831328898668,-0.036748986691236496
1772480024264498200,6.580498291015625,0.08972842991352081,-0.021795284003019333,-0.026737166568636894
1772480024274496300,6.590496337890625,0.05515021085739136,-0.06283672899007797,-0.03736796975135803
1772480024284494000,6.600494140625,0.02458256483078003,-0.09849850833415985,-0.0551999993622303
1772480024294492200,6.6104921875,-0.011355196125805378,-0.12494582682847977,-0.0724162682890892
1772480024304490200,6.620490234375,-0.042604830116033554,-0.1440546065568924,-0.09414716809988022
1772480024314488000,6.630488037109375,-0.0674838125705719,-0.16575032472610474,-0.11673450469970703
1772480024324486100,6.640486083984375,-0.08408764749765396,-0.16509301960468292,-0.12798166275024414
1772480024334484200,6.650484130859375,-0.10589466989040375,-0.1350698620080948,-0.13239797949790955
1772480024344481300,6.660481201171875,-0.13280193507671356,-0.08556340634822845,-0.14167314767837524
1772480024354479400,6.670479248046875,-0.16689519584178925,-0.051637135446071625,-0.17420445382595062
1772480024364477200,6.680477294921875,-0.20877885818481445,-0.06418204307556152,-0.2173544466495514
1772480024374475300,6.690475341796875,-0.2477550208568573,-0.09247200191020966,-0.26331233978271484
1772480024384473300,6.700473388671875,-0.2720696032047272,-0.12652428448200226,-0.3177611529827118
1772480024394471200,6.71047119140625,-0.2948276400566101,-0.18225759267807007,-0.3772718906402588
1772480024404469200,6.72046923828125,-0.3024619519710541,-0.2688419818878174,-0.4494023621082306
1772480024414467300,6.73046728515625,-0.2912447154521942,-0.3391345143318176,-0.5047559142112732
1772480024424465200,6.740465087890625,-0.26866352558135986,-0.37158551812171936,-0.5403728485107422
1772480024434462200,6.750462158203125,-0.23557668924331665,-0.3391175866127014,-0.557641327381134
1772480024444460000,6.7604599609375,-0.20017582178115845,-0.26017192006111145,-0.5374905467033386
1772480024454458000,6.7704580078125,-0.17116838693618774,-0.13493701815605164,-0.45672136545181274
1772480024464456200,6.780456298828125,-0.1481795608997345,0.014269974082708359,-0.32012277841567993
1772480024474454300,6.790454345703125,-0.1597488671541214,0.11862780153751373,-0.17494748532772064
1772480024484452400,6.800452392578125,-0.20052824914455414,0.19230042397975922,-0.048356082290410995
1772480024494450400,6.810450439453125,-0.22479523718357086,0.275674968957901,0.03989814594388008
1772480024504448300,6.8204482421875,-0.2234697937965393,0.348641037940979,0.11336611211299896
1772480024514446300,6.8304462890625,-0.2128155529499054,0.37835046648979187,0.18084369599819183
1772480024524443100,6.840443115234375,-0.21477879583835602,0.35710200667381287,0.23350240290164948
1772480024534441200,6.850441162109375,-0.20624762773513794,0.3257174491882324,0.29330259561538696
1772480024544439300,6.860439208984375,-0.19548669457435608,0.3109501302242279,0.370094895362854
1772480024554437000,6.87043701171875,-0.18977820873260498,0.24316151440143585,0.45207470655441284
1772480024564435200,6.880435302734375,-0.21785977482795715,0.11590094864368439,0.4997107982635498
1772480024574433300,6.890433349609375,-0.2690718173980713,-0.013814698904752731,0.4814241826534271
1772480024584431000,6.90043115234375,-0.30801746249198914,-0.08178038895130157,0.44065821170806885
1772480024594429200,6.91042919921875,-0.3280249834060669,-0.11850911378860474,0.39413437247276306
1772480024604427300,6.92042724609375,-0.31494268774986267,-0.11052777618169785,0.34647589921951294
1772480024614425000,6.930425048828125,-0.26489150524139404,-0.054675959050655365,0.2923191785812378
1772480024624422400,6.94042236328125,-0.17888958752155304,-0.016432395204901695,0.2239828258752823
1772480024634420200,6.950420166015625,-0.06878039240837097,0.00001182500272989273,0.15046386420726776
1772480024644418300,6.960418212890625,0.04619670659303665,0.019513655453920364,0.09370861947536469
1772480024654416400,6.97041650390625,0.16323810815811157,0.06266432255506516,0.08093184232711792
1772480024664414200,6.980414306640625,0.2466682344675064,0.11579079926013947,0.07463902235031128
1772480024674412300,6.990412353515625,0.29187431931495667,0.14226475358009338,0.08403412252664566
1772480024684410400,7.000410400390625,0.3106001913547516,0.1741155982017517,0.12667618691921234
1772480024694408200,7.010408203125,0.3104790151119232,0.19183599948883057,0.1863858550786972
1772480024704406300,7.02040625,0.29979148507118225,0.1831466406583786,0.2320345640182495
1772480024714403000,7.030403076171875,0.2739905118942261,0.13533811271190643,0.2494489848613739
1772480024724401200,7.040401123046875,0.2362164855003357,0.018247438594698906,0.2425852119922638
1772480024734399200,7.050399169921875,0.1811457723379135,-0.12880165874958038,0.2180420607328415
1772480024744397000,7.06039697265625,0.13345667719841003,-0.25811508297920227,0.18028365075588226
1772480024754395100,7.07039501953125,0.09997941553592682,-0.3898446261882782,0.1271975338459015
1772480024764393200,7.080393310546875,0.06603703647851944,-0.5313895344734192,0.07601993530988693
1772480024774391300,7.090391357421875,0.03582480549812317,-0.6692787408828735,0.03165140748023987
1772480024784389400,7.100389404296875,0.033693309873342514,-0.7538361549377441,-0.014715256169438362
1772480024794387500,7.110387451171875,0.049293309450149536,-0.7850111126899719,-0.05313561484217644
1772480024804384300,7.12038427734375,0.08529048413038254,-0.7687724828720093,-0.11403745412826538
1772480024814382300,7.13038232421875,0.1416536122560501,-0.7350336909294128,-0.1983747035264969
1772480024824380200,7.140380126953125,0.20704691112041473,-0.6800271272659302,-0.2566884160041809
1772480024834378200,7.150378173828125,0.26617977023124695,-0.6169765591621399,-0.2813548743724823
1772480024844376300,7.160376220703125,0.31633850932121277,-0.5200548768043518,-0.259306401014328
1772480024854374100,7.1703740234375,0.36962810158729553,-0.3945145606994629,-0.19552235305309296
1772480024864372200,7.180372314453125,0.3948023021221161,-0.32126596570014954,-0.09934093058109283
1772480024874370300,7.190370361328125,0.3980649411678314,-0.2594926357269287,0.012174410745501518
1772480024884368100,7.2003681640625,0.3707733750343323,-0.18072858452796936,0.13089171051979065
1772480024894366200,7.2103662109375,0.33299511671066284,-0.15479499101638794,0.24350374937057495
1772480024904363300,7.22036328125,0.28098002076148987,-0.18160296976566315,0.3294887840747833
1772480024914361300,7.230361328125,0.2154420018196106,-0.206810861825943,0.37374597787857056
1772480024924359400,7.240359375,0.14650900661945343,-0.23321209847927094,0.3629050552845001
1772480024934357200,7.250357177734375,0.07900586724281311,-0.29162588715553284,0.3138459026813507
1772480024944355300,7.260355224609375,0.02254282310605049,-0.35543587803840637,0.23708632588386536
1772480024954353400,7.270353515625,-0.01455980446189642,-0.4036843478679657,0.15484097599983215
1772480024964351200,7.280351318359375,-0.0407879464328289,-0.433357298374176,0.0683915764093399
1772480024974349300,7.290349365234375,-0.044047389179468155,-0.47173717617988586,-0.02317216247320175
1772480024984347400,7.300347412109375,-0.019416041672229767,-0.5034934282302856,-0.09121346473693848
1772480024994344200,7.31034423828125,0.017022129148244858,-0.5557869672775269,-0.1273200660943985
1772480025004342300,7.32034228515625,0.05057498812675476,-0.605503499507904,-0.17007824778556824
1772480025014340000,7.330340087890625,0.06473448872566223,-0.654671311378479,-0.19376812875270844
1772480025024338200,7.340338134765625,0.05540992319583893,-0.7128191590309143,-0.20311354100704193
1772480025034336300,7.350336181640625,0.027040334418416023,-0.7423815727233887,-0.18827413022518158
1772480025044334000,7.360333984375,-0.014831180684268475,-0.7484062910079956,-0.1812984198331833
1772480025054332200,7.370332275390625,-0.05014656111598015,-0.7323527336120605,-0.194959357380867
1772480025064330200,7.380330322265625,-0.06776588410139084,-0.7138785123825073,-0.22460271418094635
1772480025074328000,7.390328125,-0.07964624464511871,-0.6326979398727417,-0.2485290914773941
1772480025084325400,7.400325439453125,-0.06275434792041779,-0.4813501834869385,-0.26022088527679443
1772480025094323200,7.4103232421875,-0.028981760144233704,-0.34671419858932495,-0.27415287494659424
1772480025104321300,7.4203212890625,-0.009980812668800354,-0.26920175552368164,-0.274093896150589
1772480025114319400,7.4303193359375,0.005202933680266142,-0.1971755027770996,-0.23620030283927917
1772480025124317200,7.440317138671875,0.007734267972409725,-0.16222497820854187,-0.15931618213653564
1772480025134315300,7.450315185546875,0.006196026690304279,-0.13521572947502136,-0.06265648454427719
1772480025144313000,7.46031298828125,-0.010336490347981453,-0.12442426383495331,0.02727227285504341
1772480025154311200,7.470311279296875,-0.008591853082180023,-0.14002080261707306,0.07984200119972229
1772480025164309200,7.480309326171875,0.017258845269680023,-0.1631319373846054,0.1014011949300766
1772480025174307000,7.49030712890625,0.06708872318267822,-0.1909521222114563,0.10686307400465012
1772480025184304000,7.50030419921875,0.15741576254367828,-0.2001214325428009,0.13134460151195526
1772480025194302200,7.51030224609375,0.271699458360672,-0.21453605592250824,0.16242636740207672
1772480025204300300,7.52030029296875,0.3988039791584015,-0.22916151583194733,0.20556524395942688
1772480025214298400,7.53029833984375,0.5237997770309448,-0.30272895097732544,0.2724614441394806
1772480025224296200,7.540296142578125,0.606884241104126,-0.36402788758277893,0.32960739731788635
1772480025234294300,7.550294189453125,0.6170665621757507,-0.4293874502182007,0.3888603448867798
1772480025244292400,7.560292236328125,0.5852892398834229,-0.5393809080123901,0.44293853640556335
1772480025254290200,7.570290283203125,0.5148481130599976,-0.6301105618476868,0.4473002552986145
1772480025264288300,7.580288330078125,0.4134007692337036,-0.6738585233688354,0.4184490740299225
1772480025274285300,7.590285400390625,0.30509400367736816,-0.6836959719657898,0.38425567746162415
1772480025284283100,7.600283203125,0.21056871116161346,-0.7387891411781311,0.34638747572898865
1772480025294281200,7.61028125,0.17645041644573212,-0.7646652460098267,0.30329006910324097
1772480025304279300,7.620279296875,0.1932772696018219,-0.7888858914375305,0.28111639618873596
1772480025314277000,7.630277099609375,0.25760433077812195,-0.7790526747703552,0.2689838409423828
1772480025324275200,7.640275146484375,0.3215131163597107,-0.7983317375183105,0.2849355936050415
1772480025334273000,7.65027294921875,0.42730292677879333,-0.7729626893997192,0.3099117875099182
1772480025344271000,7.66027099609375,0.5403906106948853,-0.7228639721870422,0.3255794942378998
1772480025354269200,7.670269287109375,0.6188520789146423,-0.7060314416885376,0.3431273400783539
1772480025364266200,7.680266357421875,0.6836032867431641,-0.6748817563056946,0.3597070574760437
1772480025374264300,7.690264404296875,0.7292147278785706,-0.6323920488357544,0.39446502923965454
1772480025384262400,7.700262451171875,0.7472385168075562,-0.6054520010948181,0.44959887862205505
1772480025394260200,7.71026025390625,0.7483037710189819,-0.6000252366065979,0.5204216241836548
1772480025404258300,7.72025830078125,0.728142499923706,-0.6051925420761108,0.584245502948761
1772480025414256000,7.730256103515625,0.6832253932952881,-0.6801568269729614,0.6373808979988098
1772480025424254200,7.740254150390625,0.6520118713378906,-0.7529649138450623,0.6633816361427307
1772480025434252300,7.750252197265625,0.636813759803772,-0.7992618680000305,0.6788668632507324
1772480025444250000,7.76025,0.6337004899978638,-0.8453460931777954,0.694682240486145
1772480025454247200,7.7702470703125,0.6480781435966492,-0.8953868746757507,0.6978516578674316
1772480025464245200,7.780245361328125,0.6593250036239624,-0.9289645552635193,0.6748045086860657
1772480025474243000,7.7902431640625,0.678795337677002,-0.9664536118507385,0.639592707157135
1772480025484241200,7.8002412109375,0.6974582076072693,-0.9767159819602966,0.5952782034873962
1772480025494239000,7.810239013671875,0.7249305844306946,-0.9444469809532166,0.5389664769172668
1772480025504237000,7.820237060546875,0.7598978877067566,-0.9463368654251099,0.45787230134010315
1772480025514235100,7.830235107421875,0.7997558116912842,-0.9843875765800476,0.37043750286102295
1772480025524233200,7.840233154296875,0.8367596864700317,-0.9978960752487183,0.290170818567276
1772480025534231300,7.850231201171875,0.869616687297821,-0.9563550353050232,0.23178260028362274
1772480025544229400,7.8602294921875,0.8797470927238464,-0.9022019505500793,0.20748285949230194
1772480025554226200,7.87022607421875,0.867371141910553,-0.8595138788223267,0.2200641632080078
1772480025564224300,7.880224365234375,0.8525703549385071,-0.813170850276947,0.24823161959648132
1772480025574222300,7.890222412109375,0.8343968987464905,-0.7674992680549622,0.30743715167045593
1772480025584220200,7.90022021484375,0.7955644130706787,-0.7663521766662598,0.3888534605503082
1772480025594218200,7.91021826171875,0.7402843832969666,-0.7755712270736694,0.4619990587234497
1772480025604216000,7.920216064453125,0.6762211918830872,-0.8054569959640503,0.5079840421676636
1772480025614214100,7.930214111328125,0.6156129837036133,-0.81980961561203,0.4827662706375122
1772480025624212200,7.940212158203125,0.5390067100524902,-0.8718891143798828,0.4106184244155884
1772480025634210000,7.9502099609375,0.4670545160770416,-0.937404990196228,0.31032776832580566
1772480025644207400,7.960207275390625,0.4196909964084625,-0.9849669337272644,0.2223622351884842
1772480025654205400,7.970205322265625,0.4063008725643158,-1.0086206197738647,0.14302906394004822
1772480025664203300,7.980203369140625,0.432828426361084,-1.009710431098938,0.06815849244594574
1772480025674201300,7.990201416015625,0.46050453186035156,-1.033998727798462,0.03735290467739105
1772480025684199200,8.00019921875,0.49220842123031616,-1.0709444284439087,0.044853996485471725
1772480025694197200,8.010197265625,0.5312296152114868,-1.040213704109192,0.08304958045482635
1772480025704195300,8.0201953125,0.5592060685157776,-0.9805968403816223,0.1323847770690918
1772480025714193200,8.030193115234376,0.5575271844863892,-0.9306918382644653,0.1647309958934784
1772480025724191200,8.040191162109375,0.537316083908081,-0.8818670511245728,0.1881689876317978
1772480025734188300,8.050188232421876,0.4988030791282654,-0.8555342555046082,0.18678919970989227
1772480025744186000,8.06018603515625,0.47685056924819946,-0.8473188877105713,0.18387319147586823
1772480025754184200,8.07018408203125,0.48120376467704773,-0.8436210751533508,0.20681659877300262
1772480025764182300,8.080182373046876,0.5125278830528259,-0.8416762948036194,0.2607246935367584
1772480025774180000,8.09018017578125,0.5319047570228577,-0.8465184569358826,0.34175190329551697
1772480025784178200,8.10017822265625,0.5485967397689819,-0.8452308773994446,0.43418923020362854
1772480025794176000,8.110176025390626,0.5283530354499817,-0.7842937111854553,0.523481011390686
1772480025804174000,8.120174072265625,0.5063335299491882,-0.7531065940856934,0.6130201816558838
1772480025814172200,8.130172119140624,0.44599056243896484,-0.753430187702179,0.6718587279319763
1772480025824170200,8.140170166015626,0.36429136991500854,-0.7695433497428894,0.660473108291626
1772480025834167300,8.150167236328125,0.30298593640327454,-0.8553836941719055,0.5672864317893982
1772480025844165400,8.160165283203124,0.2359274923801422,-0.8845275640487671,0.4550403952598572
1772480025854163200,8.1701630859375,0.2215493619441986,-0.9341145157814026,0.37012892961502075
1772480025864161300,8.180161376953125,0.2246917337179184,-1.0113083124160767,0.3367425203323364
1772480025874159000,8.1901591796875,0.2703862488269806,-1.0375210046768188,0.3431825637817383
1772480025884157200,8.2001572265625,0.3425195515155792,-1.0436066389083862,0.35063111782073975
1772480025894155300,8.2101552734375,0.4161514341831207,-1.1052830219268799,0.3502766489982605
1772480025904153000,8.220153076171876,0.49204221367836,-1.1455457210540771,0.3563489317893982
1772480025914151200,8.230151123046875,0.5639670491218567,-1.14467191696167,0.37723156809806824
1772480025924148200,8.240148193359374,0.6126090288162231,-1.1843147277832031,0.3684995770454407
1772480025934146000,8.25014599609375,0.6294353604316711,-1.167083501815796,0.35306280851364136
1772480025944144100,8.26014404296875,0.6472507119178772,-1.1627346277236938,0.3297821879386902
1772480025954142200,8.27014208984375,0.6541032791137695,-1.1847131252288818,0.3046365976333618
1772480025964140300,8.280140380859375,0.6714367866516113,-1.2306673526763916,0.2833828330039978
1772480025974138400,8.290138427734375,0.6947175860404968,-1.2980471849441528,0.2674925625324249
1772480025984136200,8.30013623046875,0.7202461361885071,-1.3926423788070679,0.27208995819091797
1772480025994134300,8.31013427734375,0.7576426863670349,-1.4647270441055298,0.3269461989402771
1772480026004132400,8.32013232421875,0.8034907579421997,-1.5319026708602905,0.4155648648738861
1772480026014130200,8.330130126953126,0.855627179145813,-1.5915924310684204,0.5013028979301453
1772480026024127200,8.340127197265625,0.897453784942627,-1.6338292360305786,0.5518414974212646
1772480026034125300,8.350125244140624,0.9238649010658264,-1.657565712928772,0.5847365856170654
1772480026044123100,8.360123046875,0.9398431181907654,-1.6695417165756226,0.5956296920776367
1772480026054121200,8.370121337890625,0.9207197427749634,-1.7363688945770264,0.5794832110404968
1772480026064119000,8.380119140625,0.8826360702514648,-1.7433558702468872,0.5555034279823303
1772480026074117000,8.3901171875,0.8143539428710938,-1.7429571151733398,0.5075361728668213
1772480026084115200,8.400115234375,0.736322820186615,-1.8415238857269287,0.4429798126220703
1772480026094115300,8.410115234375,0.6678317785263062,-1.9520199298858643,0.36026644706726074
1772480026104113200,8.420113037109376,0.6242114305496216,-2.048464059829712,0.29403769969940186
1772480026114111200,8.430111328125,0.6154698729515076,-2.140868663787842,0.24994772672653198
1772480026124109000,8.440109130859375,0.6449630260467529,-2.2194511890411377,0.21867914497852325
1772480026134106000,8.450106201171875,0.6992470622062683,-2.3057732582092285,0.21203163266181946
1772480026144104000,8.46010400390625,0.7912128567695618,-2.3604090213775635,0.21461127698421478
1772480026154102000,8.47010205078125,0.9172935485839844,-2.365492820739746,0.23831287026405334
1772480026164100000,8.48010009765625,1.0496546030044556,-2.315284013748169,0.29332002997398376
1772480026174098000,8.490097900390625,1.1735352277755737,-2.234699249267578,0.36818069219589233
1772480026184096000,8.500095947265624,1.2760735750198364,-2.181459903717041,0.44941091537475586
1772480026194094000,8.510093994140625,1.3520853519439697,-2.1156797409057617,0.5364664793014526
1772480026204092000,8.520091796875,1.3953622579574585,-2.041966199874878,0.6054410338401794
1772480026214090000,8.530090087890626,1.4298282861709595,-2.007239818572998,0.630418062210083
1772480026224087000,8.540087158203125,1.4266782999038696,-2.0078039169311523,0.6302743554115295
1772480026234085000,8.550085205078124,1.3807960748672485,-2.0175387859344482,0.6232454180717468
1772480026244083200,8.560083251953126,1.3110647201538086,-2.0348494052886963,0.6106294393539429
1772480026254081000,8.5700810546875,1.2314372062683105,-2.089627981185913,0.6023102402687073
1772480026264079000,8.5800791015625,1.1619383096694946,-2.169661045074463,0.6030279397964478
1772480026274077200,8.5900771484375,1.1184754371643066,-2.2629287242889404,0.6108951568603516
1772480026284075000,8.600074951171875,1.0946234464645386,-2.3913769721984863,0.6268487572669983
1772480026294073000,8.610072998046874,1.07962965965271,-2.515286445617676,0.6494483351707458
1772480026304071200,8.6200712890625,1.0781924724578857,-2.5865206718444824,0.6534922122955322
1772480026314069000,8.630069091796875,1.0716859102249146,-2.6278767585754395,0.644158124923706
1772480026324066000,8.640066162109376,1.0601757764816284,-2.6348161697387695,0.6222113966941833
1772480026334064000,8.650064208984375,1.0495837926864624,-2.6101059913635254,0.5946524739265442
1772480026344062200,8.660062255859375,1.033813238143921,-2.5815188884735107,0.5764406323432922
1772480026354060300,8.670060302734376,1.0327421426773071,-2.5349016189575195,0.5634177923202515
1772480026364058000,8.68005810546875,1.0400209426879883,-2.4873714447021484,0.5540294647216797
1772480026374056200,8.69005615234375,1.059043049812317,-2.4565093517303467,0.5621382594108582
1772480026384054300,8.70005419921875,1.0933891534805298,-2.4445648193359375,0.5769765377044678
1772480026394052000,8.710052001953125,1.129475712776184,-2.426365852355957,0.5960652828216553
1772480026404050200,8.72005029296875,1.1701222658157349,-2.4147210121154785,0.6169607639312744
1772480026414047000,8.730046875,1.2099237442016602,-2.378519296646118,0.6358931660652161
1772480026424045000,8.740045166015625,1.221555233001709,-2.3305447101593018,0.6498388051986694
1772480026434043100,8.750043212890626,1.213936686515808,-2.2091736793518066,0.6806337237358093
1772480026444041000,8.760041015625,1.1767582893371582,-2.09232759475708,0.7253968715667725
1772480026454039000,8.7700390625,1.1285912990570068,-1.9704675674438477,0.7698333263397217
1772480026464037000,8.780037109375,1.0730035305023193,-1.8044196367263794,0.8030124306678772
1772480026474035000,8.790034912109375,1.0102604627609253,-1.6570754051208496,0.817458987236023
1772480026484033000,8.800032958984374,0.956442654132843,-1.524834394454956,0.8259580135345459
1772480026494031000,8.810031005859376,0.9183114767074585,-1.4451608657836914,0.8572490811347961
1772480026504028200,8.820028076171875,0.8962461352348328,-1.375861644744873,0.897625744342804
1772480026514026200,8.830026123046874,0.8743301630020142,-1.3330957889556885,0.9339355230331421
1772480026524024000,8.840024169921875,0.8353770971298218,-1.3273544311523438,0.9302793145179749
1772480026534022100,8.850022216796875,0.782751739025116,-1.350940227508545,0.8973754644393921
1772480026544020200,8.860020263671874,0.7106616497039795,-1.4230802059173584,0.8534452319145203
1772480026554018000,8.87001806640625,0.651087760925293,-1.4842989444732666,0.7930934429168701
1772480026564016000,8.88001611328125,0.6202878355979919,-1.4899886846542358,0.7109074592590332
1772480026574014200,8.89001416015625,0.5988802909851074,-1.4800478219985962,0.6478270292282104
1772480026584012000,8.900011962890625,0.5751221179962158,-1.4621365070343018,0.588498055934906
1772480026594009000,8.910009033203124,0.5726945996284485,-1.4155484437942505,0.5460525751113892
1772480026604007000,8.9200068359375,0.592795729637146,-1.3332605361938477,0.5223232507705688
1772480026614005000,8.9300048828125,0.6206247210502625,-1.2385969161987305,0.5089073181152344
1772480026624003000,8.940003173828124,0.6638383269309998,-1.1714091300964355,0.5092873573303223
1772480026634001000,8.9500009765625,0.7280229330062866,-1.0883281230926514,0.5260626077651978
1772480026643999000,8.9599990234375,0.7700431942939758,-1.0352153778076172,0.5657069087028503
1772480026653997000,8.9699970703125,0.7832795977592468,-0.9820160269737244,0.6029927730560303
1772480026663995100,8.9799951171875,0.7594848871231079,-0.9493948817253113,0.6310704946517944
1772480026673993200,8.9899931640625,0.7206282615661621,-0.9371914863586426,0.6602219939231873
1772480026683991300,8.9999912109375,0.6725069880485535,-0.9170743823051453,0.6762018799781799
1772480026693988000,9.009988037109375,0.6459494233131409,-0.8761112689971924,0.6640783548355103
1772480026703986200,9.019986083984374,0.6275694370269775,-0.8945055603981018,0.6125924587249756
1772480026713984000,9.02998388671875,0.6167618036270142,-0.9595265984535217,0.5373203158378601
1772480026723982000,9.039982177734375,0.636284589767456,-0.9881495833396912,0.45628029108047485
1772480026733980200,9.049980224609374,0.6708223223686218,-1.0377402305603027,0.3848596215248108
1772480026743978000,9.05997802734375,0.7048435807228088,-1.089125156402588,0.3273305594921112
1772480026753976000,9.06997607421875,0.7733196020126343,-1.0736899375915527,0.284123957157135
1772480026763974100,9.07997412109375,0.8105576038360596,-1.0984724760055542,0.2771274149417877
1772480026773972000,9.089971923828125,0.8444297909736633,-1.1088180541992188,0.2998782694339752
1772480026783969300,9.09996923828125,0.8927762508392334,-1.0679181814193726,0.33592116832733154
1772480026793967000,9.109967041015626,0.9213607907295227,-1.046736240386963,0.37630242109298706
1772480026803965200,9.119965087890625,0.9267672300338745,-1.0222151279449463,0.4274212419986725
1772480026813963300,9.12996337890625,0.9029875993728638,-1.0042134523391724,0.48705875873565674
1772480026823961000,9.139961181640626,0.8790109157562256,-0.9811180233955383,0.5240947604179382
1772480026833959200,9.149959228515625,0.8483930826187134,-0.9784111976623535,0.5460754632949829
1772480026843957200,9.159957275390624,0.8164985775947571,-0.9624958634376526,0.5500765442848206
1772480026853955000,9.169955078125,0.7771068811416626,-0.9439838528633118,0.5494014024734497
1772480026863953200,9.179953125,0.7201377153396606,-0.9311261177062988,0.5035727620124817
1772480026873950000,9.189949951171876,0.653081476688385,-0.9301466345787048,0.4319126605987549
1772480026883948000,9.199947998046875,0.5919604897499084,-0.9470561742782593,0.37527790665626526
1772480026893946000,9.209946044921875,0.5448006987571716,-0.9697087407112122,0.32695403695106506
1772480026903944000,9.21994384765625,0.5178362131118774,-0.9813150763511658,0.2847782373428345
1772480026913942000,9.22994189453125,0.504935622215271,-0.9881186485290527,0.2579095959663391
1772480026923940000,9.239940185546875,0.5013564229011536,-0.9706194996833801,0.23327594995498657
1772480026933938000,9.24993798828125,0.5138128399848938,-0.9647818803787231,0.1991264969110489
1772480026943936000,9.25993603515625,0.52129065990448,-0.9566439986228943,0.16375285387039185
1772480026953934000,9.26993408203125,0.5260406732559204,-0.9093254804611206,0.13159997761249542
1772480026963932200,9.27993212890625,0.5299863815307617,-0.8426514863967896,0.10948338359594345
1772480026973929200,9.28992919921875,0.5278611779212952,-0.7733970284461975,0.09598249197006226
1772480026983927000,9.299927001953124,0.5198578238487244,-0.7012503147125244,0.07999899983406067
1772480026993925000,9.309925048828125,0.5071931481361389,-0.631504476070404,0.0789254829287529
1772480027003923200,9.319923095703125,0.4849453568458557,-0.5726318359375,0.08705177903175354
1772480027013921000,9.329921142578126,0.4606171250343323,-0.5208269357681274,0.07955258339643478
1772480027023919000,9.339919189453125,0.4351910948753357,-0.48672157526016235,0.062482453882694244
1772480027033917200,9.349917236328125,0.4155934154987335,-0.46939077973365784,0.031372737139463425
1772480027043915000,9.3599150390625,0.3913663625717163,-0.47271519899368286,0.01814139075577259
1772480027053913000,9.3699130859375,0.374243825674057,-0.48572343587875366,0.0011027525179088116
1772480027063910000,9.379909912109374,0.360707551240921,-0.4957951009273529,-0.017055414617061615
1772480027073908000,9.389907958984375,0.33693885803222656,-0.5091117024421692,-0.04897100478410721
1772480027083906000,9.399906005859375,0.30933353304862976,-0.5093744397163391,-0.08289707452058792
1772480027093904100,9.409904052734374,0.27259257435798645,-0.5002051591873169,-0.1048087626695633
1772480027103902200,9.419902099609375,0.2277139276266098,-0.4872942268848419,-0.1199711412191391
1772480027113900300,9.429900390625,0.1831057071685791,-0.46855172514915466,-0.10191784054040909
1772480027123898400,9.4398984375,0.1365080326795578,-0.459023654460907,-0.06703805178403854
1772480027133896400,9.449896484375,0.10438739508390427,-0.4776444733142853,-0.0482340045273304
1772480027143894300,9.459894287109375,0.07487378269433975,-0.48270106315612793,-0.03617454692721367
1772480027153892400,9.469892333984374,0.03227412700653076,-0.4951968789100647,-0.04405749961733818
1772480027163889200,9.47988916015625,-0.009859064593911171,-0.5194083452224731,-0.07862020283937454
1772480027173887200,9.48988720703125,-0.051817167550325394,-0.5340269207954407,-0.13234762847423553
1772480027183885300,9.49988525390625,-0.08645792305469513,-0.5486465096473694,-0.2239842563867569
1772480027193883100,9.509883056640625,-0.11661956459283829,-0.5715126395225525,-0.34722205996513367
1772480027203881200,9.519881103515624,-0.15429608523845673,-0.617936909198761,-0.45704740285873413
1772480027213879300,9.52987939453125,-0.1891544610261917,-0.6144918203353882,-0.543186604976654
1772480027223877000,9.539877197265625,-0.1962108016014099,-0.5172222256660461,-0.5822755694389343
1772480027233875200,9.549875244140624,-0.18012849986553192,-0.406637966632843,-0.5883491635322571
1772480027243873300,9.559873291015625,-0.17488053441047668,-0.3363765478134155,-0.5511080026626587
1772480027253870300,9.569870361328125,-0.15815109014511108,-0.2621119022369385,-0.4775961935520172
1772480027263868400,9.579868408203126,-0.16097259521484375,-0.1550128012895584,-0.36403775215148926
1772480027273866200,9.5898662109375,-0.1717671900987625,-0.04980381950736046,-0.25935128331184387
1772480027283864300,9.5998642578125,-0.19609735906124115,0.04690518602728844,-0.2101847231388092
1772480027293862400,9.6098623046875,-0.22387732565402985,0.12373551726341248,-0.1647956669330597
1772480027303860200,9.619860107421875,-0.25089216232299805,0.17458149790763855,-0.08507267385721207
1772480027313858300,9.6298583984375,-0.2676287889480591,0.17907531559467316,0.009065273217856884
1772480027323856400,9.6398564453125,-0.2519357204437256,0.1844901293516159,0.09891409426927567
1772480027333854200,9.649854248046875,-0.2222292125225067,0.16549140214920044,0.1948811113834381
1772480027343851300,9.659851318359374,-0.20106880366802216,0.09634722769260406,0.26783329248428345
1772480027353849000,9.66984912109375,-0.18417423963546753,0.042977746576070786,0.3024549186229706
1772480027363847200,9.67984716796875,-0.17768491804599762,0.0039167264476418495,0.29310187697410583
1772480027373845200,9.68984521484375,-0.1838727742433548,-0.041276320815086365,0.25249186158180237
1772480027383843000,9.699843017578125,-0.1923106610774994,-0.0893385261297226,0.17704984545707703
1772480027393841200,9.709841064453125,-0.18190675973892212,-0.1279226690530777,0.09062761068344116
1772480027403839200,9.719839111328126,-0.16120463609695435,-0.1820017546415329,0.010009991936385632
1772480027413837300,9.72983740234375,-0.133696049451828,-0.21836642920970917,-0.07521888613700867
1772480027423835400,9.73983544921875,-0.09427673369646072,-0.23412275314331055,-0.1506342887878418
1772480027433833500,9.74983349609375,-0.042586639523506165,-0.2581617832183838,-0.20346421003341675
1772480027443830300,9.759830322265625,0.021590255200862885,-0.25666871666908264,-0.22241093218326569
1772480027453828400,9.769828369140624,0.09729406982660294,-0.20694881677627563,-0.2157418429851532
1772480027463826200,9.779826171875,0.17095711827278137,-0.13738730549812317,-0.19135348498821259
1772480027473824300,9.78982421875,0.22993521392345428,-0.04162776097655296,-0.1361197829246521
1772480027483822300,9.799822265625,0.2746824324131012,0.040783755481243134,-0.05182800814509392
1772480027493820200,9.809820068359375,0.3045305907726288,0.12421181052923203,0.0452284999191761
1772480027503818200,9.819818359375,0.32049116492271423,0.19360807538032532,0.13431280851364136
1772480027513816300,9.82981640625,0.3273940682411194,0.22154569625854492,0.21971212327480316
1772480027523814100,9.839814208984375,0.325873464345932,0.23294878005981445,0.3099113702774048
1772480027533811500,9.8498115234375,0.3206195831298828,0.2184995412826538,0.3720405399799347
1772480027543809300,9.859809326171876,0.2890123128890991,0.17808477580547333,0.3928525149822235
1772480027553807400,9.869807373046875,0.23109149932861328,0.1083056852221489,0.3622272312641144
1772480027563805400,9.879805419921874,0.15280741453170776,0.0007243291474878788,0.26325181126594543
1772480027573803300,9.88980322265625,0.06773486733436584,-0.10753609985113144,0.12487795948982239
1772480027583801300,9.89980126953125,-0.0123657351359725,-0.19995421171188354,-0.00772502925246954
1772480027593799400,9.90979931640625,-0.07009001821279526,-0.30312401056289673,-0.1150035485625267
1772480027603797200,9.91979736328125,-0.0968160554766655,-0.3771371841430664,-0.23942354321479797
1772480027613795300,9.92979541015625,-0.10376238077878952,-0.4454035758972168,-0.3395956754684448
1772480027623793400,9.93979345703125,-0.0799124538898468,-0.4990992844104767,-0.39083003997802734
1772480027633790200,9.949790283203125,-0.03574259579181671,-0.49346858263015747,-0.39849913120269775
1772480027643788300,9.959788330078124,0.026754338294267654,-0.45842936635017395,-0.3656961917877197
1772480027653786000,9.9697861328125,0.08128955960273743,-0.4194553792476654,-0.3226180374622345
1772480027663784200,9.9797841796875,0.13616661727428436,-0.369662880897522,-0.268410861492157
1772480027673782300,9.9897822265625,0.1867475062608719,-0.3146030902862549,-0.20383477210998535
1772480027683780000,9.999780029296875,0.22816334664821625,-0.23669777810573578,-0.13188666105270386
1772480027693778200,10.009778076171875,0.266676664352417,-0.1503378450870514,-0.06358935683965683
1772480027703776300,10.0197763671875,0.28133636713027954,-0.09284742921590805,0.011385450139641762
1772480027713774000,10.029774169921875,0.26563677191734314,-0.05396287888288498,0.07062320411205292
1772480027723771400,10.039771484375,0.22657300531864166,-0.05187469348311424,0.1213822215795517
1772480027733769200,10.049769287109376,0.17722968757152557,-0.09888294339179993,0.15254467725753784
1772480027743767300,10.059767333984375,0.13501912355422974,-0.11084693670272827,0.1792990118265152
1772480027753765400,10.069765380859375,0.09403999149799347,-0.1300850808620453,0.20619294047355652
1772480027763763200,10.07976318359375,0.04751744866371155,-0.17619329690933228,0.2009047120809555
1772480027773761300,10.08976123046875,0.004428833723068237,-0.24744297564029694,0.1643831878900528
1772480027783759400,10.09975927734375,-0.017600562423467636,-0.31024032831192017,0.1178518757224083
1772480027793757200,10.109757080078126,-0.022428341209888458,-0.3638870418071747,0.07579603046178818
1772480027803755300,10.11975537109375,-0.011555458419024944,-0.408061146736145,0.042466871440410614
1772480027813752000,10.129751953125,-0.0012213289737701416,-0.44234827160835266,0.0003867950290441513
1772480027823750100,10.139750244140625,0.003639988601207733,-0.4720095098018646,-0.05102492868900299
1772480027833748200,10.149748291015625,0.0018929550424218178,-0.46951013803482056,-0.10365457832813263
1772480027843746300,10.159746337890626,-0.01878618448972702,-0.4486819803714752,-0.13335222005844116
1772480027853744400,10.169744384765625,-0.06648313254117966,-0.40230223536491394,-0.16191568970680237
1772480027863742500,10.179742431640625,-0.12487230449914932,-0.39243894815444946,-0.18382228910923004
1772480027873740300,10.189740234375,-0.18300911784172058,-0.3819889724254608,-0.18256740272045135
1772480027883738400,10.19973828125,-0.22055108845233917,-0.4027497172355652,-0.10823328793048859
1772480027893736400,10.209736328125,-0.2231341004371643,-0.38014933466911316,-0.06962651014328003
1772480027903734300,10.219734375,-0.18793313205242157,-0.34364452958106995,-0.028822654858231544
1772480027913731300,10.2297314453125,-0.11567596346139908,-0.23372438549995422,0.012026775628328323
1772480027923729200,10.239729248046874,-0.052871957421302795,-0.08103204518556595,0.04518279433250427
1772480027933727200,10.249727294921875,-0.03583572059869766,0.037590738385915756,0.0825490802526474
1772480027943725300,10.259725341796875,-0.04378519579768181,0.16230759024620056,0.1524181365966797
1772480027953723100,10.26972314453125,-0.06445638835430145,0.26715677976608276,0.22446303069591522
1772480027963721200,10.27972119140625,-0.08196520805358887,0.31894123554229736,0.3192746341228485
1772480027973719300,10.28971923828125,-0.1069166287779808,0.30765873193740845,0.40181398391723633
1772480027983717000,10.299717041015626,-0.15667539834976196,0.2670351564884186,0.4587090015411377
1772480027993715200,10.309715087890625,-0.18940964341163635,0.2389201521873474,0.46178415417671204
1772480028003712300,10.319712158203124,-0.2094680517911911,0.19744248688220978,0.4321649968624115
1772480028013710300,10.32971044921875,-0.18859365582466125,0.15750785171985626,0.3834483325481415
1772480028023708400,10.33970849609375,-0.1460370570421219,0.10990116000175476,0.3021317422389984
1772480028033706200,10.349706298828124,-0.07589711993932724,0.023857085034251213,0.2539927065372467
1772480028043704300,10.359704345703125,-0.010944643057882786,-0.036246925592422485,0.22967514395713806
1772480028053702400,10.369702392578125,0.01697700284421444,-0.09228143095970154,0.17551976442337036
1772480028063700200,10.3797001953125,-0.005163595080375671,-0.10475745797157288,0.07745914161205292
