time,seconds_elapsed,z,y,x
1772561432341620200,0.0846201171875,0.04426106810569763,0.8973593711853027,-0.6827927231788635
1772561432351650300,0.094650390625,-0.21616286039352417,0.931550145149231,-0.6444472074508667
1772561432361679400,0.104679443359375,-0.4204305112361908,0.9694588780403137,-0.4578331410884857
1772561432371709400,0.11470947265625,-0.44183602929115295,1.1597423553466797,-0.1499827653169632
1772561432381738500,0.124738525390625,-0.18348464369773865,1.4218839406967163,0.21151204407215118
1772561432391768300,0.134768310546875,0.3503079414367676,1.5282928943634033,0.5777624845504761
1772561432401797400,0.14479736328125,1.1408987045288086,1.4987211227416992,0.9397393465042114
1772561432411826400,0.154826416015625,1.8526420593261719,1.459725260734558,1.209687352180481
1772561432421856500,0.1648564453125,2.123667001724243,0.9833799600601196,1.1964216232299805
1772561432431885300,0.17488525390625,2.0279362201690674,0.6861295700073242,1.1215786933898926
1772561432441915400,0.184915283203125,1.6832202672958374,0.5597114562988281,1.1421478986740112
1772561432451944400,0.1949443359375,1.2220712900161743,0.2749244272708893,1.1268562078475952
1772561432461974300,0.204974365234375,0.8201486468315125,-0.12820865213871002,1.0274300575256348
1772561432472003300,0.21500341796875,0.6925255656242371,-0.16503402590751648,0.7303186058998108
1772561432482033200,0.225033203125,0.8005423545837402,0.15755999088287354,0.4131861925125122
1772561432492062200,0.235062255859375,0.9642055630683899,0.16157183051109314,0.4033735990524292
1772561432502092300,0.24509228515625,1.0950080156326294,-0.02111756056547165,0.4426078200340271
1772561432512121000,0.25512109375,1.1263153553009033,-0.03813626617193222,0.4819734990596771
1772561432522151200,0.265151123046875,1.1463972330093384,-0.12528155744075775,0.43676474690437317
1772561432532180200,0.27518017578125,1.1725963354110718,-0.27248048782348633,0.25060585141181946
1772561432542209300,0.285209228515625,1.200227975845337,-0.42738619446754456,-0.04424229636788368
1772561432552239400,0.2952392578125,1.1605321168899536,-0.5718691349029541,-0.3878666162490845
1772561432562268200,0.30526806640625,0.9502781629562378,-0.764732301235199,-0.7482212781906128
1772561432572298200,0.31529833984375,0.609755277633667,-0.9250435829162598,-1.0376207828521729
1772561432582327300,0.325327392578125,0.22909314930438995,-0.9300546050071716,-1.1932311058044434
1772561432592357400,0.335357421875,-0.13627280294895172,-0.8373764753341675,-1.2581974267959595
1772561432602386200,0.34538623046875,-0.427372008562088,-0.7296918630599976,-1.2685319185256958
1772561432612416300,0.355416259765625,-0.5992177724838257,-0.6099337339401245,-1.274571418762207
1772561432622445300,0.3654453125,-0.6547574996948242,-0.5660368800163269,-1.3007692098617554
1772561432632475400,0.375475341796875,-0.5895226001739502,-0.6363148093223572,-1.3347856998443604
1772561432642504200,0.385504150390625,-0.43818047642707825,-0.7996715307235718,-1.3373830318450928
1772561432652534300,0.3955341796875,-0.22448009252548218,-0.9978113770484924,-1.2745020389556885
1772561432662563300,0.405563232421875,0.014636080712080002,-1.1642647981643677,-1.160224199295044
1772561432672592400,0.41559228515625,0.24661698937416077,-1.3171709775924683,-1.0425498485565186
1772561432682622200,0.425622314453125,0.4732179343700409,-1.472427248954773,-0.9419369697570801
1772561432692651300,0.4356513671875,0.6739057898521423,-1.6843338012695312,-0.840859591960907
1772561432702681300,0.445681396484375,0.821872353553772,-1.9121792316436768,-0.7009738683700562
1772561432712710400,0.45571044921875,0.8922927379608154,-1.948075771331787,-0.5305342078208923
1772561432722740500,0.465740478515625,0.8691624402999878,-1.709582805633545,-0.29398348927497864
1772561432732769300,0.475769287109375,0.7585538625717163,-1.2776213884353638,-0.004838456399738789
1772561432742799400,0.48579931640625,0.590085506439209,-0.7652875185012817,0.2740107476711273
1772561432752828400,0.495828369140625,0.4042510986328125,-0.27540263533592224,0.511079728603363
1772561432762858500,0.5058583984375,0.2134140431880951,0.1320415586233139,0.6749858260154724
1772561432772887300,0.51588720703125,0.04145917296409607,0.46593838930130005,0.7584869861602783
1772561432782917400,0.52591748046875,-0.09450212121009827,0.712202787399292,0.7659909725189209
1772561432792946400,0.535946533203125,-0.1966305524110794,0.8027398586273193,0.7119337320327759
1772561432802975500,0.5459755859375,-0.2846512198448181,0.7244250774383545,0.6277661323547363
1772561432813005300,0.55600537109375,-0.3766728639602661,0.5355865359306335,0.5405529141426086
1772561432823034400,0.566034423828125,-0.4776386320590973,0.3189125061035156,0.480506956577301
1772561432833064200,0.576064208984375,-0.5566210746765137,0.17714738845825195,0.4535336494445801
1772561432843093500,0.586093505859375,-0.6141788959503174,0.19263899326324463,0.4633042514324188
1772561432853123300,0.596123291015625,-0.634403645992279,0.401244193315506,0.4904872179031372
1772561432863152400,0.60615234375,-0.6161367893218994,0.817454993724823,0.5140284895896912
1772561432873182200,0.61618212890625,-0.5914468169212341,1.3163975477218628,0.5163402557373047
1772561432883211300,0.626211181640625,-0.5994003415107727,1.7766149044036865,0.45144617557525635
1772561432893241300,0.636241455078125,-0.629747748374939,1.9932044744491577,0.31603458523750305
1772561432903270100,0.646270263671875,-0.6497102975845337,1.9745746850967407,0.08113072067499161
1772561432913300200,0.65630029296875,-0.6285274028778076,1.869199514389038,-0.22501888871192932
1772561432923329300,0.666329345703125,-0.5290902853012085,1.7700660228729248,-0.4968152642250061
1772561432933358000,0.676358154296875,-0.3330497145652771,1.5587844848632812,-0.629782497882843
1772561432943388200,0.68638818359375,-0.0852673351764679,0.9872286915779114,-0.636126697063446
1772561432953417200,0.696417236328125,0.19960623979568481,0.25129860639572144,-0.7167954444885254
1772561432963447300,0.706447265625,0.38964569568634033,-0.4977948069572449,-0.43306758999824524
1772561432973476400,0.716476318359375,0.4818984866142273,-0.7936183214187622,0.06899961829185486
1772561432983506400,0.72650634765625,0.3995961546897888,-0.6574799418449402,0.6863983869552612
1772561432993535500,0.736535400390625,0.22017253935337067,-0.3338624835014343,1.1273353099822998
1772561433003565600,0.746565673828125,0.031936850398778915,-0.23563151061534882,1.197385311126709
1772561433013594600,0.7565947265625,-0.06920609623193741,-0.31789353489875793,0.9177675247192383
1772561433023624400,0.76662451171875,-0.10498539358377457,-0.28445756435394287,0.46488285064697266
1772561433033653500,0.776653564453125,-0.10533525794744492,-0.14682143926620483,-0.0038206647150218487
1772561433043682600,0.7866826171875,-0.03678043559193611,-0.004402518272399902,-0.3638765811920166
1772561433053712600,0.796712646484375,0.04347793757915497,0.014844347722828388,-0.563724935054779
1772561433063741400,0.806741455078125,0.08629970252513885,-0.04803288355469704,-0.5328572988510132
1772561433073771500,0.816771484375,0.1108076423406601,-0.025849293917417526,-0.36846059560775757
1772561433083800600,0.826800537109375,0.15289916098117828,0.003599940799176693,-0.17653483152389526
1772561433093830700,0.83683056640625,0.23723354935646057,-0.08298790454864502,-0.008531366474926472
1772561433103859500,0.846859375,0.37463483214378357,-0.3389129042625427,0.14850404858589172
1772561433113889500,0.8568896484375,0.5189182162284851,-0.7356146574020386,0.2852817177772522
1772561433123918600,0.866918701171875,0.6260409355163574,-1.2427942752838135,0.4058470129966736
1772561433133948700,0.87694873046875,0.656002938747406,-1.6697546243667603,0.5007629990577698
1772561433143977500,0.8869775390625,0.5311065316200256,-1.7911441326141357,0.48638221621513367
1772561433154006500,0.897006591796875,0.2968704402446747,-1.6427397727966309,0.33159342408180237
1772561433164036600,0.90703662109375,0.09685878455638885,-1.366500735282898,0.06272440403699875
1772561433174065700,0.917065673828125,-0.044026583433151245,-1.0102070569992065,-0.2472805380821228
1772561433184095700,0.927095703125,-0.11676576733589172,-0.6614255905151367,-0.517823338508606
1772561433194124500,0.93712451171875,-0.0981004536151886,-0.3936850130558014,-0.6997987031936646
1772561433204154400,0.947154296875,0.0008626109920442104,-0.19674797356128693,-0.7631585001945496
1772561433214183700,0.95718359375,0.1533561646938324,-0.04057018458843231,-0.7435908317565918
1772561433224213500,0.967213623046875,0.3233090043067932,0.022525694221258163,-0.6748154759407043
1772561433234242600,0.97724267578125,0.4887319803237915,-0.00802166759967804,-0.5861077308654785
1772561433244272400,0.9872724609375,0.6122928261756897,-0.08686135709285736,-0.5075612664222717
1772561433254301400,0.997301513671875,0.6680405735969543,-0.2562369406223297,-0.44962403178215027
1772561433264331500,1.00733154296875,0.6480047702789307,-0.4907767176628113,-0.39337673783302307
1772561433274360300,1.0173603515625,0.5758968591690063,-0.6374372839927673,-0.2783689498901367
1772561433284389400,1.027389404296875,0.4815053641796112,-0.6091545224189758,-0.0733223482966423
1772561433294419500,1.03741943359375,0.3744562864303589,-0.4517679512500763,0.1902088075876236
1772561433304448500,1.047448486328125,0.27534645795822144,-0.259501576423645,0.4393685460090637
1772561433314478600,1.057478515625,0.21597616374492645,-0.12079108506441116,0.643856406211853
1772561433324507400,1.06750732421875,0.2074684351682663,-0.024397702887654305,0.8120342493057251
1772561433334537500,1.077537353515625,0.22620263695716858,0.04814489930868149,0.940648078918457
1772561433344566500,1.08756640625,0.23091590404510498,0.11505682021379471,1.0248380899429321
1772561433354596600,1.0975966796875,0.1990976482629776,0.1729753315448761,1.0670796632766724
1772561433364625400,1.10762548828125,0.1293686330318451,0.2043209969997406,1.0583841800689697
1772561433374655500,1.117655517578125,0.05063309520483017,0.19682541489601135,0.9889442324638367
1772561433384684500,1.1276845703125,-0.02776850201189518,0.21194978058338165,0.8619915843009949
1772561433394713300,1.13771337890625,-0.09069135785102844,0.29307374358177185,0.7248210310935974
1772561433404743400,1.147743408203125,-0.13539545238018036,0.3918634355068207,0.6186831593513489
1772561433414772500,1.1577724609375,-0.161612868309021,0.5184983015060425,0.5646988153457642
1772561433424802600,1.167802490234375,-0.19788537919521332,0.6957034468650818,0.5581806898117065
1772561433434831600,1.17783154296875,-0.2809048593044281,0.9580788016319275,0.557529628276825
1772561433444861400,1.187861328125,-0.4200153648853302,1.3057217597961426,0.5318940281867981
1772561433454890500,1.197890380859375,-0.6473315358161926,1.7401143312454224,0.4157905578613281
1772561433464920600,1.207920654296875,-0.8985751867294312,2.197155237197876,0.16489043831825256
1772561433474949600,1.21794970703125,-1.1110780239105225,2.5111777782440186,-0.24471397697925568
1772561433484979700,1.227979736328125,-1.2716301679611206,2.669137716293335,-0.7592350840568542
1772561433495008500,1.238008544921875,-1.3627275228500366,2.5669384002685547,-1.2327758073806763
1772561433505037600,1.24803759765625,-1.3821907043457031,2.3551578521728516,-1.458396315574646
1772561433515067600,1.258067626953125,-1.3756953477859497,2.119338035583496,-1.349482536315918
1772561433525096400,1.268096435546875,-1.35708749294281,1.7966687679290771,-1.017217755317688
1772561433535126500,1.27812646484375,-1.3375940322875977,1.3247884511947632,-0.6511545181274414
1772561433545155600,1.288155517578125,-1.3709841966629028,0.8806257247924805,-0.4059346616268158
1772561433555185700,1.298185546875,-1.4542121887207031,0.6852299571037292,-0.31989073753356934
1772561433565214700,1.308214599609375,-1.4801026582717896,0.6682576537132263,-0.4379846155643463
1772561433575244500,1.31824462890625,-1.4081312417984009,0.4755684435367584,-0.6918440461158752
1772561433585273600,1.328273681640625,-1.2911497354507446,-0.029824692755937576,-0.9223542213439941
1772561433595303400,1.338303466796875,-1.125583529472351,-0.8902467489242554,-0.9687893390655518
1772561433605332700,1.348332763671875,-0.931239664554596,-1.8905189037322998,-0.745514452457428
1772561433615362300,1.3583623046875,-0.6952991485595703,-2.620424270629883,-0.2338736355304718
1772561433625391400,1.368391357421875,-0.47689250111579895,-2.83548641204834,0.4131828844547272
1772561433635420700,1.378420654296875,-0.26078909635543823,-2.6730446815490723,0.8674996495246887
1772561433645450500,1.388450439453125,0.00039004115387797356,-2.3710744380950928,1.048000693321228
1772561433655479600,1.3984794921875,0.24011659622192383,-2.084310531616211,0.9125263690948486
1772561433665509400,1.40850927734375,0.3892744183540344,-1.8175374269485474,0.536001980304718
1772561433675538400,1.418538330078125,0.4717005789279938,-1.5162532329559326,0.09328880161046982
1772561433685568500,1.428568603515625,0.47907644510269165,-1.296211838722229,-0.28959280252456665
1772561433695597300,1.438597412109375,0.443086177110672,-1.2480443716049194,-0.5464187860488892
1772561433705627400,1.44862744140625,0.4008670747280121,-1.3652287721633911,-0.6485880613327026
1772561433715656400,1.458656494140625,0.37074822187423706,-1.59220552444458,-0.5806677937507629
1772561433725686500,1.4686865234375,0.32713228464126587,-1.8280489444732666,-0.3594842553138733
1772561433735715600,1.478715576171875,0.24502938985824585,-2.0171632766723633,-0.009127708151936531
1772561433745744400,1.488744384765625,0.14771243929862976,-2.0775458812713623,0.3994731307029724
1772561433755774500,1.4987744140625,0.06263857334852219,-2.004060983657837,0.7957069277763367
1772561433765803500,1.508803466796875,0.0342644602060318,-1.7998197078704834,1.1285700798034668
1772561433775833600,1.51883349609375,0.07144369184970856,-1.4999381303787231,1.3668514490127563
1772561433785862400,1.5288623046875,0.16483169794082642,-1.1231119632720947,1.4601837396621704
1772561433795892500,1.538892578125,0.2573810815811157,-0.738035261631012,1.3406788110733032
1772561433805921500,1.548921630859375,0.332109659910202,-0.33559751510620117,1.0669513940811157
1772561433815951600,1.55895166015625,0.3381747603416443,0.06838156282901764,0.7030882239341736
1772561433825980400,1.56898046875,0.2875555157661438,0.48883023858070374,0.32196590304374695
1772561433836010500,1.579010498046875,0.21161696314811707,0.7867321372032166,-0.018840307369828224
1772561433846039600,1.58903955078125,0.12115951627492905,0.952720046043396,-0.2627168893814087
1772561433856068600,1.599068603515625,0.03378138318657875,1.1055797338485718,-0.3523865044116974
1772561433866098400,1.609098388671875,-0.03143277391791344,1.2108941078186035,-0.31729164719581604
1772561433876127500,1.61912744140625,-0.0743587538599968,1.2706718444824219,-0.16814018785953522
1772561433886157600,1.629157470703125,-0.10988452285528183,1.2979055643081665,0.019354086369276047
1772561433896186600,1.6391865234375,-0.1320142149925232,1.2821253538131714,0.19417019188404083
1772561433906216700,1.649216796875,-0.134028360247612,1.2219935655593872,0.32512715458869934
1772561433916245500,1.65924560546875,-0.12072063982486725,1.109999656677246,0.3984321057796478
1772561433926275600,1.669275634765625,-0.1288081258535385,0.9394900798797607,0.4140755236148834
1772561433936304600,1.6793046875,-0.16283950209617615,0.721266508102417,0.37777459621429443
1772561433946334700,1.689334716796875,-0.19883158802986145,0.5381196141242981,0.2955377995967865
1772561433956363500,1.699363525390625,-0.21428915858268738,0.4510698616504669,0.18636265397071838
1772561433966393300,1.709393310546875,-0.20243702828884125,0.5593939423561096,0.10198917984962463
1772561433976422700,1.719422607421875,-0.1608981192111969,0.8423881530761719,0.11932550370693207
1772561433986454300,1.729454345703125,-0.11493835598230362,1.1793121099472046,0.20737946033477783
1772561433996484400,1.739484375,-0.07083642482757568,1.4430687427520752,0.3692567050457001
1772561434006513400,1.749513427734375,-0.045798446983098984,1.5680711269378662,0.5781531929969788
1772561434016543500,1.75954345703125,-0.01686030998826027,1.6961085796356201,0.8286111950874329
1772561434026572300,1.769572265625,0.0025397534482181072,1.880911946296692,1.0545042753219604
1772561434036602400,1.779602294921875,-0.025867460295557976,2.043330669403076,1.111509919166565
1772561434046631400,1.78963134765625,-0.10573193430900574,2.0126662254333496,0.896849513053894
1772561434056661200,1.7996611328125,-0.15448449552059174,1.7087223529815674,0.49526211619377136
1772561434066690300,1.809690185546875,-0.11295489221811295,1.217719316482544,0.05089933052659035
1772561434076720000,1.81972021484375,-0.07520387321710587,0.2310478836297989,-0.4121444523334503
1772561434086749400,1.82974951171875,-0.13541048765182495,-0.9337106347084045,-0.8131110072135925
1772561434096778500,1.839778564453125,-0.26392748951911926,-1.82001531124115,-1.020716667175293
1772561434106808300,1.849808349609375,-0.4123116433620453,-2.2858052253723145,-1.0234498977661133
1772561434116837400,1.85983740234375,-0.6043989658355713,-2.1315243244171143,-0.8138114213943481
1772561434126867200,1.8698671875,-0.7864052653312683,-1.5181959867477417,-0.44116148352622986
1772561434136896300,1.879896240234375,-0.7750063538551331,-0.7131198048591614,0.03733058273792267
1772561434146926300,1.88992626953125,-0.5016794800758362,0.05652680620551109,0.4822840690612793
1772561434156955100,1.899955078125,-0.038941048085689545,0.6438188552856445,0.7839784622192383
1772561434166985200,1.909985107421875,0.40364623069763184,0.9683449864387512,0.9212609529495239
1772561434177014300,1.92001416015625,0.6884443163871765,1.094760537147522,0.8894999027252197
1772561434187044400,1.93004443359375,0.8141172528266907,0.9431795477867126,0.723090410232544
1772561434197073200,1.9400732421875,0.8003072738647461,0.5577807426452637,0.46316829323768616
1772561434207102200,1.950102294921875,0.6871204972267151,0.037442196160554886,0.15288925170898438
1772561434217132300,1.96013232421875,0.531060516834259,-0.5023921132087708,-0.1620764434337616
1772561434227161300,1.970161376953125,0.39593037962913513,-1.0216742753982544,-0.43758150935173035
1772561434237191200,1.980191162109375,0.28602373600006104,-1.440738558769226,-0.6680979132652283
1772561434247220200,1.99022021484375,0.21714401245117188,-1.7140105962753296,-0.8517809510231018
1772561434257250300,2.000250244140625,0.16198651492595673,-1.8164551258087158,-0.9663796424865723
1772561434267279400,2.010279296875,0.10709743201732635,-1.7453596591949463,-0.9966648817062378
1772561434277309400,2.020309326171875,0.05743375048041344,-1.5166341066360474,-0.9362161159515381
1772561434287338200,2.030338134765625,0.0336967296898365,-1.2127149105072021,-0.7999115586280823
1772561434297368300,2.040368408203125,0.06345219165086746,-0.9053210020065308,-0.6305694580078125
1772561434307397400,2.0503974609375,0.1420719027519226,-0.6408190131187439,-0.4683264195919037
1772561434317427500,2.060427490234375,0.20651845633983612,-0.43020153045654297,-0.3357264995574951
1772561434327456300,2.070456298828125,0.21103836596012115,-0.2251301407814026,-0.2523261606693268
1772561434337485300,2.0804853515625,0.15612709522247314,-0.028323784470558167,-0.21593105792999268
1772561434347515400,2.090515380859375,0.04068146273493767,0.16017049551010132,-0.2337912917137146
1772561434357544400,2.10054443359375,-0.09539490193128586,0.30900394916534424,-0.2546878755092621
1772561434367574300,2.11057421875,-0.21243177354335785,0.3770274817943573,-0.2355882227420807
1772561434377603300,2.120603271484375,-0.29878056049346924,0.41851523518562317,-0.1815122812986374
1772561434387633400,2.13063330078125,-0.3170943260192871,0.46805161237716675,-0.101612389087677
1772561434397662500,2.140662353515625,-0.2715187072753906,0.5285482406616211,0.008053434081375599
1772561434407692300,2.1506923828125,-0.17260438203811646,0.5941123366355896,0.16286033391952515
1772561434417721300,2.160721435546875,-0.0499417781829834,0.6619150638580322,0.3520687222480774
1772561434427751400,2.17075146484375,0.0638766661286354,0.7016624808311462,0.5491730570793152
1772561434437780500,2.180780517578125,0.15089580416679382,0.7020397782325745,0.7019614577293396
1772561434447809300,2.190809326171875,0.20601631700992584,0.6224783658981323,0.7802599668502808
1772561434457839400,2.20083935546875,0.22400103509426117,0.46445414423942566,0.7750332355499268
1772561434467868400,2.210868408203125,0.19360984861850739,0.2738197445869446,0.7047015428543091
1772561434477898200,2.220898193359375,0.11841046065092087,0.10661967098712921,0.6173983216285706
1772561434487927300,2.23092724609375,0.021448766812682152,-0.0027291905134916306,0.5228915214538574
1772561434497957000,2.24095703125,-0.0748923197388649,-0.04236166924238205,0.4555243253707886
1772561434507986400,2.250986328125,-0.155404731631279,-0.02137862518429756,0.4123377203941345
1772561434518016300,2.261016357421875,-0.24905672669410706,0.05457814410328865,0.3927175998687744
1772561434528045300,2.27104541015625,-0.31090331077575684,0.29449647665023804,0.4110124111175537
1772561434538075100,2.2810751953125,-0.3670356869697571,0.5341431498527527,0.41978129744529724
1772561434548104200,2.291104248046875,-0.46167802810668945,0.5745195746421814,0.41485604643821716
1772561434558134300,2.30113427734375,-0.5966601967811584,0.45496562123298645,0.4097921848297119
1772561434568163300,2.311163330078125,-0.7097750306129456,0.22543255984783173,0.4116729199886322
1772561434578192100,2.321192138671875,-0.7368884682655334,-0.002799391746520996,0.39398735761642456
1772561434588222200,2.33122216796875,-0.6331138610839844,-0.09477325528860092,0.3633384108543396
1772561434598251300,2.341251220703125,-0.34992489218711853,0.05310981720685959,0.41145241260528564
1772561434608281300,2.35128125,0.06523500382900238,0.1768682599067688,0.4946788549423218
1772561434618310100,2.36131005859375,0.42932066321372986,-0.41374513506889343,0.4812943637371063
1772561434628340200,2.37134033203125,0.46242693066596985,-1.432969093322754,0.32976874709129333
1772561434638369300,2.381369384765625,0.12075451761484146,-2.464869976043701,0.11154930293560028
1772561434648399400,2.3913994140625,-0.3047536313533783,-3.084711790084839,-0.030079467222094536
1772561434658428200,2.40142822265625,-0.5987061858177185,-3.1425139904022217,-0.018104786053299904
1772561434668458200,2.411458251953125,-0.7550145387649536,-2.2913475036621094,0.1897759735584259
1772561434678487300,2.4214873046875,-0.7251533269882202,-0.7822320461273193,0.4479586184024811
1772561434688516400,2.431516357421875,-0.4584595859050751,0.6936345100402832,0.5421248078346252
1772561434698546400,2.44154638671875,-0.08456451445817947,1.7624106407165527,0.3999074399471283
1772561434708575200,2.4515751953125,0.22614115476608276,2.3397090435028076,0.08638069033622742
1772561434718605300,2.461605224609375,0.4356326162815094,2.3865268230438232,-0.3459475636482239
1772561434728634400,2.47163427734375,0.49511194229125977,1.9327114820480347,-0.8207561373710632
1772561434738664400,2.48166455078125,0.3765340745449066,1.116752028465271,-1.2818796634674072
1772561434748693200,2.491693359375,0.13921420276165009,0.11923542618751526,-1.6492995023727417
1772561434758723300,2.501723388671875,-0.13932190835475922,-0.7945520877838135,-1.847195029258728
1772561434768752400,2.51175244140625,-0.3430843651294708,-1.442907452583313,-1.8910400867462158
1772561434778782500,2.521782470703125,-0.45840510725975037,-1.778053879737854,-1.7631863355636597
1772561434788811300,2.531811279296875,-0.48453977704048157,-1.7372443675994873,-1.475362777709961
1772561434798841300,2.54184130859375,-0.42263975739479065,-1.4275929927825928,-1.0972212553024292
1772561434808870400,2.551870361328125,-0.3392564356327057,-1.0084489583969116,-0.7283133268356323
1772561434818899500,2.5618994140625,-0.26334694027900696,-0.57442307472229,-0.4336729049682617
1772561434828929500,2.571929443359375,-0.21277032792568207,-0.16704411804676056,-0.25666776299476624
1772561434838958300,2.581958251953125,-0.18339186906814575,0.18381085991859436,-0.175835520029068
1772561434848988400,2.591988525390625,-0.15968547761440277,0.4155268967151642,-0.1928406059741974
1772561434859017500,2.602017578125,-0.14520646631717682,0.5177851319313049,-0.2939305603504181
1772561434869047300,2.61204736328125,-0.12666846811771393,0.5382824540138245,-0.4151613712310791
1772561434879076400,2.622076416015625,-0.09878867864608765,0.5140217542648315,-0.4901317059993744
1772561434889106200,2.632106201171875,-0.06481100618839264,0.44210943579673767,-0.48817136883735657
1772561434899135200,2.64213525390625,-0.026571761816740036,0.3172818720340729,-0.3795689344406128
1772561434909165300,2.652165283203125,0.01329442672431469,0.23074857890605927,-0.13422682881355286
1772561434919194000,2.662194091796875,0.07059137523174286,0.19634543359279633,0.22481708228588104
1772561434929224200,2.67222412109375,0.11564487218856812,0.2495117336511612,0.6524251103401184
1772561434939253200,2.682253173828125,0.1455882489681244,0.3723585307598114,1.0914368629455566
1772561434949282300,2.6922822265625,0.17247925698757172,0.5384953022003174,1.483285665512085
1772561434959312100,2.70231201171875,0.18383844196796417,0.6597580909729004,1.787571907043457
1772561434969341200,2.712341064453125,0.1679478883743286,0.7043050527572632,1.9897851943969727
1772561434979371300,2.722371337890625,0.14822086691856384,0.6718747019767761,2.0986461639404297
1772561434989396700,2.732396728515625,0.14023616909980774,0.5789897441864014,2.1355574131011963
1772561434999426800,2.7424267578125,0.12841244041919708,0.44302886724472046,2.132798671722412
1772561435009455600,2.75245556640625,0.07688585668802261,0.28452789783477783,2.115926504135132
1772561435019485700,2.762485595703125,-0.007999520748853683,0.12041876465082169,2.082156181335449
1772561435029514800,2.7725146484375,-0.11417070031166077,-0.02738400548696518,2.0225436687469482
1772561435039544800,2.782544921875,-0.2149094194173813,-0.07826346158981323,1.9400218725204468
1772561435049573600,2.79257373046875,-0.2884232997894287,0.07299503684043884,1.8489329814910889
1772561435059602700,2.802602783203125,-0.33772221207618713,0.3561329245567322,1.7639981508255005
1772561435069632800,2.8126328125,-0.35460638999938965,0.7599112391471863,1.651595950126648
1772561435079661800,2.822661865234375,-0.31956180930137634,1.2179464101791382,1.5004377365112305
1772561435089692000,2.83269189453125,-0.26101672649383545,1.6472724676132202,1.2987792491912842
1772561435099720700,2.842720703125,-0.15605095028877258,2.025768995285034,1.018140196800232
1772561435109750800,2.852750732421875,0.012150038033723831,2.2581446170806885,0.6268900632858276
1772561435119779800,2.86277978515625,0.1823527067899704,2.27018141746521,0.08587507903575897
1772561435129810000,2.872809814453125,0.3359798192977905,1.9989478588104248,-0.561750054359436
1772561435139838700,2.882838623046875,0.47416868805885315,1.3858762979507446,-1.1771659851074219
1772561435149868800,2.892868896484375,0.5164834260940552,0.6278967261314392,-1.6219229698181152
1772561435159897900,2.90289794921875,0.2911239266395569,-0.12455333769321442,-1.8087077140808105
1772561435169928000,2.912927978515625,-0.22664040327072144,-0.5522162914276123,-1.6924208402633667
1772561435179956700,2.922956787109375,-0.8822874426841736,-0.36188599467277527,-1.2570637464523315
1772561435189985800,2.93298583984375,-1.3958455324172974,0.09820998460054398,-0.7033255100250244
1772561435200016000,2.943015869140625,-1.5439690351486206,0.36887502670288086,-0.31202375888824463
1772561435210045000,2.953044921875,-1.3135749101638794,0.3726508617401123,-0.2414771467447281
1772561435220074800,2.96307470703125,-0.8808318376541138,0.2551383674144745,-0.4243296682834625
1772561435230103800,2.973103759765625,-0.4299999475479126,0.15740461647510529,-0.6916310787200928
1772561435240134000,2.9831337890625,-0.058904338628053665,0.08572322130203247,-0.8630011677742004
1772561435250163000,2.993162841796875,0.17610017955303192,0.06962121278047562,-0.8569661974906921
1772561435260192800,3.00319287109375,0.24521268904209137,0.22856256365776062,-0.7261683344841003
1772561435270221800,3.013221923828125,0.11152122169733047,0.5289971828460693,-0.6302407383918762
1772561435280251600,3.023251708984375,-0.14787307381629944,0.8522216081619263,-0.6705055832862854
1772561435290280700,3.03328076171875,-0.4293139576911926,0.9931487441062927,-0.850640594959259
1772561435300310800,3.043310791015625,-0.6676962971687317,0.8986852765083313,-1.1035926342010498
1772561435310339600,3.053339599609375,-0.846007227897644,0.6351873278617859,-1.3265266418457031
1772561435320368600,3.06336865234375,-0.9917755722999573,0.22757036983966827,-1.4457279443740845
1772561435330398700,3.073398681640625,-1.1055514812469482,-0.25700056552886963,-1.452470302581787
1772561435340427800,3.083427734375,-1.1231436729431152,-0.743111252784729,-1.3645734786987305
1772561435350457600,3.09345751953125,-0.9902833104133606,-1.1925162076950073,-1.2420544624328613
1772561435360486700,3.103486572265625,-0.7345565557479858,-1.5943098068237305,-1.1267410516738892
1772561435370516700,3.113516845703125,-0.40574511885643005,-1.7998707294464111,-0.9936420917510986
1772561435380545800,3.1235458984375,-0.05421428009867668,-1.708453893661499,-0.7573899030685425
1772561435390575900,3.133575927734375,0.28752896189689636,-1.3831758499145508,-0.43043360114097595
1772561435400604700,3.143604736328125,0.5768694281578064,-0.957428514957428,-0.047776564955711365
1772561435410634800,3.153634765625,0.7239920496940613,-0.5351574420928955,0.29549291729927063
1772561435420663800,3.163663818359375,0.7035315036773682,-0.1798517256975174,0.571393609046936
1772561435430694000,3.17369384765625,0.5835806131362915,0.08913153409957886,0.7660565972328186
1772561435440722700,3.18372265625,0.4536035656929016,0.2638291120529175,0.8910968899726868
1772561435450751700,3.193751708984375,0.34841322898864746,0.31569576263427734,0.9461295008659363
1772561435460781800,3.20378173828125,0.2802337408065796,0.2363063246011734,0.9565229415893555
1772561435470810600,3.213810546875,0.24663101136684418,0.07518374919891357,0.9527285099029541
1772561435480840700,3.2238408203125,0.22220976650714874,-0.13876716792583466,0.9400337338447571
1772561435490869800,3.233869873046875,0.1993822157382965,-0.3535015881061554,0.948033332824707
1772561435500899800,3.24389990234375,0.16962014138698578,-0.4664570093154907,0.9687563180923462
1772561435510929000,3.253928955078125,0.10319611430168152,-0.5136511325836182,1.0131081342697144
1772561435520958700,3.263958740234375,-0.043796561658382416,-0.46031638979911804,1.0945273637771606
1772561435530987800,3.27398779296875,-0.272806853055954,-0.4020887613296509,1.2188208103179932
1772561435541017900,3.284017822265625,-0.5292882919311523,-0.33470678329467773,1.385303020477295
1772561435551047000,3.294046875,-0.7327207922935486,-0.289700984954834,1.5395901203155518
1772561435561075700,3.30407568359375,-0.840015172958374,-0.2808016836643219,1.6577783823013306
1772561435571105800,3.314105712890625,-0.8408268690109253,-0.2589310109615326,1.718873381614685
1772561435581134800,3.324134765625,-0.767101526260376,-0.21734441816806793,1.6961590051651
1772561435591165000,3.3341650390625,-0.6426301598548889,-0.15811705589294434,1.5788172483444214
1772561435601193700,3.34419384765625,-0.5249358415603638,-0.09092473983764648,1.3752716779708862
1772561435611223800,3.354223876953125,-0.4607826769351959,-0.03542286902666092,1.1185373067855835
1772561435621252900,3.3642529296875,-0.4593396782875061,0.054910872131586075,0.8780660033226013
1772561435631282700,3.37428271484375,-0.5196810364723206,0.2960217595100403,0.6705487370491028
1772561435641312000,3.38431201171875,-0.5837233066558838,0.6531052589416504,0.5083752274513245
1772561435651341600,3.394341552734375,-0.5864677429199219,1.05766761302948,0.3713054656982422
1772561435661371000,3.404370849609375,-0.47585612535476685,1.474055290222168,0.26631009578704834
1772561435671400700,3.414400634765625,-0.24021776020526886,1.792890191078186,0.2020043134689331
1772561435681429800,3.4244296875,0.07168608903884888,1.8063766956329346,0.1743670552968979
1772561435691458800,3.434458740234375,0.42396077513694763,1.4520955085754395,0.1384332925081253
1772561435701488600,3.444488525390625,0.7612025141716003,0.780674397945404,0.06528879702091217
1772561435711517700,3.454517578125,0.9774352312088013,-0.22242408990859985,-0.0703585147857666
1772561435721547800,3.4645478515625,1.0080316066741943,-1.3553240299224854,-0.25902995467185974
1772561435731576600,3.47457666015625,0.7775139212608337,-2.3666036128997803,-0.41603636741638184
1772561435741606700,3.484606689453125,0.3370791971683502,-3.12636399269104,-0.48103922605514526
1772561435751635700,3.4946357421875,-0.10850653052330017,-3.5416152477264404,-0.5489431023597717
1772561435761665800,3.504665771484375,-0.4582825005054474,-3.3783133029937744,-0.657127320766449
1772561435771694600,3.514694580078125,-0.7271437644958496,-2.4425771236419678,-0.7720392346382141
1772561435781724700,3.524724609375,-0.8665809035301208,-1.0341668128967285,-0.9397337436676025
1772561435791753700,3.534753662109375,-0.7964047789573669,0.34135887026786804,-1.2391079664230347
1772561435801783800,3.54478369140625,-0.497242271900177,1.3675482273101807,-1.6267871856689453
1772561435811812900,3.554812744140625,-0.03756416216492653,2.0385000705718994,-1.9323500394821167
1772561435821841700,3.564841552734375,0.48279479146003723,2.3355600833892822,-2.0910708904266357
1772561435831871700,3.574871826171875,0.9880547523498535,2.268679141998291,-2.093088150024414
1772561435841900800,3.58490087890625,1.3741803169250488,1.9505946636199951,-1.976833462715149
1772561435851931000,3.594930908203125,1.5125634670257568,1.454689621925354,-1.7730811834335327
1772561435861959700,3.604959716796875,1.3797508478164673,0.7826274633407593,-1.5329432487487793
1772561435871989800,3.61498974609375,1.0688015222549438,-0.19561101496219635,-1.3509724140167236
1772561435882018800,3.625018798828125,0.6301853060722351,-1.3993440866470337,-1.3481581211090088
1772561435892049000,3.635048828125,0.08195070922374725,-2.2896597385406494,-1.450442910194397
1772561435902077700,3.64507763671875,-0.4672977328300476,-2.5401954650878906,-1.5403988361358643
1772561435912107800,3.655107666015625,-0.92212975025177,-2.203136682510376,-1.568899393081665
1772561435922136800,3.66513671875,-1.1985260248184204,-1.7198944091796875,-1.6016831398010254
1772561435932167000,3.6751669921875,-1.2037101984024048,-1.1718670129776,-1.5941394567489624
1772561435942195700,3.68519580078125,-0.9434630274772644,-0.5649181604385376,-1.53312087059021
1772561435952225800,3.695225830078125,-0.4845111668109894,0.002750552259385586,-1.4216254949569702
1772561435962254800,3.7052548828125,0.08116687834262848,0.4306609332561493,-1.2487068176269531
1772561435972284000,3.715283935546875,0.6165083050727844,0.6109175682067871,-1.0429861545562744
1772561435982314000,3.72531396484375,0.9881845116615295,0.5757932662963867,-0.7832759618759155
1772561435992343600,3.735343505859375,1.1904430389404297,0.4411986470222473,-0.4773200452327728
1772561436002373400,3.745373291015625,1.1768114566802979,0.22646476328372955,-0.15055668354034424
1772561436012402200,3.755402099609375,0.9658967852592468,0.05520272254943848,0.14441397786140442
1772561436022432300,3.765432373046875,0.6167081594467163,0.031083378940820694,0.3777787983417511
1772561436032461300,3.77546142578125,0.26694807410240173,0.1446264535188675,0.5185356736183167
1772561436042491400,3.785491455078125,0.03605305776000023,0.34136512875556946,0.5738757848739624
1772561436052520200,3.795520263671875,-0.05486326664686203,0.5835671424865723,0.5630242228507996
1772561436062550300,3.80555029296875,-0.01761494018137455,0.8178479671478271,0.5119661092758179
1772561436072579300,3.815579345703125,0.13105042278766632,0.9973008036613464,0.4495556652545929
1772561436082608400,3.8256083984375,0.3337418735027313,1.1144020557403564,0.4122612476348877
1772561436092638500,3.835638427734375,0.5477372407913208,1.1419260501861572,0.3936026096343994
1772561436102667300,3.845667236328125,0.7208472490310669,1.0280838012695312,0.388948529958725
1772561436112697300,3.855697265625,0.8130991458892822,0.8075064420700073,0.40532565116882324
1772561436122726400,3.865726318359375,0.7807164192199707,0.490873783826828,0.454779714345932
1772561436132756500,3.875756591796875,0.6378735303878784,0.15215112268924713,0.5348863005638123
1772561436142785300,3.885785400390625,0.42308947443962097,-0.10273750126361847,0.6376485228538513
1772561436152815400,3.8958154296875,0.1798083782196045,-0.19065405428409576,0.7426753044128418
1772561436162844400,3.905844482421875,-0.0634884238243103,-0.13812512159347534,0.8181265592575073
1772561436172874500,3.91587451171875,-0.24739009141921997,0.03598782420158386,0.8924777507781982
1772561436182903300,3.9259033203125,-0.3446773588657379,0.3045831024646759,1.0277020931243896
1772561436192933400,3.935933349609375,-0.4027433395385742,0.6227927803993225,1.2382651567459106
1772561436202962400,3.94596240234375,-0.4601770341396332,0.8256614208221436,1.5029709339141846
1772561436212992500,3.955992431640625,-0.5511506795883179,0.8422697186470032,1.7574703693389893
1772561436223021600,3.966021484375,-0.687619149684906,0.6983755230903625,1.932116150856018
1772561436233050400,3.97605029296875,-0.9105814099311829,0.3247089982032776,1.9428411722183228
1772561436243080400,3.98608056640625,-1.0797038078308105,-0.20697340369224548,1.7799433469772339
1772561436253107200,3.996107177734375,-1.0669699907302856,-0.6999138593673706,1.527171015739441
1772561436263137300,4.00613720703125,-0.8148781657218933,-0.7686995267868042,1.2552496194839478
1772561436273166300,4.016166259765625,-0.3448725938796997,-0.46667444705963135,1.0136470794677734
1772561436283196400,4.026196533203125,0.15924254059791565,-0.060724887996912,0.7963594794273376
1772561436293225200,4.03622509765625,0.5259342193603516,0.18617543578147888,0.5643464922904968
1772561436303255300,4.04625537109375,0.7672283053398132,0.19395431876182556,0.3494599759578705
1772561436313284400,4.056284423828125,0.9150825142860413,-0.14919397234916687,0.12160816043615341
1772561436323314400,4.066314453125,1.0008882284164429,-0.7186408638954163,-0.08778948336839676
1772561436333343500,4.076343505859375,0.9838932752609253,-1.266777753829956,-0.21610777080059052
1772561436343372300,4.086372314453125,0.8475617170333862,-1.627147912979126,-0.2559584379196167
1772561436353402400,4.09640234375,0.6041959524154663,-1.75961434841156,-0.25329792499542236
1772561436363431400,4.106431396484375,0.3386293649673462,-1.6360622644424438,-0.2788578271865845
1772561436373461500,4.11646142578125,0.09353332221508026,-1.2412643432617188,-0.34759029746055603
1772561436383490300,4.126490234375,-0.05346496030688286,-0.7169159650802612,-0.48052430152893066
1772561436393520400,4.136520263671875,-0.03193569555878639,-0.2695336937904358,-0.6929053068161011
1772561436403549400,4.146549560546875,0.1456698328256607,-0.018578920513391495,-0.9830574989318848
1772561436413579500,4.15657958984375,0.38662999868392944,0.035402022302150726,-1.295547366142273
1772561436423608300,4.1666083984375,0.5873456001281738,-0.07813548296689987,-1.5607830286026
1772561436433638400,4.176638427734375,0.7021059989929199,-0.280172199010849,-1.7315376996994019
1772561436443667500,4.18666748046875,0.726433277130127,-0.5421753525733948,-1.8099517822265625
1772561436453697500,4.196697509765625,0.649391233921051,-0.8426286578178406,-1.7681297063827515
1772561436463726300,4.206726318359375,0.5167852640151978,-1.1532800197601318,-1.6393365859985352
1772561436473755400,4.21675537109375,0.37787026166915894,-1.4414609670639038,-1.481689691543579
1772561436483785500,4.226785400390625,0.2378338873386383,-1.5780460834503174,-1.3314783573150635
1772561436493814500,4.236814453125,0.0678190141916275,-1.4328131675720215,-1.203877568244934
1772561436503844600,4.2468447265625,-0.13957767188549042,-1.0327585935592651,-1.1148607730865479
1772561436513873400,4.256873291015625,-0.36587896943092346,-0.578551709651947,-1.132826805114746
1772561436523903500,4.266903564453125,-0.5650502443313599,-0.17686012387275696,-1.2453234195709229
1772561436533932500,4.2769326171875,-0.6766880750656128,0.21008040010929108,-1.3776588439941406
1772561436543962400,4.28696240234375,-0.6838667392730713,0.5574429631233215,-1.4968228340148926
1772561436553991400,4.296991455078125,-0.6097057461738586,0.7953168153762817,-1.5681596994400024
1772561436564021200,4.307021240234375,-0.47156888246536255,0.8847827315330505,-1.5906031131744385
1772561436574050300,4.31705029296875,-0.2859353721141815,0.8378125429153442,-1.5476173162460327
1772561436584080400,4.327080322265625,-0.0964326485991478,0.6855692863464355,-1.4411200284957886
1772561436594109200,4.337109130859375,0.04801826924085617,0.44015392661094666,-1.2700824737548828
1772561436604138500,4.347138427734375,0.11692790687084198,0.15643879771232605,-1.0177329778671265
1772561436614168300,4.357168212890625,0.10829420387744904,-0.10537790507078171,-0.6762521862983704
1772561436624197400,4.367197265625,0.042531050741672516,-0.2966884672641754,-0.3050069212913513
1772561436634227200,4.377227294921875,-0.01967373676598072,-0.40982675552368164,0.03334076702594757
1772561436644256300,4.38725634765625,-0.03429899364709854,-0.44709646701812744,0.2938005328178406
1772561436654286300,4.397286376953125,0.008204257115721703,-0.36843523383140564,0.4727761447429657
1772561436664315400,4.4073154296875,0.11944348365068436,-0.20891951024532318,0.572482168674469
1772561436674345500,4.417345458984375,0.262653648853302,-0.031028345227241516,0.6037876009941101
1772561436684374300,4.427374267578125,0.4047824442386627,0.119232177734375,0.6011863350868225
1772561436694404400,4.437404296875,0.5176876783370972,0.27066245675086975,0.6011357307434082
1772561436704433400,4.447433349609375,0.5995908975601196,0.4120999872684479,0.6078523397445679
1772561436714463500,4.45746337890625,0.6365630626678467,0.5121980905532837,0.6308724284172058
1772561436724492300,4.4674921875,0.6410370469093323,0.5979303121566772,0.690506100654602
1772561436734521300,4.477521240234375,0.5930503606796265,0.7083995342254639,0.7775248885154724
1772561436744551400,4.487551513671875,0.4701300859451294,0.8372774124145508,0.8516409397125244
1772561436754580500,4.49758056640625,0.2796778380870819,0.8912018537521362,0.8689320087432861
1772561436764610300,4.5076103515625,0.0941733568906784,0.8646799921989441,0.8201614022254944
1772561436774639400,4.517639404296875,0.0025041592307388783,0.8065074682235718,0.7276793718338013
1772561436784669400,4.52766943359375,0.0050422935746610165,0.7419266700744629,0.6493494510650635
1772561436794698500,4.537698486328125,0.056641835719347,0.7457568049430847,0.6006106734275818
1772561436804728600,4.547728515625,0.14426033198833466,0.7545491456985474,0.5869432091712952
1772561436814757400,4.55775732421875,0.24997290968894958,0.7037027478218079,0.5528507232666016
1772561436824787500,4.567787353515625,0.33712038397789,0.5601894855499268,0.46459048986434937
1772561436834816500,4.57781640625,0.3922789692878723,0.23927459120750427,0.34738531708717346
1772561436844846600,4.5878466796875,0.3996589481830597,-0.39699995517730713,0.2723008394241333
1772561436854875400,4.59787548828125,0.37774112820625305,-1.367214322090149,0.3078705370426178
1772561436864905500,4.607905517578125,0.35953760147094727,-2.4346206188201904,0.5087202191352844
1772561436874934500,4.6179345703125,0.3388914465904236,-3.1944823265075684,0.8477651476860046
1772561436884963300,4.62796337890625,0.2196589708328247,-3.3214023113250732,1.3255038261413574
1772561436894993400,4.637993408203125,-0.022062035277485847,-2.9288644790649414,1.824960470199585
1772561436905022500,4.6480224609375,-0.27314916253089905,-2.283215045928955,2.1462533473968506
1772561436915052300,4.65805224609375,-0.41931116580963135,-1.379659652709961,2.1600024700164795
1772561436925081600,4.66808154296875,-0.40904027223587036,-0.3745689392089844,1.8058722019195557
1772561436935111200,4.678111083984375,-0.2946212887763977,0.5088614821434021,1.1764639616012573
1772561436945140500,4.688140380859375,-0.14208367466926575,1.1734552383422852,0.4640496075153351
1772561436955170300,4.69817041015625,-0.024805262684822083,1.575683355331421,-0.16816380620002747
1772561436965199400,4.708199462890625,0.022786395624279976,1.6515227556228638,-0.6712017059326172
1772561436975229400,4.7182294921875,0.0008824286051094532,1.4243289232254028,-1.022915005683899
1772561436985258200,4.72825830078125,-0.07427618652582169,0.999829888343811,-1.2283470630645752
1772561436995286800,4.738286865234375,-0.213833287358284,0.4779494106769562,-1.3250635862350464
1772561437005316600,4.748316650390625,-0.3920491933822632,-0.05272015929222107,-1.3482234477996826
1772561437015346000,4.758345947265625,-0.5728656053543091,-0.5423716306686401,-1.3629539012908936
1772561437025375700,4.768375732421875,-0.7256166934967041,-0.9917973875999451,-1.40427827835083
1772561437035404800,4.77840478515625,-0.8467146158218384,-1.3319213390350342,-1.4673174619674683
1772561437045434600,4.7884345703125,-0.9037798047065735,-1.4735931158065796,-1.5407087802886963
1772561437055463700,4.798463623046875,-0.8639000654220581,-1.397438645362854,-1.576818585395813
1772561437065493800,4.80849365234375,-0.7381018400192261,-1.121058702468872,-1.5565639734268188
1772561437075522800,4.818522705078125,-0.5477254986763,-0.7124006152153015,-1.445961594581604
1772561437085552600,4.828552734375,-0.30742084980010986,-0.26325535774230957,-1.262068510055542
1772561437095581700,4.838581787109375,-0.08839423209428787,0.13545073568820953,-1.01445734500885
1772561437105611800,4.84861181640625,0.043638505041599274,0.45940640568733215,-0.7425583600997925
1772561437115640800,4.858640869140625,0.07341744005680084,0.7012233138084412,-0.4821726083755493
1772561437125669600,4.868669677734375,-0.010954193770885468,0.8514270782470703,-0.26442041993141174
1772561437135699700,4.87869970703125,-0.17651252448558807,0.925132691860199,-0.09342417120933533
1772561437145728800,4.888728759765625,-0.3559410274028778,0.9667345285415649,0.022654326632618904
1772561437155758800,4.8987587890625,-0.49497321248054504,0.96897292137146,0.09386779367923737
1772561437165787600,4.90878759765625,-0.5682517886161804,0.9350160360336304,0.09951379895210266
1772561437175817700,4.918817626953125,-0.5659044981002808,0.8882277607917786,0.079426109790802
1772561437185846800,4.9288466796875,-0.4935908913612366,0.8126320838928223,0.05714637041091919
1772561437195876900,4.938876953125,-0.36954379081726074,0.692659318447113,0.060424722731113434
1772561437205906000,4.948906005859375,-0.2272418588399887,0.45025205612182617,0.08903849124908447
1772561437215935700,4.958935791015625,-0.0991736352443695,0.09462711215019226,0.12715071439743042
1772561437225964800,4.96896484375,0.02167230099439621,-0.12021705508232117,0.18993952870368958
1772561437235995000,4.978994873046875,0.15373606979846954,-0.0969756469130516,0.29997333884239197
1772561437246024000,4.98902392578125,0.25736701488494873,0.07428386062383652,0.4387349784374237
1772561437256054000,4.999053955078125,0.29247626662254333,0.2546960115432739,0.5840047597885132
1772561437266082800,5.009082763671875,0.28848549723625183,0.44248777627944946,0.7050040364265442
1772561437276112000,5.01911181640625,0.268033504486084,0.5828773379325867,0.7844133973121643
1772561437286142000,5.029141845703125,0.21128930151462555,0.6660371422767639,0.7957026362419128
1772561437296170800,5.039170654296875,0.14622054994106293,0.7029733061790466,0.7135204672813416
1772561437306200800,5.049200927734375,0.09440294653177261,0.7279942631721497,0.598117470741272
1772561437316230000,5.05922998046875,0.051014721393585205,0.7944419980049133,0.48754486441612244
1772561437326260000,5.069260009765625,-0.007215704303234816,0.9264293909072876,0.3994525671005249
1772561437336288800,5.079288818359375,-0.07057736068964005,1.1377525329589844,0.3583623766899109
1772561437346318800,5.08931884765625,-0.10029228776693344,1.3744562864303589,0.39260610938072205
1772561437356348000,5.099347900390625,-0.07479651272296906,1.6051294803619385,0.496798574924469
1772561437366377700,5.109377685546875,-0.026471823453903198,1.6583131551742554,0.59285968542099
1772561437376406800,5.11940673828125,0.004468249622732401,1.342147707939148,0.5580641627311707
1772561437386436600,5.1294365234375,-0.06673269718885422,0.7633000612258911,0.37611034512519836
1772561437396465700,5.139465576171875,-0.19279128313064575,0.2226104736328125,0.15588822960853577
1772561437406495000,5.149494873046875,-0.3090250790119171,-0.03912558779120445,0.03805128112435341
1772561437416524800,5.15952490234375,-0.33094581961631775,0.02485818788409233,0.03108285367488861
1772561437426553600,5.1695537109375,-0.21912996470928192,0.1957557201385498,0.14746235311031342
1772561437436583700,5.179583740234375,0.043292336165905,0.39907822012901306,0.4227985739707947
1772561437446612700,5.18961279296875,0.39505860209465027,0.4014388620853424,0.7454837560653687
1772561437456642800,5.199642822265625,0.6695098876953125,0.07758729159832001,1.0360075235366821
1772561437466671600,5.209671630859375,0.8184460997581482,-0.48127320408821106,1.2505429983139038
1772561437476701700,5.21970166015625,0.7690242528915405,-1.2261964082717896,1.318590521812439
1772561437486730800,5.229730712890625,0.560987651348114,-1.8803050518035889,1.2669578790664673
1772561437496760800,5.2397607421875,0.2631405293941498,-2.1922049522399902,1.12763249874115
1772561437506790000,5.249789794921875,-0.12890885770320892,-2.062040090560913,0.8337846994400024
1772561437516819700,5.25981982421875,-0.5153066515922546,-1.4880155324935913,0.4219217598438263
1772561437526848800,5.269848876953125,-0.7604716420173645,-0.7304571270942688,-0.10090064257383347
1772561437536877800,5.2798779296875,-0.7936988472938538,0.014001843519508839,-0.6250554919242859
1772561437546908000,5.289907958984375,-0.6756802797317505,0.5273684859275818,-1.0470482110977173
1772561437556936700,5.299936767578125,-0.5138841867446899,0.6688822507858276,-1.3467062711715698
1772561437566966800,5.309966796875,-0.36622875928878784,0.4415043890476227,-1.5182527303695679
1772561437576995800,5.319995849609375,-0.30769994854927063,-0.10707272589206696,-1.575836420059204
1772561437587026000,5.33002587890625,-0.36363688111305237,-0.8571391105651855,-1.5498374700546265
1772561437597054700,5.3400546875,-0.5189892053604126,-1.640962839126587,-1.4862000942230225
1772561437607084800,5.350084716796875,-0.6997754573822021,-2.2233333587646484,-1.4014548063278198
1772561437617113900,5.36011376953125,-0.8616685271263123,-2.5054891109466553,-1.2483241558074951
1772561437627144000,5.37014404296875,-0.9903519153594971,-2.4851534366607666,-0.9959766268730164
1772561437637172700,5.3801728515625,-1.023975133895874,-2.2218282222747803,-0.6528922319412231
1772561437647202800,5.390202880859375,-0.9466331005096436,-1.80537748336792,-0.25075027346611023
1772561437657232000,5.40023193359375,-0.7861883044242859,-1.310605525970459,0.14173683524131775
1772561437667261000,5.410260986328125,-0.5878326892852783,-0.7703300714492798,0.4544294774532318
1772561437677291000,5.420291015625,-0.39645397663116455,-0.263810396194458,0.624123215675354
1772561437687319800,5.43031982421875,-0.2326463758945465,0.15929388999938965,0.6275631785392761
1772561437697350000,5.440349853515625,-0.12353480607271194,0.4616175591945648,0.49484533071517944
1772561437707379000,5.45037890625,-0.09472300112247467,0.5757007598876953,0.27653151750564575
1772561437717408800,5.46040869140625,-0.12793582677841187,0.524619996547699,0.02425505220890045
1772561437727437800,5.470437744140625,-0.19342480599880219,0.3121708035469055,-0.2231518179178238
1772561437737467600,5.480467529296875,-0.21833442151546478,0.03436529263854027,-0.4139057695865631
1772561437747497000,5.4904970703125,-0.18854540586471558,-0.17386950552463531,-0.5349866151809692
1772561437757526800,5.50052685546875,-0.1546953022480011,-0.2557300329208374,-0.5642529129981995
1772561437767555800,5.510555908203125,-0.1382378339767456,-0.1589118391275406,-0.48692014813423157
1772561437777585700,5.520585693359375,-0.13109098374843597,0.05227417126297951,-0.3280135989189148
1772561437787614700,5.53061474609375,-0.13336507976055145,0.23367948830127716,-0.11084689199924469
1772561437797643800,5.540643798828125,-0.1278637945652008,0.29428744316101074,0.14044444262981415
1772561437807673600,5.550673583984375,-0.1125723198056221,0.202455535531044,0.3882907032966614
1772561437817702700,5.56070263671875,-0.11191877722740173,-0.058100953698158264,0.5975615978240967
1772561437827732700,5.570732666015625,-0.15142932534217834,-0.42558780312538147,0.753208577632904
1772561437837761800,5.58076171875,-0.25373971462249756,-0.7490175366401672,0.8257014155387878
1772561437847791900,5.5907919921875,-0.4294028878211975,-0.895183801651001,0.7866488099098206
1772561437857820700,5.600820556640625,-0.5948248505592346,-0.8449158072471619,0.7262856960296631
1772561437867850800,5.610850830078125,-0.6920291781425476,-0.5369868874549866,0.7125980854034424
1772561437877879800,5.6208798828125,-0.6528026461601257,-0.0037966910749673843,0.773750901222229
1772561437887910000,5.630909912109375,-0.4964573085308075,0.7100294828414917,0.9013530015945435
1772561437897938700,5.640938720703125,-0.31681883335113525,1.4125593900680542,0.9874522089958191
1772561437907968800,5.65096875,-0.1478082835674286,1.9251439571380615,0.9729896783828735
1772561437917997800,5.660997802734375,0.005687264259904623,2.1342291831970215,0.8056856393814087
1772561437928027000,5.67102685546875,0.10477802157402039,2.030125141143799,0.4843411445617676
1772561437938056700,5.681056640625,0.14801736176013947,1.5775055885314941,0.08056676387786865
1772561437948085800,5.691085693359375,0.12683944404125214,0.7258749008178711,-0.2718251049518585
1772561437958115800,5.70111572265625,0.06600512564182281,-0.39693692326545715,-0.383752703666687
1772561437968145000,5.711144775390625,-0.03348930552601814,-1.442779779434204,-0.15786419808864594
1772561437978175000,5.721175048828125,-0.1949242800474167,-1.92108154296875,0.3964688181877136
1772561437988203800,5.731203857421875,-0.3826656937599182,-1.6676915884017944,1.1358301639556885
1772561437998234600,5.741234619140625,-0.480223149061203,-0.9912864565849304,1.741512656211853
1772561438008264000,5.751263916015625,-0.4117775857448578,-0.33506983518600464,1.8745779991149902
1772561438018293800,5.761293701171875,-0.1761900782585144,0.1341964602470398,1.447836995124817
1772561438028322800,5.77132275390625,0.05826152488589287,0.5618284344673157,0.6499080657958984
1772561438038352600,5.7813525390625,0.1669645756483078,0.878240168094635,-0.2501471936702728
1772561438048381700,5.791381591796875,0.14698784053325653,1.0250486135482788,-1.0487873554229736
1772561438058411000,5.801410888671875,0.08193133026361465,0.987572431564331,-1.587457537651062
1772561438068440600,5.811440673828125,0.03239744156599045,0.7855294346809387,-1.8374942541122437
1772561438078469600,5.8214697265625,-0.0006191008724272251,0.43050500750541687,-1.861730933189392
1772561438088499700,5.831499755859375,-0.015004893764853477,-0.018298104405403137,-1.7445749044418335
1772561438098528800,5.84152880859375,0.0007948414422571659,-0.4891279339790344,-1.545803189277649
1772561438108558600,5.85155859375,0.045399583876132965,-0.9414929747581482,-1.294856071472168
1772561438118587600,5.861587646484375,0.14139536023139954,-1.2780389785766602,-1.0398293733596802
1772561438128617700,5.87161767578125,0.29742246866226196,-1.4716821908950806,-0.7852935194969177
1772561438138646800,5.881646728515625,0.4863061010837555,-1.6084132194519043,-0.5703980326652527
1772561438148676900,5.8916767578125,0.6453847289085388,-1.6927251815795898,-0.40117359161376953
1772561438158705700,5.90170556640625,0.7284404635429382,-1.6820334196090698,-0.31254518032073975
1772561438168735700,5.91173583984375,0.694989800453186,-1.592183232307434,-0.3405291736125946
1772561438178764800,5.921764892578125,0.5645644068717957,-1.4065824747085571,-0.465433269739151
1772561438188793600,5.931793701171875,0.4180148243904114,-1.0849648714065552,-0.6450624465942383
1772561438198823700,5.94182373046875,0.31672680377960205,-0.641466498374939,-0.8135079145431519
1772561438208852700,5.951852783203125,0.2736477255821228,-0.12637126445770264,-0.9331689476966858
1772561438218882800,5.9618828125,0.27718281745910645,0.36924752593040466,-0.967521607875824
1772561438228911900,5.971911865234375,0.30219390988349915,0.7563626170158386,-0.9008700251579285
1772561438238941700,5.981941650390625,0.32529550790786743,0.9848232269287109,-0.7587408423423767
1772561438248970800,5.991970703125,0.29500702023506165,1.0685275793075562,-0.5760329365730286
1772561438259000800,6.002000732421875,0.17967218160629272,0.99434494972229,-0.393177330493927
1772561438269030000,6.01202978515625,-0.003150051925331354,0.7835811376571655,-0.24981477856636047
1772561438279059700,6.022059814453125,-0.18804985284805298,0.49065202474594116,-0.1308918595314026
1772561438289088800,6.0320888671875,-0.28801122307777405,0.26362931728363037,-0.008025863207876682
1772561438299118800,6.042118896484375,-0.29660311341285706,0.1733899563550949,0.12699347734451294
1772561438309148000,6.05214794921875,-0.27420854568481445,0.16900832951068878,0.2808702886104584
1772561438319176700,6.0621767578125,-0.23122964799404144,0.2610522210597992,0.42760273814201355
1772561438329206800,6.072206787109375,-0.15001755952835083,0.41764986515045166,0.5540227293968201
1772561438339235800,6.08223583984375,-0.046716466546058655,0.5658366680145264,0.6225077509880066
1772561438349266000,6.092265869140625,0.04062558710575104,0.6619277000427246,0.6522570848464966
1772561438359294700,6.102294677734375,0.07828988134860992,0.6575638055801392,0.6398350596427917
1772561438369324800,6.11232470703125,0.08040647953748703,0.49963438510894775,0.6028338670730591
1772561438379353900,6.122353759765625,0.1147087886929512,0.20317505300045013,0.5924768447875977
1772561438389383700,6.1323837890625,0.17467562854290009,-0.18396614491939545,0.6491017937660217
1772561438399413000,6.1424130859375,0.20258022844791412,-0.4922664761543274,0.73874831199646
1772561438409442600,6.152442626953125,0.18665076792240143,-0.5825552344322205,0.8083509802818298
1772561438419471600,6.1624716796875,0.158269464969635,-0.3964862823486328,0.852121889591217
1772561438429501700,6.172501708984375,0.19200313091278076,0.08405312895774841,0.8837150931358337
1772561438439530800,6.18253076171875,0.3173394501209259,0.749921441078186,0.9279959797859192
1772561438449559800,6.192559814453125,0.5041525959968567,1.3919975757598877,0.9541029334068298
1772561438459589600,6.202589599609375,0.6764636635780334,1.7865744829177856,0.9358738660812378
1772561438469618700,6.21261865234375,0.8014792799949646,1.8714607954025269,0.8448328375816345
1772561438479648800,6.222648681640625,0.8318289518356323,1.4433891773223877,0.6673126220703125
1772561438489677600,6.232677490234375,0.7238295078277588,0.5392327308654785,0.40051570534706116
1772561438499707600,6.242707763671875,0.532231867313385,-0.532698929309845,0.18373866379261017
1772561438509736700,6.25273681640625,0.29689860343933105,-1.429195523262024,0.13035337626934052
1772561438519766800,6.262766845703125,0.0601118840277195,-1.7827937602996826,0.2846806049346924
1772561438529795800,6.2727958984375,-0.14836351573467255,-1.445904016494751,0.622965931892395
1772561438539825700,6.28282568359375,-0.24642351269721985,-0.6946868300437927,0.9940015077590942
1772561438549854700,6.292854736328125,-0.16627125442028046,0.051898043602705,1.1984742879867554
1772561438559884800,6.302884765625,-0.004031206015497446,0.3904885947704315,1.084197998046875
1772561438569913900,6.312913818359375,0.16531844437122345,0.40855589509010315,0.6797893643379211
1772561438579942700,6.322942626953125,0.33267760276794434,0.30732595920562744,0.19858840107917786
1772561438589972700,6.33297265625,0.47977152466773987,0.23674467206001282,-0.14496493339538574
1772561438600001800,6.343001708984375,0.5498241186141968,0.16305527091026306,-0.30030685663223267
1772561438610031900,6.353031982421875,0.5016040802001953,0.06781075149774551,-0.356237530708313
1772561438620060700,6.363060791015625,0.3775407075881958,-0.094716377556324,-0.376709520816803
1772561438630090800,6.3730908203125,0.2034214437007904,-0.35568967461586,-0.4246377944946289
1772561438640119800,6.383119873046875,0.053091324865818024,-0.6535037755966187,-0.5323435068130493
1772561438650150000,6.39314990234375,0.017396822571754456,-0.9070457220077515,-0.6341450810432434
1772561438660178700,6.4031787109375,0.11403068155050278,-1.0965373516082764,-0.7102707624435425
1772561438670208800,6.413208740234375,0.3222935199737549,-1.2351300716400146,-0.7458224296569824
1772561438680237800,6.42323779296875,0.6010972261428833,-1.3564560413360596,-0.7354917526245117
1772561438690268000,6.433267822265625,0.8431351780891418,-1.4854087829589844,-0.6870024800300598
1772561438700297000,6.443296875,0.9779606461524963,-1.6338640451431274,-0.5994622111320496
1772561438710325800,6.45332568359375,0.9716615676879883,-1.7378358840942383,-0.4976010024547577
1772561438720355800,6.46335595703125,0.8344461917877197,-1.5907615423202515,-0.41842547059059143
1772561438730385000,6.473385009765625,0.6601327657699585,-1.2050409317016602,-0.4016972482204437
1772561438740415000,6.4834150390625,0.4996134340763092,-0.7013242840766907,-0.42692509293556213
1772561438750443800,6.49344384765625,0.37165993452072144,-0.1694655567407608,-0.47108644247055054
1772561438760473900,6.503473876953125,0.2708089351654053,0.28605350852012634,-0.5242277383804321
1772561438770503000,6.5135029296875,0.1841982901096344,0.6158742904663086,-0.5734459161758423
1772561438780532700,6.52353271484375,0.12317036092281342,0.8102996945381165,-0.5961623787879944
1772561438790561800,6.533561767578125,0.08523330837488174,0.8930661678314209,-0.5530714392662048
1772561438800591600,6.543591552734375,0.06080307066440582,0.9139453768730164,-0.4801415801048279
1772561438810620700,6.55362060546875,0.047800373286008835,0.915469765663147,-0.41611629724502563
1772561438820650800,6.563650634765625,0.03236975148320198,0.9762268662452698,-0.37767651677131653
1772561438830679600,6.573679443359375,0.01705770194530487,1.1155070066452026,-0.36257827281951904
1772561438840708600,6.58370849609375,-0.01041493657976389,1.2712901830673218,-0.3296133875846863
1772561438850738700,6.59373876953125,-0.04858063533902168,1.320715308189392,-0.23165729641914368
1772561438860767700,6.603767822265625,-0.04271076247096062,1.2522337436676025,-0.07671377807855606
1772561438870797800,6.6137978515625,0.0067964945919811726,1.0620263814926147,0.09705786406993866
1772561438880826600,6.62382666015625,0.0902186781167984,0.8033556938171387,0.2645632326602936
1772561438890856700,6.633856689453125,0.12820583581924438,0.5527164936065674,0.4099424183368683
1772561438900885800,6.6438857421875,0.092780202627182,0.35628411173820496,0.5406942963600159
1772561438910915800,6.653915771484375,-0.011498451232910156,0.25083673000335693,0.647610604763031
1772561438920944600,6.663944580078125,-0.14253316819667816,0.2622515559196472,0.7267259359359741
1772561438930974700,6.673974609375,-0.26803579926490784,0.3633594512939453,0.7637200355529785
1772561438941003800,6.684003662109375,-0.360821396112442,0.52110356092453,0.7489919066429138
1772561438951033900,6.694033935546875,-0.4064626395702362,0.7651127576828003,0.6930458545684814
1772561438961062700,6.704062744140625,-0.42757272720336914,1.0704652070999146,0.5941336154937744
1772561438971091700,6.714091796875,-0.4289619028568268,1.3220611810684204,0.48336178064346313
1772561438981121800,6.724121826171875,-0.39757734537124634,1.4526653289794922,0.4168969988822937
1772561438991150800,6.73415087890625,-0.3209405839443207,1.4852051734924316,0.43928584456443787
1772561439001180200,6.74418017578125,-0.19651982188224792,1.4165642261505127,0.545645534992218
1772561439011209200,6.754209228515625,-0.07732085883617401,1.2583168745040894,0.7112645506858826
1772561439021239000,6.764239013671875,-0.038226451724767685,1.0312951803207397,0.8936654925346375
1772561439031268000,6.77426806640625,-0.16278493404388428,0.6724035739898682,1.034744381904602
1772561439041298200,6.784298095703125,-0.40595418214797974,0.09950697422027588,1.1400103569030762
1772561439051327200,6.7943271484375,-0.616637647151947,-0.46573907136917114,1.2257354259490967
1772561439061357300,6.804357421875,-0.62088942527771,-0.8689610958099365,1.2364403009414673
1772561439071386000,6.81438623046875,-0.4184094965457916,-1.1027495861053467,1.0939780473709106
1772561439081416200,6.824416259765625,-0.14418618381023407,-1.0135464668273926,0.8314446210861206
1772561439091445200,6.8344453125,0.05466730520129204,-0.6146575212478638,0.5671169757843018
1772561439101474000,6.84447412109375,0.11982286721467972,-0.27096089720726013,0.301785945892334
1772561439111504100,6.854504150390625,0.0921386107802391,-0.1932784616947174,0.016079995781183243
1772561439121533200,6.864533203125,0.036239128559827805,-0.44072553515434265,-0.23040249943733215
1772561439131563300,6.874563232421875,-0.066503144800663,-0.7120069265365601,-0.33357366919517517
1772561439141592000,6.884592041015625,-0.22983108460903168,-0.8142539262771606,-0.3181734085083008
1772561439151622100,6.8946220703125,-0.4345594346523285,-0.6888324022293091,-0.2541745603084564
1772561439161651200,6.904651123046875,-0.5879799127578735,-0.3631781339645386,-0.18480321764945984
1772561439171681300,6.914681396484375,-0.5790916681289673,0.012551526539027691,-0.2150375247001648
1772561439181710300,6.92471044921875,-0.4111926555633545,0.3133254945278168,-0.3796389698982239
1772561439191740200,6.934740234375,-0.14980287849903107,0.4617599844932556,-0.6428302526473999
1772561439201769200,6.944769287109375,0.10742224752902985,0.43946534395217896,-0.9073303937911987
1772561439211799000,6.954799072265625,0.32190781831741333,0.23343326151371002,-1.1086121797561646
1772561439221828000,6.964828125,0.45928457379341125,-0.19069138169288635,-1.2022655010223389
1772561439231857200,6.974857177734375,0.47622716426849365,-0.8672587871551514,-1.1929670572280884
1772561439241887000,6.984886962890625,0.3859742283821106,-1.7379393577575684,-1.0864280462265015
1772561439251916300,6.994916259765625,0.18121182918548584,-2.6158483028411865,-0.885111927986145
1772561439261946000,7.004946044921875,-0.1283486932516098,-3.0666050910949707,-0.6175259947776794
1772561439271975200,7.01497509765625,-0.5169352293014526,-3.0110361576080322,-0.32526668906211853
1772561439282005000,7.0250048828125,-0.8034756779670715,-2.5181829929351807,-0.059644315391778946
1772561439292034000,7.035033935546875,-0.8208176493644714,-1.7405529022216797,0.10913766175508499
1772561439302064000,7.045064208984375,-0.5954478979110718,-0.8538964986801147,0.10911528766155243
1772561439312093200,7.05509326171875,-0.2326597422361374,0.041408468037843704,-0.07172401249408722
1772561439322123000,7.065123046875,0.08844318240880966,0.7914164066314697,-0.3797753155231476
1772561439332152000,7.075152099609375,0.29450565576553345,1.2963166236877441,-0.7489628195762634
1772561439342182100,7.08518212890625,0.351246178150177,1.3365525007247925,-1.103066325187683
1772561439352211200,7.095211181640625,0.27016425132751465,0.9829668402671814,-1.3415489196777344
1772561439362240000,7.105239990234375,0.10724404454231262,0.49003997445106506,-1.4254987239837646
1772561439372270000,7.11527001953125,-0.0504932627081871,0.0535348616540432,-1.3699902296066284
1772561439382299100,7.125299072265625,-0.14753912389278412,-0.08795488625764847,-1.1896758079528809
1772561439392329200,7.1353291015625,-0.19797822833061218,0.04089723527431488,-0.9074385762214661
1772561439402358000,7.14535791015625,-0.22106197476387024,0.37375906109809875,-0.5775469541549683
1772561439412388000,7.15538818359375,-0.20722761750221252,0.7437112331390381,-0.230218306183815
1772561439422417200,7.165417236328125,-0.19144466519355774,1.0038303136825562,0.055739931762218475
1772561439432447200,7.175447265625,-0.21681176126003265,1.0607092380523682,0.2375543862581253
1772561439442476000,7.18547607421875,-0.300227552652359,0.9279018640518188,0.3199408948421478
1772561439452506000,7.195506103515625,-0.40740808844566345,0.6555155515670776,0.31649550795555115
1772561439462535200,7.20553515625,-0.5341759324073792,0.3137696385383606,0.24414624273777008
1772561439472564200,7.215564208984375,-0.649618923664093,-0.054325517266988754,0.13690190017223358
1772561439482594300,7.22559423828125,-0.7135507464408875,-0.28455978631973267,0.021511392667889595
1772561439492623000,7.235623046875,-0.7026551365852356,-0.22564393281936646,-0.0362771600484848
1772561439502653200,7.245653076171875,-0.6293865442276001,0.058073535561561584,-0.0023990869522094727
1772561439512682200,7.25568212890625,-0.5186715126037598,0.48736798763275146,0.16128754615783691
1772561439522712300,7.26571240234375,-0.4129403531551361,0.9629238843917847,0.44495734572410583
1772561439532741000,7.2757412109375,-0.3726002871990204,1.256242275238037,0.7844828367233276
1772561439542771200,7.285771240234375,-0.3838297724723816,1.2987487316131592,1.1490229368209839
1772561439552800300,7.29580029296875,-0.37559881806373596,1.246870994567871,1.496651291847229
1772561439562830300,7.305830322265625,-0.33662745356559753,1.1723657846450806,1.7188987731933594
1772561439572859100,7.315859130859375,-0.26774635910987854,1.0320929288864136,1.7063990831375122
1772561439582889000,7.325888916015625,-0.19916462898254395,0.7917975187301636,1.479200839996338
1772561439592918300,7.335918212890625,-0.13539078831672668,0.46906983852386475,1.1770673990249634
1772561439602948000,7.345947998046875,-0.08699183911085129,0.08428115397691727,0.9453515410423279
1772561439612977200,7.35597705078125,-0.06576187908649445,-0.31505918502807617,0.8477898836135864
1772561439623006200,7.366006103515625,-0.07754690200090408,-0.5174884796142578,0.8956423401832581
1772561439633036000,7.3760361328125,-0.044977039098739624,-0.41246989369392395,1.0542196035385132
1772561439643065000,7.386065185546875,0.04698697105050087,-0.09543175250291824,1.2223260402679443
1772561439653095200,7.39609521484375,0.10631193965673447,0.16103732585906982,1.2706687450408936
1772561439663124000,7.4061240234375,0.10403706878423691,0.2806878387928009,1.138458251953125
1772561439673154000,7.416154052734375,0.11157260835170746,0.19070257246494293,0.8663308024406433
1772561439683183000,7.42618310546875,0.1427006870508194,-0.13524144887924194,0.5160987973213196
1772561439693213200,7.436213134765625,0.18438205122947693,-0.4964481592178345,0.14883466064929962
1772561439703242000,7.446241943359375,0.20870789885520935,-0.6899198889732361,-0.16337516903877258
1772561439713272000,7.45627197265625,0.19347594678401947,-0.7358362078666687,-0.4291597008705139
1772561439723301000,7.466301025390625,0.1882404386997223,-0.6761529445648193,-0.6427254676818848
1772561439733331200,7.476331298828125,0.20143797993659973,-0.6349201798439026,-0.8147157430648804
1772561439743360000,7.486360107421875,0.22932954132556915,-0.6429754495620728,-0.9335680603981018
1772561439753389000,7.49638916015625,0.26170557737350464,-0.6948075294494629,-1.0102708339691162
1772561439763419100,7.506419189453125,0.2901742458343506,-0.7348737120628357,-1.0658514499664307
1772561439773448200,7.5164482421875,0.28085243701934814,-0.7647181749343872,-1.0963070392608643
1772561439783478300,7.526478271484375,0.2038479447364807,-0.8221292495727539,-1.1023670434951782
1772561439793507000,7.536507080078125,0.07239623367786407,-0.9033958911895752,-1.0760725736618042
1772561439803537200,7.546537109375,-0.047812994569540024,-0.9461721181869507,-1.069631814956665
1772561439813566200,7.556566162109375,-0.1046968400478363,-0.9681557416915894,-1.1070390939712524
1772561439823596300,7.56659619140625,-0.09313125908374786,-0.9317335486412048,-1.1888569593429565
1772561439833625000,7.576625,-0.061081256717443466,-0.7698812484741211,-1.2828997373580933
1772561439843655200,7.5866552734375,0.003593612927943468,-0.5003587007522583,-1.3333240747451782
1772561439853684200,7.596684326171875,0.11609883606433868,-0.14552706480026245,-1.2809512615203857
1772561439863713000,7.606713134765625,0.22129343450069427,0.2614462971687317,-1.0969542264938354
1772561439873743000,7.6167431640625,0.28518742322921753,0.628612220287323,-0.8163022994995117
1772561439883772200,7.626772216796875,0.35029691457748413,0.8482511043548584,-0.5047079920768738
1772561439893802200,7.63680224609375,0.3777746558189392,0.8050770163536072,-0.22285528481006622
1772561439903831300,7.646831298828125,0.35550984740257263,0.5394898056983948,-0.00035828864201903343
1772561439913861000,7.656861083984375,0.29763293266296387,0.1642494648694992,0.15122312307357788
1772561439923890200,7.66689013671875,0.2070670872926712,-0.20042330026626587,0.21433284878730774
1772561439933920300,7.676920166015625,0.12791205942630768,-0.37433215975761414,0.19766245782375336
1772561439943949300,7.68694921875,0.06806870549917221,-0.3707566261291504,0.1613992601633072
1772561439953979100,7.696979248046875,0.044852375984191895,-0.26722243428230286,0.15924841165542603
1772561439964008200,7.70700830078125,0.05750345438718796,-0.04271901398897171,0.22878088057041168
1772561439974038000,7.7170380859375,0.11735127866268158,0.2782193422317505,0.33946332335472107
1772561439984067300,7.7270673828125,0.19842082262039185,0.5872099995613098,0.44483476877212524
1772561439994097400,7.737097412109375,0.2145773023366928,0.839626669883728,0.5184939503669739
1772561440004126500,7.74712646484375,0.11996664851903915,1.0365352630615234,0.5529248714447021
1772561440014155500,7.757155517578125,-0.053349319845438004,1.1474299430847168,0.5199149250984192
1772561440024185300,7.767185302734375,-0.23186872899532318,1.172153115272522,0.40095439553260803
1772561440034214400,7.77721435546875,-0.3947543203830719,1.1354564428329468,0.2474517673254013
1772561440044244500,7.787244384765625,-0.4912675619125366,1.073968529701233,0.12478496879339218
1772561440054273500,7.7972734375,-0.451521098613739,1.0160987377166748,0.0889192670583725
1772561440064303400,7.807303466796875,-0.2712447941303253,1.0026273727416992,0.16196444630622864
1772561440074332400,7.81733251953125,0.015338245779275894,1.0457249879837036,0.35201117396354675
1772561440084362500,7.827362548828125,0.29033997654914856,1.1057283878326416,0.6282073855400085
1772561440094391600,7.8373916015625,0.4562782645225525,1.1253522634506226,0.9521554708480835
1772561440104421600,7.847421630859375,0.5050750970840454,1.111544132232666,1.2309913635253906
1772561440114450400,7.857450439453125,0.45689156651496887,1.1224219799041748,1.3321846723556519
1772561440124479500,7.8674794921875,0.39958086609840393,1.0902299880981445,1.1584099531173706
1772561440134509600,7.877509521484375,0.40806910395622253,0.9258006811141968,0.8260789513587952
1772561440144538400,7.887538330078125,0.469600647687912,0.6466217637062073,0.49512922763824463
1772561440154568400,7.897568359375,0.5573310852050781,0.3024962842464447,0.2621844410896301
1772561440164597500,7.907597412109375,0.7063655853271484,0.01859663426876068,0.21461370587348938
1772561440174627600,7.917627685546875,0.8791847229003906,-0.14604118466377258,0.3942480683326721
1772561440184656600,7.92765673828125,0.9264140725135803,-0.28718578815460205,0.7316045165061951
1772561440194686500,7.9376865234375,0.8394728302955627,-0.41208866238594055,1.0987457036972046
1772561440204715500,7.947715576171875,0.6538704633712769,-0.5215128660202026,1.3251861333847046
1772561440214745600,7.95774560546875,0.4110931158065796,-0.7938612699508667,1.3059101104736328
1772561440224774700,7.967774658203125,0.15709225833415985,-1.0835095643997192,0.9788594841957092
1772561440234804700,7.9778046875,-0.0013590906746685505,-1.197352409362793,0.46447983384132385
1772561440244833500,7.98783349609375,-0.08525505661964417,-1.1370552778244019,-0.09118790924549103
1772561440254863600,7.997863525390625,-0.14787505567073822,-0.9305599927902222,-0.5780531764030457
1772561440264892700,8.007892578125,-0.17406830191612244,-0.6574288606643677,-0.9711538553237915
1772561440274921500,8.01792138671875,-0.11527686566114426,-0.35757672786712646,-1.273614764213562
1772561440284951600,8.02795166015625,0.003722760360687971,-0.0648183599114418,-1.411324143409729
1772561440294980600,8.037980712890626,0.12097083032131195,0.03196597099304199,-1.3797601461410522
1772561440305010400,8.048010498046875,0.19031794369220734,-0.05384879931807518,-1.2344894409179688
1772561440315039700,8.058039794921875,0.22181802988052368,-0.2360655516386032,-1.0133076906204224
1772561440325069300,8.0680693359375,0.18967553973197937,-0.48965227603912354,-0.7853531241416931
1772561440335098600,8.0780986328125,0.0833420604467392,-0.8569925427436829,-0.6068558692932129
1772561440345128400,8.08812841796875,-0.056649934500455856,-1.2511259317398071,-0.4649307131767273
1772561440355157500,8.098157470703125,-0.19906015694141388,-1.4900250434875488,-0.37919124960899353
1772561440365187300,8.108187255859375,-0.31842702627182007,-1.4863359928131104,-0.3535061180591583
1772561440375216400,8.11821630859375,-0.40209347009658813,-1.314355492591858,-0.38448771834373474
1772561440385246500,8.12824658203125,-0.41225555539131165,-0.9920551180839539,-0.4450237452983856
1772561440395275500,8.138275634765625,-0.3579871654510498,-0.6199809312820435,-0.5162256360054016
1772561440405304300,8.14830419921875,-0.260689914226532,-0.2473367601633072,-0.5747885704040527
1772561440415334400,8.15833447265625,-0.16050180792808533,0.0603582039475441,-0.6280962228775024
1772561440425363500,8.168363525390625,-0.06819184869527817,0.2652495801448822,-0.6904970407485962
1772561440435393500,8.1783935546875,0.022364795207977295,0.381193608045578,-0.7310200333595276
1772561440445422300,8.18842236328125,0.10556221008300781,0.406266987323761,-0.7425304651260376
1772561440455452400,8.198452392578124,0.14159433543682098,0.3412269353866577,-0.6984043121337891
1772561440465481500,8.2084814453125,0.11643065512180328,0.22715254127979279,-0.5793557167053223
1772561440475511600,8.218511474609375,0.06321114301681519,0.14520108699798584,-0.3650161623954773
1772561440485540600,8.22854052734375,0.021242655813694,0.16924090683460236,-0.0531834214925766
1772561440495570400,8.2385703125,-0.0025036484003067017,0.3112466335296631,0.27429458498954773
1772561440505599500,8.248599609375,-0.01160899642854929,0.4989062547683716,0.5675911903381348
1772561440515628500,8.258628662109375,0.010689692571759224,0.6641344428062439,0.7860287427902222
1772561440525658600,8.26865869140625,0.05453331023454666,0.7707141637802124,0.9102755784988403
1772561440535687400,8.2786875,0.11013912409543991,0.8420527577400208,0.9489087462425232
1772561440545717500,8.288717529296875,0.1556360423564911,0.889485239982605,0.9184978604316711
1772561440555746600,8.29874658203125,0.13647709786891937,0.8698869943618774,0.8518931269645691
1772561440565776600,8.308776611328126,0.03300555422902107,0.7904509902000427,0.7730611562728882
1772561440575805400,8.318805419921874,-0.10619354993104935,0.6654656529426575,0.6878637075424194
1772561440585835500,8.32883544921875,-0.23182204365730286,0.5114901661872864,0.6295327544212341
1772561440595864600,8.338864501953125,-0.29771095514297485,0.42635923624038696,0.6446300745010376
1772561440605894700,8.348894775390624,-0.26295962929725647,0.4888628423213959,0.7078143954277039
1772561440615923500,8.35892333984375,-0.12396030128002167,0.6457417011260986,0.7655004262924194
1772561440625953500,8.36895361328125,0.07467210292816162,0.7659270167350769,0.7897325158119202
1772561440635982600,8.378982666015625,0.2777189314365387,0.778831958770752,0.8083513975143433
1772561440646011600,8.38901171875,0.457093209028244,0.6093103289604187,0.8426750302314758
1772561440656041700,8.399041748046875,0.6063418388366699,0.33537155389785767,0.8835763335227966
1772561440666070500,8.409070556640625,0.7137446999549866,0.1657676249742508,0.9056091904640198
1772561440676100600,8.4191005859375,0.765747606754303,0.22319546341896057,0.8574020266532898
1772561440686129700,8.429129638671874,0.7548438310623169,0.45760080218315125,0.6907882690429688
1772561440696159500,8.439159423828125,0.6907862424850464,0.7280482649803162,0.4227190911769867
1772561440706188500,8.4491884765625,0.5549138784408569,0.890635073184967,0.15270225703716278
1772561440716218400,8.45921826171875,0.40871551632881165,0.8372592926025391,0.019967902451753616
1772561440726247400,8.469247314453124,0.3267979919910431,0.5659524202346802,0.10424177348613739
1772561440736277500,8.479277587890625,0.2603611648082733,0.12403111159801483,0.33013373613357544
1772561440746306300,8.489306396484375,0.17427581548690796,-0.36412736773490906,0.5985705256462097
1772561440756336400,8.49933642578125,0.07996534556150436,-0.6603819727897644,0.7605170607566833
1772561440766365400,8.509365478515624,0.04265233129262924,-0.8220416903495789,0.6523695588111877
1772561440776394500,8.51939453125,0.07317978888750076,-0.95597243309021,0.31779998540878296
1772561440786424300,8.52942431640625,0.08697602897882462,-1.1616835594177246,-0.09899377822875977
1772561440796453400,8.539453369140626,0.06586460769176483,-1.5054854154586792,-0.3955502510070801
1772561440806483500,8.5494833984375,0.059153709560632706,-1.785632610321045,-0.4493058919906616
1772561440816512500,8.559512451171875,0.05673740431666374,-1.7347126007080078,-0.29138344526290894
1772561440826542600,8.56954248046875,0.02116263471543789,-1.2288224697113037,-0.09366394579410553
1772561440836571400,8.5795712890625,-0.003511231392621994,-0.41496020555496216,-0.038037627935409546
1772561440846601500,8.5896015625,0.02474064566195011,0.4701794683933258,-0.22545784711837769
1772561440856630500,8.599630615234375,0.08061710000038147,1.162475824356079,-0.5949601531028748
1772561440866662400,8.609662353515626,0.08753838390111923,1.5329687595367432,-1.0264673233032227
1772561440876691500,8.61969140625,0.08894096314907074,1.5301997661590576,-1.4548732042312622
1772561440886721500,8.629721435546875,0.058157481253147125,1.1953933238983154,-1.8118188381195068
1772561440896750300,8.639750244140625,-0.050757236778736115,0.6740667819976807,-2.0098087787628174
1772561440906780400,8.649780517578124,-0.25630295276641846,0.0874062329530716,-2.021045207977295
1772561440916809500,8.6598095703125,-0.4994685649871826,-0.402354896068573,-1.8719135522842407
1772561440926838300,8.66983837890625,-0.69586580991745,-0.6246694922447205,-1.6083831787109375
1772561440936868400,8.679868408203125,-0.8234003186225891,-0.640516996383667,-1.3144899606704712
1772561440946897400,8.6898974609375,-0.8846015930175781,-0.5071525573730469,-1.0304452180862427
1772561440956927500,8.699927490234375,-0.8895017504692078,-0.3034971356391907,-0.7994873523712158
1772561440966956500,8.70995654296875,-0.8773620128631592,-0.20316122472286224,-0.6789079308509827
1772561440976986400,8.719986328125,-0.8620588183403015,-0.2866598963737488,-0.7028580904006958
1772561440987015400,8.730015380859374,-0.8173810839653015,-0.4919419586658478,-0.8452346920967102
1772561440997048800,8.740048828125,-0.7397370338439941,-0.7734759449958801,-1.0363953113555908
1772561441007078000,8.750077880859376,-0.6575955152511597,-1.0555795431137085,-1.210767388343811
1772561441017108000,8.76010791015625,-0.5882995128631592,-1.2659653425216675,-1.3180047273635864
1772561441027136800,8.77013671875,-0.5078027844429016,-1.1672377586364746,-1.305947184562683
1772561441037166800,8.780166748046875,-0.3917028307914734,-0.7372797131538391,-1.1369630098342896
1772561441047196000,8.79019580078125,-0.25569626688957214,-0.19879359006881714,-0.8549087643623352
1772561441057225000,8.800224853515624,-0.1166776567697525,0.2591233551502228,-0.5248783826828003
1772561441067254800,8.8102548828125,0.0012614983133971691,0.563106119632721,-0.2065693587064743
1772561441077283800,8.820283935546875,0.08830153197050095,0.6776604056358337,0.08302813768386841
1772561441087314000,8.83031396484375,0.15628138184547424,0.5949676632881165,0.3487274646759033
1772561441097343000,8.840343017578125,0.1986992359161377,0.3564207851886749,0.5967310070991516
1772561441107373000,8.850373046875,0.230919748544693,0.06829898804426193,0.7953717112541199
1772561441117401900,8.86040185546875,0.2634201943874359,-0.1421973556280136,0.9298655986785889
1772561441127432000,8.870431884765624,0.28557395935058594,-0.2159022092819214,1.0001546144485474
1772561441137461000,8.8804609375,0.3304465711116791,-0.14404989778995514,1.0217077732086182
1772561441147491000,8.890490966796875,0.40395140647888184,0.07452479004859924,0.9823068976402283
1772561441157520000,8.900519775390626,0.4907020330429077,0.3339211344718933,0.8903591632843018
1772561441167550000,8.910550048828124,0.5548821091651917,0.5433899760246277,0.8049574494361877
1772561441177579000,8.9205791015625,0.5745763182640076,0.6474617719650269,0.7468247413635254
1772561441187608000,8.930608154296875,0.5415544509887695,0.5777314305305481,0.6850836277008057
1772561441197638000,8.940637939453126,0.4688955843448639,0.3558204472064972,0.6199941039085388
1772561441207667000,8.9506669921875,0.3883914053440094,0.11574447154998779,0.5760183930397034
1772561441217697000,8.960697021484375,0.3201504647731781,-0.039133280515670776,0.6067190766334534
1772561441227726000,8.97072607421875,0.30430224537849426,-0.011933084577322006,0.7919116020202637
1772561441237755600,8.980755615234376,0.3681829273700714,0.21508784592151642,1.151254415512085
1772561441247785000,8.990784912109374,0.47711181640625,0.49229416251182556,1.5991623401641846
1772561441257814800,9.000814697265625,0.5823904871940613,0.7793498039245605,2.00844144821167
1772561441267843800,9.01084375,0.6382042169570923,1.0795903205871582,2.230370283126831
1772561441277874000,9.0208740234375,0.6653059720993042,1.3032019138336182,2.1787326335906982
1772561441287902700,9.03090283203125,0.6294054985046387,1.3506354093551636,1.8348135948181152
1772561441297932800,9.040932861328125,0.5726091265678406,1.186609148979187,1.2902531623840332
1772561441307961900,9.0509619140625,0.5033634305000305,0.7639278173446655,0.666512668132782
1772561441317990700,9.06099072265625,0.4434913098812103,0.19405362010002136,0.1350868046283722
1772561441328020700,9.071020751953125,0.4221343398094177,-0.05599909648299217,-0.11921364814043045
1772561441338049800,9.0810498046875,0.3628246784210205,0.054346539080142975,-0.06441047787666321
1772561441348079900,9.091079833984375,0.22014077007770538,0.5118786692619324,0.17511236667633057
1772561441358109000,9.10110888671875,0.0443061962723732,1.0850036144256592,0.4262455999851227
1772561441368138800,9.111138671875,-0.11621823906898499,1.5397706031799316,0.5654386281967163
1772561441378167800,9.121167724609375,-0.21532508730888367,1.4756815433502197,0.5187990665435791
1772561441388198000,9.131197998046876,-0.2647711932659149,0.8351089954376221,0.31621772050857544
1772561441398227000,9.14122705078125,-0.28096386790275574,-0.18940883874893188,0.04797395318746567
1772561441408257000,9.151257080078125,-0.2748045325279236,-1.201093077659607,-0.15607798099517822
1772561441418285800,9.161285888671875,-0.2526739239692688,-1.8332738876342773,-0.2724469304084778
1772561441428315000,9.17131494140625,-0.24585092067718506,-1.9845545291900635,-0.244337797164917
1772561441438345000,9.181344970703124,-0.1866711676120758,-1.6084468364715576,-0.14346912503242493
1772561441448373800,9.191373779296875,-0.03733494505286217,-0.8714578747749329,-0.0683986097574234
1772561441458403800,9.20140380859375,0.15007327497005463,-0.20256218314170837,-0.09373018890619278
1772561441468433000,9.211432861328126,0.27594226598739624,0.18712937831878662,-0.25821205973625183
1772561441478463000,9.221462890625,0.2820972800254822,0.3397289216518402,-0.501416027545929
1772561441488491800,9.23149169921875,0.2447957545518875,0.311096727848053,-0.7772278785705566
1772561441498521900,9.24152197265625,0.17511585354804993,0.08796469867229462,-1.0466232299804688
1772561441508551000,9.251551025390626,0.09858298301696777,-0.22103682160377502,-1.2281227111816406
1772561441518581000,9.2615810546875,0.03042340837419033,-0.5971192717552185,-1.261718988418579
1772561441528610000,9.271610107421875,-0.02837652526795864,-0.9971039295196533,-1.1514867544174194
1772561441538640000,9.281639892578125,-0.09170389920473099,-1.4027851819992065,-0.9738777279853821
1772561441548669000,9.2916689453125,-0.14114414155483246,-1.669790506362915,-0.763791561126709
1772561441558699000,9.301698974609375,-0.11298876255750656,-1.63634192943573,-0.5710302591323853
1772561441568728000,9.31172802734375,0.003862753976136446,-1.3955987691879272,-0.4340183138847351
1772561441578756900,9.3217568359375,0.16934584081172943,-1.04234778881073,-0.36080312728881836
1772561441588787000,9.331786865234376,0.2838737666606903,-0.7323789596557617,-0.33944323658943176
1772561441598816000,9.34181591796875,0.28407829999923706,-0.5765187740325928,-0.3861364424228668
1772561441608845800,9.351845703125,0.1991245150566101,-0.5021910071372986,-0.5187786817550659
1772561441618875000,9.361875,0.09248371422290802,-0.38248416781425476,-0.759549617767334
1772561441628904700,9.37190478515625,0.01990431547164917,-0.19893775880336761,-1.026275396347046
1772561441638934000,9.38193408203125,-0.022966358810663223,-0.045976027846336365,-1.206824779510498
1772561441648963800,9.3919638671875,-0.018593713641166687,0.02427177131175995,-1.2071280479431152
1772561441658993000,9.401992919921875,0.06817646324634552,0.05526113137602806,-1.0072139501571655
1772561441669022700,9.412022705078124,0.21221591532230377,0.09017704427242279,-0.6397197842597961
1772561441679051800,9.4220517578125,0.3543460965156555,0.16712087392807007,-0.18654438853263855
1772561441689081900,9.432081787109375,0.44863584637641907,0.24906954169273376,0.23370429873466492
1772561441699111000,9.44211083984375,0.4712577760219574,0.33980855345726013,0.5467907786369324
1772561441709139700,9.4521396484375,0.4445217549800873,0.4511382579803467,0.7322797179222107
1772561441719169800,9.462169677734375,0.37722253799438477,0.5324825048446655,0.7866790890693665
1772561441729198800,9.47219873046875,0.27566608786582947,0.5505470037460327,0.7424341440200806
1772561441739229000,9.48222900390625,0.1742936670780182,0.519022524356842,0.6256357431411743
1772561441749257700,9.4922578125,0.09593814611434937,0.4366592466831207,0.5079546570777893
1772561441759287800,9.502287841796875,0.06824006885290146,0.35575827956199646,0.4206462502479553
1772561441769316900,9.51231689453125,0.07445508986711502,0.33368387818336487,0.37435781955718994
1772561441779347000,9.522346923828126,0.10469970107078552,0.40028971433639526,0.37743255496025085
1772561441789375700,9.532375732421874,0.13009189069271088,0.5278964042663574,0.43517228960990906
1772561441799405800,9.54240576171875,0.13052456080913544,0.634905219078064,0.5387511849403381
1772561441809435000,9.552434814453125,0.1016143411397934,0.6927309632301331,0.6691755056381226
1772561441819464000,9.5624638671875,0.06352078914642334,0.7164252996444702,0.7810251712799072
1772561441829494000,9.572493896484374,0.03149281069636345,0.7282534241676331,0.8483179807662964
1772561441839522800,9.582522705078125,0.0077273487113416195,0.7682712078094482,0.878356397151947
1772561441849553000,9.592552978515625,-0.009220209904015064,0.8105108141899109,0.8935470581054688
1772561441859582000,9.60258203125,-0.018837668001651764,0.8362837433815002,0.9156385660171509
1772561441869612000,9.612612060546875,-0.06668508052825928,0.8398124575614929,0.9345424771308899
1772561441879640800,9.622640869140625,-0.11463533341884613,0.8561393022537231,0.9352864623069763
1772561441889671000,9.6326708984375,-0.12611408531665802,0.8236138820648193,0.906403660774231
1772561441899700000,9.642699951171876,-0.04948737099766731,0.7048465013504028,0.8754628300666809
1772561441909730000,9.65272998046875,0.121099554002285,0.5038703083992004,0.8713506460189819
1772561441919758800,9.6627587890625,0.2940994203090668,0.2448560893535614,0.8778070211410522
1772561441929789000,9.672788818359376,0.38690924644470215,0.01891244575381279,0.8555246591567993
1772561441939818000,9.68281787109375,0.3683643043041229,-0.14877554774284363,0.7731906175613403
1772561441949847000,9.692846923828125,0.24765998125076294,-0.2222449779510498,0.6851174831390381
1772561441959876900,9.702876953125,0.050431206822395325,-0.30238136649131775,0.6532528400421143
1772561441969906000,9.712906005859375,-0.1453915685415268,-0.45562365651130676,0.7181569933891296
1772561441979936000,9.72293603515625,-0.30671000480651855,-0.5599369406700134,0.785346508026123
1772561441989965000,9.732965087890625,-0.47985410690307617,-0.6922534704208374,0.7041600346565247
1772561441999991000,9.742990966796874,-0.6336482167243958,-0.7886496782302856,0.40444621443748474
1772561442010019800,9.753019775390625,-0.7410439252853394,-0.668612003326416,-0.08003206551074982
1772561442020050000,9.7630498046875,-0.7552826404571533,-0.2283317744731903,-0.6105309724807739
1772561442030079000,9.773078857421876,-0.7111473679542542,0.3998844623565674,-1.0434317588806152
1772561442040108800,9.78310888671875,-0.6253393888473511,0.8894931674003601,-1.244544267654419
1772561442050138000,9.79313818359375,-0.4897086024284363,1.1423310041427612,-1.2097125053405762
1772561442060167700,9.803167724609375,-0.30770143866539,1.136106014251709,-1.0583229064941406
1772561442070197000,9.813197021484376,-0.09710533916950226,0.8346481323242188,-0.9183090925216675
1772561442080226000,9.82322607421875,0.13107696175575256,0.3202148973941803,-0.8082318305969238
1772561442090256000,9.833255859375,0.32927340269088745,-0.21194246411323547,-0.6986299753189087
1772561442100285000,9.843284912109375,0.43026381731033325,-0.653492271900177,-0.5996484756469727
1772561442110314800,9.853314697265626,0.431851863861084,-0.9871515035629272,-0.5413113832473755
1772561442120343800,9.86334375,0.3582206964492798,-1.2079670429229736,-0.5418791770935059
1772561442130374000,9.873373779296875,0.20216824114322662,-1.2618918418884277,-0.63555508852005
1772561442140402700,9.883402587890625,0.0238081943243742,-1.066428542137146,-0.8484975099563599
1772561442150432800,9.893432861328124,-0.12965673208236694,-0.6319845914840698,-1.1405935287475586
1772561442160461800,9.9034619140625,-0.2806277573108673,-0.1279594600200653,-1.4365100860595703
1772561442170492000,9.913491943359375,-0.41000065207481384,0.31224244832992554,-1.611918330192566
1772561442180520700,9.923520751953125,-0.44592010974884033,0.6715907454490662,-1.6260812282562256
1772561442190550800,9.93355078125,-0.4068494141101837,0.7980411052703857,-1.5489805936813354
1772561442200579800,9.943579833984375,-0.3321212828159332,0.7459010481834412,-1.4357949495315552
1772561442210609000,9.95360888671875,-0.27761995792388916,0.5452665090560913,-1.2597788572311401
1772561442220639000,9.963638916015626,-0.3221794366836548,0.01969296485185623,-0.995140552520752
1772561442230667800,9.973667724609374,-0.34594202041625977,-0.6891099810600281,-0.7989281415939331
1772561442240697900,9.98369775390625,-0.23965740203857422,-1.0794755220413208,-0.7142091393470764
1772561442250727000,9.993726806640625,-0.12992984056472778,-1.0756888389587402,-0.6448412537574768
1772561442260757000,10.003757080078126,-0.04049772769212723,-0.5832909941673279,-0.47635552287101746
1772561442270785800,10.013785888671874,0.05457445979118347,0.060580965131521225,-0.2123795449733734
1772561442280815900,10.02381591796875,0.13739559054374695,0.5392465591430664,0.047112803906202316
1772561442290845000,10.033844970703125,0.2043093740940094,0.7845960855484009,0.2827831208705902
1772561442300875000,10.043875,0.21350419521331787,0.7639103531837463,0.5100086331367493
1772561442310903800,10.05390380859375,0.1611613631248474,0.5534212589263916,0.7301164865493774
1772561442320934000,10.063933837890625,0.011970045045018196,0.10028640925884247,0.9476388096809387
