time,seconds_elapsed,z,y,x
1772566218103934200,0.080934326171875,0.1700286498814821,0.049425709687173365,0.022755291035026312
1772566218113962200,0.090962158203125,0.15375088429749012,0.03911554727070033,0.006082096392661333
1772566218123991300,0.1009912109375,0.12320961556136607,0.06748553638234735,0.007709551464021205
1772566218134019000,0.11101904296875,0.07068915472924708,0.07237513505481183,0.02928074728101492
1772566218144048000,0.121048095703125,-0.006413374173641204,0.047803953704237935,0.021666619015485045
1772566218154076200,0.131076171875,0.02211070952117443,0.03942015624046325,-0.0241783095754683
1772566218164105200,0.141105224609375,0.06850304286181927,0.045895343603938814,-0.0397647318944335
1772566218174133200,0.15113330078125,0.07306640525460242,0.018926599592342972,-0.040083880846202374
1772566218184162000,0.161162109375,0.11828618768453597,-0.006014145722985267,-0.03729366560578346
1772566218194190300,0.1711904296875,0.19024901561141014,0.009848024797439575,-0.02778144863396883
1772566218204219100,0.18121923828125,0.20027531958520411,0.0012236235108226538,0.0035579847425222396
1772566218214247200,0.1912470703125,0.16572598425149918,-0.03451777115166187,0.07349705175682902
1772566218224276200,0.201276123046875,0.10488076266646384,-0.0015269903715699911,0.11236351963728666
1772566218234304300,0.21130419921875,0.05291968928277492,0.04666683943308889,0.07182575754374265
1772566218244333300,0.221333251953125,0.051209378233551976,0.026618761530146,-0.021214929725229738
1772566218254361000,0.231361083984375,0.03799626091718673,0.006113879770413041,-0.0584160947419703
1772566218264390100,0.24139013671875,0.0673947893589735,-0.006005450959876179,-0.05720554990842938
1772566218274418200,0.251418212890625,0.12919278162419795,-0.00880370337627828,-0.04776888239085674
1772566218284447200,0.261447265625,0.14958032061457632,0.005713774536922574,-0.014076748408377169
1772566218294475300,0.271475341796875,0.1615197647333145,0.016080781707167625,0.017638970934599638
1772566218304504000,0.281504150390625,0.16284604490101337,0.037207960083708164,0.05228709046766162
1772566218314532400,0.291532470703125,0.09198913238942623,0.05025843418426811,0.05567132607847452
1772566218324561200,0.30156103515625,0.0775555333673954,0.06835099410526455,0.019719430470466613
1772566218334589200,0.311589111328125,0.05615618698596954,0.07688530595563352,0.004791325929760932
1772566218344618200,0.3216181640625,0.08989303689301013,0.046808512926101685,-0.05443725423887372
1772566218354646300,0.331646240234375,0.12643559187054634,0.01972805216833949,-0.06433817826732993
1772566218364675300,0.34167529296875,0.13034779687821865,0.020390461599826812,-0.04448284645751118
1772566218374703000,0.351703125,0.17953823650479317,0.01632460040040314,-0.05023483411297202
1772566218384732200,0.361732177734375,0.17490823861658572,0.004501768398657441,-0.025007746136933563
1772566218394760200,0.37176025390625,0.12205050865411758,-0.01458805893138051,0.03428703113570809
1772566218404789200,0.381789306640625,0.08946925852298736,-0.014242971820756792,0.054958501634001726
1772566218414817000,0.391817138671875,0.07104337499439715,0.009878785261884331,0.042457916501164435
1772566218424846000,0.40184619140625,-0.0025128596037626264,0.05374678775668144,0.023716975674033164
1772566218434874400,0.411874267578125,0.03490998533964157,0.06894859467223287,-0.04836553310975432
1772566218444903200,0.421903076171875,0.09595335984528064,0.06169219380319118,-0.06605798779726028
1772566218454931200,0.43193115234375,0.143926240375638,0.03372428268641233,-0.05538827135339379
1772566218464959200,0.441959228515625,0.20076573345065116,0.023269378037005663,-0.0390498616233468
1772566218474988300,0.45198828125,0.21959552160501478,0.02069317087344825,-0.022821926530450582
1772566218485016000,0.46201611328125,0.220413852250576,0.011097221140936017,0.006407967346161603
1772566218495045000,0.472045166015625,0.1353776077389717,0.03321362975053489,0.07419336345791816
1772566218505073400,0.482073486328125,0.03963642933964729,0.046118923226743935,0.03882803556621074
1772566218515102200,0.492102294921875,0.05116670813560485,0.05522979285605251,-0.029697803649306295
1772566218525130200,0.502130126953125,0.05249591091275215,0.0452647175502032,-0.07721724132373929
1772566218535159000,0.512158935546875,0.038866029489040374,0.013658303800597786,-0.05278904864042997
1772566218545187300,0.522187255859375,0.0848842688202858,0.01627213956080377,-0.009475392092764377
1772566218555216400,0.53221630859375,0.13797113136351108,0.053855581893399354,0.020418518650531767
1772566218565244200,0.542244140625,0.1543184550523758,0.06239201263561844,0.022639555700868366
1772566218575273200,0.552273193359375,0.14327040681540965,0.05422171179205179,0.03324570538923144
1772566218585301200,0.56230126953125,0.12498188593089579,0.04612228422760963,0.026280542551726103
1772566218595330300,0.572330322265625,0.06398059700131416,0.02257664653249085,-0.00550838815793395
1772566218605358000,0.582358154296875,0.024302082085609435,0.0048789311479777095,-0.03746317695379257
1772566218615387100,0.59238720703125,-0.007930208477377892,0.005631576146185398,-0.03321808672994375
1772566218625415200,0.602415283203125,0.010492167919874191,0.02128770270049572,-0.0071082245700061315
1772566218635444200,0.6124443359375,0.059065936952829357,0.016425065100193023,0.016101970625668763
1772566218645472300,0.62247216796875,0.0986608652383089,0.024611001904308795,0.03255158564522862
1772566218655501000,0.6325009765625,0.11964987725317477,0.04904737789407372,0.02872340565919876
1772566218665529300,0.642529296875,0.16837153032422064,0.05925166878327727,0.014173194520175457
1772566218675558100,0.65255810546875,0.21342881566882133,0.051546574298664924,0.00006122866794466973
1772566218685586200,0.662586181640625,0.2504822427779436,0.017337138443812728,-0.019331892457604406
1772566218695615200,0.672615234375,0.2214122156381607,-0.0017831570897251367,-0.018716244777292012
1772566218705643300,0.682643310546875,0.17403847004473208,0.02378755669221282,-0.03032251141890883
1772566218715672300,0.69267236328125,0.1524830563187599,0.03457257007881999,-0.016543869174271822
1772566218725700000,0.7027001953125,0.08560615335404873,0.026204554706066845,0.0007587094128131866
1772566218735729200,0.712729248046875,0.02543605455160141,0.003231163940951228,0.03747895904481411
1772566218745757200,0.722757080078125,0.006835983499884605,-0.010276625473052263,0.033833734410256146
1772566218755786200,0.7327861328125,-0.012245733588933943,-0.005608341401070356,-0.016964432673901318
1772566218765814300,0.742814208984375,0.03636369127929211,0.009734408355131745,-0.022890900113433598
1772566218775843000,0.752843017578125,0.0937853681564331,0.0068305036071687935,-0.006364566595852375
1772566218785871400,0.762871337890625,0.14070786285102366,-0.005654664760828018,0.004755231703072786
1772566218795900200,0.772900146484375,0.175043847694993,0.0033490912321954966,0.018905776000022887
1772566218805928200,0.78292822265625,0.18364742538928985,0.014071706907078622,0.03125219348445535
1772566218815956200,0.792956298828125,0.17380115415751934,0.012703195032849907,0.03608239011988044
1772566218825985300,0.8029853515625,0.1393120245784521,0.006982187037542462,0.039374271272122854
1772566218836013300,0.813013427734375,0.0806879861742258,-0.004173413227126002,0.06132935184016823
1772566218846042000,0.8230419921875,0.05839724391102791,-0.018505816897004843,0.03340498760417104
1772566218856070400,0.8330703125,0.013116671204566955,-0.0264776725590229,0.0020835282757878304
1772566218866099200,0.84309912109375,-0.019950316616892814,-0.017602146055549384,0.007814327012747526
1772566218876127200,0.853127197265625,0.017730302479863166,-0.010501154943928122,0.0220848444275558
1772566218886156300,0.86315625,0.06450549765825271,-0.0080153294775635,0.011128127735853194
1772566218896184300,0.873184326171875,0.12510697361528872,-0.0064853434313088655,0.036395401591807604
1772566218906213400,0.88321337890625,0.1742693561911583,0.014953165916725993,0.05617533007785678
1772566218916241700,0.89324169921875,0.15949030473232267,0.013752484890073536,0.05027765034139156
1772566218926270700,0.903270751953125,0.1318926882326603,0.02314326743930578,0.034462533833086485
1772566218936298500,0.913298583984375,0.15133271723985672,0.003023074148222804,-0.005813216323405504
1772566218946327800,0.923327880859375,0.09983516971468925,-0.016680647296458483,0.00365033920109272
1772566218956355800,0.93335595703125,0.08332067276537418,-0.009855258255824445,0.031899405346810815
1772566218966384600,0.943384521484375,0.11044307296872138,0.02316270279213786,0.03236599994525313
1772566218976412700,0.95341259765625,0.10742635549604893,0.029755232924968,0.018296558060497046
1772566218986441700,0.963441650390625,0.07656067711114883,-0.001097512913122773,0.005304682279378176
1772566218996469800,0.9734697265625,0.07577683325707912,-0.006761164698004722,-0.0037007542140781876
1772566219006498800,0.983498779296875,0.10096505052745341,-0.002507306645810604,0.008367869242280722
1772566219016526600,0.993526611328125,0.14023498464226722,-0.01379099026955664,0.02304740584939718
1772566219026556000,1.003555908203125,0.10188742606937885,0.0036984891917556523,0.05181684260740876
1772566219036583700,1.013583740234375,0.10751754091084002,0.03627170214690268,0.05889467203915119
1772566219046612700,1.02361279296875,0.09123802176117897,0.07996069481298326,0.03565159748718142
1772566219056640500,1.033640625,0.08054828544259071,0.06126505443230271,-0.033783757788687946
1772566219066669800,1.043669921875,0.09203647866249084,0.012771584093943238,-0.08679594766050577
1772566219076697600,1.053697509765625,0.08150164064466953,-0.020792247333750128,-0.06577186433225869
1772566219086726700,1.0637265625,0.1075058504730463,-0.026342867198213934,-0.036269583255052563
1772566219096754700,1.073754638671875,0.13666414041817188,-0.008279971763119101,0.022192688716202974
1772566219106783700,1.08378369140625,0.11111702670753001,-0.009335106839239597,0.04831088031306863
1772566219116811800,1.093811767578125,0.18802490982115266,0.027211174465343355,0.04177840980440378
1772566219126840600,1.103840576171875,0.2040700356930494,0.07219985155314207,0.03314779797270894
1772566219136868600,1.11386865234375,0.16678630695939062,0.089392540024966,0.014939941108971833
1772566219146898000,1.12389794921875,0.14291384846270083,0.08880261130779982,-0.006990443409234285
1772566219156925700,1.13392578125,0.11206570573449134,0.0730264385703951,-0.04692600182592869
1772566219166953700,1.14395361328125,0.09574877718389034,0.029580826206132768,-0.06574439180344342
1772566219176982500,1.153982421875,0.11566460700929164,-0.020718597575649617,-0.052677258829027414
1772566219187010800,1.1640107421875,0.10567103626132011,-0.04907726157568395,-0.01586202438995242
1772566219197039600,1.17403955078125,0.10119359858632088,-0.033650852124020456,0.007894260381162166
1772566219207067600,1.184067626953125,0.09740063604414463,-0.008595248257368803,0.018324176719784736
1772566219217096700,1.1940966796875,0.11027882231771945,-0.025548575015366077,0.021780016262084246
1772566219227124700,1.204124755859375,0.0918202055633068,-0.06356522113345563,-0.004498772723972797
1772566219237153800,1.21415380859375,0.07506547011733054,-0.08197714920192957,-0.0021320435926318166
1772566219247181600,1.224181640625,0.08489595925807952,-0.06894589125849306,0.004175093727558851
1772566219257210600,1.234210693359375,0.10195698417425154,-0.0411790556717664,0.013278876028954983
1772566219267238700,1.24423876953125,0.13226152154505252,-0.02243380399569869,0.030933482924103736
1772566219277267700,1.254267822265625,0.10361176564395427,0.0009291706088930368,0.0036402561984956263
1772566219287295700,1.264295654296875,0.0367646732956171,-0.0036988545179367062,-0.009934241776168347
1772566219297324500,1.274324462890625,0.06284545549154281,-0.04382029089555144,-0.052825873519480225
1772566219307352800,1.284352783203125,0.11355974368453026,-0.03853723592609167,-0.07003712056130171
1772566219317381600,1.294381591796875,0.12746844204962252,0.0002922609448432922,-0.03644070203825831
1772566219327409700,1.30440966796875,0.07702069583833217,0.022305939832329747,0.038041415233165024
1772566219337438700,1.314438720703125,0.1173264027416706,-0.011914017416536807,0.012892360929399728
1772566219347466800,1.324466796875,0.12290858678817748,0.01594078871458769,-0.03611307751908898
1772566219357495800,1.334495849609375,0.03895546133816242,0.04574453695639968,-0.05606207896173
1772566219367523600,1.344523681640625,0.05149754752516746,0.030358021123707293,-0.07229717444777488
1772566219377552600,1.354552734375,0.03423018638193607,0.040833530169725414,0.009791472304612397
1772566219387580700,1.36458056640625,0.048269817650318146,0.05191781876385212,0.039339930611103774
1772566219397609700,1.374609619140625,0.1706733775258064,0.049209436587989326,-0.024767361509799957
1772566219407637500,1.384637451171875,0.2232026061862707,0.056028615083545445,-0.043098260231316084
1772566219417666600,1.39466650390625,0.14547405433952806,0.03340805634409189,-0.037990561828762294
1772566219427694800,1.40469482421875,0.06753332104682921,-0.004950608144700527,-0.014159019864350557
1772566219437723600,1.4147236328125,0.07715279778540134,-0.010352028796821832,-0.01965527919307351
1772566219447751700,1.424751708984375,0.2069645880907774,0.02879340215548873,-0.045549891167134045
1772566219457780500,1.434780517578125,0.16853870358467102,0.048460225655883545,-0.029756401968747376
1772566219467808800,1.444808837890625,0.061976855963468545,0.016019845300167798,-0.03373115081861615
1772566219477837800,1.454837890625,-0.0101911391466856,0.024585282941162585,-0.03589972702935338
1772566219487865600,1.464865478515625,-0.020564064601063727,0.02517784200683236,-0.04708323821425438
1772566219497894700,1.474894775390625,0.07025134783387184,-0.02605053318813443,-0.07418181915059685
1772566219507922700,1.484922607421875,0.05601999338567257,-0.006557604949921369,0.012254647547751664
1772566219517951700,1.49495166015625,0.03537701832950115,-0.010224456894397735,0.007383388249576091
1772566219527979500,1.5049794921875,-0.038621114817261694,-0.020520517720282076,-0.038963206253200766
1772566219538008600,1.515008544921875,0.10413199012577533,0.005124795667827129,-0.013036445575207471
1772566219548036900,1.525036865234375,0.13995909031033515,0.0563821046963334,0.021849135975539682
1772566219558065700,1.535065673828125,0.0858773715108633,0.05738967430368065,0.011042933670431375
1772566219568093700,1.54509375,0.10126023408174514,0.07086319612190127,0.015805618027597664
1772566219578121700,1.555121826171875,0.15936463252604008,0.08495207335948944,-0.07597454778626561
1772566219588150800,1.56515087890625,0.15154782129526137,0.06175707573294639,-0.12284005159661174
1772566219598178600,1.575178466796875,0.09985270537137984,0.06237666893601417,-0.07743409894481301
1772566219608207600,1.58520751953125,0.08431845163106917,0.06477671581506729,-0.047224546381086106
1772566219618235600,1.595235595703125,0.05378536620140075,0.0919194281540811,0.02744607919976115
1772566219628264700,1.6052646484375,0.03834288239777088,0.08092500980049372,0.04148074203208089
1772566219638292700,1.615292724609375,0.013066402322053909,0.029384499916434288,0.005619739577919244
1772566219648321500,1.625321533203125,0.13201134617626667,-0.0057372284777462475,-0.05180076825544238
1772566219658349800,1.635349853515625,0.20539280872941015,-0.05623948135524988,-0.07783888035342097
1772566219668378600,1.645378662109375,0.18110124803781508,-0.1124988364547491,-0.05314443794935941
1772566219678406700,1.65540673828125,0.12861410495340822,-0.14993731735870242,0.023406448420137164
1772566219688435700,1.665435791015625,0.17666005071997642,-0.06633592795580626,0.0453949928663671
1772566219698463700,1.675463623046875,0.13030278869271278,0.07539645563736558,0.03553586215302348
1772566219708492800,1.685492919921875,0.10474982976317405,0.09663067458495497,-0.011637100171297788
1772566219718520600,1.6955205078125,0.12710136230289934,0.07365589558035135,-0.011472411128878594
1772566219728549600,1.705549560546875,0.15195990922749042,0.06988894426226616,0.008381313245743512
1772566219738577700,1.71557763671875,0.1663560988485813,0.04248597355186939,0.010003507620096205
1772566219748606700,1.725606689453125,0.20156769748330114,-0.04754077272340655,-0.028277123196423053
1772566219758634800,1.735634765625,0.1434814192175865,-0.12228475580140948,-0.030339462553709742
1772566219768663600,1.74566357421875,0.0571118802756071,-0.1801144289575517,0.02702814604863524
1772566219778691800,1.75569189453125,-0.030197569864988325,-0.1021247419565916,0.04210515754073858
1772566219788720600,1.765720703125,-0.02504091775417328,0.09840952082574367,0.004524930078536272
1772566219798748700,1.775748779296875,0.03187748577594757,0.22375307967588304,-0.012782616944611072
1772566219808777700,1.78577783203125,0.15668226157426834,0.12401552511677146,-0.035567572465538974
1772566219818805800,1.7958056640625,0.21971125693917273,0.028717852701246736,-0.04166325899213552
1772566219828834800,1.805834716796875,0.21240882497131824,-0.015109452456980943,-0.01791632657125592
1772566219838862600,1.815862548828125,0.177557876342535,-0.03230287158116698,0.008692425021529197
1772566219848891600,1.8258916015625,0.08491115682721137,-0.014321663080155849,0.03107844435274601
1772566219858919700,1.835919677734375,0.038728666844964024,-0.011729162368923424,0.06226721721217036
1772566219868948700,1.84594873046875,0.0417360319674015,0.015000292994081973,0.037017625143378974
1772566219878976800,1.855976806640625,0.06541676728427409,0.0648632250547409,-0.00294818228110671
1772566219889005600,1.866005615234375,0.11022212369441986,0.01977773652896285,0.000873714094609022
1772566219899033900,1.876033935546875,0.1616425143301487,0.0003286474324762821,-0.02325841825157404
1772566219909062700,1.886062744140625,0.15531740296185015,0.047908875383436675,-0.02644362415894866
1772566219919091000,1.896091064453125,0.15463409687280655,0.01893792470395565,-0.01644800758436322
1772566219929120000,1.9061201171875,0.12871698080599306,-0.023133330567181108,0.023811229828745124
1772566219939148000,1.91614794921875,0.0636000732511282,0.005578238523751497,0.04713789101094007
1772566219949177000,1.926177001953125,0.04052256452441215,0.053422962629795075,0.028475568377971647
1772566219959204900,1.936204833984375,0.08436696694791317,0.08688888664096593,0.0043536651648581025
1772566219969234000,1.94623388671875,0.10604103861749171,0.04608268286958336,-0.004553279390186071
1772566219979262000,1.956261962890625,0.10641279453933239,-0.0030880291432142256,0.012797960644215345
1772566219989291000,1.966291015625,0.0681961688697338,0.01795169014558196,0.03429360700696706
1772566219999318800,1.97631884765625,0.041164369559288025,0.07652882066816091,0.020607757612317798
1772566220009347800,1.986347900390625,0.0681359631150961,0.11828852577209471,-0.014433891282975673
1772566220019376000,1.996376220703125,-0.03425415177941322,0.19700009730681775,-0.05618073690533638
1772566220029405000,2.006405029296875,0.15165186619162557,0.2296165648818016,0.08969064618870616
1772566220039433000,2.016432861328125,0.18413140951395035,-0.0019144553191959856,0.005525631553679704
1772566220049461800,2.026461669921875,0.053448681592941284,0.048589551123976706,0.08141673884019256
1772566220059490000,2.036489990234375,0.09645721771419048,0.07007555287554859,0.017822510807961225
1772566220069517800,2.046517822265625,0.1772106703400612,0.09655410221740603,-0.051572512457519766
1772566220079547000,2.056546875,0.14174538920521734,0.13354103996157646,-0.05468436086773872
1772566220089575200,2.0665751953125,0.132118898203969,0.12606705081909894,-0.021925708343088626
1772566220099604000,2.07660400390625,0.2196650797098875,0.10050269371271132,0.004447919319570065
1772566220109632000,2.086632080078125,0.1878939769178629,0.0516908781401813,0.025092355680465698
1772566220119660800,2.096660888671875,0.1302624566823244,0.012184797181934118,0.049857086841762065
1772566220129689000,2.106689208984375,0.06647358286082744,0.024374124408513307,0.06859539732038974
1772566220139718100,2.11671826171875,0.07210778935551643,0.018040245211869477,0.026335633739829063
1772566220149746000,2.126745849609375,0.11661854673326015,0.017907266481965778,0.013078385020792484
1772566220159775000,2.13677490234375,0.1895487583875656,-0.004488835851848125,-0.02430880408734083
1772566220169803000,2.146802978515625,0.16989304080307482,-0.017771072881668806,-0.01085164888203144
1772566220179832000,2.15683203125,0.17225041758418083,-0.012751783414930105,-0.003913374051451683
1772566220189859800,2.16685986328125,0.1790045680195093,0.0206786308914423,-0.0004674713812768459
1772566220199889000,2.176888916015625,0.10698854860067367,0.01855184799581766,0.007931231390684843
1772566220209917200,2.186917236328125,0.11246610322892665,-0.026329788520932196,0.000006429740786552429
1772566220219946000,2.196946044921875,0.12558920417428016,-0.029259412232041357,-0.00498465654477477
1772566220229974000,2.20697412109375,0.10307166741788387,-0.01200929448455572,-0.0013299334295094013
1772566220240002800,2.2170029296875,0.06994272027611732,-0.016748305705189703,0.011118190863728523
1772566220250031000,2.227031005859375,-0.0025666356176137924,-0.014843641127645968,0.02238148928657174
1772566220260060200,2.23706005859375,0.016640753677487373,0.04837576224282383,0.030147739373892545
1772566220270088000,2.247087890625,0.014449381113052367,0.07799947774261236,-0.02463818217217922
1772566220280117000,2.257116943359375,0.09119652070701122,0.02354088845476508,-0.04039616166576743
1772566220290145000,2.26714501953125,0.10255962624251842,-0.036799890739470716,-0.008076485080271959
1772566220300174000,2.277174072265625,0.10975509070456027,-0.035590514949709176,-0.021187895587831733
1772566220310201900,2.287201904296875,0.13676643174886702,-0.019995032541453836,-0.0061349956236779685
1772566220320231000,2.29723095703125,0.17056173384487627,0.023192513408511875,-0.02371829084828496
1772566220330259000,2.307259033203125,0.14966098463535307,0.04979425073862075,-0.0340805487781763
1772566220340288000,2.3172880859375,0.08053834857046603,0.050686523403227324,-0.017797522497177122
1772566220350316000,2.32731591796875,0.0734989514529705,0.05821253499388694,-0.011366028144955635
1772566220360344800,2.3373447265625,0.04170972848236561,0.009247136294841765,-0.0051978609040379525
1772566220370373000,2.347373046875,-0.011557751324772833,-0.0635420594535768,0.034874914026260376
1772566220380402000,2.35740185546875,0.03536532789170742,-0.08121478652730584,0.031558482954651114
1772566220390430000,2.367429931640625,0.11366086597144603,-0.04876344638615846,-0.013368746269494294
1772566220400459000,2.377458984375,0.15754326231777668,-0.03168137868195772,-0.01849938715621829
1772566220410487000,2.387487060546875,0.15582652152776716,-0.011777823816239832,0.008301379877328872
1772566220420516000,2.39751611328125,0.1122632741332054,-0.014619476982951164,-0.010963146432489156
1772566220430544000,2.4075439453125,0.11175415556728839,-0.0008591010473668574,-0.01668313151448965
1772566220440573000,2.417572998046875,0.10515782604217529,0.04107771418914199,-0.01129106321260333
1772566220450601000,2.42760107421875,0.10354454562664031,0.04647270510047674,-0.023453648562729357
1772566220460630000,2.437630126953125,0.08598375449478626,-0.010567717374116182,-0.006092325525730848
1772566220470658000,2.447657958984375,0.10298048200309276,-0.02652458044067025,0.013671528608351946
1772566220480686800,2.457686767578125,0.10683832647502421,0.01995455440059304,0.007896890729665755
1772566220490715100,2.467715087890625,0.11113573140799998,0.035781361346691846,-0.0029817922897636888
1772566220500744000,2.477743896484375,0.1081681137740612,0.023767390687018632,-0.02725786315128207
1772566220510772000,2.48777197265625,0.06788344965875148,0.014195990873873233,-0.01578998206704855
1772566220520801000,2.497801025390625,0.0700870971828699,0.010726268936693668,-0.030802111629396674
1772566220530829000,2.5078291015625,0.09278992737829685,0.02261062186732888,-0.019859131202101706
1772566220540858000,2.517858154296875,0.1339443600654602,0.0270116333052516,-0.017202186952531336
1772566220550886000,2.527885986328125,0.12983750926852225,0.0213854639865458,-0.03882482069581747
1772566220560915000,2.5379150390625,0.21210779619812964,0.06544906211867928,-0.025813801822811365
1772566220570943000,2.54794287109375,0.20919453909993171,0.10183657266497612,0.0025074527762830256
1772566220580972000,2.557971923828125,0.18484569526314734,0.09424217201322317,0.02015314571261406
1772566220590999800,2.567999755859375,0.13226853580772877,0.1049796929962933,0.024648411305248735
1772566220601028900,2.57802880859375,0.07571136680543422,0.09657324530929326,-0.013259586806595326
1772566220611057200,2.58805712890625,0.11757774715423583,0.05880319436341524,-0.07753887449353933
1772566220621086000,2.5980859375,0.14501228204667568,0.050816141132265326,-0.1146665358826518
1772566220631114000,2.608114013671875,0.17305647327005863,0.041334319298714395,-0.09517536121010779
1772566220641142800,2.618142822265625,0.18474691106379032,0.030686814686655996,-0.0398093016885221
1772566220651171000,2.628171142578125,0.16825696403384208,0.01858808835297823,-0.018262801921367644
1772566220661200100,2.6382001953125,0.1513987682133913,0.023780834690481423,0.040062107405811544
1772566220671228000,2.648227783203125,0.13479425489306449,-0.008851414975523948,0.009345335972309111
1772566220681257000,2.658257080078125,0.06765723968744278,0.011531593970209359,-0.04238485126495361
1772566220691285000,2.668284912109375,0.019773791006207464,0.05252703670337796,-0.02726663097962737
1772566220701314000,2.67831396484375,0.0644885465234518,0.06268997266888618,-0.013897592449188232
1772566220711341800,2.688341796875,0.12912848421633244,0.06962956267371773,-0.032863135812431575
1772566220721371000,2.698370849609375,0.1812918021738529,0.07554857745915651,-0.04933101714104414
1772566220731399200,2.708399169921875,0.12400690341889857,0.09678031218871473,-0.006120236445963383
1772566220741428000,2.718427978515625,0.012760112851858138,0.13625029892027377,0.02425371289923787
1772566220751456000,2.7284560546875,0.03146130619049072,0.04156462092325091,-0.003260024709254503
1772566220761484800,2.73848486328125,0.001972176855802536,-0.0307563727915287,-0.07327902509197592
1772566220771513000,2.74851318359375,0.028075170883536338,0.012066431499272584,-0.11337927255108952
1772566220781542100,2.758542236328125,0.09880524214506149,0.05983370645493269,-0.08901391597092151
1772566220791570000,2.76856982421875,0.1808791297197342,0.06195858965441584,-0.039528146659582854
1772566220801599000,2.778598876953125,0.17768997828960417,0.06599354425892233,0.04171908083260059
1772566220811627000,2.788626953125,0.16031448059678077,0.07431406722813844,0.07794234072789549
1772566220821656000,2.798656005859375,0.16777122634351252,0.037341450270265336,0.03049187663644552
1772566220831683800,2.808683837890625,0.14825404044687748,0.04142228984311223,-0.016019699169695378
1772566220841713000,2.818712890625,0.09681143797934055,0.09796499192863702,-0.04790098433792591
1772566220851741000,2.828740966796875,0.10692483571469784,0.11895385781303047,-0.0653904637992382
1772566220861770000,2.83877001953125,0.06179974583089351,0.08503785194680094,-0.030829730288684368
1772566220871798000,2.848798095703125,-0.020699673679471016,0.07484656666964293,-0.01760726062208414
1772566220881826800,2.858826904296875,0.029005145210027693,0.11464242435470223,-0.03300838950201869
1772566220891855000,2.868855224609375,0.05294891537725925,0.1395110542818904,-0.02411357377618551
1772566220901884000,2.8788837890625,0.0899514890819788,0.11337898029014468,-0.02220481754541397
1772566220911912000,2.888911865234375,0.20831366461217402,0.06845321237072348,-0.040324996125698086
1772566220921940500,2.8989404296875,0.2733364641427994,0.07147869767174124,-0.03151186733394861
1772566220931968800,2.90896875,0.2504910106062889,0.05386281535178423,0.0062977849699556825
1772566220941997600,2.91899755859375,0.23856384144723414,0.006248977392166853,0.03934256095960736
1772566220952025600,2.929025634765625,0.1759504411458969,0.0005386369213461876,0.027053134359419344
1772566220962054400,2.939054443359375,0.1189607259452343,0.01399140821248293,0.011299392649531365
1772566220972082700,2.949082763671875,0.07079495319128036,-0.020793051051348446,0.012983254083245991
1772566220982111700,2.95911181640625,0.06285714592933654,-0.06644523354917764,0.014453034374862908
1772566220992139500,2.969139404296875,0.0691419252872467,-0.07575695951282978,0.012792553816735743
1772566221002167600,2.97916748046875,0.07360884156823158,-0.04482771437242627,0.0032519875332713125
1772566221012196600,2.989196533203125,0.08822714950740337,-0.033911183560639616,-0.01441226397305727
1772566221022225700,2.9992255859375,0.06896423063278198,-0.007421966694295406,-0.0453024922773242
1772566221032253400,3.00925341796875,0.07223229251801967,0.007975801184773444,-0.0641873716197908
1772566221042282500,3.019282470703125,0.04914017074406147,-0.00911079656407237,-0.028551556223630904
1772566221052310500,3.029310546875,0.030547113955020903,-0.0290112826898694,-0.009873743760585784
1772566221062338600,3.039338623046875,0.03353226724565029,-0.005966653319448232,-0.009824497791379689
1772566221072367600,3.04936767578125,0.052371407750248906,-0.013615414506942033,-0.0140492758795619
1772566221082395600,3.059395751953125,0.0696036975800991,-0.034995471666008235,0.010123188477009534
1772566221092424700,3.0694248046875,0.03301496537327766,-0.03767842713966965,0.05445142889469862
1772566221102453500,3.07945361328125,0.04057750958204269,-0.04803513211160898,0.03423836968839168
1772566221112481500,3.0894814453125,0.11332301231920719,-0.022210516633838415,-0.0051389703236520284
1772566221122509600,3.099509521484375,0.1522919176608324,-0.01454641174674034,-0.02542041859105229
1772566221132538600,3.10953857421875,0.10657236901521683,0.0036642215959727764,0.01332929104194045
1772566221142566700,3.119566650390625,0.14594225637316702,-0.011691022315621375,-0.017031360430270433
1772566221152595500,3.129595458984375,0.28467794236838817,0.013661445605754852,-0.055225628137588495
1772566221162623700,3.139623779296875,0.2686719794631004,0.034801702659577126,-0.006856734026968478
1772566221172652500,3.149652587890625,0.2056692875832319,0.028895255094766616,0.05685366773083806
1772566221182680600,3.1596806640625,0.20591595582067965,0.03374795582294464,0.0693282416395843
1772566221192709600,3.169709716796875,0.1603168186843395,0.04610343339666724,0.007417290519177913
1772566221202737700,3.179737548828125,0.05207447063028812,0.041941491411626335,0.007880962508171796
1772566221212766700,3.1897666015625,-0.03613105156719684,0.008317015837877988,0.012537702272832393
1772566221222795500,3.19979541015625,-0.017179098337888717,0.0011461012952029704,0.021627602179348466
1772566221232823600,3.209823486328125,0.0018318916022777557,0.05465396572947502,0.01676759492754936
1772566221242851600,3.2198515625,-0.007210077509284019,0.09764788880348205,0.030886282781511544
1772566221252880600,3.229880615234375,0.0661836600035429,0.0587806902706623,0.011983867782354354
1772566221262908700,3.23990869140625,0.15703823540508746,0.022141543050855396,-0.021466858659684656
1772566221272937500,3.2499375,0.2002192054837942,0.025293723471462724,-0.03161854257881641
1772566221282965800,3.2599658203125,0.26512685420215126,0.04890256259590387,0.00025602058768272397
1772566221292994600,3.26999462890625,0.3123071230500936,0.041638124550879,0.0200805188678205
1772566221303023600,3.280023681640625,0.3037906391173601,0.005352613074332475,0.04684767589271068
1772566221313051400,3.290051513671875,0.12998188617527484,-0.003947860842943191,0.12070479313358663
1772566221323080400,3.30008056640625,-0.028904022923111915,-0.030386516565829514,0.06597293986231088
1772566221333108700,3.310108642578125,0.010654080483317374,-0.06932093511596321,-0.044654988154023884
1772566221343136500,3.320136474609375,-0.029814708027243612,-0.07690101498141884,-0.053327539431303736
1772566221353165600,3.33016552734375,-0.07165244680345058,-0.11085939868465065,-0.029038901349157095
1772566221363194400,3.3401943359375,0.01582651468515396,-0.12510638909339905,-0.01914835258424282
1772566221373222700,3.35022265625,0.0851584095865488,-0.12392170935347675,-0.02506955932676792
1772566221383251700,3.360251708984375,0.07450666719079017,-0.08867211679592728,0.02544935242459178
1772566221393279500,3.370279541015625,0.06401742188036441,-0.07340265147164464,0.05331687190681696
1772566221403307800,3.380307861328125,0.07103343812227249,-0.06494666555449366,0.029156974770873784
1772566221413336600,3.390336669921875,0.09181377582252025,-0.05376198532581329,-0.025781068596988914
1772566221423364600,3.400364501953125,0.07142448326647281,-0.0539794274687767,-0.026834669303148984
1772566221433393400,3.410393310546875,0.0635731852442026,-0.040567572709918016,-0.027249972105771302
1772566221443422500,3.42042236328125,0.08189736196398735,0.03513867952898145,-0.030381548129767177
1772566221453450800,3.43045068359375,0.0790980866342783,0.07954962979406117,-0.0552830574132502
1772566221463479600,3.4404794921875,0.1415957516014576,0.09874649769514798,-0.046924394390732045
1772566221473507600,3.450507568359375,0.14670330387353897,0.09860226691886782,-0.03165010676085949
1772566221483536400,3.460536376953125,0.10961538997292518,0.07294935474619269,-0.023757161553949115
1772566221493564700,3.470564697265625,0.09961831209361553,0.03235240981131792,-0.032736440692842005
1772566221503592400,3.480592529296875,0.11464636987745762,0.04639101816639304,-0.053459933639317746
1772566221513621500,3.49062158203125,0.11294307309091091,0.051702860838919874,-0.035953649173676966
1772566221523649800,3.50064990234375,0.08557926534712314,0.056901160134375094,0.023733780678361655
1772566221533678600,3.5106787109375,0.08397825989127158,0.0775805216781795,0.05757438322082162
1772566221543707600,3.520707763671875,0.09690262339413165,0.11001768716350196,0.06432751074284315
1772566221553735400,3.5307353515625,0.12459434791803359,0.13143296176642177,0.028007658605277538
1772566221563764500,3.540764404296875,0.13967968884706497,0.12713321874588726,-0.015155921947211026
1772566221573792800,3.550792724609375,0.12371288890838622,0.11060279357507824,-0.021457652439922092
1772566221583821600,3.560821533203125,0.048610009390115734,0.06575710515454411,-0.0026050679318606854
1772566221593849600,3.570849609375,-0.028036007916927334,0.048642742615938185,0.013862667266279459
1772566221603877600,3.580877685546875,-0.004705401211977005,0.005086217223107815,0.008376490940153598
1772566221613906700,3.59090673828125,0.039031449183821676,-0.0732451228223741,0.019716069469600916
1772566221623935700,3.600935791015625,0.10543196680843829,-0.0780928551144898,0.04941474990174174
1772566221633963500,3.610963623046875,0.1632534566581249,-0.04874897946938872,0.08603314659446477
1772566221643992600,3.62099267578125,0.18526888911128042,-0.03603621289059519,0.0873322464942932
1772566221654020600,3.6310205078125,0.20520400815904138,-0.051637832778692244,0.05938917755782604
1772566221664049700,3.641049560546875,0.21312954046130178,-0.03428498530909419,0.03730769413113594
1772566221674077400,3.651077392578125,0.20651684432327747,-0.02252864267230034,0.04935995097458362
1772566221684106500,3.6611064453125,0.18535598287284374,-0.019846710111945866,0.03954275970682502
1772566221694134500,3.671134521484375,0.13968378050029276,0.03208338361158967,0.04072846236005425
1772566221704163600,3.68116357421875,0.12278233006000518,0.05319660652801394,0.005392360562831163
1772566221714191600,3.691191650390625,0.1429851601332426,0.05258782697990536,-0.03214943458512425
1772566221724220400,3.701220458984375,0.10719430030584334,0.06258490485921502,-0.026374942836910484
1772566221734248700,3.711248779296875,0.0708498982489109,0.0831095142327249,0.020481500884145496
1772566221744277500,3.721277587890625,0.06492986055016517,0.09411386945843696,0.027748569277673957
1772566221754305500,3.731305419921875,0.04498889628350734,0.10453516409918666,0.013669775042682885
1772566221764334600,3.74133447265625,0.08870879554450511,0.08375774900838732,-0.023640695567429065
1772566221774362600,3.751362548828125,0.16384791541993618,0.06887173004373907,-0.062763037905097
1772566221784391700,3.7613916015625,0.1820329759299755,0.08657455999478697,-0.05222425436452031
1772566221794419500,3.77141943359375,0.21248715090453624,0.052941462723165744,-0.04348901311457157
1772566221804448500,3.781448486328125,0.19338965172469616,0.05749298854768276,-0.011238456242531537
1772566221814476500,3.7914765625,0.0813806446135044,0.08197583402767777,0.0752056092403829
1772566221824505600,3.801505615234375,0.10340718298256396,0.04581453345268965,0.044223026477545495
1772566221834533600,3.81153369140625,0.11542144590318203,0.022687486495822667,-0.009302081352472305
1772566221844562400,3.8215625,0.055103463062644,0.04602481520250439,-0.0076354633145034306
1772566221854590700,3.8315908203125,0.021223405292630195,0.02299246079176664,-0.015922230144590137
1772566221864619500,3.84161962890625,0.005635960060358047,-0.0018535189121961593,-0.03701601770818233
1772566221874647600,3.8516474609375,0.00828793587386608,-0.006253653567284345,-0.054090778888761994
1772566221884676600,3.861676513671875,0.041458968591690064,-0.03862330677434802,-0.0665786506704986
1772566221894704600,3.87170458984375,0.1125420910745859,-0.051416298982501024,-0.04143953323885798
1772566221904733700,3.881733642578125,0.14557166949510572,-0.0295506502635777,0.002486994510143995
1772566221914761700,3.89176171875,0.13088263440728187,-0.025356559574604032,0.04534852337613701
1772566221924790500,3.90179052734375,0.12660218060910702,0.006561112081259489,0.04827040217220783
1772566221934818800,3.91181884765625,0.13764555267095566,0.007151917581260204,-0.006615180356055498
1772566221944848000,3.921847900390625,0.08856734124720096,0.008178922541439532,-0.04077610089406371
1772566221954875600,3.931875732421875,0.06668576430678368,0.012034721186757087,-0.0603353723667562
1772566221964904700,3.94190478515625,0.07466916427612304,-0.009791033913195133,-0.04723199903517961
1772566221974932700,3.9519326171875,0.06729717420339584,-0.03286693520471454,-0.012756021198630332
1772566221984961800,3.9619619140625,0.07604629784822464,-0.06073956925347447,0.012573942629992962
1772566221994989600,3.971989501953125,0.10459726954996586,-0.0849605489268899,0.02057502438649535
1772566222005018600,3.9820185546875,0.11110825887918471,-0.08219634491056203,0.031013562422990797
1772566222015046700,3.992046630859375,0.126328039842844,-0.051908466413617134,0.03595379530414939
1772566222025075700,4.00207568359375,0.11450608462393283,0.01678966062888503,0.05967500876188278
1772566222035103700,4.012103759765625,0.08325345274806022,0.03983823552206158,0.024514409662038085
1772566222045132500,4.022132568359375,0.0957505307495594,0.006673340284079313,-0.025069267065823075
1772566222055160800,4.032160888671875,0.07513035204708576,-0.01868044281154871,-0.01874985478594899
1772566222065189600,4.042189697265625,0.08230126658976078,-0.01948839819356799,-0.01733180468156934
1772566222075217700,4.0522177734375,0.09836100550889969,0.02077814574316144,-0.00951119405850768
1772566222085246700,4.062246826171875,0.09115209704339504,0.04702493215575814,-0.009979396092146634
1772566222095274800,4.072274658203125,0.10411211638152598,0.045226650562137365,-0.000022065701335668563
1772566222105303800,4.0823037109375,0.0840863964408636,0.06716404934301971,0.04696326509639621
1772566222115331600,4.09233154296875,0.03990530940890312,0.03128945675492287,0.04618921198397875
1772566222125360600,4.102360595703125,0.022044658547639845,0.002340864037722349,0.034243922646343704
1772566222135388700,4.112388671875,0.010626023432612418,-0.002600976278632879,0.03509221003875136
1772566222145417700,4.122417724609375,0.05971241816282272,-0.0285157542578876,0.004902677349746227
1772566222155445800,4.13244580078125,0.12384908250868319,-0.012773849116265773,-0.013721359099447727
1772566222165474600,4.142474609375,0.16834113518595695,0.01802344020754099,-0.0019603402875363824
1772566222175502800,4.1525029296875,0.19292437230050563,0.011324527090787887,0.0020648235753178597
1772566222185531600,4.16253173828125,0.17416589581668376,0.02802738621905446,-0.005545943689346313
1772566222195559700,4.1725595703125,0.13329203363656997,0.04663417927250266,0.03215367236882448
1772566222205588700,4.182588623046875,0.08902969806194305,0.0056081952705979345,0.025558365757018326
1772566222215616800,4.19261669921875,0.10608312419354915,-0.04132467468753457,0.008706161285936832
1772566222225645800,4.202645751953125,0.10477964037954807,-0.059558542775362724,0.030111206755787132
1772566222235673600,4.212673583984375,0.107340430778265,-0.06117503806129097,0.0319850378036499
1772566222245702700,4.22270263671875,0.13826163874268532,-0.0576620615042746,-0.009289514131844043
1772566222255730700,4.232730712890625,0.16127777267098425,-0.0341223420932889,-0.03343888987377286
1772566222265759700,4.242759765625,0.0933060602068901,0.004490735547989607,0.008789017263799905
1772566222275787500,4.25278759765625,0.08570493755340576,0.009633066872507333,0.0045215690776705736
1772566222285816600,4.262816650390625,0.1549058995515108,-0.013881225836277006,-0.015502543427795171
1772566222295844900,4.272844970703125,0.15139759916961193,-0.0055693245649337765,0.03685235157907009
1772566222305873700,4.282873779296875,0.13633973076939582,-0.007836246583610772,0.07136398525089024
1772566222315901700,4.292901611328125,0.12667875297665596,-0.033340982457250354,0.03061901014745235
1772566222325930500,4.302930419921875,0.13478256445527076,-0.04764598666355013,-0.017456892365962266
1772566222335958800,4.312958740234375,0.1178711771428585,-0.0699075028322637,-0.05089052154272795
1772566222345987800,4.32298779296875,0.03813362356126308,-0.06199819101244211,0.003196019562333822
1772566222356015600,4.333015625,-0.032930794221162796,-0.03327931539788842,0.05438625470399856
1772566222366044700,4.343044677734375,-0.02651917361319065,-0.016211422349512575,0.026277035420387982
1772566222376072700,4.35307275390625,0.032492987325787544,-0.00746405227035284,0.011021744751930237
1772566222386101800,4.363101806640625,0.07838847706019877,-0.007817688013613223,0.014507687171548603
1772566222396129500,4.373129638671875,0.07422142050862311,-0.006165536892414092,0.028530221174657342
1772566222406158600,4.38315869140625,0.09125263480842113,-0.005111351664364338,0.03003726473674178
1772566222416187000,4.393186767578125,0.09773965874016284,0.020985212622582912,-0.012600684506446122
1772566222426215700,4.403215576171875,0.1447410638898611,0.030095570795238016,-0.01686228747367859
1772566222436243700,4.41324365234375,0.0909574512541294,0.004107143057882786,0.027616759591549633
1772566222446272500,4.4232724609375,0.08585399063527584,-0.021043957072496414,0.04156403640136123
1772566222456300800,4.43330078125,0.1454652865111828,-0.02250862279757857,0.007172814238816499
1772566222466329900,4.443329833984375,0.1514893691062927,-0.006040303077548742,-0.023617460822314022
1772566222476357600,4.453357666015625,0.14417875383198261,-0.0027985446773469446,0.00008197919502854347
1772566222486386700,4.46338671875,0.12729659261405468,0.02891965888366103,0.029805940198898314
1772566222496414700,4.473414794921875,0.08848375461697577,0.06055369129255413,0.022259178081154823
1772566222506443800,4.48344384765625,0.05043897838294506,0.04698313884064555,0.012643354604393243
1772566222516471600,4.493471435546875,0.05793897874951362,0.01872749682366848,-0.019161212065815926
1772566222526500600,4.50350048828125,0.04104804970324039,-0.01763487928137183,-0.027913258320093153
1772566222536528600,4.513528564453125,0.0335667540371418,-0.03431172718554735,-0.019518208809942005
1772566222546557700,4.5235576171875,0.09974398429989814,-0.015598989539593457,-0.020537322724610566
1772566222556585700,4.533585693359375,0.10732464868724345,0.0018294073842465876,-0.014342267476767302
1772566222566614500,4.543614501953125,0.1318921037107706,-0.01010331473276019,-0.02808247740715742
1772566222576643600,4.5536435546875,0.17054419818818567,0.010434154122322797,-0.03447597783654928
1772566222586671600,4.563671630859375,0.12115560564100741,0.022754121991246937,0.0016834230422973632
1772566222596700700,4.57370068359375,0.10872983931005001,0.009956307477504015,0.006415712261199951
1772566222606728700,4.583728759765625,0.08810147730112075,0.013901391841471194,-0.04412935684472322
1772566222616757500,4.593757568359375,0.09086217418611049,0.007980331229418516,-0.07461509600132703
1772566222626785800,4.603785888671875,0.09207213449776172,-0.002662058816105127,-0.07415624631792306
1772566222636814600,4.613814697265625,0.09754910460412501,-0.019808716189116237,-0.047719782552123065
1772566222646842600,4.623842529296875,0.09532441429197788,-0.04943710786402225,-0.024924597898125646
1772566222656871700,4.63387158203125,0.13475216931700706,-0.04414966898038983,-0.009300912308692932
1772566222666899700,4.643899658203125,0.13980711461901663,-0.02161708078533411,-0.005745557914674282
1772566222676928800,4.6539287109375,0.13291267893016337,0.007811112142354249,-0.008780980087816715
1772566222686956500,4.66395654296875,0.13053601292669773,0.010907178461551665,-0.026089988415688273
1772566222696985600,4.673985595703125,0.15508827038109302,0.014099398631602525,-0.08180266941785812
1772566222707013600,4.684013671875,0.16677286295592783,0.01049465213790536,-0.09994725178703665
1772566222717042700,4.694042724609375,0.12426876922547817,0.008535773155093192,-0.06998202937319874
1772566222727070700,4.70407080078125,0.11984569208621978,0.018247604352235793,-0.040491584864258766
1772566222737099500,4.714099609375,0.11813128938376903,0.056218584697693585,-0.02458747489824891
1772566222747127800,4.7241279296875,0.13519640595316887,0.07383972771465779,-0.03983355934694409
1772566222757156600,4.734156494140625,0.15151684163510798,0.07056333639249206,-0.03230287158116698
1772566222767184600,4.7441845703125,0.10369885940551757,0.08755188059434295,-0.0037536534450948234
1772566222777213700,4.754213623046875,0.11206161408126354,0.08692205825820565,-0.016235241616517303
1772566222787241700,4.76424169921875,0.1265764616459608,0.08683774097561836,-0.022284312522411344
1772566222797270800,4.774270751953125,0.0675122782588005,0.08050386177897453,0.0026110592812299727
1772566222807298600,4.784298583984375,0.023472645524144173,0.05244388846457004,0.005457388623058795
1772566222817327600,4.79432763671875,-0.007965864312648773,0.057051820651441806,0.02462298460304737
1772566222827355600,4.804355712890625,0.054445875936746595,0.08534063428565859,-0.010146277091652155
1772566222837384700,4.814384765625,0.12781681709587572,0.11882628591060637,-0.01065729535371065
1772566222847412500,4.82441259765625,0.14316051670014857,0.13415274211913347,0.005364303512126207
1772566222857441500,4.834441650390625,0.18099837218523024,0.1495807590059936,0.008833294796943664
1772566222867469800,4.8444697265625,0.163510646289587,0.1838086073003709,0.02639320914596319
1772566222877498600,4.85449853515625,0.1529278774768114,0.16150456716418266,0.028727643442898985
1772566222887526700,4.864526611328125,0.08558277247846126,0.08107201705574989,0.024720161367207765
1772566222897555700,4.8745556640625,0.025160744741559028,0.03556947216168046,-0.008899345770478248
1772566222907583700,4.884583740234375,-0.002239303359389305,-0.0455846702195704,0.06684416973888874
1772566222917612500,4.894612548828125,0.0986567735850811,0.03131093793436885,0.011287263820320368
1772566222927640600,4.904640625,0.12889584450423716,0.14470789227262137,0.01899403880536556
1772566222937669600,4.914669677734375,0.1535544849425554,0.07139496491104363,0.016574264312535524
1772566222947697700,4.92469775390625,0.16494097135365007,0.02270283019542694,0.006354045201838016
1772566222957726500,4.9347265625,0.21696049692630767,0.07192571078687905,0.0353179816186428
1772566222967754500,4.94475439453125,0.14016951819062232,-0.004048544738441706,0.028094752366840836
1772566222977783600,4.954783447265625,0.12504150716364382,-0.09737053316682577,0.00957782955393195
1772566222987811600,4.9648115234375,0.14570494048595428,-0.10417933639883994,-0.004798340192437172
1772566222997840600,4.974840576171875,0.12104103935062885,-0.07523775794431567,-0.0020624854877591132
1772566223007868400,4.984868408203125,0.09556523731052875,-0.06123655899018049,0.031925708831846714
1772566223017897700,4.994897705078125,0.07977087132930755,-0.045117052707821126,0.048556817898154254
1772566223027925500,5.004925537109375,0.08154255717694758,-0.009461948089301585,0.021210107419639825
1772566223037954600,5.01495458984375,0.12615619040727616,0.0009375731110572815,-0.01751066837981343
1772566223047982600,5.024982666015625,0.13988134889900683,-0.004715484214574098,-0.011183803445845842
1772566223058011600,5.03501171875,0.12363514749705791,-0.008103373087197541,-0.006962240228056907
1772566223068039700,5.045039794921875,0.13170154957473276,0.009462094219774007,-0.023048574893176556
1772566223078068500,5.055068359375,0.07375380299687385,0.027252748584747313,-0.03720993284508586
1772566223088096500,5.065096435546875,0.0518488451808691,0.0348041868776083,-0.03858692028671503
1772566223098125800,5.075125732421875,0.035759295645356175,0.06137509067803621,-0.014806670118123292
1772566223108153600,5.085153564453125,0.045129181537032124,0.06280117795839905,-0.004630728540569544
1772566223118182700,5.0951826171875,0.12563830401301385,0.07673354946002364,-0.011556290020048618
1772566223128210400,5.10521044921875,0.16145196019411087,0.0855026929795742,-0.01661547310575843
1772566223138239700,5.11523974609375,0.1694067185908556,0.050180035185813904,-0.00845306330770254
1772566223148267500,5.125267578125,0.22002280710637567,0.07534151057973504,0.011148293741047382
1772566223158296600,5.135296630859375,0.23837620992064473,0.12089125561639666,-0.020673077933490276
1772566223168324400,5.145324462890625,0.20097966846227644,0.060008186239004134,-0.04668021037131548
1772566223178353700,5.155353759765625,0.10329787738919258,0.021283172655850648,-0.059736675821244714
1772566223188382700,5.1653828125,0.08129004372060299,0.062238575639575716,-0.04178293984904885
1772566223198410500,5.175410400390625,0.032578327521681785,0.043952100581675764,-0.028452918154746293
1772566223208439600,5.185439453125,-0.015099953976273535,0.00817424636632204,-0.014192483742535114
1772566223218467600,5.195467529296875,-0.018450433447957038,0.013498363998532294,-0.005056114345788955
1772566223228496600,5.20549658203125,-0.017421090400218962,0.008267623738199472,0.013107611115276812
1772566223238524700,5.215524658203125,-0.009402619117498397,-0.0034377193637192245,-0.0006793605662882327
1772566223248553500,5.225553466796875,0.09658815061748027,-0.00834112736582756,-0.042363954607397315
1772566223258581800,5.235581787109375,0.19917466486692428,0.004390343913435936,-0.06521802984178066
1772566223268610600,5.245610595703125,0.1853624126136303,0.013785071985423563,-0.01579261241555214
1772566223278638600,5.255638671875,0.19914485425055026,0.026034166575223207,-0.012052987495809792
1772566223288667600,5.265667724609375,0.22607553127408025,0.020464257488399744,-0.03805398245379329
1772566223298695700,5.27569580078125,0.213625215023756,-0.010476678089797496,-0.02767608856335282
1772566223308724700,5.285724853515625,0.12668401367366314,-0.009392974506318569,0.07220102059692143
1772566223318752500,5.29575244140625,0.024037293669581412,-0.0034014790065586566,0.10607596380040049
1772566223328781600,5.305781494140625,0.02684942848086357,-0.0007405892342329024,0.01888385642915964
1772566223338809600,5.3158095703125,0.09377893841564655,-0.011563158152252435,-0.06838102391734718
1772566223348838700,5.325838623046875,0.0635480508029461,-0.043711569824069735,-0.07696195138841867
1772566223358866700,5.33586669921875,0.02029167740046978,-0.05846227197125554,-0.016895166829973458
1772566223368895500,5.3458955078125,0.02673252410292625,-0.026219898405671117,-0.02974003535583615
1772566223378923800,5.355923828125,0.112681791806221,0.003670066814869642,-0.07155936169251799
1772566223388952600,5.36595263671875,0.13974573982059954,-0.018576397915184496,-0.028062749793380498
1772566223398980600,5.375980712890625,0.13793196839690208,-0.03987359909638762,0.036611382430046795
1772566223409009700,5.386009765625,0.1384796654075384,-0.02418079379349947,0.0963311071164906
1772566223419037700,5.39603759765625,0.18093290573358534,-0.015101123020052908,0.037850568836182354
1772566223429066800,5.406066650390625,0.19915420660078526,-0.05565642077028751,-0.01957519969418645
1772566223439094500,5.416094482421875,0.14769289943277836,-0.08043357302173972,-0.012758797677606343
1772566223449123600,5.42612353515625,0.1014665703088045,-0.07580445191636681,0.0043771921709179875
1772566223459151600,5.436151611328125,0.06868716725707054,-0.0730493079893291,0.017435849577933548
1772566223469180700,5.4461806640625,0.01911269674897194,-0.06158961021155119,0.020430062957853077
1772566223479208400,5.45620849609375,-0.027322306689620015,-0.024805793824046848,0.03307166399657726
1772566223489237500,5.466237548828125,-0.07141220830678939,-0.023483605309575793,0.025089286940544842
1772566223499265800,5.476265869140625,0.03199906632900238,-0.020135756186395883,-0.023602701644599437
1772566223509294600,5.486294677734375,0.09752864633798598,-0.006610650311410427,-0.027759821324050426
1772566223519322600,5.496322509765625,0.080801383420825,-0.009663169749826192,-0.0011389409020543097
1772566223529351400,5.506351318359375,0.09790800104439258,-0.028926965407282113,0.026883476880937812
1772566223539379700,5.516379638671875,0.14193652786314487,0.02215878644660115,0.014141338077187537
1772566223549408800,5.52640869140625,0.16094108806252477,0.03190758865326643,0.026124621337652205
1772566223559436500,5.5364365234375,0.12462649662196636,0.037315439046174285,0.07198372458443045
1772566223569465600,5.546465576171875,0.10247603961229323,0.03843026842027902,0.05964870527684688
1772566223579493600,5.55649365234375,0.14567045369446277,0.029345336949825284,0.019028963988274333
1772566223589522700,5.566522705078125,0.13218261108994483,0.001838321343064308,-0.0032495033152401447
1772566223599550500,5.576550537109375,0.11990355975329875,-0.0372007266253233,-0.009084346948564052
1772566223609579500,5.58657958984375,0.14646949511766433,-0.03998129725456238,-0.0027966449812054633
1772566223619607800,5.59660791015625,0.12923954337537288,-0.020648089622706173,0.00629223201200366
1772566223629636600,5.60663671875,0.07643734299242497,-0.025368396142870186,0.022931085993349552
1772566223639664600,5.61666455078125,0.09180851512551307,-0.0066100657895207405,0.0244713011726737
1772566223649693400,5.626693359375,0.11191197647750377,-0.005798895537108183,0.006709872902184724
1772566223659721700,5.6367216796875,0.10177110621333121,-0.014539835875481365,0.011234072328358888
1772566223669750800,5.646750732421875,0.10566051486730575,-0.04316095020398497,0.014067249927669763
1772566223679778600,5.656778564453125,0.13924948073625565,-0.07544160995334387,0.0031251462832093237
1772566223689807600,5.6668076171875,0.1682826829969883,-0.09570040799751878,0.006128565882891416
1772566223699836400,5.67683642578125,0.11577391260266304,-0.08459683018103241,0.0419898605979979
1772566223709864700,5.68686474609375,0.030765725141763685,-0.049353959625214334,0.10163403583019971
1772566223719893800,5.696893798828125,-0.001336217039823532,-0.019227993691712617,0.07128916644901037
1772566223729921500,5.706921630859375,0.050502691268920895,0.007443155612796544,0.014714315659552812
1772566223739950600,5.71695068359375,0.045321489238739014,0.024341391182690856,0.013127777120471
1772566223749978600,5.726978515625,0.055558221092820166,0.02569543614014983,0.02790332144796848
1772566223760007700,5.737007568359375,0.09655307930409908,0.04908171855509281,0.016742314355820416
1772566223770035500,5.747035400390625,0.14679098215699196,0.06980988767668604,-0.01323255266919732
1772566223780064500,5.757064453125,0.14644552972018718,0.07224179099872707,-0.009239099118858575
1772566223790092500,5.767092529296875,0.11227788718044757,0.07674056372269987,0.014562486098706721
1772566223800121600,5.77712158203125,0.07741875524520873,0.06316562735661864,-0.002755436187982559
1772566223810149600,5.787149658203125,0.0756032302558422,0.05603855195567012,-0.02923208583369851
1772566223820178400,5.797178466796875,0.030780922710895536,0.06520970040485262,-0.017028730081766842
1772566223830206700,5.807206787109375,0.0004682020336389541,0.042151773161441086,0.08694105521962046
1772566223840235500,5.817235595703125,0.0687976418942213,0.15317746832370757,0.04491217778548598
1772566223850263600,5.827263671875,0.14445932433903216,0.19232143797129392,0.00030818916633725164
1772566223860292600,5.837292724609375,0.17227496750354765,0.0473993184261024,-0.05418488691300154
1772566223870320600,5.847320556640625,0.2082493672043085,0.04167684912607073,-0.028787995328009127
1772566223880349700,5.857349609375,0.25949030961990355,0.06959741396978497,0.005991641630232334
1772566223890377500,5.86737744140625,0.2509305710673332,0.03128551123216748,0.013457593596726655
1772566223900406500,5.877406494140625,0.22209669077098368,-0.004592734617739916,0.01318725222274661
1772566223910434600,5.8874345703125,0.16999767022132872,-0.028828619599342343,0.005029518599808215
1772566223920464600,5.897464599609375,0.062035308152437206,-0.0054598728410899635,0.026756489500403404
1772566223930492400,5.907492431640625,0.00128010293841362,0.021933453258126973,0.010992810918390751
1772566223940521500,5.917521484375,-0.06367664561867714,0.0071070555262267585,-0.009631459437310695
1772566223950549200,5.92754931640625,-0.0686234543710947,-0.016450637932866812,-0.02038520090281963
1772566223960578600,5.93757861328125,-0.011534370449185372,-0.04201572569161653,-0.03670183719247579
1772566223970606600,5.947606689453125,0.021768179693818092,-0.029699557214975355,-0.028118279372900724
1772566223980635400,5.957635498046875,0.09774901109039782,0.0029226094484329224,-0.025021044009923932
1772566223990663400,5.967663330078125,0.16763386369943617,0.011102262642234564,-0.006280833835154771
1772566224000692500,5.9776923828125,0.20991583911180495,0.011280249557644128,0.010749649812281131
1772566224010720500,5.987720458984375,0.22567864091098308,0.02711655498445034,0.030859833166003225
1772566224020749600,5.99774951171875,0.20953706892728804,0.05246083959937095,0.0401677597373724
1772566224030777300,6.00777734375,0.1736070928901434,0.04667801841422915,0.019243337391316888
1772566224040806700,6.017806640625,0.13312252228856086,0.061923079949617384,-0.01234568683207035
1772566224050834400,6.02783447265625,0.08087795578837394,0.07986892487630248,-0.04186623421832919
1772566224060863500,6.037863525390625,0.028104396978020665,0.0832687964476645,-0.04172112665921449
1772566224070891300,6.047891357421875,-0.009917582902312278,0.07740019667521118,-0.04145268498137593
1772566224080920600,6.057920654296875,0.011553075149655341,0.06033420332297682,-0.054812517292052505
1772566224090948400,6.0679482421875,0.04805588263869285,0.041730771270394325,-0.046885377554595466
1772566224100977400,6.077977294921875,0.07578092491030693,0.04267755060121417,-0.0241533212646842
1772566224111005400,6.08800537109375,0.13340659992694853,0.04066343429982662,-0.0036819033831357955
1772566224121034500,6.098034423828125,0.1661824958473444,0.018069471306353807,0.02778042572066188
1772566224131062500,6.1080625,0.16042495523393152,0.007664543278515339,0.03025499914065003
1772566224141091300,6.11809130859375,0.1962719291627407,0.03449687449410557,0.0070187927208840845
1772566224151120400,6.128120361328125,0.19136428337693212,0.039055999103188514,-0.0009578852467238902
1772566224161148700,6.138148681640625,0.16052081682384015,0.0019156243629753589,-0.018160656721144912
1772566224171177500,6.148177490234375,0.14931260958909987,-0.01833075259104371,-0.02825637266933918
1772566224181205500,6.15820556640625,0.12568038958907127,0.005955109012126922,-0.013699585659056901
1772566224191234300,6.168234375,0.09407762910127639,0.009600333646684885,0.005308189410716295
1772566224201262600,6.1782626953125,0.056740708875656125,0.013784195202589035,0.006008738895505667
1772566224211291600,6.188291748046875,0.03240530904233455,0.013979571644216775,-0.0036070845812559127
1772566224221319400,6.1983193359375,0.031576457002758976,-0.004684796815365553,-0.01853679655715823
1772566224231348500,6.208348388671875,0.08154314169883728,-0.0429005457021296,-0.02224851055666804
1772566224241376500,6.21837646484375,0.09108020085096359,-0.038132162256538864,-0.001346153911948204
1772566224251405600,6.228405517578125,0.09875321969687938,-0.019231208562105893,0.016622633498907087
1772566224261433300,6.238433349609375,0.10761690963208674,-0.0026725802101194855,0.028399288271367548
1772566224271462400,6.24846240234375,0.097323479154706,0.0027197803527116773,0.010177110621333122
1772566224281490700,6.25849072265625,0.11066752937436103,0.019150836802273988,-0.0034041093550622463
1772566224291519500,6.26851953125,0.10614859064519405,0.03644771630093455,-0.007231704819202422
1772566224301547500,6.278547607421875,0.12324117974340915,0.05553206373825669,-0.02517594231069088
1772566224311576300,6.288576416015625,0.11650807209610939,0.08904343432635069,-0.04777428921833634
1772566224321604600,6.2986044921875,0.09738602299690247,0.09375745723620056,-0.046327597541362044
1772566224331633700,6.308633544921875,0.08851531879901886,0.06926482101455331,-0.023477467829734085
1772566224341661400,6.318661376953125,0.07175532265603542,0.04945961195677519,-0.00009060089290142059
1772566224351690500,6.3286904296875,0.10237550184726714,0.05847293949574232,-0.004617722928524017
1772566224361718500,6.338718505859375,0.10219020840823649,0.05889087264686822,0.009820406138151884
1772566224371747600,6.34874755859375,0.08185702995359898,0.04351107881590724,0.01356806823387742
1772566224381775400,6.358775390625,0.071938862529397,0.03098550537228584,-0.008776742304116488
1772566224391804400,6.368804443359375,0.10040858568847179,0.029559418091922997,-0.02069309780821204
1772566224401832400,6.37883251953125,0.10815817690193652,0.04802212649956345,-0.019822890844941137
1772566224411861500,6.388861572265625,0.1157622221648693,0.06574833732619881,-0.012457184382528066
1772566224421889500,6.3988896484375,0.13478197993338106,0.0648665860556066,0.008936316780000925
1772566224431918300,6.40891845703125,0.12061083123981951,0.07129895719066262,0.02315305818095803
1772566224441946600,6.418946533203125,0.11887597027122973,0.07487170111089944,0.013670651825517416
1772566224451975400,6.428975341796875,0.1675023462742567,0.05971314881518483,-0.009319324748218059
1772566224462003500,6.43900341796875,0.16126842032074928,0.05256707645282149,-0.025192747315019366
1772566224472032500,6.449032470703125,0.11146014105677604,0.062494157835841176,0.003949906669557094
1772566224482060500,6.459060546875,0.10621347257494926,0.05554886874258518,0.01799406798258424
1772566224492089600,6.469089599609375,0.10616320369243622,0.0470003822363913,0.005574000740051269
1772566224502118400,6.479118408203125,0.11402502310872077,0.056537441388517615,-0.019527268899232147
1772566224512146400,6.489146484375,0.17552958538532257,0.046630087619274854,0.005334200634807348
1772566224522175500,6.499175537109375,0.1919587421387434,0.03355374842509627,0.012597323505580425
1772566224532203500,6.50920361328125,0.20410861413776873,0.038777328292280436,0.014206804528832434
1772566224542232600,6.519232666015625,0.18562018676698205,0.03802797122970223,0.021426965040713546
1772566224552260400,6.52926025390625,0.12504501429498194,0.011596768160909413,0.018166355809569358
1772566224562289400,6.539289306640625,0.09333528630137443,-0.009581336685270071,0.0021462182484567162
1772566224572317400,6.5493173828125,0.06458265454769134,-0.025003508353233336,0.002577449272572994
1772566224582346500,6.559346435546875,0.014503157126903534,-0.015321487772464752,0.029962445934861897
1772566224592374500,6.56937451171875,0.02210369525849819,0.0012568681932985783,0.024588790072500703
1772566224602403300,6.5794033203125,0.04578852222859859,0.02658493232578039,-0.003537818737328052
1772566224612431600,6.589431640625,0.12462825018763542,0.010723638588190079,-0.015587299101799726
1772566224622460400,6.59946044921875,0.17929741348624229,-0.0106704470962286,-0.005942103400081396
1772566224632488400,6.609488525390625,0.19786299774646757,-0.014035393484681843,-0.009887187764048577
1772566224642517500,6.619517578125,0.18695289667546747,0.011893266889452933,0.01580415672287345
1772566224652545500,6.629545654296875,0.11038052912652492,0.02090937090739608,0.03118877285942435
1772566224662574600,6.63957470703125,0.047184360501170156,-0.0068101184062659735,0.028465193114429712
1772566224672602400,6.649602294921875,0.05883972698152065,-0.03142009739726782,0.00889057794213295
1772566224682631400,6.65963134765625,0.030707857474684713,-0.051043081755936144,-0.00033975334838032723
1772566224692659500,6.669659423828125,0.05414192455410957,-0.058479807627946134,-0.005909077913314104
1772566224702688500,6.6796884765625,0.06807575736045837,-0.06322086467519403,-0.0006686930418014526
1772566224712716300,6.68971630859375,0.09487374791502952,-0.03446443352922797,-0.011801789213716983
1772566224722745300,6.699745361328125,0.14094050256311894,0.02855141009315848,-0.0040147885993123055
1772566224732773600,6.709773681640625,0.15344868648052215,0.0554511074565351,0.013626812683790922
1772566224742802400,6.719802490234375,0.16658055525422094,0.03276698196157813,0.01518193317130208
1772566224752830500,6.72983056640625,0.17747721232175825,0.028404402837902305,-0.025321196000277994
1772566224762859300,6.739859375,0.13518120838403702,0.0020395430035889148,-0.03754734810590744
1772566224772887600,6.749887451171875,0.10543898107111453,-0.024400866284966467,-0.02849704955741763
1772566224782916600,6.75991650390625,0.06726794810891151,-0.016577040791511535,-0.015014759910851716
1772566224792944400,6.7699443359375,0.08122457726895808,-0.004279577015340328,-0.020979367403686045
1772566224802973400,6.779973388671875,0.07701543514132499,0.0079505206130445,-0.013256079675257205
1772566224813001500,6.79000146484375,0.08654255742132663,0.015538199263066052,-0.012243980023264885
1772566224823030500,6.800030517578125,0.12128186236917972,0.022494740402698516,-0.006889613383263349
1772566224833059600,6.8100595703125,0.08528174370527267,0.004837064767628908,0.0025486615695059296
1772566224843087400,6.82008740234375,0.05765373206734657,-0.021793606396019457,-0.015257774886488914
1772566224853116400,6.830116455078125,0.0876461347490549,-0.009239683640748262,-0.034791327396035195
1772566224863144400,6.84014453125,0.09916939928233623,0.005775806922465563,-0.040598844631016255
1772566224873173500,6.850173583984375,0.1178185701727867,0.01155380580201745,-0.03425546695366501
1772566224883201300,6.860201171875,0.09918576589524745,0.01812061697170138,0.013509177653491496
1772566224893230300,6.870230224609375,0.06838204683065414,0.035381109982728955,0.03183569246083498
1772566224903258600,6.880258544921875,0.10545242507457732,0.03476137064918876,0.0004892448216676712
1772566224913287400,6.890287353515625,0.08383446750640869,0.0510907202899456,-0.032591040872782466
1772566224923315200,6.900315185546875,0.10306114602386951,0.029263503885269163,-0.056220338263362646
1772566224933344300,6.91034423828125,0.12165654090046882,-0.0003143266461789608,-0.047909459905326364
1772566224943372300,6.920372314453125,0.13841361443400382,-0.03573430733457207,-0.023477321699261665
1772566224953401300,6.9304013671875,0.1484972015529871,-0.0531537902995944,-0.010250321988016366
1772566224963429000,6.94042919921875,0.1552466758131981,-0.031135289106518027,0.009178601103276014
1772566224973458200,6.950458251953125,0.07383271345198154,0.05913944058045745,0.005435615182667971
1772566224983486500,6.960486572265625,0.030688568252325056,0.05272562801539898,0.06065656714513898
1772566224993515300,6.970515380859375,-0.005801379755139351,0.05168254870325326,0.011948796468973158
1772566225003543300,6.980543212890625,-0.00042319384813308713,0.09176526050567627,-0.03839695067256689
1772566225013572000,6.990572021484375,0.08081190481483935,0.09888035320788621,-0.0881881326712668
1772566225023600400,7.000600341796875,0.13774141426086425,0.06755363318249583,-0.09926862187311053
1772566225033629400,7.01062939453125,0.16614333288073538,0.07353124628737569,-0.029879736087471246
1772566225043657200,7.0206572265625,0.15943360610902307,0.08239215974360704,0.008789017263799905
1772566225053686300,7.030686279296875,0.16953414436280725,0.05515197837948799,-0.007553922510892153
1772566225063714300,7.04071435546875,0.17415654346644877,0.006493015281111001,-0.01601136973276734
1772566225073743400,7.050743408203125,0.146087802323699,-0.013518822264671325,-0.0010348960056900977
1772566225083771100,7.060771240234375,0.0959422539293766,-0.0032442426182329653,0.012813450474292038
1772566225093800200,7.07080029296875,0.06657938132286072,0.040838790866732595,0.018558716128021478
1772566225103828500,7.080828369140625,0.05370879383385181,0.0579955312423408,0.006007715982198715
1772566225113857300,7.090857177734375,0.06619768852889538,0.03302490224540233,-0.01844064270630479
1772566225123885300,7.10088525390625,0.06623451340794563,-0.0022695523671805856,-0.02203457554504275
1772566225133914000,7.1109140625,0.07564590035378932,-0.03024769261702895,-0.013698855006694793
1772566225143942400,7.1209423828125,0.10228723904192447,0.02005304633900523,0.0011865794360637664
1772566225153971500,7.130971435546875,0.09051555270552634,0.10121858689710497,0.02861950689330697
1772566225164000300,7.141000244140625,0.11506430302858352,0.07598696887642145,0.010913462071865797
1772566225174028300,7.1510283203125,0.13564064258933067,0.019580460391193627,-0.005651157629489898
1772566225184057300,7.161057373046875,0.18151158240437507,0.037068478547781704,0.0014800094246864319
1772566225194085400,7.17108544921875,0.19621815314888952,0.05014145674109459,0.007415683083981275
1772566225204114400,7.181114501953125,0.16848434304893015,0.0436937419064343,0.0020331132628023624
1772566225214142200,7.19114208984375,0.13064414947628974,0.05037263514846563,0.00805076611712575
1772566225224171500,7.201171630859375,0.0961164414525032,0.07285188572108744,0.002647007377445698
1772566225234199300,7.21119921875,0.04438742325901985,0.07409647895470262,0.02446399464905262
1772566225244228400,7.221228271484375,0.05033902513980865,0.04984364283829927,-0.008536942198872566
1772566225254256000,7.231256103515625,0.10802432138919829,0.017720511738210914,-0.0429417544953525
1772566225264285400,7.241285400390625,0.11819149513840675,0.009494096793234348,-0.021127689833194015
1772566225274313200,7.251313232421875,0.11767536230981349,-0.024442659600079058,-0.007004910326004028
1772566225284342300,7.26134228515625,0.12374211500287055,-0.04218801351860165,0.031535978861898184
1772566225294370300,7.271370361328125,0.09679097971320151,0.008463730832189322,0.0487312976822257
1772566225304399400,7.2813994140625,0.04798164835870266,0.021137042183429003,0.036059739896655084
1772566225314427400,7.291427490234375,0.04718728311061859,-0.03711144090667367,0.010144815786927937
1772566225324456200,7.301456298828125,0.07584405327439307,-0.018740356305241585,0.0002849544212222099
1772566225334484200,7.311484130859375,0.06768471221625805,0.013334697869420051,0.03800079096183181
1772566225344513500,7.321513427734375,0.12637713968157768,-0.008788432741910218,0.0018484043456614017
1772566225354541300,7.331541259765625,0.17648527867496014,0.003465338023006916,-0.0011008008487522602
1772566225364570400,7.3415703125,0.21378069784641265,0.011826046872138977,-0.010604396122694015
1772566225374598100,7.35159814453125,0.16060206536650656,0.028173370561003684,0.03946940220966935
1772566225384627500,7.36162744140625,0.05955167464315891,0.010352028796821832,0.059397799255698915
1772566225394655200,7.3716552734375,0.07023731930851936,-0.0032620705358684062,0.00474222609102726
1772566225404684300,7.381684326171875,0.10419278040230273,0.016275573626905678,-0.022562983333319426
1772566225414713300,7.39171337890625,0.07830956660509109,-0.004577244787663221,0.015781798760592936
1772566225424741400,7.401741455078125,0.033649171623587604,-0.05000950092449784,0.06511588464155793
1772566225434770400,7.4117705078125,0.042481881898641584,-0.057336628942191596,0.04555179086327552
1772566225444798200,7.421798095703125,0.10220131432414055,-0.06845321237072348,-0.004470423412322998
1772566225454827300,7.4318271484375,0.11425649377703666,-0.05948620819151401,0.016928776838630435
1772566225464855600,7.44185546875,0.11224456943273543,-0.016441139452159404,0.062450464824587104
1772566225474884400,7.45188427734375,0.19693243889808654,-0.0019200082771480083,0.02895955250263214
1772566225484912400,7.461912353515625,0.17661913418769834,-0.021833500014990567,-0.008100888869166373
1772566225494941200,7.471941162109375,0.07567863357961177,-0.012957681250572204,-0.004471300195157527
1772566225504969500,7.481969482421875,-0.005855740290880203,0.005307604888826608,0.017126345237344503
1772566225514998500,7.49199853515625,0.009016250148415565,0.006750935564935207,-0.029568916572630402
1772566225525026300,7.5020263671875,0.049720016458630556,-0.017562544697523115,-0.04707008647173643
1772566225535055400,7.512055419921875,0.08242109357714653,-0.007721826423704624,0.0003165186032652855
1772566225545083400,7.52208349609375,0.10854922204613685,-0.0017579495832324027,0.04429755301848054
1772566225555112400,7.532112548828125,0.10969430042803287,0.00809080586656928,0.017907266481965778
1772566225565140200,7.54214013671875,0.13525719622969626,0.017994944765418765,-0.03382175171151757
1772566225575169300,7.552169189453125,0.17713468249440192,0.018087006963044404,-0.0251531459569931
1772566225585197600,7.562197509765625,0.16090250961780547,0.033254034826159476,0.04168167143166065
1772566225595226400,7.572226318359375,0.10210077655911445,0.08699614640772342,0.06771788383349776
1772566225605254400,7.58225439453125,0.09186872088015079,0.0874441824361682,0.012541355534642935
1772566225615283200,7.592283203125,0.11878420033454894,0.05491933866739273,-0.011510258921235798
1772566225625311500,7.6023115234375,0.05095101955831051,0.0005501812286674977,-0.018585311874002218
1772566225635340300,7.61234033203125,0.029146599507331845,-0.06871653948202729,-0.04358823570534587
1772566225645368300,7.622368408203125,0.06577624824643134,-0.07381006322875619,-0.026149463517963885
1772566225655397400,7.6323974609375,0.1256178457468748,-0.059752019520848985,-0.004944762925803661
1772566225665425400,7.64242529296875,0.1563748030602932,-0.061900283595919606,0.032413784609735014
1772566225675454500,7.652454345703125,0.13410335001945495,-0.05123816593661904,0.0870446617245674
1772566225685483300,7.662483154296875,0.06493979742228985,-0.009860299757122992,0.10064078700914979
1772566225695511300,7.67251123046875,0.05770575451552867,0.0098893797211349,0.06396116164848208
1772566225705540400,7.682540283203125,0.034494974797964095,-0.01686331038698554,-0.006922054348140955
1772566225715568400,7.692568359375,0.029099837756156918,-0.051163054873794314,-0.05650178555324673
1772566225725597400,7.702597412109375,0.07655600093603133,-0.06004018881246447,-0.050327773093432185
1772566225735625200,7.712625244140625,0.09755027364790439,-0.035844635841250416,-0.04296835024133324
1772566225745654300,7.722654296875,0.14668167656362055,-0.03941927945762873,-0.03095598701685667
1772566225755682300,7.732682373046875,0.1892044749945402,-0.0500821277692914,0.008798954135924577
1772566225765711400,7.74271142578125,0.1944376994729042,-0.01949731215238571,0.04866451605632901
1772566225775739400,7.752739501953125,0.1721633238226175,0.007539893985539674,0.0479765337921679
1772566225785768200,7.762768310546875,0.09704583125710486,-0.0040836160518229,0.054546413701772684
1772566225795796500,7.77279638671875,0.055257192319631575,-0.007573065602779388,0.019032324989140034
1772566225805825300,7.7828251953125,0.04957973120510578,0.011666180135309696,-0.01425429693236947
1772566225815853300,7.792853271484375,0.05224748910963535,0.01595613241419196,-0.039967268729209894
1772566225825882400,7.80288232421875,0.07980886525213718,0.039839258435368535,-0.04679506892263889
1772566225835910400,7.812910400390625,0.08840659772753715,0.056864189124852416,-0.022643062832206486
1772566225845939500,7.822939453125,0.048447512304782864,0.03323313816860318,0.009837065012007951
1772566225855967200,7.83296728515625,0.05225158076286315,0.0074652213141322135,-0.0064554597496986384
1772566225865996300,7.842996337890625,0.07048749467730522,0.03826207224652171,-0.008332359537482261
1772566225876024300,7.8530244140625,0.08134498877823353,0.03061886401697993,-0.0010464403130114079
1772566225886053400,7.863053466796875,0.13294482763409612,0.027183482740819453,-0.00988221932798624
1772566225896081400,7.873081298828125,0.13402385504245756,0.05446779550760984,-0.0225074537537992
1772566225906110200,7.883110107421875,0.16646365087628365,0.07368292971774935,-0.007439648481458425
1772566225916138500,7.893138427734375,0.1935147394090891,0.04758139699473977,0.007303454881161451
1772566225926166300,7.903166259765625,0.22714812894165515,0.023364362844079733,-0.023553455675393343
1772566225936195300,7.9131953125,0.17403788552284238,0.00948372152969241,0.003551993393152952
1772566225946223400,7.923223388671875,0.08873042285442352,0.01350683956593275,0.029818361289054154
1772566225956252400,7.93325244140625,0.046420974913239474,0.007645546317100524,-0.008719605289399624
1772566225966280200,7.9432802734375,0.05243628968000412,-0.0007867664635181426,-0.048304450572282075
1772566225976309200,7.953309326171875,0.024753332984447478,-0.00786532654762268,-0.021046587421000004
1772566225986337500,7.963337646484375,0.03147884184718132,-0.0031888591691851616,0.004961860191076994
1772566225996366300,7.973366455078125,0.05978022270202636,0.03198138454183936,0.025289339557290076
1772566226006394400,7.983394287109375,0.08767477632164955,0.03578691430464387,0.017713205214589835
1772566226016423200,7.993423095703125,0.12629179948568342,0.0296627323359251,0.006956687270104885
1772566226026451500,8.003451416015626,0.1324497375935316,0.05664002498015761,-0.0004896832130849361
1772566226036480500,8.01348046875,0.11527297734320163,0.042810675461590286,-0.0005552957952022552
1772566226046508300,8.02350830078125,0.1372328802168369,0.035031858153641224,-0.014711393050104379
1772566226056537300,8.033537353515625,0.10763912146389484,0.02312836213111877,-0.017887392737716435
1772566226066565400,8.0435654296875,0.08418342707455158,-0.0040304245598614214,0.0004126724541187286
1772566226076594400,8.053594482421875,0.05313011716306209,-0.022133505874872207,-0.002068769098073244
1772566226086622200,8.063622314453125,0.06685936730802058,0.017933569967001677,0.0068324763685464855
1772566226096651300,8.0736513671875,0.12741408151388167,0.06514949465021491,0.013978840991854667
1772566226106679600,8.083679443359374,0.1932820996969938,0.058901978562772274,-0.01655102956742048
1772566226116708400,8.093708251953124,0.2065191824108362,0.07115078089162707,-0.005177694898843765
1772566226126736400,8.103736328125,0.2062888807862997,0.09504150569736956,0.004412263484299183
1772566226136765200,8.11376513671875,0.2402735679745674,0.06940715209469199,-0.01688552221879363
1772566226146793500,8.12379345703125,0.1502484291344881,0.030689298904687166,-0.014278116199374198
1772566226156822500,8.133822509765626,0.05980126549005508,-0.012693915747851132,0.010805325522273779
1772566226166850300,8.143850341796876,0.009115618869662284,-0.018731880737841128,0.01771218230128288
1772566226176879400,8.15387939453125,0.017581833919882772,-0.0028926527015864846,0.012123130122572183
1772566226186908200,8.163908203125,-0.006613280659914017,0.028022563913464544,0.024301351433247326
1772566226196936400,8.1739365234375,0.018269231662154196,0.009876666370034218,0.017994944765418765
1772566226206965500,8.183965576171875,0.07610591908097267,0.0092608725592494,-0.03145136931836605
1772566226216993300,8.1939931640625,0.17083587461113928,0.029901801788806914,-0.040739276015013454
1772566226227022300,8.204022216796876,0.23370646454393862,0.015747458099573848,-0.004287175799906254
1772566226237050400,8.21405029296875,0.18113339674174783,0.017388503304868935,0.04609700365588069
1772566226247079400,8.224079345703124,0.0970446622133255,0.023767682947963473,0.03701952483952045
1772566226257107200,8.234107177734375,0.12509820578694342,0.04785188449919223,-0.022554800026863813
1772566226267136300,8.24413623046875,0.10232231035530566,0.06072890172898769,-0.026815526211261747
1772566226277164300,8.254164306640625,0.04127776680588722,0.031883477125316854,-0.03018193390443921
1772566226287193300,8.264193359375,0.10585516065657138,0.007634148140251636,-0.03881254573613405
1772566226297221400,8.274221435546876,0.11834171726405619,0.02425809681341052,-0.029801702415198087
1772566226307250200,8.284250244140624,0.09480711241960525,0.006983136885613203,-0.013580635454505682
1772566226317278500,8.294278564453125,0.08249240524768829,-0.003920096053183078,0.009712123458087444
1772566226327307300,8.304307373046875,0.08266308563947677,0.010439853210747242,-0.001924246060848236
1772566226337335300,8.314335205078125,0.10351824214160442,0.026279227377474308,-0.01529664559215307
1772566226347364400,8.3243642578125,0.08737024041712284,0.032175299678742886,0.007532149070501327
1772566226357392400,8.334392333984376,0.10079963083267211,0.03689721363410353,0.005044570038467646
1772566226367421400,8.34442138671875,0.18399755400121212,0.03447115553095936,-0.025423633461445567
1772566226377449200,8.35444921875,0.2287362749159336,0.02241173829436302,-0.028414778101444244
1772566226387478300,8.364478271484375,0.20093232218921184,0.021306115140020846,0.009628682958334684
1772566226397507300,8.37450732421875,0.18522972614467142,0.018302111018449068,0.007427373521775007
1772566226407535400,8.384535400390625,0.17790157521367073,0.04350640264078975,-0.0074698974892497055
1772566226417564400,8.394564453125,0.058391983214020726,0.03666691200956702,0.027362930960953234
1772566226427592200,8.40459228515625,0.0050672202616930005,0.0015432839192450047,0.013645078992843626
1772566226437621200,8.414621337890624,0.03162731040716171,-0.022119477349519728,-0.0274471021130681
1772566226447649300,8.424649169921874,0.0474830511868,-0.04371799956485629,-0.04611234735548496
1772566226457678300,8.43467822265625,0.07705985880494118,-0.061355509194731706,-0.004553425520658493
1772566226467706400,8.444706298828125,0.07098667637109755,-0.05416749738678336,0.04681406588405371
1772566226477735200,8.454735107421875,-0.007466098096966743,-0.042048751178383824,0.08398337445780635
1772566226487763500,8.464763427734376,0.029088731840252874,-0.033219548034667964,0.03487725211381912
1772566226497792300,8.474792236328126,0.08008826671540736,0.005892857430875301,-0.007853928370773791
1772566226507820300,8.4848203125,0.05371171644330024,-0.00027969372421503063,-0.013779519027471541
1772566226517849300,8.494849365234375,0.07850713500380516,0.005857347726076841,0.004961421799659729
1772566226527877400,8.50487744140625,0.10676000054180622,0.05022328980565071,0.01034384549036622
1772566226537906400,8.514906494140625,0.13952420602440832,0.06835925047695636,-0.005352174682915211
1772566226547934200,8.524934326171875,0.17094576472640036,0.054447337241470814,0.012345979093015193
1772566226557963300,8.53496337890625,0.14102701180279253,0.014972382073849438,0.028557109181582926
1772566226567991300,8.5449912109375,0.13622165734767913,0.003116378454864025,0.011196370666474104
1772566226578020400,8.555020263671874,0.13155425005853175,0.017529811471700667,-0.006979775884747505
1772566226588048100,8.565048095703125,0.12908815220594405,0.002994505640864372,-0.008251987777650356
1772566226598077200,8.5750771484375,0.09437047456800937,-0.035984774964302774,0.01039352985098958
1772566226608105500,8.58510546875,0.11468377927839755,-0.05094575886130333,-0.0028397534705698487
1772566226618134300,8.59513427734375,0.11402911476194857,-0.03473302133753896,-0.007218260815739631
1772566226628163300,8.605163330078126,0.10220131432414055,-0.04865238722711801,0.006204261467605829
1772566226638191000,8.615191162109374,0.066157356518507,-0.10023162168636918,0.018096797704696653
1772566226648220400,8.625220458984375,0.0554781415939331,-0.1081039624966681,0.02478562781885266
1772566226658248400,8.63524853515625,0.07339899820983409,-0.08021583861783146,0.014745003058761358
1772566226668277200,8.64527734375,0.07394201904535293,-0.029896248830854892,0.02202887645661831
1772566226678305300,8.65530517578125,0.09599369185566901,0.005753010568767786,0.00816007171049714
1772566226688334300,8.665334228515626,0.113200262722373,0.05029284791052341,0.0026388240709900855
1772566226698362400,8.6753623046875,0.10496727190613746,0.02932005637809634,-0.023347265578806398
1772566226708391400,8.685391357421874,0.11223229447305202,-0.02483779639750719,-0.061220484638214105
1772566226718419200,8.695419189453125,0.09330547568500042,-0.004829758244007825,-0.03947627034187317
1772566226728448500,8.705448486328125,0.10681903725266456,0.020008184283971785,0.003994038072228432
1772566226738476300,8.715476318359375,0.13044248942434786,0.04534063233062625,0.009258680602163076
1772566226748505300,8.72550537109375,0.1409504394352436,0.05068959214314818,0.0009961714304983615
1772566226758533000,8.735533203125,0.17845277935564516,0.03861614638119936,-0.021485855621099472
1772566226768562400,8.7455625,0.16915128252506256,0.046935938698053355,-0.012863280965387821
1772566226778590500,8.755590576171874,0.15263853914141653,0.0781786337018013,0.005632745189964771
1772566226788619300,8.765619384765625,0.14955752426087857,0.08751622475907206,-0.006747574564069509
1772566226798647300,8.775647216796875,0.08877601556181908,0.056524728037416934,-0.016081658490002156
1772566226808676400,8.78567626953125,0.053557987186312675,0.011555997759103775,-0.02435775779560208
1772566226818704400,8.795704345703125,0.022820319095253942,0.0029084347926080227,-0.017141688936948774
1772566226828733400,8.8057333984375,-0.03731646195948124,-0.01726648436039686,-0.008506839321553706
1772566226838762200,8.81576220703125,-0.04590893373787403,-0.021622779873758553,-0.012552169189602136
1772566226848790500,8.82579052734375,0.02461947747170925,0.008255787169933318,-0.035304829876124856
1772566226858819300,8.8358193359375,0.08294833232164382,0.012972586558759212,-0.018293781581521035
1772566226868847400,8.845847412109375,0.15734744748473167,0.0028448680371046067,0.009971212785691023
1772566226878876400,8.85587646484375,0.2497247024089098,0.013786533290147781,0.016002894165366887
1772566226888904400,8.865904541015626,0.27738077109754083,0.030652035634219643,0.025260113462805746
1772566226898933500,8.87593359375,0.25947686561644073,0.015706541567295788,0.01491919058188796
1772566226908961300,8.885961181640624,0.20301088202893733,-0.005520516987144947,-0.0193507432885468
1772566226918991600,8.89599169921875,0.12760171304047108,-0.04708250756189227,-0.01988251207768917
1772566226929019600,8.90601953125,0.06679740798771382,-0.06167378136366605,0.002683686126023531
1772566226939048400,8.91604833984375,0.024209727627038956,-0.054944034717231985,0.018773381792008877
1772566226949076700,8.92607666015625,0.04441255770027637,-0.01425605049803853,0.03142769618183374
1772566226959105500,8.93610546875,0.04485445624887943,0.020583061562478543,0.01649856872782111
1772566226969133600,8.946133544921874,0.052475452646613116,0.010629092172533274,-0.009857084886729716
1772566226979162600,8.95616259765625,0.05572714791893959,-0.030321050114184615,-0.03417538745477795
1772566226989190700,8.966190673828125,0.06826397340893745,-0.03004530191272497,-0.051880701623857016
1772566226999219700,8.9762197265625,0.09287292948663234,-0.05274097171500325,-0.03379588661789894
1772566227009247500,8.98624755859375,0.14244155477583406,-0.03322846199348569,-0.007795330051332712
1772566227019276500,8.996276611328126,0.17184709748029708,-0.009663315880298614,0.02994578706100583
1772566227029305600,9.0063056640625,0.17068448344171047,0.015697481478005648,0.04938961546048522
1772566227039333600,9.016333740234375,0.15173545282185077,0.04096387855112552,0.030054508132487532
1772566227049362700,9.02636279296875,0.062280222824215886,0.05796674353927374,0.0068273618020117275
1772566227059390500,9.036390380859375,0.007442132699489593,0.05834872859418392,-0.0028100889846682546
1772566227069419500,9.04641943359375,0.027180267870426177,0.05573445444256067,-0.037261370771378276
1772566227079447600,9.056447509765626,0.06209902103841304,0.038889410364627834,-0.04327142484113574
1772566227089476600,9.0664765625,0.10620587379038333,0.014513824651390313,-0.038645372475683684
1772566227099504400,9.07650439453125,0.14935235707759856,0.01759308596625924,-0.03041355070322752
1772566227109533400,9.086533447265625,0.17761691305339336,0.04369096542745828,-0.0029274317540228367
1772566227119561700,9.096561767578125,0.18579378976821898,0.030787644712626933,0.01586085534617305
1772566227129590500,9.106590576171875,0.13677110792398453,-0.008647855227440595,0.019284692315012217
1772566227139618600,9.11661865234375,0.10109539890885352,-0.014407295536994933,0.01474164205789566
1772566227149647400,9.1266474609375,0.038295536124706264,0.00107683545127511,0.001862725131958723
1772566227159675600,9.136675537109374,0.0012736731976270674,-0.0011379179887473583,-0.0038259880289435383
1772566227169704700,9.14670458984375,0.019677929416298864,0.0004826689504086971,-0.012041004797071217
1772566227179732500,9.156732421875,0.03968903630971908,-0.006791413705796003,-0.016708996608108283
1772566227189761500,9.166761474609375,0.059687868243455885,-0.01945303461924195,-0.020188363156467676
1772566227199789600,9.17678955078125,0.103427641248703,-0.0020874737985432145,-0.009773790517449378
1772566227209818600,9.186818603515626,0.08610065887272357,0.02361541499570012,0.008623159177601336
1772566227219846400,9.196846435546876,0.07953238639831542,0.020822423276305197,0.02406009002327919
1772566227229875500,9.20687548828125,0.10513736777603626,0.01592676018923521,0.027205840703099966
1772566227239904800,9.21690478515625,0.12677753717601298,0.02839402757436037,0.0170000885091722
1772566227249932500,9.2269326171875,0.15218027397990225,0.027056933751702306,0.015741905141621826
1772566227259961600,9.236961669921875,0.177518713375926,0.03198752202168107,0.014431553195416927
1772566227269989400,9.2469892578125,0.12657821521162985,0.04547857949659228,0.017022884862869975
1772566227280018700,9.257018798828126,0.11498714613914489,0.04493263605162501,-0.014289368245750665
1772566227290046700,9.267046630859374,0.11011281810104846,0.038259441898018116,-0.03417947910800576
1772566227300075500,9.277075439453125,0.13875789782702921,0.009816168354451656,-0.031162761635333297
1772566227310103600,9.287103515625,0.1619464657127857,-0.0012006079614162444,-0.01527516441270709
1772566227320132600,9.297132568359375,0.16380641436576843,-0.009505202709138393,0.014314941078424452
1772566227330160600,9.30716064453125,0.12638356942236423,0.013193535833060741,0.05961056522354483
1772566227340189700,9.317189697265626,0.0648673167079687,0.0288708513058722,0.06967603216394781
1772566227350217500,9.327217529296876,0.05432897155880928,0.021745383340120314,0.0046573242865502835
1772566227360246800,9.337246826171874,0.060088850259780884,0.02686813318133354,-0.051233928152918815
1772566227370274600,9.347274658203125,0.03185819655358791,0.004322393243759871,-0.05818360116034746
1772566227380303600,9.3573037109375,0.10277648386359214,0.02403290975540876,-0.05786269864290952
1772566227390331400,9.367331298828125,0.1384007549524307,0.05396145342066884,-0.04431304284855723
1772566227400360700,9.377360595703125,0.15146657275259495,0.05654255595505237,-0.008604454477131367
1772566227410388500,9.387388427734376,0.17573884422183036,0.0639592619523406,0.02979132715165615
1772566227420417500,9.39741748046875,0.10599252330064773,0.08967588701099156,0.038749855763465166
1772566227430446600,9.407446533203125,0.06849836668670177,0.055362406259775156,0.029125556719303128
1772566227440474600,9.417474609375,0.03607844459712505,0.054675446908921004,-0.013131138121336698
1772566227450503700,9.427503662109375,0.054362873828411096,0.056606853362917896,-0.05237725296914577
1772566227460531500,9.437531494140625,0.08430909928083419,0.03882131356447935,-0.044388446172326804
1772566227470560500,9.447560546875,0.11247896271049976,0.022693623975664375,-0.035555735897272824
1772566227480588800,9.4575888671875,0.1450625509291887,0.017911504265666008,-0.018786679664999247
1772566227490617600,9.46761767578125,0.13922726890444756,0.02849514986127615,0.0036740123376250264
1772566227500645600,9.477645751953125,0.0980553005605936,0.024142507609724997,0.012087912678718567
1772566227510674400,9.48767431640625,0.0740478175073862,0.05566811120808124,0.01715907846316695
1772566227520702700,9.49770263671875,0.05913666410148143,0.08647723710015416,0.004059504523873329
1772566227530731800,9.507731689453125,0.07709434559643268,0.0880532542452216,-0.03186769503429532
1772566227540759600,9.517759521484376,0.07233692193627357,0.07186360533609985,-0.04221066374182701
1772566227550788600,9.52778857421875,0.12842647342681884,0.05679463101997971,-0.028093437192589044
1772566227560816600,9.537816650390624,0.18594225832819938,0.053797641161084174,-0.024705256059020755
1772566227570845700,9.547845703125,0.20515257023274897,0.05821735729947686,0.008978402356058358
1772566227580873500,9.55787353515625,0.19211773209273814,0.0421653632953763,0.015626462068408727
1772566227590902500,9.567902587890625,0.10856208152770995,0.061803106831759214,0.030747751093655823
1772566227600930800,9.577930908203125,0.06873802066147328,0.0824526577591896,0.03302840937674045
1772566227610959600,9.587959716796876,0.026589900761842727,0.06670812226906418,-0.014400281274318694
1772566227620988700,9.59798876953125,0.023881226325035095,0.06033464171439409,-0.03847819921523332
1772566227631016400,9.608016357421874,0.08782792105674743,0.06135623984709382,-0.043320378549396986
1772566227641045500,9.61804541015625,0.18870938495397566,0.07124664248153567,-0.048463732787221665
1772566227651073800,9.62807373046875,0.23666940600275993,0.061889323810487985,-0.012275982596725224
1772566227661102600,9.6381025390625,0.2235994965493679,0.05147241308391094,0.023456863433122633
1772566227671130600,9.648130615234376,0.151986797234416,0.08122340822517872,0.03791954241916537
1772566227681159400,9.658159423828126,0.07974339880049228,0.07647036847919225,-0.003076777096837759
1772566227691187700,9.668187744140624,0.035167174971103665,0.0098697982378304,-0.04347936850339174
1772566227701216800,9.678216796875,0.02208382151424885,-0.03285889802873134,-0.03874956350252032
1772566227711244500,9.68824462890625,0.03081774758994579,-0.040076282061636444,-0.005054214649647474
1772566227721273600,9.698273681640625,0.058792380708456035,-0.04995601717159152,-0.007077537170797586
1772566227731301600,9.708301513671875,0.09566109890043735,-0.030250030704587698,-0.010040624760091304
1772566227741330700,9.71833056640625,0.11503624597787857,-0.014850509259849785,-0.00012611059769988058
1772566227751358500,9.7283583984375,0.10590133788585662,-0.021096710173040628,0.02755801514163613
1772566227761387500,9.738387451171874,0.056872226300835604,-0.0064845397137105465,0.035168051753938195
1772566227771415600,9.74841552734375,0.03682838618159294,0.015057576139271259,0.010134002131968736
1772566227781444600,9.758444580078125,0.10547229881882667,0.03446794066056609,-0.050975715608149764
1772566227791472600,9.76847265625,0.18595102615654469,0.04489069660604,-0.048205227981507774
1772566227801501400,9.77850146484375,0.20732406905293463,0.0352821796528995,-0.022835370533913373
1772566227811530500,9.788530517578126,0.2095961056381464,0.04109758793339133,-0.017625526931136847
1772566227821558500,9.79855859375,0.19283318688571452,0.06418342609703541,0.0022080314382910728
1772566227831587600,9.808587646484375,0.1234609599739313,0.11954188683405517,0.03310805048421025
1772566227841615600,9.81861572265625,0.10270926384627818,0.10905965578630566,0.02779781524688005
1772566227851644400,9.82864453125,0.06436930405795574,0.0778701522745192,-0.006751373956352472
1772566227861672700,9.838672607421875,0.046858197286725044,0.04118614299967885,-0.043027825343608855
1772566227871701500,9.848701416015626,0.08997954613268375,0.030610388449579477,-0.05002411397174
1772566227881729500,9.8587294921875,0.11375965017080307,0.008535188633203506,-0.018447656968981027
1772566227891758600,9.868758544921874,0.10187456658780575,-0.02350377131476998,-0.0011434709466993807
1772566227901786600,9.87878662109375,0.10233867696821689,0.010409019681066275,0.04928133278042078
1772566227911815700,9.888815673828125,0.023166940575838086,0.019624737924337388,0.037337650877982374
1772566227921846500,9.898846435546876,0.05693944631814956,0.055367374695837496,-0.014974135639518498
1772566227931875600,9.90887548828125,0.390869787633419,0.1500917772680521,0.054026627611368894
1772566227941903600,9.918903564453124,0.3202379160493612,0.1884855130702257,0.04660100765526294
1772566227951932700,9.9289326171875,0.02657178058326244,-0.0932614904128015,-0.1214329612776637
1772566227961960400,9.93896044921875,0.06468260779082775,-0.016805004328489304,-0.09566387537941336
1772566227971989500,9.948989501953125,0.04291033644378185,0.14646788768246768,0.012696107704937457
1772566227982018600,9.9590185546875,-0.09564064063429832,0.024482260958105323,0.021835253580659627
1772566227992046600,9.969046630859374,-0.1474164205789566,-0.07266366967260837,0.03370733155161142
1772566228002075600,9.97907568359375,-0.05613222158849239,-0.04636369176805019,0.015845657777041194
1772566228012103700,9.989103759765625,0.03412789505124092,0.005951894141733646,-0.013336889826506375
1772566228022132700,9.9991328125,0.10930208624005316,-0.014465017073601483,-0.014946663110703228
1772566228032160500,10.009160400390625,0.18835750277638436,-0.014907354013621806,-0.009245090468227862
1772566228042189600,10.019189453125,0.2228022086918354,0.05384381839036941,0.01705357226207852
1772566228052217600,10.029217529296876,0.27965806837975976,0.1697990789093077,-0.033814299057424065
1772566228062246700,10.03924658203125,0.2843225530594587,0.17373101153075693,0.014941402413696049
