time,seconds_elapsed,z,y,x
1772527250485729000,0.06672900390625,0.07308947294950485,-0.053970180451869965,0.009214600548148155
1772527250495727000,0.07672705078125,0.05953752249479294,-0.08534304052591324,0.023912474513053894
1772527250505725200,0.08672509765625,0.05427245423197746,-0.0849563479423523,0.01653551682829857
1772527250515723000,0.096722900390625,0.057286277413368225,-0.052249982953071594,0.010523763485252857
1772527250525721000,0.10672119140625,0.042300134897232056,-0.027166735380887985,0.007432366721332073
1772527250535719200,0.11671923828125,0.023034296929836273,-0.025883624330163002,0.0026511941105127335
1772527250545717000,0.126717041015625,0.000833120197057724,-0.021403655409812927,0.0058709559962153435
1772527250555714000,0.136714111328125,-0.02459888905286789,-0.022778848186135292,0.01187503058463335
1772527250565712000,0.1467119140625,-0.04644985869526863,-0.02156391367316246,0.006291978992521763
1772527250575710000,0.1567099609375,-0.06522100418806076,-0.01785680092871189,0.0025054742582142353
1772527250585708000,0.1667080078125,-0.07837381958961487,-0.02212931215763092,0.0016836230643093586
1772527250595706000,0.1767060546875,-0.05548778921365738,-0.0016177049838006496,0.012457730248570442
1772527250605704200,0.1867041015625,0.0031353067606687546,0.05221250280737877,0.04320978373289108
1772527250615701000,0.196700927734375,0.07826582342386246,0.0671994686126709,0.07279146462678909
1772527250625699000,0.206698974609375,0.1418280154466629,0.02796604111790657,0.07007051259279251
1772527250635697200,0.216697265625,0.17774181067943573,-0.02642236463725567,0.045735083520412445
1772527250645695000,0.226695068359375,0.17156994342803955,-0.05687827616930008,0.029371554031968117
1772527250655693000,0.236693115234375,0.14625784754753113,-0.05273234471678734,0.023636657744646072
1772527250665691100,0.246691162109375,0.106264628469944,-0.07176195830106735,0.02422761544585228
1772527250675688000,0.25668798828125,0.05788712203502655,-0.11569629609584808,-0.02514512836933136
1772527250685686000,0.26668603515625,0.028373707085847855,-0.08635784685611725,-0.05705193057656288
1772527250695683800,0.276683837890625,0.035958535969257355,-0.07511958479881287,-0.07014671713113785
1772527250705682000,0.286681884765625,0.05205468088388443,-0.08468219637870789,-0.08252908289432526
1772527250715680000,0.296679931640625,0.05784184858202934,-0.09563294798135757,-0.08178646117448807
1772527250725678000,0.306677978515625,0.06436899304389954,-0.10190202295780182,-0.07227417826652527
1772527250735676200,0.31667626953125,0.09906928986310959,-0.11476993560791016,-0.032237458974123
1772527250745673000,0.3266728515625,0.09000149369239807,-0.15136735141277313,-0.032091252505779266
1772527250755671000,0.336671142578125,0.11877253651618958,-0.15419632196426392,-0.006884520873427391
1772527250765669000,0.346669189453125,0.14111779630184174,-0.15979161858558655,0.10907696932554245
1772527250775667000,0.3566669921875,0.2087031900882721,-0.2100483775138855,0.12364372611045837
1772527250785665000,0.3666650390625,0.28052836656570435,-0.16314159333705902,0.07287615537643433
1772527250795663000,0.3766630859375,0.2702384889125824,-0.21533344686031342,0.01965494453907013
1772527250805661000,0.386660888671875,0.20875117182731628,-0.21622240543365479,-0.024784956127405167
1772527250815658000,0.396657958984375,0.1677667200565338,-0.1860666275024414,-0.06492704898118973
1772527250825656000,0.406656005859375,0.15620939433574677,-0.12729813158512115,-0.08831359446048737
1772527250835654100,0.416654052734375,0.1631288230419159,-0.049215372651815414,-0.07931526750326157
1772527250845652200,0.42665234375,0.18078558146953583,0.03161609545350075,-0.05232546105980873
1772527250855650000,0.436650146484375,0.19653747975826263,0.06995715200901031,-0.03155786544084549
1772527250865648000,0.446648193359375,0.2018725872039795,0.15740099549293518,0.003182272892445326
1772527250875645200,0.456645263671875,0.207077756524086,0.23765645921230316,0.036662135273218155
1772527250885643000,0.46664306640625,0.22425220906734467,0.3176378607749939,0.06509937345981598
1772527250895641000,0.47664111328125,0.24630460143089294,0.3878679871559143,0.07283525168895721
1772527250905639000,0.486638916015625,0.26997634768486023,0.4573306739330292,0.09434480965137482
1772527250915637000,0.496636962890625,0.24826140701770782,0.48446419835090637,0.10113402456045151
1772527250925635000,0.506635009765625,0.21787101030349731,0.48052963614463806,0.11280293017625809
1772527250935633000,0.5166328125,0.19422198832035065,0.5066705942153931,0.15473134815692902
1772527250945630000,0.5266298828125,0.15382662415504456,0.550157904624939,0.1768598109483719
1772527250955628000,0.5366279296875,0.1317894607782364,0.6412073969841003,0.15675142407417297
1772527250965626000,0.546626220703125,0.10658983141183853,0.6896247267723083,0.11765248328447342
1772527250975624200,0.556624267578125,0.06474985927343369,0.6416910290718079,0.05170426890254021
1772527250985622000,0.5666220703125,0.005236732307821512,0.5302947759628296,0.028545953333377838
1772527250995620000,0.5766201171875,-0.030371256172657013,0.420977920293808,0.035292848944664
1772527251005617200,0.5866171875,-0.0695388987660408,0.3058800995349884,0.05314561352133751
1772527251015615000,0.596614990234375,-0.09318917244672775,0.21929238736629486,0.06590957194566727
1772527251025613000,0.606613037109375,-0.08592113852500916,0.1429896354675293,0.05984954535961151
1772527251035611100,0.616611083984375,-0.07539670914411545,0.021354638040065765,0.05071370676159859
1772527251045609000,0.62660888671875,-0.06071043759584427,-0.08392810821533203,0.003455912694334984
1772527251055607000,0.63660693359375,-0.0495176762342453,-0.15069548785686493,-0.048949770629405975
1772527251065605000,0.646605224609375,-0.040047742426395416,-0.2377968430519104,-0.09946434199810028
1772527251075602200,0.656602294921875,-0.037717316299676895,-0.2830982804298401,-0.1094062328338623
1772527251085600300,0.666600341796875,-0.02569793537259102,-0.2982061207294464,-0.11170001327991486
1772527251095598000,0.67659814453125,-0.006833207793533802,-0.3201644718647003,-0.0999433770775795
1772527251105596200,0.68659619140625,0.007311373949050903,-0.3028738796710968,-0.08994533866643906
1772527251115594200,0.69659423828125,0.028546620160341263,-0.2697376310825348,-0.05253154784440994
1772527251125592000,0.706592041015625,0.05904274433851242,-0.27524158358573914,-0.016481665894389153
1772527251135589000,0.716589111328125,0.09461074322462082,-0.27624407410621643,0.0056900158524513245
1772527251145587000,0.7265869140625,0.11794430017471313,-0.31503355503082275,0.028843805193901062
1772527251155585000,0.7365849609375,0.13899293541908264,-0.3128919005393982,0.01771807298064232
1772527251165583000,0.7465830078125,0.15368640422821045,-0.3296964466571808,-0.004746756516396999
1772527251175581000,0.756580810546875,0.15429620444774628,-0.3698195815086365,-0.011212311685085297
1772527251185579000,0.7665791015625,0.143161803483963,-0.4082639217376709,-0.0021964465267956257
1772527251195577000,0.7765771484375,0.12468228489160538,-0.40985289216041565,0.03110058791935444
1772527251205574100,0.78657421875,0.11147007346153259,-0.3956358730792999,0.057606231421232224
1772527251215572200,0.796572265625,0.10179842263460159,-0.37784627079963684,0.06501037627458572
1772527251225570000,0.806570068359375,0.08809725940227509,-0.35611116886138916,0.06007766351103783
1772527251235568000,0.816568115234375,0.07255573570728302,-0.3291762173175812,0.045656897127628326
1772527251245566200,0.826566162109375,0.0464322566986084,-0.31510406732559204,0.028635036200284958
1772527251255564000,0.83656396484375,0.022351156920194626,-0.299927294254303,0.014162929728627205
1772527251265562000,0.84656201171875,-0.002583486959338188,-0.28057676553726196,-0.004361752420663834
1772527251275559000,0.856558837890625,-0.03444688022136688,-0.24338982999324799,-0.02976739965379238
1772527251285557000,0.866556884765625,-0.06800403445959091,-0.1980218142271042,-0.05940544977784157
1772527251295555000,0.87655517578125,-0.09656430780887604,-0.14980874955654144,-0.08810500800609589
1772527251305553000,0.886552978515625,-0.12885354459285736,-0.0758647471666336,-0.10091561079025269
1772527251315551000,0.896551025390625,-0.170012965798378,0.006531058344990015,-0.0920126661658287
1772527251325549000,0.906549072265625,-0.19745337963104248,0.10633355379104614,-0.09661673754453659
1772527251335546000,0.916546142578125,-0.21664270758628845,0.20369933545589447,-0.1112813875079155
1772527251345544200,0.926544189453125,-0.21315903961658478,0.2731330096721649,-0.12996026873588562
1772527251355542000,0.9365419921875,-0.2360694706439972,0.36938971281051636,-0.06388522684574127
1772527251365540000,0.9465400390625,-0.21222539246082306,0.40116629004478455,0.007629708386957645
1772527251375538200,0.9565380859375,-0.15091846883296967,0.3478258550167084,-0.01655607856810093
1772527251385536000,0.966535888671875,-0.08344276994466782,0.24640336632728577,-0.07137990742921829
1772527251395534000,0.9765341796875,-0.023645060136914253,0.1316654235124588,-0.07503123581409454
1772527251405531000,0.98653076171875,0.028629330918192863,0.03396735340356827,-0.020288899540901184
1772527251415529000,0.996529052734375,0.06606317311525345,-0.019030479714274406,0.054499078541994095
1772527251425527000,1.006527099609375,0.08803984522819519,-0.015009373426437378,0.10868029296398163
1772527251435524900,1.01652490234375,0.09972827136516571,0.02910153940320015,0.12659820914268494
1772527251445523000,1.02652294921875,0.10297892242670059,0.09596924483776093,0.11261662095785141
1772527251455521000,1.03652099609375,0.08973662555217743,0.1472930610179901,0.0816873162984848
1772527251465518000,1.04651806640625,0.06620227545499802,0.15271231532096863,0.023152628913521767
1772527251475516200,1.05651611328125,0.0472128689289093,0.07332232594490051,-0.04537545517086983
1772527251485514200,1.06651416015625,0.04866722226142883,0.018872128799557686,-0.07038972526788712
1772527251495512000,1.076511962890625,0.06882080435752869,-0.020447250455617905,-0.028633780777454376
1772527251505510100,1.08651025390625,0.09523270279169083,-0.08858396112918854,0.052131373435258865
1772527251515508000,1.096508056640625,0.11635126918554306,-0.1351374387741089,0.12177161872386932
1772527251525505000,1.106505126953125,0.12349173426628113,-0.16261860728263855,0.15070419013500214
1772527251535503000,1.116503173828125,0.12710149586200714,-0.16875451803207397,0.1612817496061325
1772527251545501000,1.1265009765625,0.12517842650413513,-0.16219276189804077,0.14425909519195557
1772527251555499000,1.1364990234375,0.11031167209148407,-0.1452905386686325,0.1166420578956604
1772527251565497000,1.1464970703125,0.08609288930892944,-0.13319286704063416,0.07043328136205673
1772527251575495000,1.156494873046875,0.0478212907910347,-0.12595835328102112,0.028034336864948273
1772527251585493000,1.166492919921875,0.008595322258770466,-0.10826084762811661,0.000010159332305192947
1772527251595490000,1.176489990234375,-0.02410091832280159,-0.08240541070699692,0.0015388363972306252
1772527251605488000,1.186488037109375,-0.03276151791214943,-0.039485909044742584,0.0004898170009255409
1772527251615486200,1.196486328125,-0.031635988503694534,0.010215358808636665,0.004177318420261145
1772527251625484000,1.206484130859375,-0.023391373455524445,0.02691471204161644,-0.0031066930387169123
1772527251635482400,1.216482421875,-0.026607828214764595,0.002958731260150671,-0.010831369087100029
1772527251645480400,1.22648046875,-0.018303824588656425,-0.03459077328443527,-0.004861094988882542
1772527251655478300,1.236478271484375,0.0006497027352452278,-0.04161745309829712,0.00943264551460743
1772527251665475300,1.246475341796875,0.03133704140782356,-0.03324900567531586,0.04679759591817856
1772527251675473400,1.256473388671875,0.07452845573425293,-0.03968900069594383,0.09839417040348053
1772527251685471200,1.26647119140625,0.12059874832630157,-0.06724872440099716,0.12333732843399048
1772527251695469300,1.27646923828125,0.13211512565612793,-0.11745504289865494,0.12278179824352264
1772527251705467100,1.286467041015625,0.11125990748405457,-0.16492882370948792,0.09230750799179077
1772527251715465200,1.29646533203125,0.08005474507808685,-0.20225286483764648,0.04997743293642998
1772527251725462500,1.306462646484375,0.05787859857082367,-0.22700880467891693,0.00612102635204792
1772527251735460400,1.31646044921875,0.05955810844898224,-0.24936416745185852,-0.015361073426902294
1772527251745458400,1.32645849609375,0.08145781606435776,-0.25616881251335144,-0.00941396877169609
1772527251755456500,1.33645654296875,0.10368473827838898,-0.26793479919433594,0.024682506918907166
1772527251765454300,1.346454345703125,0.1360999494791031,-0.2625586688518524,0.060125984251499176
1772527251775452400,1.356452392578125,0.17136558890342712,-0.2616801857948303,0.08690184354782104
1772527251785450200,1.3664501953125,0.19105753302574158,-0.23186424374580383,0.12131015956401825
1772527251795447300,1.376447265625,0.20293642580509186,-0.22309044003486633,0.13532374799251556
1772527251805445400,1.3864453125,0.1924363672733307,-0.21292302012443542,0.12703067064285278
1772527251815443200,1.396443115234375,0.1767866611480713,-0.225861057639122,0.09417735785245895
1772527251825441300,1.406441162109375,0.15095798671245575,-0.20580638945102692,0.07335516810417175
1772527251835439400,1.416439453125,0.11032187193632126,-0.2058517187833786,0.04861633479595184
1772527251845437200,1.426437255859375,0.07266690582036972,-0.20302237570285797,0.00280090793967247
1772527251855434500,1.4364345703125,0.05858171358704567,-0.168737530708313,-0.0173414908349514
1772527251865432300,1.446432373046875,0.05068943649530411,-0.11682533472776413,-0.010330984368920326
1772527251875430400,1.456430419921875,0.04508374631404877,-0.05781085416674614,-0.004156866576522589
1772527251885428500,1.466428466796875,0.04511863365769386,-0.01538616418838501,-0.009763353504240513
1772527251895426300,1.47642626953125,0.04259004071354866,0.01451290212571621,-0.02015145681798458
1772527251905424400,1.48642431640625,0.03991569206118584,0.01649988628923893,-0.038775473833084106
1772527251915422500,1.49642236328125,0.03382861986756325,0.011509554460644722,-0.05641931667923927
1772527251925419300,1.506419189453125,0.03396444022655487,-0.000757231842726469,-0.06606661528348923
1772527251935417300,1.516417236328125,0.035143159329891205,-0.014145313762128353,-0.06349735707044601
1772527251945415200,1.526415283203125,0.03301582485437393,-0.02234864979982376,-0.04427386075258255
1772527251955413200,1.536413330078125,0.02566363476216793,-0.015128609724342823,-0.032871223986148834
1772527251965411300,1.546411376953125,0.013408034108579159,0.0014303931966423988,-0.02598002925515175
1772527251975409200,1.5564091796875,0.003216458484530449,0.01648249663412571,-0.014167377725243568
1772527251985406500,1.566406494140625,-0.011938526295125484,0.022125735878944397,0.00046642543748021126
1772527251995404300,1.576404296875,-0.03298358619213104,0.03372346982359886,0.012503113597631454
1772527252005402400,1.58640234375,-0.047069042921066284,0.04870588332414627,0.019146103411912918
1772527252015400400,1.596400390625,-0.05686334893107414,0.06841497868299484,0.024881109595298767
1772527252025398300,1.606398193359375,-0.06383124738931656,0.09014876931905746,0.03645813465118408
1772527252035396400,1.616396240234375,-0.0651312842965126,0.09793224185705185,0.050455912947654724
1772527252045393200,1.62639306640625,-0.05741557478904724,0.08535919338464737,0.06022997945547104
1772527252055391200,1.63639111328125,-0.03772401437163353,0.047200821340084076,0.06362579762935638
1772527252065389300,1.646389404296875,-0.016684507951140404,-0.03358004614710808,0.058151938021183014
1772527252075387100,1.65638720703125,0.005679996684193611,-0.09843933582305908,0.060558345168828964
1772527252085385200,1.66638525390625,0.028132308274507523,-0.12693729996681213,0.05468128249049187
1772527252095383300,1.67638330078125,0.046384282410144806,-0.14269442856311798,0.0387052446603775
1772527252105381400,1.68638134765625,0.058166906237602234,-0.14042142033576965,0.024026434868574142
1772527252115378400,1.69637841796875,0.07489535957574844,-0.14646489918231964,0.024801768362522125
1772527252125376300,1.706376220703125,0.0808858796954155,-0.1496388465166092,0.025878749787807465
1772527252135374300,1.716374267578125,0.07545340806245804,-0.17777109146118164,0.02291463315486908
1772527252145372400,1.726372314453125,0.05765363946557045,-0.1569979041814804,0.024616390466690063
1772527252155370200,1.736370361328125,0.04229503870010376,-0.11093910783529282,0.035683512687683105
1772527252165368300,1.746368408203125,0.023555438965559006,-0.07938198000192642,0.029069816693663597
1772527252175365400,1.756365478515625,0.012258308939635754,-0.04481447860598564,0.019666774198412895
1772527252185363200,1.76636328125,0.009567717090249062,-0.022257236763834953,0.01625499688088894
1772527252195361300,1.776361328125,0.005033228546380997,-0.007083856500685215,0.004165134392678738
1772527252205359000,1.786359130859375,0.007079601287841797,0.001802846323698759,0.0016095656901597977
1772527252215357200,1.796357177734375,0.01615641638636589,0.007376594468951225,0.0027995314449071884
1772527252225355300,1.806355224609375,0.022701933979988098,0.009107382968068123,0.009839066304266453
1772527252235353300,1.816353271484375,0.031921789050102234,0.0017901230603456497,0.017285998910665512
1772527252245350400,1.826350341796875,0.03618844226002693,-0.0029550977051258087,0.025803320109844208
1772527252255348500,1.836348388671875,0.030674027279019356,0.006120679434388876,0.026934027671813965
1772527252265346300,1.84634619140625,0.02052578516304493,0.015330158174037933,0.025596588850021362
1772527252275344400,1.856344482421875,0.00007868465036153793,0.031199779361486435,0.015937749296426773
1772527252285342500,1.866342529296875,-0.019479304552078247,0.0508914589881897,0.005176980048418045
1772527252295340300,1.87634033203125,-0.04087347164750099,0.060453932732343674,-0.0041515398770570755
1772527252305337300,1.88633740234375,-0.058406125754117966,0.06494535505771637,-0.009935126639902592
1772527252315335200,1.896335205078125,-0.07048846781253815,0.06957253813743591,-0.01982477493584156
1772527252325333200,1.906333251953125,-0.07410557568073273,0.05688736215233803,-0.02601156383752823
1772527252335331300,1.916331298828125,-0.07118770480155945,0.03560371324419975,-0.0178321972489357
1772527252345329400,1.926329345703125,-0.05852889642119408,0.011481866240501404,-0.010700785554945469
1772527252355327500,1.936327392578125,-0.044168826192617416,-0.01408502645790577,-0.008423050865530968
1772527252365325600,1.94632568359375,-0.03083198145031929,-0.027247967198491096,0.006071202922612429
1772527252375322400,1.956322265625,-0.01459647435694933,-0.028042953461408615,0.014846185222268105
1772527252385320400,1.966320556640625,-0.0011847950518131256,-0.02926481142640114,0.019742673262953758
1772527252395318300,1.976318359375,0.008194630034267902,-0.037602704018354416,0.018110422417521477
1772527252405316400,1.98631640625,0.01035072561353445,-0.05199655517935753,0.012688757851719856
1772527252415314400,1.996314453125,0.008821651339530945,-0.053590986877679825,0.0027149771340191364
1772527252425312300,2.006312255859375,0.004283625166863203,-0.0498199500143528,-0.002772998996078968
1772527252435309300,2.016309326171875,-0.0043555572628974915,-0.04004332050681114,-0.012182611972093582
1772527252445307100,2.02630712890625,-0.014043870382010937,-0.022968197241425514,-0.020151322707533836
1772527252455305200,2.03630517578125,-0.02104634791612625,-0.005948210600763559,-0.01614490896463394
1772527252465303300,2.04630322265625,-0.024267708882689476,0.021999001502990723,-0.009628686122596264
1772527252475301400,2.05630126953125,-0.025164127349853516,0.049500614404678345,0.0016075009480118752
1772527252485299500,2.066299560546875,-0.022732391953468323,0.06991933286190033,0.008893909864127636
1772527252495297500,2.076297607421875,-0.016910269856452942,0.07955749332904816,0.008991338312625885
1772527252505294300,2.08629443359375,-0.014000765047967434,0.07741259038448334,0.004034662619233131
1772527252515292400,2.09629248046875,-0.010742917656898499,0.06874016672372818,-0.001828975509852171
1772527252525290200,2.106290283203125,-0.0057857101783156395,0.05910831689834595,-0.0031275327783077955
1772527252535288300,2.116288330078125,0.0012732185423374176,0.046480897814035416,-0.0011883508414030075
1772527252545286400,2.126286376953125,0.009268826805055141,0.033231403678655624,0.009494121186435223
1772527252555284200,2.1362841796875,0.014309590682387352,0.023646296933293343,0.013230000622570515
1772527252565281300,2.14628125,0.013551654294133186,0.02309289202094078,0.015452143736183643
1772527252575279400,2.156279296875,0.003779413178563118,0.032948944717645645,0.01078053843230009
1772527252585277400,2.16627734375,-0.00201296154409647,0.05331200733780861,0.0020701363682746887
1772527252595275500,2.176275634765625,-0.01430192869156599,0.07449886947870255,-0.009143302217125893
1772527252605273300,2.1862734375,-0.0271945558488369,0.07117737829685211,-0.022340597584843636
1772527252615271400,2.196271484375,-0.03159836307168007,0.06841130554676056,-0.02816588431596756
1772527252625268200,2.206268310546875,-0.034220509231090546,0.06043354421854019,-0.032959043979644775
1772527252635266800,2.216266845703125,-0.03644010052084923,0.052264504134655,-0.030301187187433243
1772527252645264600,2.2262646484375,-0.03501983731985092,0.0479469858109951,-0.03098881244659424
1772527252655262700,2.2362626953125,-0.03846258297562599,0.038543712347745895,-0.029537059366703033
1772527252665260500,2.246260498046875,-0.03825858235359192,0.03352658450603485,-0.023605667054653168
1772527252675258600,2.256258544921875,-0.04271142929792404,0.028620632365345955,-0.024228356778621674
1772527252685256700,2.266256591796875,-0.051035404205322266,0.032100848853588104,-0.027053438127040863
1772527252695253500,2.27625341796875,-0.06529373675584793,0.05299469828605652,-0.02151293121278286
1772527252705251600,2.28625146484375,-0.07869502902030945,0.07309224456548691,-0.020715847611427307
1772527252715249700,2.296249755859375,-0.08995826542377472,0.08588577061891556,-0.01561842393130064
1772527252725247700,2.306247802734375,-0.09448590129613876,0.09314021468162537,-0.013435164466500282
1772527252735245800,2.316245849609375,-0.09402194619178772,0.1026303842663765,-0.008357093669474125
1772527252745244000,2.326243896484375,-0.09236572682857513,0.10591166466474533,-0.007639104966074228
1772527252755240700,2.33624072265625,-0.09151404350996017,0.10633109509944916,-0.010295629501342773
1772527252765238800,2.34623876953125,-0.08688867092132568,0.11038549244403839,-0.0033530350774526596
1772527252775236600,2.356236572265625,-0.08519310504198074,0.10210507363080978,0.0012473305687308311
1772527252785234700,2.366234619140625,-0.08548632264137268,0.07739333063364029,-0.0033322409726679325
1772527252795232800,2.376232666015625,-0.07917847484350204,0.060075752437114716,-0.011571972630918026
1772527252805230600,2.386230712890625,-0.06921692192554474,0.05238161236047745,-0.01210353896021843
1772527252815228700,2.396228759765625,-0.06405659019947052,0.03794534131884575,-0.008594603277742863
1772527252825225500,2.4062255859375,-0.054102227091789246,0.012937992811203003,-0.00040032342076301575
1772527252835223600,2.4162236328125,-0.04749929904937744,-0.0036556932609528303,-0.011220457032322884
1772527252845221600,2.4262216796875,-0.050154201686382294,-0.026597760617733,-0.02828306332230568
1772527252855219700,2.4362197265625,-0.05203957110643387,-0.04867910221219063,-0.032349467277526855
1772527252865217800,2.4462177734375,-0.049481071531772614,-0.05857061594724655,-0.03852161020040512
1772527252875216000,2.4562158203125,-0.055691830813884735,-0.050269223749637604,-0.04721556603908539
1772527252885212700,2.466212646484375,-0.060127854347229004,-0.031163973733782768,-0.06035586819052696
1772527252895210800,2.476210693359375,-0.0591873861849308,-0.010941624641418457,-0.06141698360443115
1772527252905208600,2.48620849609375,-0.06438933312892914,0.01654832251369953,-0.05287089943885803
1772527252915206700,2.49620654296875,-0.06127872318029404,0.04416523873806,-0.03689834475517273
1772527252925204700,2.506204833984375,-0.06743860989809036,0.06320098042488098,-0.024795345962047577
1772527252935202600,2.51620263671875,-0.07639725506305695,0.09034190326929092,-0.019913282245397568
1772527252945200600,2.52620068359375,-0.0907607451081276,0.12301649153232574,-0.02106456644833088
1772527252955197700,2.53619775390625,-0.10273683071136475,0.14799699187278748,-0.02833615057170391
1772527252965195800,2.54619580078125,-0.11050926893949509,0.15671484172344208,-0.03904552012681961
1772527252975193900,2.55619384765625,-0.11035541445016861,0.145734503865242,-0.04733538627624512
1772527252985191700,2.566191650390625,-0.09599724411964417,0.12525798380374908,-0.03392663598060608
1772527252995189800,2.576189697265625,-0.08132752776145935,0.10791332274675369,-0.028807129710912704
1772527253005187800,2.586187744140625,-0.07162270694971085,0.09405902773141861,-0.025733575224876404
1772527253015184600,2.5961845703125,-0.06660720705986023,0.08208663761615753,-0.028780542314052582
1772527253025182700,2.6061826171875,-0.0582379586994648,0.052331678569316864,-0.017965978011488914
1772527253035180500,2.6161806640625,-0.05757247656583786,0.04670283570885658,-0.025687482208013535
1772527253045178600,2.6261787109375,-0.060662008821964264,0.036676567047834396,-0.02589280903339386
1772527253055176700,2.6361767578125,-0.06275130063295364,0.031084207817912102,-0.036956045776605606
1772527253065174500,2.646174560546875,-0.06853115558624268,0.028508929535746574,-0.05068757385015488
1772527253075172600,2.656172607421875,-0.0720910057425499,0.009875591844320297,-0.049109917134046555
1772527253085169700,2.666169677734375,-0.078425332903862,0.011104108765721321,-0.040437065064907074
1772527253095167700,2.676167724609375,-0.07784707844257355,0.020299173891544342,-0.028009023517370224
1772527253105165800,2.686165771484375,-0.07496234029531479,0.032899655401706696,-0.021055778488516808
1772527253115163600,2.69616357421875,-0.08107411116361618,0.0585804358124733,-0.03260541707277298
1772527253125161700,2.70616162109375,-0.08491199463605881,0.0793408453464508,-0.031140945851802826
1772527253135159800,2.716159912109375,-0.07372713088989258,0.09790074080228806,-0.015335108153522015
1772527253145156600,2.726156494140625,-0.05540218949317932,0.11850934475660324,-0.006553600542247295
1772527253155154700,2.73615478515625,-0.044540904462337494,0.12508873641490936,0.0028827558271586895
1772527253165152800,2.74615283203125,-0.040758952498435974,0.11733788251876831,0.011487163603305817
1772527253175150600,2.756150634765625,-0.042861517518758774,0.11180037260055542,-0.004486210644245148
1772527253185148700,2.766148681640625,-0.043702542781829834,0.07831564545631409,-0.0021543465554714203
1772527253195146500,2.776146484375,-0.02304227277636528,0.04117573797702789,0.00843331590294838
1772527253205143800,2.786143798828125,-0.01190333440899849,0.028173387050628662,0.0005780565552413464
1772527253215142000,2.796141845703125,-0.02236080914735794,0.02213159389793873,-0.009372889995574951
1772527253225139700,2.8061396484375,-0.02012055739760399,0.02353481389582157,-0.01723933406174183
1772527253235137800,2.8161376953125,-0.019330929964780807,0.03154347091913223,-0.026358531787991524
1772527253245136000,2.826135986328125,-0.027677010744810104,0.034035127609968185,-0.03679892048239708
1772527253255133700,2.8361337890625,-0.034952688962221146,0.051484767347574234,-0.04258406162261963
1772527253265131800,2.8461318359375,-0.039277661591768265,0.06997908651828766,-0.048144206404685974
1772527253275128600,2.856128662109375,-0.03522379696369171,0.09660894423723221,-0.045423634350299835
1772527253285126700,2.866126708984375,-0.027042033150792122,0.13364899158477783,-0.03154643625020981
1772527253295124700,2.876124755859375,-0.01736331358551979,0.15602988004684448,-0.014748480170965195
1772527253305122600,2.88612255859375,-0.01022550743073225,0.17401713132858276,0.0033378461375832558
1772527253315120600,2.89612060546875,-0.012535681948065758,0.19025523960590363,0.012674644589424133
1772527253325118700,2.90611865234375,-0.00517656933516264,0.19718557596206665,0.015230478718876839
1772527253335115800,2.91611572265625,-0.012877936474978924,0.1948186159133911,0.013684514909982681
1772527253345113900,2.92611376953125,-0.02648855373263359,0.19252696633338928,0.010204829275608063
1772527253355111700,2.936111572265625,-0.031369972974061966,0.2002212107181549,0.000891354400664568
1772527253365109800,2.94610986328125,-0.036731451749801636,0.20705515146255493,-0.007620108313858509
1772527253375107800,2.95610791015625,-0.044917017221450806,0.19704601168632507,-0.014383405447006226
1772527253385105700,2.966105712890625,-0.05157412216067314,0.18773692846298218,-0.02314627170562744
1772527253395103700,2.976103759765625,-0.05863967910408974,0.17797449231147766,-0.026598859578371048
1772527253405100500,2.9861005859375,-0.05716029182076454,0.1704995334148407,-0.030691340565681458
1772527253415098600,2.9960986328125,-0.05558934062719345,0.1655392050743103,-0.033505477011203766
1772527253425096700,3.0060966796875,-0.04884248599410057,0.15907330811023712,-0.026232650503516197
1772527253435094500,3.016094482421875,-0.04145769029855728,0.15196916460990906,-0.023663856089115143
1772527253445092600,3.026092529296875,-0.03704429417848587,0.14514535665512085,-0.023543214425444603
1772527253455090700,3.036090576171875,-0.03400087356567383,0.13346336781978607,-0.020047705620527267
1772527253465087700,3.046087646484375,-0.025838283821940422,0.12178140878677368,-0.01704978384077549
1772527253475085800,3.0560859375,-0.019200094044208527,0.11094973981380463,-0.0077355774119496346
1772527253485083600,3.066083740234375,-0.01341384369879961,0.10090243816375732,-0.0022590532898902893
1772527253495081700,3.076081787109375,-0.014364094473421574,0.09944160282611847,-0.0024509127251803875
1772527253505079800,3.086079833984375,-0.009480123408138752,0.09013119339942932,-0.003602729644626379
1772527253515077600,3.09607763671875,-0.012175889685750008,0.08449721336364746,-0.005599012598395348
1772527253525074700,3.10607470703125,-0.020206118002533913,0.06606574356555939,-0.012815114110708237
1772527253535072500,3.116072509765625,-0.019567836076021194,0.052016373723745346,-0.011686710640788078
1772527253545070600,3.126070556640625,-0.01985013112425804,0.04566686600446701,-0.006327897775918245
1772527253555068700,3.136068603515625,-0.01422831043601036,0.04118987172842026,-0.003387058386579156
1772527253565066500,3.14606640625,-0.018043555319309235,0.04118800535798073,-0.0026389765553176403
1772527253575064600,3.156064697265625,-0.028758367523550987,0.04868676885962486,0.0012262030504643917
1772527253585062700,3.166062744140625,-0.03847011923789978,0.0655195489525795,0.007790361996740103
1772527253595059700,3.176059814453125,-0.05731566995382309,0.08214644342660904,0.004292500205338001
1772527253605057800,3.186057861328125,-0.07072575390338898,0.10727816075086594,-0.0027526263147592545
1772527253615055600,3.1960556640625,-0.08968190848827362,0.14327552914619446,-0.005189307499676943
1772527253625053700,3.2060537109375,-0.10473143309354782,0.16038420796394348,0.006247903686016798
1772527253635051500,3.216051513671875,-0.1004890501499176,0.16416378319263458,0.019052183255553246
1772527253645049300,3.22604931640625,-0.09883203357458115,0.1841723769903183,0.02448396570980549
1772527253655046400,3.23604638671875,-0.09423910826444626,0.19781343638896942,0.03080187365412712
1772527253665044200,3.246044189453125,-0.08558037132024765,0.19727228581905365,0.037560444325208664
1772527253675042300,3.256042236328125,-0.07432018220424652,0.17508265376091003,0.030092716217041016
1772527253685040400,3.266040283203125,-0.05991194769740105,0.13533204793930054,0.017467733472585678
1772527253695038200,3.2760380859375,-0.04630453139543533,0.10568008571863174,0.002738657407462597
1772527253705036300,3.286036376953125,-0.035963211208581924,0.07991506904363632,-0.0014598164707422256
1772527253715034400,3.296034423828125,-0.02760338969528675,0.05868556722998619,-0.001168400514870882
1772527253725031400,3.306031494140625,-0.008502135053277016,0.03594483435153961,-0.005837188567966223
1772527253735029500,3.316029541015625,0.005339987576007843,0.01234312355518341,-0.01497360598295927
1772527253745027300,3.32602734375,0.007161057088524103,-0.012619484215974808,-0.0279325470328331
1772527253755025400,3.336025390625,0.010666877031326294,-0.038144465535879135,-0.03150535374879837
1772527253765023500,3.3460234375,0.018428660929203033,-0.057757582515478134,-0.028513027355074883
1772527253775021300,3.356021240234375,0.0239434614777565,-0.06798477470874786,-0.019810594618320465
1772527253785018400,3.366018310546875,0.02165980078279972,-0.07229749858379364,-0.010559571906924248
1772527253795016400,3.376016357421875,0.013846959918737411,-0.06500601023435593,-0.010483316145837307
1772527253805014300,3.38601416015625,0.0017586057074368,-0.047420892864465714,-0.015579807572066784
1772527253815012400,3.396012451171875,-0.005924537777900696,-0.023044738918542862,-0.015547961927950382
1772527253825010400,3.406010498046875,-0.022292327135801315,0.0028121587820351124,-0.013587342575192451
1772527253835008300,3.41600830078125,-0.033710777759552,0.020785894244909286,-0.009324442595243454
1772527253845006600,3.426006591796875,-0.035364605486392975,0.03162389248609543,-0.004637811332941055
1772527253855003400,3.43600341796875,-0.037972792983055115,0.035846978425979614,0.0010961522348225117
1772527253865001500,3.44600146484375,-0.032658450305461884,0.03671223670244217,0.0036405366845428944
1772527253874999600,3.45599951171875,-0.03225334361195564,0.035679399967193604,0.012853207997977734
1772527253884997400,3.465997314453125,-0.035642482340335846,0.03549191355705261,0.01840483397245407
1772527253894995500,3.475995361328125,-0.037188947200775146,0.037610869854688644,0.015330526046454906
1772527253904993500,3.48599365234375,-0.03726697713136673,0.023425808176398277,0.005354590713977814
1772527253914990300,3.495990234375,-0.03093135356903076,0.008929174393415451,0.00007334211841225624
1772527253924988400,3.505988525390625,-0.021079787984490395,-0.008140889927744865,-0.005892671179026365
1772527253934986200,3.515986328125,-0.006977626122534275,-0.014178087934851646,0.003196920268237591
1772527253944984300,3.525984375,0.0009135855361819267,-0.017228472977876663,0.015299390070140362
1772527253954982400,3.535982421875,0.013970492407679558,-0.01508285291492939,0.019568081945180893
1772527253964980500,3.54598046875,0.0187362190335989,-0.016065027564764023,0.012186331674456596
1772527253974978600,3.555978515625,0.02250588685274124,-0.024070583283901215,0.008939027786254883
1772527253984975400,3.565975341796875,0.023629475384950638,-0.03560766205191612,0.007581615354865789
1772527253994973400,3.575973388671875,0.025676304474473,-0.04929686710238457,0.011870014481246471
1772527254004971500,3.585971435546875,0.03140290081501007,-0.05657688155770302,0.015513750724494457
1772527254014969300,3.59596923828125,0.03483586758375168,-0.06678324192762375,0.02036765217781067
1772527254024967400,3.605967529296875,0.04241948574781418,-0.08490632474422455,0.023356515914201736
1772527254034965500,3.615965576171875,0.05758637562394142,-0.10598622262477875,0.026042379438877106
1772527254044962300,3.62596240234375,0.06922785192728043,-0.11629904806613922,0.028945226222276688
1772527254054960400,3.63596044921875,0.07344276458024979,-0.1139337569475174,0.03002995438873768
1772527254064958200,3.645958251953125,0.06822030246257782,-0.11004580557346344,0.024242106825113297
1772527254074956500,3.65595654296875,0.06443116068840027,-0.10116911679506302,0.01529084425419569
1772527254084954600,3.66595458984375,0.05990830808877945,-0.08260128647089005,0.011400233022868633
1772527254094952400,3.675952392578125,0.052735958248376846,-0.07110371440649033,0.008926356211304665
1772527254104949500,3.685949462890625,0.04670203477144241,-0.06500133872032166,0.011958099901676178
1772527254114947300,3.695947265625,0.036744289100170135,-0.058541927486658096,0.010758010670542717
1772527254124945400,3.7059453125,0.030764959752559662,-0.04666662588715553,0.007734524551779032
1772527254134943500,3.715943603515625,0.022255588322877884,-0.04302356764674187,0.001955420710146427
1772527254144941300,3.72594140625,0.018246732652187347,-0.03688924014568329,-0.006149111315608025
1772527254154939400,3.735939453125,0.017012732103466988,-0.03585146740078926,-0.006765298079699278
1772527254164937500,3.7459375,0.021625060588121414,-0.041769273579120636,-0.006524015683680773
1772527254174934300,3.755934326171875,0.030384430661797523,-0.04420092701911926,-0.012334747239947319
1772527254184932400,3.765932373046875,0.033750131726264954,-0.04486352205276489,-0.0096976850181818
1772527254194930400,3.775930419921875,0.039341554045677185,-0.03612446039915085,0.00007332069799304008
1772527254204928500,3.785928466796875,0.04172295331954956,-0.020641107112169266,0.00784815289080143
1772527254214926600,3.795926513671875,0.03928646445274353,0.00039880676195025444,0.010252498090267181
1772527254224924400,3.80592431640625,0.03793943673372269,0.0052321781404316425,0.00958431139588356
1772527254234921500,3.81592138671875,0.03156869858503342,0.0023043774999678135,0.0061680530197918415
1772527254244919600,3.82591943359375,0.023215696215629578,-0.00122084841132164,0.00655101565644145
1772527254254917400,3.83591748046875,0.012373623438179493,0.0013416227884590626,0.0068017966113984585
1772527254264915500,3.84591552734375,0.001961196307092905,0.018713688477873802,0.0007194033823907375
1772527254274913300,3.855913330078125,-0.014891021884977818,0.042620133608579636,-0.008666440844535828
1772527254284911400,3.865911376953125,-0.029173552989959717,0.06449400633573532,-0.015752580016851425
1772527254294909400,3.875909423828125,-0.03738879784941673,0.08391209691762924,-0.019154835492372513
1772527254304906500,3.885906494140625,-0.042867451906204224,0.09844150394201279,-0.020960193127393723
1772527254314904600,3.895904541015625,-0.03609549254179001,0.10701610893011093,-0.01458822377026081
1772527254324902700,3.905902587890625,-0.026208505034446716,0.09965033829212189,-0.005980886984616518
1772527254334900500,3.915900390625,-0.016652585938572884,0.0810438022017479,-0.00426190672442317
1772527254344898600,3.925898681640625,-0.008472686633467674,0.052253708243370056,-0.0022996896877884865
1772527254354896400,3.935896484375,-0.0012899134308099747,0.01655133068561554,-0.007618975825607777
1772527254364893400,3.9458935546875,0.0009090583771467209,-0.008518338203430176,-0.009346302598714828
1772527254374891500,3.9558916015625,-0.001959702931344509,-0.02251703105866909,-0.01905984804034233
1772527254384889300,3.965889404296875,-0.004982656799256802,-0.033310290426015854,-0.025425869971513748
1772527254394887400,3.975887451171875,-0.01508219726383686,-0.03063560649752617,-0.02388070337474346
1772527254404885500,3.985885498046875,-0.02091425284743309,-0.01343345083296299,-0.01750030368566513
1772527254414883300,3.99588330078125,-0.026196101680397987,0.006254012696444988,-0.0097476402297616
1772527254424880400,4.00588037109375,-0.024318309500813484,0.024732621386647224,-0.0075537278316915035
1772527254434878500,4.01587841796875,-0.023805685341358185,0.04382164776325226,-0.006636202801018953
1772527254444876500,4.02587646484375,-0.02540038526058197,0.043427497148513794,0.0035200282000005245
1772527254454874600,4.03587451171875,-0.01703140139579773,0.0495423823595047,0.007694000843912363
1772527254464872400,4.04587255859375,-0.007024840451776981,0.04340779036283493,0.015710914507508278
1772527254474870500,4.05587060546875,-0.0030742697417736053,0.027923043817281723,0.018812164664268494
1772527254484868600,4.06586865234375,0.0020837406627833843,0.012926517985761166,0.02872258611023426
1772527254494865400,4.075865478515625,0.0038086683489382267,0.010287217795848846,0.029815658926963806
1772527254504863500,4.085863525390625,0.0025188992731273174,0.011842770501971245,0.027941860258579254
1772527254514861300,4.095861328125,-0.0038149384781718254,0.016913175582885742,0.022142626345157623
1772527254524859400,4.105859375,-0.007523923180997372,0.021512720733880997,0.015613088384270668
1772527254534857500,4.115857421875,-0.00966133177280426,0.022975262254476547,0.01018607523292303
1772527254544855300,4.125855224609375,-0.009677045047283173,0.018706748262047768,0.005819822661578655
1772527254554852600,4.1358525390625,-0.007184137590229511,0.016163349151611328,-0.003545759478583932
1772527254564850400,4.145850341796875,-0.006228595040738583,0.018241679295897484,-0.010135218501091003
1772527254574848500,4.1558486328125,-0.006362932734191418,0.022714396938681602,-0.014729415997862816
1772527254584846600,4.1658466796875,-0.001366577111184597,0.025564776733517647,-0.01469985581934452
1772527254594844400,4.175844482421875,0.002220436930656433,0.0248258113861084,-0.013012520968914032
1772527254604842500,4.185842529296875,0.010806201957166195,0.021435607224702835,-0.005377238616347313
1772527254614840600,4.195840576171875,0.02157769538462162,0.014779528602957726,0.003804144449532032
1772527254624837400,4.20583740234375,0.03362264111638069,0.0059239850379526615,0.009265221655368805
1772527254634835700,4.215835693359375,0.046437736600637436,0.002154996618628502,0.016695883125066757
1772527254644833800,4.225833740234375,0.04989931359887123,0.007033375091850758,0.023831825703382492
1772527254654831600,4.23583154296875,0.04931969568133354,0.023696446791291237,0.02548833191394806
1772527254664829700,4.24582958984375,0.04179972782731056,0.03526947647333145,0.015783507376909256
1772527254674827800,4.255827880859375,0.033269353210926056,0.048674821853637695,0.003899905364960432
1772527254684824800,4.265824951171875,0.01765550673007965,0.059203896671533585,-0.004806234035640955
1772527254694823000,4.275822998046875,0.005628788843750954,0.05635112524032593,-0.009025724604725838
1772527254704820700,4.28582080078125,-0.0009785136207938194,0.04921731352806091,-0.004896759521216154
1772527254714818800,4.29581884765625,-0.006266830489039421,0.036806587129831314,0.0005880426615476608
1772527254724817000,4.30581689453125,-0.006467101164162159,0.02433207631111145,-0.00033820467069745064
1772527254734814700,4.315814697265625,-0.010453663766384125,0.010434878058731556,0.003193059004843235
1772527254744811800,4.325811767578125,-0.009256573393940926,0.00194631889462471,0.008514054119586945
1772527254754809600,4.3358095703125,-0.00675407238304615,0.00441003916785121,0.009662521071732044
1772527254764807700,4.3458076171875,-0.007849164307117462,0.001369241625070572,0.012611704878509045
1772527254774805800,4.3558056640625,-0.011444052681326866,0.010923925787210464,0.011897423304617405
1772527254784803600,4.365803466796875,-0.014801234006881714,0.021949412301182747,0.006746336817741394
1772527254794801700,4.3758017578125,-0.017665958032011986,0.03213411942124367,0.005194180645048618
1772527254804799700,4.3857998046875,-0.01744944415986538,0.04164373502135277,0.006899402476847172
1772527254814796800,4.395796875,-0.017162051051855087,0.03665594384074211,0.011197898536920547
1772527254824795000,4.405794921875,-0.010632512159645557,0.028860069811344147,0.011130254715681076
1772527254834792700,4.415792724609375,-0.004378572106361389,0.018990328535437584,0.008277476765215397
1772527254844790800,4.425790771484375,-0.003668307326734066,0.004669980611652136,0.012191524729132652
1772527254854788900,4.435788818359375,-0.0028474489226937294,-0.004896827973425388,0.015858454629778862
1772527254864786700,4.44578662109375,0.0016945721581578255,-0.002804115880280733,0.016483232378959656
1772527254874783700,4.45578369140625,-0.00023568235337734222,-0.0013181152753531933,0.012483229860663414
1772527254884781600,4.465781494140625,0.003383286762982607,0.0020265490747988224,0.005830119829624891
1772527254894779600,4.475779541015625,0.0015231450088322163,0.0036526964977383614,0.005339388735592365
1772527254904777700,4.48577783203125,-0.001924050971865654,-0.003880054224282503,0.008159942924976349
1772527254914775600,4.495775634765625,0.01021615881472826,-0.020590079948306084,-0.0003516091965138912
1772527254924773600,4.505773681640625,0.02987108752131462,-0.036734696477651596,-0.0016962392255663872
1772527254934771000,4.51577099609375,0.034884411841630936,-0.054700564593076706,0.007644332014024258
1772527254944768800,4.525768798828125,0.03227744251489639,-0.05953579768538475,0.015286806039512157
1772527254954766800,4.535766845703125,0.030601363629102707,-0.05852283537387848,0.013769470155239105
1772527254964764700,4.5457646484375,0.022870739921927452,-0.05600588023662567,0.0037186997942626476
1772527254974762800,4.5557626953125,0.012040871195495129,-0.0534902848303318,-0.004937414079904556
1772527254984760800,4.5657607421875,0.0021240580826997757,-0.04642358422279358,-0.008199786767363548
1772527254994758700,4.575758544921875,-0.004522460512816906,-0.04124107584357262,-0.012572766281664371
1772527255004755700,4.585755615234375,-0.011661329306662083,-0.03723088651895523,-0.011375142261385918
1772527255014753800,4.59575390625,-0.013913298957049847,-0.024517755955457687,-0.011408166028559208
1772527255024751600,4.605751708984375,-0.018526427447795868,-0.008997119031846523,-0.009141815826296806
1772527255034749700,4.615749755859375,-0.01625916361808777,-0.001970200799405575,-0.004769571125507355
1772527255044747800,4.625747802734375,-0.0179542638361454,0.0019036335870623589,-0.0003013191744685173
1772527255054745600,4.63574560546875,-0.01485678181052208,0.0033244439400732517,0.0013688155449926853
1772527255064743000,4.645742919921875,-0.00991874746978283,0.0034139263443648815,0.0017741485498845577
1772527255074740700,4.65574072265625,-0.010315671563148499,0.0016156448982656002,0.0014940500259399414
1772527255084738800,4.66573876953125,-0.007847985252737999,-0.0026486085262149572,-0.0026884442195296288
1772527255094737000,4.67573681640625,-0.006180314347147942,-0.009213728830218315,-0.0009167538955807686
1772527255104734700,4.685734619140625,-0.008869308978319168,-0.01651505008339882,-0.0014762841165065765
1772527255114732800,4.69573291015625,-0.01184067316353321,-0.013875186443328857,0.0016002212651073933
1772527255124731000,4.70573095703125,-0.014777874574065208,-0.004867576062679291,0.0018915715627372265
1772527255134727700,4.715727783203125,-0.017095699906349182,0.0033675339072942734,0.002063678577542305
1772527255144725800,4.725725830078125,-0.018126342445611954,0.006051201373338699,0.0022405115887522697
1772527255154723600,4.7357236328125,-0.02092399261891842,0.010262828320264816,0.007724117022007704
1772527255164721700,4.7457216796875,-0.01733032427728176,0.009957896545529366,0.010436279699206352
1772527255174719700,4.7557197265625,-0.020378388464450836,0.011423839256167412,0.01366991177201271
1772527255184717600,4.765717529296875,-0.018313638865947723,0.017694253474473953,0.017687024548649788
1772527255194715000,4.77571484375,-0.015765830874443054,0.023733729496598244,0.012152287177741528
1772527255204712700,4.785712646484375,-0.010517273098230362,0.027555366978049278,0.010264105163514614
1772527255214710800,4.795710693359375,-0.0073203761130571365,0.03071545623242855,0.004384312778711319
1772527255224708900,4.805708984375,-0.0045126061886549,0.023387234658002853,-0.002201684284955263
1772527255234706700,4.815706787109375,-0.003062325529754162,0.01352749578654766,-0.006527389865368605
1772527255244704800,4.825704833984375,0.0012192381545901299,-0.0008732825517654419,-0.007160156965255737
1772527255254701600,4.83570166015625,0.006691502872854471,-0.015142278745770454,-0.007386726327240467
1772527255264699600,4.84569970703125,0.008668633177876472,-0.020130379125475883,-0.004817574750632048
1772527255274697700,4.85569775390625,0.009627408348023891,-0.026111116632819176,0.001096219290047884
1772527255284695600,4.865695556640625,0.014249058440327644,-0.02289721369743347,0.008831903338432312
1772527255294693600,4.875693603515625,0.01576078310608864,-0.019770754501223564,0.014293668791651726
1772527255304691700,4.885691650390625,0.01564972847700119,-0.018753161653876305,0.01095033623278141
1772527255314689500,4.895689453125,0.007890038192272186,-0.018558740615844727,0.0067758760415017605
1772527255324686800,4.905686767578125,0.002929368522018194,-0.014923792332410812,0.0014996207319200039
1772527255334684700,4.9156845703125,-0.002643636427819729,-0.007136301137506962,-0.006920207291841507
1772527255344682800,4.925682861328125,-0.010182779282331467,-0.0015468588098883629,-0.004725762642920017
1772527255354680800,4.935680908203125,-0.013371191918849945,0.0025269570760428905,0.0022281953133642673
1772527255364678700,4.9456787109375,-0.009079242125153542,0.01210581324994564,0.006894053425639868
1772527255374676700,4.9556767578125,-0.0075926268473267555,0.0124010369181633,0.012008165940642357
1772527255384673500,4.965673583984375,-0.007529775612056255,0.010078761726617813,0.016524089500308037
1772527255394671600,4.975671630859375,-0.00875319354236126,0.012266320176422596,0.015227550640702248
1772527255404669700,4.985669677734375,-0.011112222447991371,0.008596483618021011,0.009456213563680649
1772527255414667500,4.99566748046875,-0.012324531562626362,0.0010053711012005806,0.0036442424170672894
1772527255424665600,5.00566552734375,-0.012129056267440319,-0.006073310971260071,0.008635805919766426
1772527255434663700,5.01566357421875,-0.01114574633538723,-0.008557979948818684,0.0041510662995278835
1772527255444661500,5.02566162109375,-0.009067948907613754,-0.014208675362169743,0.003724427428096533
1772527255454658800,5.035658935546875,-0.008848616853356361,-0.017371341586112976,0.002205492462962866
1772527255464657000,5.045656982421875,-0.01449691504240036,-0.014704717323184013,-0.005224726628512144
1772527255474654700,5.05565478515625,-0.015393367037177086,-0.00895849708467722,-0.007338300812989473
1772527255484652800,5.06565283203125,-0.01300850696861744,-0.0029053983744233847,-0.007868004031479359
1772527255494650600,5.075650634765625,-0.012131799012422562,-0.0032687142957001925,-0.006418665871024132
1772527255504648700,5.085648681640625,-0.00929153710603714,-0.0020577749237418175,-0.0015714461915194988
1772527255514645800,5.095645751953125,-0.005758431740105152,-0.008128717541694641,0.007812445051968098
1772527255524643600,5.1056435546875,-0.005678803659975529,-0.008619271218776703,0.007778089493513107
1772527255534641700,5.1156416015625,-0.0022331709042191505,-0.00641567911952734,0.008760374039411545
1772527255544639700,5.1256396484375,-0.0036710109561681747,-0.004998611286282539,0.010904751718044281
1772527255554637600,5.135637451171875,-0.0006388481706380844,-0.0030142434407025576,0.010791212320327759
1772527255564635600,5.1456357421875,-0.0037898998707532883,-0.007302199024707079,0.00994938611984253
1772527255574632700,5.1556328125,-0.004284830763936043,-0.017904791980981827,0.00642012245953083
1772527255584630800,5.165630859375,-0.002846190705895424,-0.022892892360687256,0.006352212280035019
1772527255594628900,5.17562890625,0.0004142802208662033,-0.016432786360383034,0.0056928349658846855
1772527255604626700,5.185626708984375,-0.0022811051458120346,-0.010124290362000465,0.003893868997693062
1772527255614624800,5.195624755859375,-0.007335175760090351,0.00126367574557662,0.004132311325520277
1772527255624622800,5.205622802734375,-0.010495015420019627,0.01595447026193142,0.00763916177675128
1772527255634620200,5.2156201171875,-0.015038520097732544,0.027687884867191315,0.003404713235795498
1772527255644617200,5.2256171875,-0.015692060813307762,0.034295454621315,-0.002574083860963583
1772527255654615300,5.235615234375,-0.014834066852927208,0.029369328171014786,-0.0021347063593566418
1772527255664613000,5.245613037109375,-0.0056123388931155205,0.024860329926013947,0.0015199496410787106
1772527255674611500,5.255611572265625,-0.0019268272444605827,0.01699240878224373,0.00019658077508211136
1772527255684609500,5.265609619140625,0.002699083648622036,0.009805869311094284,-0.002382158301770687
1772527255694607400,5.275607421875,0.004950633272528648,-0.0023973684292286634,-0.005261701066046953
1772527255704604400,5.2856044921875,0.00935310497879982,-0.01074637845158577,-0.008855370804667473
1772527255714602200,5.295602294921875,0.013327756896615028,-0.013932646252214909,-0.007693410851061344
1772527255724600300,5.305600341796875,0.020334267988801003,-0.0184890478849411,-0.0037130501586943865
1772527255734598400,5.315598388671875,0.029589399695396423,-0.02012794464826584,0.0006609694100916386
1772527255744594400,5.325594482421875,0.03636261820793152,-0.027439920231699944,0.006811540108174086
1772527255754591200,5.33559130859375,0.03482311964035034,-0.028581280261278152,0.0033941934816539288
1772527255764589300,5.34558935546875,0.03371018171310425,-0.030571727082133293,-0.005252290982753038
1772527255774587400,5.35558740234375,0.023212265223264694,-0.027690617367625237,-0.012093529105186462
1772527255784585200,5.365585205078125,0.014064041897654533,-0.028268789872527122,-0.017353538423776627
1772527255794583300,5.375583251953125,0.00708854291588068,-0.02767062745988369,-0.023490749299526215
1772527255804581400,5.385581298828125,0.006332471501082182,-0.027532676234841347,-0.022631613537669182
1772527255814578200,5.395578125,0.006620587315410376,-0.020341485738754272,-0.01978340744972229
1772527255824576300,5.405576171875,0.009408917278051376,-0.014922218397259712,-0.00970414187759161
1772527255834574300,5.41557421875,0.015263762325048447,-0.010902931913733482,-0.0033134433906525373
1772527255844572400,5.425572509765625,0.015329010784626007,-0.00608820328488946,-0.002154169138520956
1772527255854570500,5.435570556640625,0.014670334756374359,-0.007501563988626003,-0.0020706350915133953
1772527255864568300,5.445568359375,0.010791972279548645,-0.01126967091113329,-0.008208954706788063
1772527255874566400,5.45556640625,0.0034066461957991123,-0.011097054928541183,-0.008207445964217186
1772527255884563200,5.465563232421875,0.0023102229461073875,-0.01047840341925621,-0.0037655590567737818
1772527255894561300,5.475561279296875,-0.0008321544155478477,-0.005015997681766748,0.0016930988058447838
1772527255904559400,5.485559326171875,-0.0005655717104673386,0.0005329647101461887,0.00853369478136301
1772527255914557200,5.49555712890625,0.004039984196424484,0.0012490283697843552,0.0064644417725503445
1772527255924555300,5.50555517578125,0.00595612870529294,0.004660803824663162,0.0036729159764945507
1772527255934553300,5.51555322265625,0.006696030963212252,-0.00266046985052526,0.007429393474012613
1772527255944550400,5.52555029296875,0.012250053696334362,-0.01154157891869545,0.006127640139311552
1772527255954548500,5.535548583984375,0.01683155819773674,-0.0263710655272007,0.008094942197203636
1772527255964546300,5.54554638671875,0.01942015066742897,-0.037599485367536545,0.00451831566169858
1772527255974544400,5.55554443359375,0.02115437015891075,-0.05046422779560089,0.0024052727967500687
1772527255984542500,5.56554248046875,0.022820178419351578,-0.058369822800159454,0.00034105731174349785
1772527255994540300,5.575540283203125,0.02452954649925232,-0.05862538516521454,0.0012173699215054512
1772527256004538400,5.585538330078125,0.0257404875010252,-0.0562991164624691,0.007538915611803532
1772527256014535200,5.59553515625,0.0221015065908432,-0.0458759106695652,0.015409843064844608
1772527256024533200,5.605533203125,0.021637581288814545,-0.03709040954709053,0.01523993443697691
1772527256034531300,5.61553125,0.01701365038752556,-0.029323771595954895,0.017193075269460678
1772527256044529200,5.625529052734375,0.014058873057365417,-0.026958085596561432,0.012675555422902107
1772527256054527200,5.63552734375,0.009344542399048805,-0.021775368601083755,0.01141406036913395
1772527256064525300,5.645525390625,0.006030505057424307,-0.02034951187670231,0.011622052639722824
1772527256074522400,5.6555224609375,0.0028628678992390633,-0.014436885714530945,0.011371203698217869
1772527256084520400,5.6655205078125,-0.0015760893002152443,-0.013611039146780968,0.012569894082844257
1772527256094518300,5.675518310546875,-0.0032069385051727295,-0.0049118646420538425,0.012624356895685196
1772527256104516400,5.685516357421875,-0.005578749813139439,0.009336313232779503,0.009287947788834572
1772527256114514400,5.695514404296875,-0.005481729283928871,0.017371051013469696,0.002856834791600704
1772527256124512300,5.70551220703125,-0.005286785773932934,0.01920809969305992,0.0000650426372885704
1772527256134509300,5.71550927734375,-0.00375166442245245,0.009660210460424423,0.0005127638578414917
1772527256144509400,5.725509521484375,-0.001021391712129116,-0.0011173351667821407,0.004118950106203556
1772527256154507500,5.735507568359375,0.004659739788621664,-0.011117910966277122,0.0033673844300210476
1772527256164504300,5.74550439453125,0.0066565778106451035,-0.020636048167943954,-0.003839928423985839
1772527256174502400,5.75550244140625,0.0102365892380476,-0.026268228888511658,-0.00810389406979084
1772527256184500200,5.765500244140625,0.013316001743078232,-0.031229963526129723,-0.010472242720425129
1772527256194498300,5.775498291015625,0.014138232916593552,-0.029476962983608246,-0.006162803154438734
1772527256204496400,5.785496337890625,0.01594092696905136,-0.02059052884578705,0.00260272528976202
1772527256214494200,5.795494140625,0.021398048847913742,-0.012178463861346245,0.007729575969278812
1772527256224491300,5.8054912109375,0.01632792316377163,-0.004323736764490604,0.013526211492717266
1772527256234489000,5.815489013671875,0.00956353172659874,0.004979731049388647,0.007962003350257874
1772527256244487200,5.825487060546875,-0.0013650162145495415,0.017398584634065628,-0.0016884934157133102
1772527256254485200,5.8354853515625,-0.002940845675766468,0.018281973898410797,-0.006652559619396925
1772527256264483300,5.8454833984375,-0.006014132872223854,0.01726837456226349,-0.014813816174864769
1772527256274481400,5.8554814453125,-0.0011747907847166061,0.009102856740355492,-0.01364945899695158
1772527256284479500,5.8654794921875,0.0028681540861725807,0.004501980263739824,-0.0066605256870388985
1772527256294476300,5.875476318359375,0.0011476771906018257,0.005634233355522156,-0.009962557815015316
1772527256304474400,5.885474365234375,0.003572752233594656,0.0066600823774933815,-0.01320282556116581
1772527256314472200,5.89547216796875,0.0004377169534564018,0.0025074551813304424,-0.01636384427547455
1772527256324470300,5.90547021484375,-0.002521587535738945,-0.0024870370980352163,-0.01714468188583851
1772527256334468400,5.91546826171875,-0.004128500819206238,-0.006867260672152042,-0.017994185909628868
1772527256344466200,5.925466064453125,-0.002413424663245678,-0.001322292722761631,-0.01216665655374527
1772527256354463200,5.935463134765625,-0.0017464188858866692,0.0077590798027813435,-0.002166242338716984
1772527256364461000,5.9454609375,0.001400638371706009,0.0037693982012569904,-0.0005851238965988159
1772527256374459400,5.95545947265625,0.0017430833540856838,-0.00039076339453458786,-0.008683153428137302
1772527256384457500,5.96545751953125,0.003606230951845646,-0.004220921546220779,-0.017212193459272385
1772527256394455300,5.975455322265625,0.011344464495778084,-0.0015523899346590042,-0.013802370056509972
1772527256404453400,5.985453369140625,0.015393534675240517,0.0014404705725610256,-0.00467758160084486
1772527256414450400,5.995450439453125,0.019290613010525703,0.005627617239952087,-0.0017830128781497478
1772527256424448300,6.0054482421875,0.013462550938129425,0.015722595155239105,-0.0059247612953186035
1772527256434446300,6.0154462890625,0.004485341254621744,0.022857140749692917,-0.013651391491293907
1772527256444444200,6.025444091796875,-0.004633055999875069,0.0355343222618103,-0.015618136152625084
1772527256454442200,6.035442138671875,-0.004013380967080593,0.04194258153438568,-0.01779830828309059
1772527256464440300,6.0454404296875,-0.0006311666220426559,0.034858837723731995,-0.01496204175055027
1772527256474438100,6.055438232421875,0.004417734686285257,0.022366568446159363,-0.0076172673143446445
1772527256484435200,6.065435302734375,0.010057510808110237,0.009660093113780022,-0.00003498140722513199
1772527256494433300,6.075433349609375,0.01719793863594532,0.001993610057979822,0.0038216542452573776
1772527256504431400,6.085431396484375,0.022873934358358383,0.01213412918150425,0.005737265571951866
1772527256514429400,6.095429443359375,0.02872326411306858,0.01668975129723549,0.007287557702511549
1772527256524427500,6.105427490234375,0.02455781400203705,0.023305311799049377,0.0012560305185616016
1772527256534425300,6.11542529296875,0.024277575314044952,0.014103535562753677,-0.010995132848620415
1772527256544422400,6.12542236328125,0.022496983408927917,-0.002336957259103656,-0.02048211172223091
1772527256554420200,6.135420166015625,0.026760438457131386,-0.013880059123039246,-0.026250362396240234
1772527256564418300,6.145418212890625,0.02968006208539009,-0.019053515046834946,-0.024373365566134453
1772527256574416400,6.15541650390625,0.03118783049285412,-0.022228064015507698,-0.013757185079157352
1772527256584414200,6.165414306640625,0.02855609357357025,-0.02206694334745407,-0.007700890302658081
1772527256594412300,6.175412353515625,0.02468571625649929,-0.019414763897657394,-0.013201337307691574
1772527256604409300,6.185409423828125,0.017417151480913162,-0.015223215334117413,-0.01715027168393135
1772527256614407400,6.195407470703125,0.012575910426676273,-0.01551827322691679,-0.01896916888654232
1772527256624405500,6.205405517578125,0.008316717110574245,-0.018095415085554123,-0.015434621833264828
1772527256634403300,6.2154033203125,0.012784055434167385,-0.015898367390036583,-0.010211341083049774
1772527256644401400,6.2254013671875,0.014807258732616901,-0.011531315743923187,-0.001542752142995596
1772527256654399500,6.2353994140625,0.019496547058224678,-0.0056430259719491005,0.004997373558580875
1772527256664397300,6.245397216796875,0.024781590327620506,-0.009309932589530945,0.007419518195092678
1772527256674394400,6.255394287109375,0.023775797337293625,-0.025320712476968765,-0.0005017896182835102
1772527256684392200,6.26539208984375,0.02615426480770111,-0.033862270414829254,-0.008465440012514591
1772527256694390300,6.275390380859375,0.02544734627008438,-0.038346193730831146,-0.01370077021420002
1772527256704388400,6.285388427734375,0.020951133221387863,-0.039727576076984406,-0.012762006372213364
1772527256714386200,6.29538623046875,0.020605266094207764,-0.039996471256017685,-0.006855071056634188
1772527256724384300,6.30538427734375,0.016644079238176346,-0.00982658751308918,-0.004998315125703812
1772527256734381300,6.31538134765625,0.005662268027663231,0.009454803541302681,-0.005211211740970612
1772527256744379400,6.32537939453125,0.0033085662871599197,0.026111546903848648,-0.004237826447933912
1772527256754377500,6.33537744140625,-0.0012507662177085876,0.028203828260302544,-0.00493515282869339
1772527256764375300,6.345375244140625,-0.007636228576302528,0.025965971872210503,-0.003099968656897545
1772527256774373400,6.355373291015625,-0.00767073780298233,0.013942496851086617,0.0011359229683876038
1772527256784371500,6.365371337890625,-0.0037846527993679047,0.008660383522510529,0.005084325559437275
1772527256794368300,6.3753681640625,-0.0028342073783278465,-0.0008710999973118305,0.008459748700261116
1772527256804366300,6.385366455078125,-0.0021345941349864006,0.0033649238757789135,0.004159274976700544
1772527256814364200,6.3953642578125,-0.0038937265053391457,0.01370180957019329,0.00827716663479805
1772527256824362200,6.4053623046875,-0.003733137622475624,0.0218175258487463,0.009932588785886765
1772527256834360300,6.4153603515625,-0.0047211311757564545,0.03100360743701458,0.009277338162064552
1772527256844358100,6.425358154296875,-0.003009251318871975,0.0299383457750082,0.007138554006814957
1772527256854356200,6.435356201171875,-0.004781665280461311,0.027718249708414078,0.002288627903908491
1772527256864353300,6.445353271484375,-0.005853587761521339,0.02563539147377014,-0.0034723218996077776
1772527256874351400,6.455351318359375,-0.003990739583969116,0.015429439023137093,-0.007087276317179203
1772527256884349400,6.465349365234375,-0.005108201876282692,0.006459912750869989,-0.010236730799078941
1772527256894347300,6.47534716796875,0.0008629458025097847,-0.0013335994444787502,-0.011523702181875706
1772527256904345300,6.485345458984375,0.006686479784548283,-0.008107881993055344,-0.004010924603790045
1772527256914343400,6.495343505859375,0.009969928301870823,-0.006593465805053711,0.004172747489064932
1772527256924340200,6.50534033203125,0.016933562234044075,-0.004236302338540554,0.007385052274912596
1772527256934338300,6.51533837890625,0.02138047106564045,0.00006547337397933006,0.0056533305905759335
1772527256944336400,6.52533642578125,0.017446182668209076,-0.0017236382700502872,0.0033606155775487423
1772527256954334200,6.535334228515625,0.01938100904226303,-0.00184706412255764,-0.002602424006909132
1772527256964332300,6.545332275390625,0.016633957624435425,-0.00837180856615305,-0.004510845057666302
1772527256974330000,6.555330078125,0.017742404714226723,-0.020947003737092018,-0.0065415725111961365
1772527256984327400,6.565327392578125,0.02038159780204296,-0.019540056586265564,-0.008088069967925549
1772527256994325500,6.575325439453125,0.01937328651547432,-0.016902340576052666,-0.0029743125196546316
1772527257004323300,6.5853232421875,0.019780218601226807,-0.011280672624707222,-0.002793750260025263
1772527257014321400,6.5953212890625,0.019365184009075165,-0.0007379739545285702,-0.00234909076243639
1772527257024319500,6.605319580078125,0.008134366013109684,0.00571832712739706,-0.0014867591671645641
1772527257034317300,6.6153173828125,0.002976237330585718,0.014084791764616966,-0.00508462218567729
1772527257044315400,6.6253154296875,-0.005983968265354633,0.019422832876443863,-0.006582650355994701
1772527257054312200,6.635312255859375,-0.016079816967248917,0.025181958451867104,-0.011954113841056824
1772527257064310300,6.645310302734375,-0.024146266281604767,0.032296061515808105,-0.01403936930000782
1772527257074308400,6.655308349609375,-0.026326103135943413,0.03680480644106865,-0.00839553214609623
1772527257084306200,6.66530615234375,-0.02529066614806652,0.04097132384777069,-0.003152832854539156
1772527257094304300,6.67530419921875,-0.01833326928317547,0.036097146570682526,0.0035106847062706947
1772527257104302300,6.68530224609375,-0.010474281385540962,0.03209627792239189,0.005421502515673637
1772527257114299400,6.69529931640625,-0.004630889743566513,0.02651986852288246,0.004873646888881922
1772527257124297500,6.70529736328125,-0.0014124596491456032,0.01832239329814911,0.0007092617452144623
1772527257134295300,6.71529541015625,0.0012635625898838043,0.003131538163870573,-0.004228993784636259
1772527257144293400,6.72529345703125,0.0075307791121304035,-0.01040664128959179,-0.002119770273566246
1772527257154291500,6.73529150390625,0.0106479711830616,-0.021686235442757607,0.0004614768549799919
1772527257164289300,6.745289306640625,0.0167857576161623,-0.03222303092479706,0.0026316866278648376
1772527257174286300,6.755286376953125,0.01852073147892952,-0.03249037638306618,0.002545000519603491
1772527257184284200,6.7652841796875,0.021420646458864212,-0.035420652478933334,0.00007944554090499878
1772527257194282200,6.7752822265625,0.019246786832809448,-0.0389147587120533,-0.0013047317042946815
1772527257204280300,6.7852802734375,0.013754814863204956,-0.03862180933356285,-0.0036283398512750864
1772527257214278100,6.795278076171875,0.009805114939808846,-0.03850172087550163,-0.006367466878145933
1772527257224276200,6.805276123046875,-0.00007414724677801132,-0.04041333869099617,-0.010304417461156845
1772527257234273300,6.815273193359375,-0.010972902178764343,-0.02766875922679901,-0.01185218058526516
1772527257244271400,6.825271240234375,-0.021507568657398224,-0.0011252998374402523,-0.013968062587082386
1772527257254269400,6.83526953125,-0.03343023732304573,0.03734623268246651,-0.012039512395858765
1772527257264267300,6.845267333984375,-0.04257366806268692,0.07707740366458893,-0.006346207112073898
1772527257274265300,6.855265380859375,-0.039650123566389084,0.09584946930408478,0.006786816753447056
1772527257284263400,6.865263427734375,-0.030801240354776382,0.09668144583702087,0.01569562405347824
1772527257294261200,6.87526123046875,-0.014574713073670864,0.07737468928098679,0.014664847403764725
1772527257304258300,6.88525830078125,0.0010303454473614693,0.06035682559013367,0.012976935133337975
1772527257314256100,6.895256103515625,0.015230204910039902,0.05531316250562668,0.012821272946894169
1772527257324254200,6.905254150390625,0.020310450345277786,0.04266660660505295,0.012153086252510548
1772527257334252300,6.915252197265625,0.023411056026816368,0.03175775334239006,0.005556126125156879
1772527257344250000,6.92525,0.0161944217979908,0.02134239859879017,-0.000982200726866722
1772527257354248200,6.935248291015625,0.00975022092461586,0.01104098279029131,-0.010328209027647972
1772527257364245500,6.94524560546875,0.0026270635426044464,-0.00047319428995251656,-0.015895547345280647
1772527257374243300,6.955243408203125,0.0033063963055610657,-0.01267535611987114,-0.012360556982457638
1772527257384241400,6.965241455078125,0.007073970045894384,-0.025207659229636192,-0.00942868273705244
1772527257394239200,6.9752392578125,0.008698459714651108,-0.02986418642103672,-0.009252335876226425
1772527257404237300,6.9852373046875,0.009655066765844822,-0.030626384541392326,-0.013630839064717293
1772527257414235400,6.9952353515625,0.005667746067047119,-0.0203098114579916,-0.012922639027237892
1772527257424232200,7.005232177734375,0.006540464237332344,-0.012925663962960243,-0.012353255413472652
1772527257434230300,7.015230224609375,0.005139755085110664,-0.00047309137880802155,-0.009428171440958977
1772527257444228400,7.025228271484375,0.00032662414014339447,0.007914800196886063,-0.007278468459844589
1772527257454226200,7.03522607421875,0.0004286598414182663,0.010858269408345222,-0.008163658902049065
1772527257464224300,7.045224365234375,-0.0045573096722364426,0.010745618492364883,-0.0016002985648810863
1772527257474222000,7.05522216796875,-0.002474830485880375,0.009556248784065247,-0.00035422760993242264
1772527257484220200,7.06522021484375,0.002612339798361063,0.00497161690145731,0.002570721786469221
1772527257494217500,7.075217529296875,0.009135409258306026,-0.00332660716958344,0.004105990286916494
1772527257504215300,7.08521533203125,0.015737120062112808,-0.012159779667854309,0.0054985578171908855
1772527257514213400,7.09521337890625,0.02276637591421604,-0.02239697240293026,0.001104098279029131
1772527257524211500,7.10521142578125,0.023042812943458557,-0.026030588895082474,-0.0009223008528351784
1772527257534209300,7.115209228515625,0.025979600846767426,-0.03060295060276985,-0.0036104528699070215
1772527257544207400,7.125207275390625,0.017145361751317978,-0.03486427664756775,-0.013662021607160568
1772527257554204200,7.1352041015625,0.012605205178260803,-0.030616533011198044,-0.014162429608404636
1772527257564202200,7.1452021484375,0.012095742858946323,-0.027309684082865715,-0.014444724656641483
1772527257574200300,7.155200439453125,0.013162603601813316,-0.018369348719716072,-0.003237188095226884
1772527257584198100,7.1651982421875,0.016446281224489212,-0.01961597427725792,0.008427724242210388
1772527257594196200,7.1751962890625,0.02037208527326584,-0.017420854419469833,0.01660819910466671
1772527257604194300,7.1851943359375,0.02134733460843563,-0.016718579456210136,0.014245975762605667
1772527257614191400,7.19519140625,0.01581248827278614,-0.016358623281121254,0.005409452132880688
1772527257624189400,7.205189453125,0.008367887698113918,-0.01700683683156967,-0.004128659144043922
1772527257634187300,7.215187255859375,0.0073419613763689995,-0.01630021631717682,-0.005323286633938551
1772527257644185300,7.225185302734375,0.007300416007637978,-0.016021916642785072,-0.004808497615158558
1772527257654183400,7.235183349609375,0.00315056461840868,-0.012722957879304886,0.0009669666178524494
1772527257664181500,7.245181396484375,0.0031138132326304913,-0.0045095025561749935,0.004328675102442503
1772527257674179300,7.255179443359375,-0.0028476370498538017,0.004121353849768639,0.00035452889278531075
1772527257684176400,7.26517626953125,-0.010519672185182571,0.010008804500102997,-0.003004516242071986
1772527257694174500,7.275174560546875,-0.016029484570026398,0.009631168097257614,-0.0020250054076313972
1772527257704172300,7.28517236328125,-0.015191921964287758,0.015274139121174812,-0.004411197733134031
1772527257714170400,7.29517041015625,-0.010872201062738895,0.016306666657328606,0.00042093079537153244
1772527257724168400,7.30516845703125,-0.01168419886380434,0.022010359913110733,0.008142233826220036
1772527257734166300,7.315166259765625,-0.006181646138429642,0.02925526164472103,0.01330836582928896
1772527257744163600,7.32516357421875,-0.006800564005970955,0.033556535840034485,0.012577061541378498
1772527257754161400,7.335161376953125,-0.0020359093323349953,0.037685271352529526,0.010615312494337559
1772527257764159500,7.345159423828125,-0.006063141860067844,0.03361489623785019,0.003460995852947235
1772527257774157600,7.355157470703125,-0.003843734972178936,0.029864465817809105,-0.00295580318197608
1772527257784155400,7.3651552734375,-0.0036858096718788147,0.021442750468850136,-0.003231972921639681
1772527257794153500,7.375153564453125,-0.001952129416167736,0.012727461755275726,-0.004228638485074043
1772527257804150300,7.385150390625,0.0007049068808555603,0.0015493743121623993,-0.002093315590173006
1772527257814148400,7.3951484375,-0.0018092682585120201,0.005985730327665806,-0.002674440387636423
1772527257824146400,7.405146484375,-0.0010553272441029549,0.009279527701437473,-0.0005079586990177631
1772527257834144300,7.415144287109375,-0.006560923531651497,0.015973709523677826,-0.005023080389946699
1772527257844142300,7.425142333984375,-0.016285723075270653,0.025153890252113342,-0.005592730827629566
1772527257854140400,7.435140380859375,-0.014662215486168861,0.029152994975447655,-0.004004311747848988
1772527257864138200,7.44513818359375,-0.01092766597867012,0.029211850836873055,-0.0006780237890779972
1772527257874135600,7.455135498046875,-0.008931778371334076,0.024334171786904335,0.004616474267095327
1772527257884133400,7.46513330078125,-0.007216170430183411,0.017917552962899208,0.005516356322914362
1772527257894131500,7.47513134765625,-0.009018484503030777,0.014799907803535461,0.004448094870895147
1772527257904129500,7.485129638671875,-0.011093620210886002,0.01653389073908329,-0.0034303341526538134
1772527257914127400,7.49512744140625,-0.013130633160471916,0.016235921531915665,-0.006175365298986435
1772527257924125400,7.50512548828125,-0.014761554077267647,0.010896814987063408,-0.00948567409068346
1772527257934122200,7.515122314453125,-0.01530354842543602,0.007412445731461048,-0.0049194833263754845
1772527257944120300,7.525120361328125,-0.013491533696651459,0.00417510699480772,-0.0022443383932113647
1772527257954118400,7.535118408203125,-0.009420432150363922,0.0026196991093456745,0.0022830567322671413
1772527257964116200,7.5451162109375,-0.006350605748593807,0.006340135354548693,0.006854905281215906
1772527257974114300,7.5551142578125,-0.007438354194164276,0.018770644441246986,0.002740875817835331
1772527257984112400,7.5651123046875,-0.011666389182209969,0.020849240943789482,-0.0004357420839369297
1772527257994109400,7.575109375,-0.01177375391125679,0.019989531487226486,0.00021204957738518715
1772527258004107500,7.585107421875,-0.010280253365635872,0.020232412964105606,-0.004819992929697037
1772527258014105300,7.595105224609375,-0.010348504409193993,0.017120545729994774,-0.004677914083003998
1772527258024103400,7.605103515625,-0.00882810540497303,0.01090419664978981,-0.001226457767188549
1772527258034101500,7.6151015625,-0.005026861093938351,0.001944955438375473,0.0022869184613227844
1772527258044099300,7.625099365234375,-0.003616184927523136,0.0056920237839221954,0.0034232884645462036
1772527258054097400,7.635097412109375,-0.00626850500702858,0.01165342889726162,0.004476525820791721
1772527258064094200,7.64509423828125,-0.03979690372943878,0.015914753079414368,-0.00027322256937623024
1772527258074092300,7.65509228515625,-0.004047275520861149,0.018856050446629524,-0.003064881544560194
1772527258084090400,7.66509033203125,-0.013584587723016739,0.020019851624965668,-0.004232943989336491
1772527258094088200,7.675088134765625,-0.01043642871081829,0.01562764309346676,-0.005015069618821144
1772527258104086300,7.685086181640625,-0.007252352312207222,0.005602705758064985,-0.009076656773686409
1772527258114084600,7.695084716796875,0.012625559233129025,0.005737912375479937,-0.0052894423715770245
1772527258124081400,7.705081298828125,-0.04832567647099495,0.009969942271709442,-0.0009716590866446495
1772527258134079500,7.71507958984375,0.040258098393678665,0.017353085801005363,0.0013103815726935863
1772527258144077600,7.72507763671875,-0.05207023397088051,0.029978599399328232,0.0034523620270192623
1772527258154075400,7.735075439453125,0.03673964738845825,0.03769852593541145,0.005926526617258787
1772527258164073500,7.745073486328125,-0.05674796551465988,0.04507947713136673,-0.004986042156815529
1772527258174071300,7.7550712890625,0.02545461431145668,0.04598681628704071,-0.007388989441096783
1772527258184069400,7.7650693359375,-0.06595785915851593,0.043118059635162354,-0.014912419952452183
1772527258194066400,7.77506640625,0.018171589821577072,0.025409985333681107,-0.015386661514639854
1772527258204064300,7.785064208984375,-0.06431955844163895,0.01550196297466755,-0.016226090490818024
1772527258214062300,7.795062255859375,0.002715061418712139,0.0012098797596991062,-0.006350955925881863
1772527258224060400,7.805060302734375,-0.014198142103850842,0.0024434560909867287,0.0017208191566169262
1772527258234058500,7.81505859375,-0.002776152454316616,0.0007387688383460045,0.0037794881500303745
1772527258244056600,7.825056640625,-0.003347400575876236,-0.00029001059010624886,0.0029493807815015316
1772527258254053400,7.835053466796875,-0.002823934890329838,-0.008430923335254192,-0.0017288620583713055
1772527258264051500,7.845051513671875,-0.005016781389713287,-0.008752633817493916,-0.006742529105395079
1772527258274049500,7.855049560546875,-0.005756529979407787,-0.007716049440205097,-0.003470259252935648
1772527258284047400,7.86504736328125,-0.007572273723781109,-0.0017769341357052326,-0.001385270617902279
1772527258294045400,7.87504541015625,-0.008788426406681538,0.0034054750576615334,0.001088673248887062
1772527258304043500,7.88504345703125,-0.01126569788902998,0.008946182206273079,0.004983279854059219
1772527258314040300,7.895040283203125,-0.008634722791612148,0.016894958913326263,0.006218875292688608
1772527258324038400,7.905038330078125,-0.01099241804331541,0.016603076830506325,0.0015205270610749722
1772527258334036200,7.9150361328125,-0.009038157761096954,0.015222746878862381,-0.0008103158324956894
1772527258344034600,7.92503466796875,-0.00597525667399168,0.011857843026518822,-0.005148605443537235
1772527258354032600,7.93503271484375,-0.00011610705405473709,0.004919274244457483,-0.008345087058842182
1772527258364030500,7.945030517578125,-0.0017491569742560387,-0.006150420755147934,-0.004299745429307222
1772527258374028500,7.955028564453125,0.0009597335010766983,-0.010968957096338272,-0.0015676524490118027
1772527258384025300,7.965025390625,-0.00026984792202711105,-0.017117131501436234,-0.0015881587751209736
1772527258394023400,7.9750234375,-0.0016716215759515762,-0.013480199500918388,-0.0011924798600375652
1772527258404021500,7.985021484375,-0.004589114338159561,-0.007335222326219082,-0.002057740930467844
1772527258414019300,7.995019287109375,-0.001467243768274784,0.002402467653155327,0.0025137527845799923
1772527258424017400,8.005017333984375,-0.0008499231189489365,0.004762028343975544,0.003589403349906206
1772527258434015500,8.015015380859374,-0.00023990590125322342,0.006341916974633932,0.0020449035800993443
1772527258444012300,8.02501220703125,0.004167625680565834,0.0062415157444775105,0.0032089711166918278
1772527258454010400,8.03501025390625,0.0050709303468465805,0.006761010270565748,0.004438996315002441
1772527258464008400,8.045008544921876,0.0019374550320208073,0.0006903349421918392,0.003159879706799984
1772527258474006500,8.055006591796875,0.0043532103300094604,-0.0029871182050555944,-0.0017481707036495209
1772527258484004600,8.065004638671875,0.0011281222105026245,-0.011166485026478767,-0.0024019768461585045
1772527258494002400,8.07500244140625,-0.003685198724269867,-0.011861281469464302,-0.005015247967094183
1772527258503999500,8.08499951171875,-0.005234093405306339,-0.008871883153915405,-0.0028125473763793707
1772527258513997300,8.094997314453124,-0.00668544415384531,0.0017405073158442974,-0.004029744304716587
1772527258523995400,8.104995361328125,-0.0065514883026480675,0.0116376131772995,-0.004503254313021898
1772527258533993500,8.114993408203125,-0.00881060678511858,0.018395692110061646,0.0014032600447535515
1772527258543991300,8.1249912109375,-0.004698951728641987,0.014765802770853043,0.004326345399022102
1772527258553989400,8.1349892578125,-0.001133129931986332,0.0042215087451040745,0.0028102961368858814
1772527258563987500,8.144987548828125,0.003581463824957609,-0.005587180145084858,-0.0008582086302340031
1772527258573984500,8.154984619140626,0.0027098474092781544,-0.016716282814741135,-0.001879597082734108
1772527258583982600,8.164982666015625,0.005818289238959551,-0.026582762598991394,0.00019447272643446922
1772527258593980400,8.17498046875,0.005592416040599346,-0.030784888193011284,-0.0015181847847998142
1772527258603978500,8.184978515625,0.007034251466393471,-0.038983963429927826,0.002201452385634184
1772527258613976600,8.1949765625,0.01042931992560625,-0.040778499096632004,0.001866872888058424
1772527258623974400,8.204974365234374,0.00943542830646038,-0.044342074543237686,0.00020905537530779839
1772527258633971500,8.214971435546875,0.0058502876199781895,-0.03708377480506897,-0.00028398726135492325
1772527258643969800,8.2249697265625,0.0002842806279659271,-0.028211720287799835,-0.0017367415130138397
1772527258653967600,8.234967529296876,-0.006001085974276066,-0.015420123934745789,-0.004974190145730972
1772527258663965700,8.244965576171875,-0.009413927793502808,-0.015300014987587929,-0.003210644703358412
1772527258673963800,8.2549638671875,-0.00990687683224678,-0.013047881424427032,-0.003291760804131627
1772527258683961600,8.264961669921876,-0.007647717371582985,-0.014428464695811272,-0.0012626983225345612
1772527258693958700,8.274958740234375,-0.002368990331888199,-0.02157583460211754,0.004689821507781744
1772527258703956500,8.28495654296875,0.0020819506607949734,-0.026000145822763443,0.00961533933877945
1772527258713954600,8.29495458984375,0.0040618982166051865,-0.03114846535027027,0.005926194135099649
1772527258723953000,8.304952880859375,0.004421691410243511,-0.031428899616003036,0.002121869008988142
1772527258733950700,8.31495068359375,0.004164468497037888,-0.031506091356277466,-0.0021827099844813347
1772527258743948800,8.32494873046875,0.004965280648320913,-0.03411572054028511,-0.002280447632074356
1772527258753947000,8.33494677734375,0.004112688358873129,-0.040084827691316605,0.0003474266268312931
1772527258763943700,8.344943603515626,0.0008021127432584763,-0.037864018231630325,0.0037083360366523266
1772527258773941800,8.354941650390625,-0.00041270628571510315,-0.03019501455128193,0.0022309469059109688
1772527258783939600,8.364939697265624,-0.005167247727513313,-0.023535780608654022,0.000044757965952157974
1772527258793937700,8.374937744140626,-0.011185992509126663,-0.01268766075372696,-0.004683418199419975
1772527258803935700,8.384935791015625,-0.015431603416800499,-0.00820662546902895,-0.005651210900396109
1772527258813933600,8.39493359375,-0.015436476096510887,-0.0019027851521968842,-0.00714069465175271
1772527258823930600,8.4049306640625,-0.011944271624088287,-0.001922492403537035,-0.008244308643043041
1772527258833928700,8.4149287109375,-0.006308563984930515,0.002985370345413685,-0.004719659686088562
1772527258843926800,8.4249267578125,-0.006232397630810738,0.0037417076528072357,-0.001523866318166256
1772527258853924900,8.4349248046875,-0.007135326042771339,-0.0032982132397592068,-0.0014127446338534355
1772527258863922700,8.444922607421875,-0.0028801271691918373,-0.0035797094460576773,0.001300483476370573
1772527258873920800,8.454920654296876,0.0034007481299340725,-0.01328727975487709,0.007622494827955961
1772527258883917600,8.46491748046875,0.010849876329302788,-0.01554191205650568,0.013867607340216637
1772527258893915600,8.47491552734375,0.01310538500547409,-0.02278813160955906,0.013830743730068207
1772527258903913700,8.484913818359376,0.011211876757442951,-0.021072257310152054,0.009429603815078735
1772527258913911600,8.49491162109375,0.00565009331330657,-0.016998030245304108,0.004462498240172863
1772527258923909600,8.50490966796875,0.006227732636034489,-0.011430426500737667,-0.005586673971265554
1772527258933907700,8.51490771484375,0.0003804164007306099,-0.011167436838150024,-0.002177538350224495
1772527258943905500,8.524905517578125,-0.0008419742807745934,-0.004901550710201263,-0.0070575145073235035
1772527258953902800,8.53490283203125,-0.0061936695128679276,-0.003396407002583146,-0.0033507058396935463
1772527258963900700,8.544900634765625,-0.0048325276002287865,0.004463913384824991,-0.005585630424320698
1772527258973898800,8.554898681640625,-0.0046353768557310104,0.006466204300522804,-0.004136360250413418
1772527258983896800,8.564896728515626,0.0007284963503479958,0.00490505900233984,-0.004637833684682846
1772527258993894700,8.574894775390625,-0.0027490612119436264,0.0018758163787424564,-0.002722065895795822
1772527259003892700,8.584892822265624,-0.005719018168747425,-0.0008326182141900063,-0.001494348980486393
1772527259013889800,8.594889892578125,-0.005064450204372406,0.000043847132474184036,0.00455668568611145
1772527259023887600,8.6048876953125,-0.0004947315901517868,0.007549433968961239,0.0028794268146157265
1772527259033885700,8.6148857421875,-0.0012505752965807915,0.005550322122871876,0.0010013212449848652
1772527259043883500,8.624883544921875,-0.0011014379560947418,0.0035010194405913353,0.0007720231078565121
1772527259053881600,8.634881591796875,0.0028595575131475925,-0.0014629298821091652,0.0011724955402314663
1772527259063879700,8.644879638671876,0.004320301581174135,-0.011542994529008865,-0.001659776084125042
1772527259073876700,8.654876708984375,0.006897822953760624,-0.01819673739373684,-0.0017283521592617035
1772527259083874800,8.664874755859374,0.008732740767300129,-0.02109159342944622,0.0052464669570326805
1772527259093873000,8.674872802734376,0.01086878590285778,-0.01704653911292553,0.0031083915382623672
1772527259103870700,8.68487060546875,0.011772663332521915,-0.013168975710868835,0.005376339890062809
1772527259113868800,8.694868896484374,0.01009365264326334,-0.010462403297424316,0.00036562513560056686
1772527259123866600,8.70486669921875,0.005317007191479206,-0.010683977976441383,-0.0008160192519426346
1772527259133863700,8.71486376953125,0.005127657204866409,-0.011069174855947495,-0.006073255091905594
1772527259143861800,8.72486181640625,0.0005936259403824806,-0.010306978598237038,-0.010521000251173973
1772527259153859600,8.734859619140625,-0.0012235632166266441,-0.01381676271557808,-0.007263710256665945
1772527259163857700,8.744857666015625,-0.002660605125129223,-0.004910886287689209,-0.0037363532464951277
1772527259173855700,8.754855712890626,-0.0024769632145762444,0.00009409058839082718,-0.0023505776189267635
1772527259183853600,8.764853515625,-0.00428658165037632,0.007256662473082542,-0.0037402149755507708
1772527259193851600,8.7748515625,-0.007270991802215576,0.014344960451126099,-0.005247453227639198
1772527259203848700,8.7848486328125,-0.010831639170646667,0.012199783697724342,-0.001583476085215807
1772527259213846800,8.7948466796875,-0.013029203750193119,0.013532452285289764,-0.005672937259078026
1772527259223844900,8.804844970703124,-0.013975691981613636,0.008136088028550148,-0.002981546800583601
1772527259233842700,8.8148427734375,-0.017161672934889793,0.0073774149641394615,-0.006958178244531155
1772527259243840800,8.8248408203125,-0.01876409724354744,0.005389099009335041,-0.009270600974559784
1772527259253838800,8.8348388671875,-0.01388468686491251,0.006645125336945057,-0.003460094565525651
1772527259263835600,8.844835693359375,-0.008824680931866169,0.0004458189941942692,0.004404486622661352
1772527259273833700,8.854833740234374,-0.0018119700253009796,-0.010802285745739937,0.010834511369466782
1772527259283831600,8.86483154296875,0.00973416492342949,-0.020654384046792984,0.013086481019854546
1772527259293829600,8.87482958984375,0.015057330019772053,-0.02846353128552437,0.014648312702775002
1772527259303827700,8.88482763671875,0.01747867465019226,-0.04484809935092926,0.01500517688691616
1772527259313825500,8.894825439453125,0.020649205893278122,-0.04962599277496338,0.009339656680822372
1772527259323823600,8.90482373046875,0.017725855112075806,-0.05088060721755028,0.005341453477740288
1772527259333820700,8.914820556640626,0.01049053855240345,-0.04923587664961815,0.0019415062852203846
1772527259343818800,8.92481884765625,0.011232495307922363,-0.042712729424238205,0.00038116052746772766
1772527259353816800,8.93481689453125,0.009770688600838184,-0.03767796605825424,0.0028669098392128944
1772527259363814700,8.944814697265626,0.01437289733439684,-0.030348945409059525,0.003784901462495327
1772527259373812700,8.954812744140625,0.013915440067648888,-0.028853721916675568,0.009350620210170746
1772527259383810800,8.964810791015625,0.016536522656679153,-0.03481467813253403,0.005922599229961634
1772527259393807600,8.9748076171875,0.021662462502717972,-0.03339281678199768,0.014287300407886505
1772527259403805700,8.9848056640625,0.016625892370939255,-0.02803054079413414,0.02051536738872528
1772527259413803500,8.994803466796874,0.019149810075759888,-0.02709227055311203,0.011904990300536156
1772527259423801600,9.004801513671875,0.013760902918875217,-0.02584031969308853,0.010171538218855858
1772527259433799700,9.014799560546875,0.004291347227990627,-0.016333792358636856,0.006141556426882744
1772527259443797500,9.024797607421876,0.0008260421454906464,-0.0022009299136698246,-0.003809079062193632
1772527259453794800,9.034794921875,-0.0026093972846865654,-0.00178543571382761,-0.007196997292339802
1772527259463792600,9.044792724609374,-0.007085371762514114,-0.0010812962427735329,-0.007837753742933273
1772527259473790700,9.054790771484376,-0.009268823079764843,0.00426581921055913,-0.00469167297706008
1772527259483788800,9.064788818359375,-0.013030803762376308,0.0015041213482618332,-0.0014844280667603016
1772527259493786600,9.07478662109375,-0.015762101858854294,0.008923995308578014,0.0036170119419693947
1772527259503784700,9.08478466796875,-0.016790349036455154,0.010391131043434143,-0.0014089061878621578
1772527259513782800,9.09478271484375,-0.008384080603718758,0.009993255138397217,-0.0037895056884735823
1772527259523779600,9.104779541015626,-0.007661564275622368,0.01024572178721428,-0.0004813270643353462
1772527259533777700,9.114777587890625,-0.0027340706437826157,0.01723610609769821,0.007181053049862385
1772527259543775500,9.124775390625,-0.0038267653435468674,0.018924815580248833,0.014116190373897552
1772527259553773600,9.134773681640626,-0.002192040905356407,0.025583110749721527,0.011426642537117004
1772527259563771600,9.144771728515625,-0.005654416978359222,0.03244953975081444,0.0062963287346065044
1772527259573769500,9.15476953125,-0.012857316993176937,0.03901204094290733,-0.0027224435470998287
1772527259583766800,9.164766845703125,-0.016431812196969986,0.0387132354080677,-0.0059762937016785145
1772527259593764900,9.174764892578125,-0.0181924719363451,0.04046815261244774,-0.0030732909217476845
1772527259603762700,9.1847626953125,-0.014902135357260704,0.035944242030382156,-0.0015196027234196663
1772527259613760800,9.1947607421875,-0.012744477018713951,0.03234473615884781,0.003775625955313444
1772527259623758600,9.204758544921875,-0.011275742202997208,0.02987944707274437,0.007041726727038622
1772527259633756700,9.214756591796874,-0.015069833025336266,0.03316766768693924,0.0005417922511696815
1772527259643752700,9.224752685546875,-0.018862705677747726,0.035545606166124344,-0.008597377687692642
1772527259653750800,9.234750732421874,-0.020899608731269836,0.038391973823308945,-0.009999841451644897
1772527259663748900,9.244748779296875,-0.021833844482898712,0.038465213030576706,-0.006277274806052446
1772527259673747000,9.254746826171875,-0.025444861501455307,0.04027341306209564,-0.003244023770093918
1772527259683745000,9.2647451171875,-0.019484974443912506,0.03791278600692749,-0.00048658670857548714
1772527259693742800,9.274742919921875,-0.023213550448417664,0.03451758623123169,0.0033163847401738167
1772527259703740000,9.284739990234375,-0.018180973827838898,0.03741537034511566,0.0070389509201049805
1772527259713737700,9.29473779296875,-0.017378374934196472,0.037223972380161285,0.005210225470364094
1772527259723735800,9.30473583984375,-0.01646277867257595,0.03659600019454956,0.0012575620785355568
1772527259733734000,9.31473388671875,-0.012478918768465519,0.03410997986793518,-0.000893052201718092
1772527259743731700,9.324731689453126,-0.011386756785213947,0.022522829473018646,0.0010641049593687057
1772527259753729800,9.334729736328125,-0.009662473574280739,0.00598490983247757,0.002983090002089739
1772527259763728000,9.344727783203124,-0.0020953677594661713,0.002574731595814228,0.00265818415209651
1772527259773724700,9.354724609375,-0.004194548353552818,-0.007644533179700375,-0.00009146193042397499
1772527259783722800,9.36472265625,-0.0012703975662589073,-0.0119244996458292,-0.0008027926087379456
1772527259793720800,9.374720947265626,0.0004723379388451576,-0.007227463647723198,-0.00010737543925642967
1772527259803719000,9.384718994140625,0.0027482756413519382,-0.0020540072582662106,-0.0017596008256077766
1772527259813717000,9.394717041015625,0.00023687444627285004,0.010324647650122643,-0.0037888623774051666
1772527259823714800,9.40471484375,-0.005039646290242672,0.010737704113125801,-0.0062221926636993885
1772527259833711900,9.4147119140625,-0.005039422772824764,0.009324205107986927,-0.004937815014272928
1772527259843709700,9.424709716796874,-0.003321683034300804,0.006779821589589119,0.00003803521394729614
1772527259853707800,9.434707763671875,-0.0011176476255059242,0.0074700117111206055,0.004304795991629362
1772527259863705900,9.444705810546875,-0.004336344078183174,0.008556049317121506,0.005137033294886351
1772527259873703700,9.45470361328125,-0.009335056878626347,0.013605501502752304,0.005365109536796808
1772527259883701800,9.46470166015625,-0.009513222612440586,0.017510227859020233,0.004243919160217047
1772527259893698800,9.47469873046875,-0.016497401520609856,0.019683431833982468,0.0004292079247534275
1772527259903697000,9.48469677734375,-0.016475295647978783,0.020574526861310005,-0.000296770129352808
1772527259913695000,9.494695068359375,-0.016322432085871696,0.013661861419677734,0.0023875865153968334
1772527259923692800,9.50469287109375,-0.014628928154706955,0.010965144261717796,0.0044997395016252995
1772527259933691000,9.51469091796875,-0.011492637917399406,0.0006984947249293327,0.004762992728501558
1772527259943689000,9.52468896484375,-0.005951664410531521,-0.001220046542584896,0.005956887733191252
1772527259953686800,9.534686767578124,-0.0035195499658584595,-0.002151929307729006,0.0037023434415459633
1772527259963683800,9.544683837890625,-0.00043720752000808716,-0.006621512118726969,0.0015076324343681335
1772527259973681700,9.554681640625,-0.0016522202640771866,-0.008388647809624672,0.0012317514047026634
1772527259983679700,9.5646796875,0.00305198784917593,-0.008820878341794014,0.0007816771976649761
1772527259993677800,9.574677734375,0.005581003613770008,-0.007919803261756897,0.0055266087874770164
1772527260003675600,9.584675537109375,0.005906708538532257,-0.0113116055727005,0.00563739612698555
1772527260013673700,9.594673828125,0.007763270754367113,-0.011362234130501747,0.011060280725359917
1772527260023670800,9.6046708984375,0.0018598414026200771,-0.003366093384101987,0.013943152502179146
1772527260033668900,9.6146689453125,-0.0023814691230654716,0.01095535233616829,0.011965090408921242
1772527260043667000,9.6246669921875,-0.0030129048973321915,0.02569275163114071,0.008478213101625443
1772527260053664800,9.634664794921875,-0.004691798239946365,0.0336817242205143,0.004646789748221636
1772527260063662800,9.644662841796874,-0.002416127361357212,0.029158879071474075,0.0003527086228132248
1772527260073661000,9.654660888671875,0.002764809876680374,0.014090458862483501,0.001494276337325573
1772527260083657700,9.66465771484375,0.014342103153467178,-0.00839780643582344,0.005504464730620384
1772527260093655800,9.67465576171875,0.019329193979501724,-0.029002247378230095,0.003653629682958126
1772527260103654000,9.68465380859375,0.024090658873319626,-0.04275534301996231,0.007374865002930164
1772527260113651700,9.694651611328124,0.025525759905576706,-0.046611249446868896,0.005707792472094297
1772527260123649800,9.70464990234375,0.024843458086252213,-0.03936372324824333,0.004705379251390696
1772527260133647600,9.714647705078125,0.01980939880013466,-0.02794136479496956,0.002438740339130163
1772527260143645700,9.724645751953124,0.013054289855062962,-0.016669536009430885,-0.0010979375801980495
1772527260153643000,9.73464306640625,0.010542015545070171,-0.005905632860958576,-0.004846580792218447
1772527260163640800,9.744640869140625,0.0025538639165461063,-0.0036802953109145164,-0.002447871956974268
1772527260173639000,9.754638916015624,-0.002529958263039589,-0.0006009438075125217,-0.00139590073376894
1772527260183637000,9.764636962890625,-0.004219467751681805,0.006587194744497538,0.0010640611872076988
1772527260193634800,9.774634765625,-0.00667798426002264,0.013968795537948608,0.0028954502195119858
1772527260203633000,9.7846328125,-0.010906283743679523,0.019125208258628845,0.0023401807993650436
1772527260213629700,9.794629638671875,-0.01409526914358139,0.01961117424070835,-0.003251902526244521
1772527260223627800,9.804627685546874,-0.017006102949380875,0.016810061410069466,-0.003530469024553895
1772527260233625900,9.8146259765625,-0.0182068832218647,0.011993451043963432,-0.004748133011162281
1772527260243623700,9.824623779296875,-0.014928000047802925,0.008498584851622581,-0.0009739012457430363
1772527260253621800,9.834621826171874,-0.010900843888521194,0.0018061436712741852,-0.0021722568199038506
1772527260263619800,9.844619873046875,-0.006354828365147114,-0.005876543466001749,0.00025947531685233116
1772527260273617000,9.854616943359375,-0.004835953004658222,-0.01073082908987999,0.0035247555933892727
1772527260283615000,9.864614990234376,-0.0015187198296189308,-0.009268487803637981,0.0038267583586275578
1772527260293612800,9.87461279296875,-0.0012279385700821877,-0.008080164901912212,0.004477967042475939
1772527260303611000,9.88461083984375,-0.0006716037169098854,-0.009084443561732769,0.004200199153274298
1772527260313609000,9.89460888671875,-0.0011997111141681671,-0.011309298686683178,-0.0026714885607361794
1772527260323606800,9.904606689453125,-0.0001874435693025589,-0.015402576886117458,-0.0013079498894512653
1772527260333604900,9.91460498046875,-0.002852506935596466,-0.02239767462015152,0.001270100474357605
1772527260343601700,9.9246015625,0.0021214792504906654,-0.023044023662805557,-0.0005304622463881969
1772527260353599700,9.934599853515625,0.005620227195322514,-0.03183123841881752,0.0046739536337554455
1772527260363597800,9.944597900390624,0.0075520845130085945,-0.03057529218494892,0.004139990080147982
1772527260373595600,9.954595703125,0.010513520799577236,-0.029062721878290176,0.00766958761960268
1772527260383593700,9.96459375,0.013791073113679886,-0.020868174731731415,0.013042780570685863
1772527260393591800,9.974591796875,0.013406854122877121,-0.01292111910879612,0.010829893872141838
1772527260403588900,9.9845888671875,0.011398565024137497,-0.010848646983504295,0.0072466121055185795
1772527260413587000,9.9945869140625,0.008119792677462101,-0.007052737753838301,0.004074698779731989
1772527260423584800,10.004584716796876,0.0053919171914458275,-0.0060402038507163525,0.00008368538692593575
1772527260433582800,10.014582763671875,-0.0013334006071090698,-0.004006537143141031,-0.000054244883358478546
1772527260443581000,10.024580810546874,-0.004470870830118656,0.0075276135466992855,0.002725029829889536
1772527260453578800,10.034578857421875,-0.005843659862875938,0.01887737214565277,0.0014186627231538296
1772527260463575800,10.044575927734375,-0.010032013058662415,0.03794081509113312,0.0021771308965981007
1772527260473573600,10.05457373046875,-0.00985639076679945,0.052991319447755814,0.008148889988660812
1772527260483571700,10.06457177734375,-0.015465007163584232,0.06074804067611694,0.004113935399800539
1772527260493569800,10.07456982421875,-0.00627527479082346,0.047784265130758286,-0.012342425063252449
1772527260503567600,10.084567626953126,-0.0026946552097797394,0.03787198290228844,-0.0026423935778439045
1772527260513565700,10.094565673828125,-0.005254562944173813,0.04160698130726814,0.00047399336472153664
1772527260523563800,10.104563720703124,0.0015657925978302956,0.028617149218916893,-0.009918726049363613
1772527260533560800,10.114560791015625,0.002712398301810026,0.027648143470287323,-0.004983422812074423
1772527260543559000,10.124558837890625,-0.004212353378534317,0.018936412408947945,-0.009159792214632034
1772527260553556700,10.134556640625,-0.012720048427581787,0.035052940249443054,-0.022716568782925606
1772527260563554800,10.144554931640625,-0.027262771502137184,0.06054578348994255,-0.03652985394001007
1772527260573553000,10.154552978515625,-0.02956157550215721,0.04378100484609604,-0.012904861941933632
1772527260583550700,10.16455078125,-0.002516644075512886,0.05263441801071167,-0.020393937826156616
1772527260593547800,10.1745478515625,-0.0025380663573741913,0.02143366076052189,-0.004046743270009756
1772527260603545900,10.1845458984375,-0.002872026525437832,0.0017774016596376896,0.007896734401583672
1772527260613543700,10.194543701171876,-0.00322770606726408,0.004390352871268988,0.0043988716788589954
1772527260623541800,10.204541748046875,-0.010413712821900845,0.014438459649682045,0.006013279315084219
1772527260633539600,10.21453955078125,-0.01629161462187767,0.034332823008298874,0.0002718367613852024
1772527260643538000,10.224537841796876,-0.01923547312617302,0.04455403611063957,-0.006501913536339998
1772527260653535000,10.234534912109375,-0.02502579241991043,0.05127370357513428,-0.0010561044327914715
1772527260663533000,10.244532958984376,-0.02202680893242359,0.039224762469530106,0.005800469778478146
1772527260673531100,10.25453125,-0.012928460724651814,0.035540733486413956,0.004181757569313049
1772527260683529000,10.264529052734375,-0.009256227873265743,0.01697290688753128,0.005701356567442417
1772527260693527000,10.274527099609376,-0.009765727445483208,0.0005545364692807198,0.005650556646287441
1772527260703525000,10.284525146484375,-0.021190689876675606,0.025776002556085587,-0.025230394676327705
1772527260713523000,10.29452294921875,-0.009968739002943039,-0.0058378721587359905,-0.0017469944432377815
1772527260723520000,10.30452001953125,0.011651068925857544,-0.0097340764477849,-0.0023051928728818893
1772527260733517800,10.314517822265625,0.01913538947701454,-0.016157476231455803,-0.004028214141726494
1772527260743516000,10.324515869140624,0.016075683757662773,-0.03310183808207512,0.007479304913431406
1772527260753514000,10.334513916015625,0.0155747439712286,-0.036546796560287476,0.011103224009275436
1772527260763511800,10.34451171875,0.013326236978173256,-0.030361872166395187,0.006152674090117216
1772527260773510000,10.354510009765624,0.009288428351283073,-0.016340574249625206,0.0008653225377202034
1772527260783507000,10.3645068359375,-0.0017285365611314774,-0.005119877867400646,-0.006511899642646313
1772527260793505000,10.374505126953125,-0.009221151471138,0.008726036176085472,-0.011321812868118286
1772527260803503000,10.384503173828126,-0.008505824953317642,0.015681680291891098,-0.016132546588778496
1772527260813501000,10.3945009765625,-0.007514601573348045,0.014636269770562649,-0.008456161245703697
1772527260823499000,10.4044990234375,-0.006345740519464016,0.01314356829971075,-0.0018256893381476402
1772527260833497000,10.4144970703125,-0.006657173857092857,0.008232491090893745,0.001983894035220146
1772527260843495000,10.424494873046875,-0.006226539611816406,0.0036598430015146732,0.0006408621557056904
1772527260853492000,10.434491943359374,-0.006559092551469803,0.001584568526595831,0.0028680418618023396
1772527260863489800,10.44448974609375,-0.0050099315121769905,0.0060022203251719475,0.000863214023411274
1772527260873488000,10.45448779296875,-0.0028077634051442146,0.0011708750389516354,0.0006294990889728069
1772527260883486000,10.46448583984375,0.002095382194966078,-0.002277918392792344,0.0030947872437536716
1772527260893483800,10.47448388671875,0.0054240659810602665,-0.005735558923333883,0.005962258204817772
1772527260903481900,10.48448193359375,0.00819561816751957,-0.0048676347360014915,0.007621141150593758
1772527260913479000,10.49447900390625,0.011692805215716362,-0.004341890569776297,0.003933594562113285
1772527260923477000,10.50447705078125,0.008482364937663078,-0.0051903738640248775,-0.0012574391439557076
1772527260933475000,10.51447509765625,0.011134188622236252,-0.0037604609970003366,-0.004824765492230654
1772527260943473000,10.524472900390625,0.013820785097777843,-0.012032771483063698,-0.001995422877371311
1772527260953471000,10.534470947265625,0.014630272053182125,-0.010817689821124077,0.0015815352089703083
1772527260963469000,10.544468994140624,0.016101401299238205,-0.009752425365149975,-0.0017122621648013592
1772527260973465900,10.5544658203125,0.014449900016188622,-0.004500057548284531,0.002754724584519863
1772527260983464000,10.5644638671875,0.008732092566788197,0.004256150219589472,0.00047532515600323677
1772527260993461800,10.574461669921876,0.006983651779592037,0.013036094605922699,-0.005053264554589987
1772527261003459800,10.5844599609375,0.0016040662303566933,0.018203958868980408,-0.006341169122606516
1772527261013458000,10.5944580078125,-0.006263558752834797,0.020086266100406647,-0.008342045359313488
1772527261023455700,10.604455810546876,-0.0066459896042943,0.02154754288494587,-0.009848861955106258
1772527261033453800,10.614453857421875,-0.011414453387260437,0.013930082321166992,-0.00854559987783432
1772527261043451100,10.624451171875,-0.009335590526461601,0.016120798885822296,-0.007074203807860613
1772527261053449000,10.634448974609375,-0.0040120454505085945,0.021430976688861847,-0.0061978911980986595
1772527261063447000,10.644447021484375,-0.005204875022172928,0.01753903552889824,-0.008650662377476692
1772527261073444900,10.65444482421875,-0.0032382458448410034,0.011352818459272385,-0.010890735313296318
1772527261083443000,10.66444287109375,-0.0013399450108408928,0.0025800997391343117,-0.008550083264708519
1772527261093441000,10.67444091796875,0.0030893501825630665,-0.005563438404351473,-0.006092230323702097
1772527261103437800,10.684437744140626,0.00667609553784132,-0.01407543383538723,-0.004334277473390102
1772527261113436000,10.694435791015625,-0.008577577769756317,0.02052164636552334,-0.02002659998834133
1772527261123434000,10.70443408203125,0.010514889843761921,-0.028923399746418,0.004258234053850174
1772527261133431800,10.714431884765625,0.010384813882410526,0.008265291340649128,-0.012879296205937862
1772527261143430000,10.724429931640625,-0.01207069493830204,0.020808780565857887,-0.020985160022974014
1772527261153428000,10.734427978515624,-0.02162923663854599,-0.017912494018673897,0.00548541871830821
1772527261163425000,10.744425048828125,0.003738704137504101,0.003546191845089197,0.0028747222386300564
1772527261173423000,10.754423095703125,0.019773216918110847,-0.009062176570296288,0.01991535723209381
1772527261183421000,10.7644208984375,0.02194475755095482,-0.02262485772371292,0.03135602921247482
1772527261193419000,10.7744189453125,0.023450814187526703,-0.029271963983774185,0.019690897315740585
1772527261203417000,10.7844169921875,0.019181234762072563,-0.05091334134340286,0.01995321735739708
1772527261213415000,10.794414794921876,0.005322067067027092,-0.05886402353644371,0.017410121858119965
1772527261223413000,10.8044130859375,0.010114957578480244,-0.03150803595781326,-0.0015843412838876247
1772527261233409800,10.814409912109374,0.006670540198683739,-0.009498810395598412,-0.01824057102203369
1772527261243408000,10.824407958984375,-0.01137530617415905,0.0040670656599104404,-0.02863595448434353
1772527261253406000,10.834406005859375,-0.01094349566847086,0.018045371398329735,-0.018469981849193573
1772527261263403800,10.84440380859375,-0.007747969590127468,0.0533737987279892,-0.01333434134721756
1772527261273401900,10.85440185546875,-0.00815447699278593,0.0805116668343544,-0.021855436265468597
1772527261283400000,10.86439990234375,-0.015049402602016926,0.0904439240694046,-0.02120216190814972
1772527261293397000,10.87439697265625,-0.02392442710697651,0.0980365052819252,-0.022020641714334488
1772527261303395000,10.88439501953125,-0.033461734652519226,0.0980231910943985,-0.02624175138771534
1772527261313393000,10.894392822265624,-0.03974580764770508,0.088047556579113,-0.02327008545398712
1772527261323391000,10.904390869140625,-0.03602777048945427,0.0782143622636795,-0.016329888254404068
