time,seconds_elapsed,z,y,x
1772527311982677500,0.064677490234375,-0.014203151267021893,-0.07479249839484692,0.3265397926725447
1772527311992675600,0.074675537109375,-0.010738690026849507,-0.10001870958805084,0.2814782695442438
1772527312002673400,0.08467333984375,0.01402516435161233,-0.13417290812432764,0.2143568902991712
1772527312012670500,0.09467041015625,0.034279286220669745,-0.13015724274218082,0.1453594880491495
1772527312022668500,0.10466845703125,0.015950579456239938,-0.13007716324329374,0.043605771362036465
1772527312032666400,0.114666259765625,-0.004116203147172927,-0.0866787510216236,-0.01840893239378929
1772527312042664400,0.12466455078125,0.017728695044666527,-0.00017827917635440825,-0.03484977958500385
1772527312052662500,0.13466259765625,0.06005144085884094,0.011682254487276077,-0.061377282635122536
1772527312062660400,0.144660400390625,0.0936078196324408,-0.042999768292903896,-0.06998012967705726
1772527312072658400,0.154658447265625,0.06497033869102598,-0.0975409212976694,-0.08852744762822985
1772527312082656300,0.16465625,-0.029505642078071832,-0.20605624107420442,-0.0918877178415656
1772527312092654600,0.174654541015625,-0.1408756206333637,-0.2502858434230089,-0.05700505890026688
1772527312102651600,0.184651611328125,-0.19363222830891608,-0.1494733531087637,0.04514803236797452
1772527312112649500,0.1946494140625,-0.1663344715386629,-0.03961947820484638,0.13568652755767105
1772527312122647600,0.2046474609375,-0.09450506073310971,-0.005424363136291504,0.11658669029027223
1772527312132645600,0.214645751953125,0.01408215523585677,-0.04883563483953476,0.10469108531326055
1772527312142643500,0.2246435546875,0.09215864373743533,-0.0686275460243225,0.11970832944214344
1772527312152641500,0.2346416015625,0.06958630805388093,-0.04044190050363541,0.12247077989280224
1772527312162639400,0.244639404296875,-0.021301731225848195,-0.028364509218931196,0.020327771627157924
1772527312172637400,0.254637451171875,-0.0954582698047161,0.02144669265449047,-0.09427125197723507
1772527312182635500,0.264635498046875,-0.07218100072219967,0.10625029745399951,-0.12343494874984025
1772527312192632300,0.27463232421875,0.0738007108785212,0.05557458770573139,-0.021944851434975862
1772527312202630400,0.28463037109375,0.17404022361040114,-0.01650046842396259,0.10885624216869473
1772527312212628500,0.29462841796875,0.2237520567625761,0.01893266400694847,0.10140724133700131
1772527312222626600,0.30462646484375,0.31551439465880393,0.05867021563351154,-0.01710121079608798
1772527312232624600,0.314624755859375,0.4474292947232723,0.09355155940055847,-0.0665090925656259
1772527312242622700,0.324622802734375,0.5740766296483576,0.11435410893261432,-0.038571722717583176
1772527312252620500,0.33462060546875,0.5339572390973568,0.0872059897661209,0.0008327975623309612
1772527312262618600,0.34461865234375,0.31720074031054973,0.0396142175078392,0.0680854019716382
1772527312272615400,0.354615478515625,0.04083250725641847,-0.05280570751428604,0.080801383420825
1772527312282613500,0.364613525390625,-0.17457345370426772,-0.1296744276612997,0.06371142467111349
1772527312292611600,0.374611572265625,-0.2926198412835598,-0.09295125541985035,0.1451730255663395
1772527312302609400,0.384609375,-0.3585919043630361,-0.08880056548118591,0.21812442613914607
1772527312312607500,0.394607421875,-0.2973965541660786,-0.16139058539569376,0.21970336589366196
1772527312322605600,0.40460546875,-0.20378654257655143,-0.11577449712455272,0.034807255617529155
1772527312332603400,0.414603271484375,-0.15937939170375465,-0.07462824774384498,0.023433190296590328
1772527312342601500,0.4246015625,-0.01579728859066963,-0.013545125749707222,0.10543152841702103
1772527312352599300,0.434599365234375,0.1331295365512371,0.039190439137816425,0.1516539120182395
1772527312362596600,0.4445966796875,0.2583611594595015,0.039784897899627684,0.18459727346003055
1772527312372594700,0.4545947265625,0.31853169665336606,0.0005184709161520004,0.11648965965658425
1772527312382592500,0.464592529296875,0.3396592403560877,-0.013050035709142684,-0.02580883338674903
1772527312392590600,0.474590576171875,0.27918928182423114,0.029535306563973424,-0.022816227442026136
1772527312402588700,0.484588623046875,0.15896613472774623,0.08341068913638591,0.05182093426063657
1772527312412586500,0.49458642578125,0.02172390216067433,0.036599253600835796,0.10487827844843267
1772527312422584600,0.50458447265625,-0.11754326036274433,-0.009080547556281088,0.1364464060142636
1772527312432582400,0.51458251953125,-0.16095584724023937,-0.03845160346925258,0.14555968679636716
1772527312442579500,0.524579345703125,-0.1883544340364635,-0.0803396111279726,0.14604761644378303
1772527312452577500,0.53457763671875,-0.1295481709331274,-0.06873042187690734,0.09623875265792012
1772527312462575400,0.544575439453125,-0.013155834171175955,-0.08324468491971493,0.011794044298678636
1772527312472573400,0.554573486328125,0.13852160485312343,-0.07160217792093754,-0.03142418905049562
1772527312482571500,0.564571533203125,0.281907747002691,0.00656125821173191,-0.0066147419646382325
1772527312492569300,0.5745693359375,0.32533786953687666,0.08969079231917858,0.03932005686685443
1772527312502567400,0.5845673828125,0.24383725180551408,0.17859481817483902,0.04111906911283731
1772527312512565500,0.5945654296875,0.10349661483168601,0.17250760721564293,-0.004864537296444178
1772527312522563600,0.6045634765625,0.009584405425190925,0.04920037649869918,0.06844137580245734
1772527312532560600,0.614560546875,-0.03709843529462814,-0.06449497626423835,0.2046003431774676
1772527312542558500,0.624558349609375,-0.09184314804747701,-0.10824527066349983,0.1666205950036645
1772527312552556500,0.634556640625,-0.10539674936458468,-0.0676776979535818,0.10075067712441087
1772527312562554600,0.6445546875,-0.053743865147233005,-0.024454057776927947,0.04642608947977423
1772527312572552400,0.654552490234375,0.06616977760866284,0.010963292562961578,0.045646775670349596
1772527312582550500,0.664550537109375,0.13479483941495418,-0.005697919380664825,0.09670067108124494
1772527312592548600,0.674548583984375,0.2085889744222164,-0.07873685210645198,0.1399506147429347
1772527312602546400,0.68454638671875,0.21739421216845511,-0.14768763873577118,0.14639277661964298
1772527312612543500,0.69454345703125,0.17482699007391928,-0.24366964015364645,0.21358312944769858
1772527312622541300,0.704541259765625,0.22661197623834012,-0.25848727005720135,0.28718261866569517
1772527312632539400,0.714539306640625,0.3959884458214044,-0.23834932191371916,0.3902802973076701
1772527312642537500,0.724537353515625,0.46837724407538767,-0.04725917930305004,0.22774434126913545
1772527312652535600,0.73453564453125,0.48429757452383637,0.0729237819135189,0.25376155670955775
1772527312662533600,0.74453369140625,0.531726119044423,0.1894014588713646,0.2164354501388967
1772527312672531700,0.75453173828125,0.4101730385184288,0.4711217204779386,0.050757688943296665
1772527312682529500,0.764529541015625,0.39652795952558517,0.45336160738170145,0.2045329770296812
1772527312692526600,0.774526611328125,0.19638298832178114,0.5240168598413467,0.06933934755548835
1772527312702523400,0.7845234375,0.08931976704970002,0.2944043866127729,0.09499635138139129
1772527312712521200,0.794521240234375,-0.09002207010015845,0.11556932994127272,0.0867604379557073
1772527312722519300,0.804519287109375,-0.27956673683449623,0.02092763721644878,0.017957681494951246
1772527312732517400,0.814517333984375,-0.363832727625966,0.03815291278362274,0.02166778805926442
1772527312742515200,0.82451513671875,-0.3595638181351125,-0.054069443839788435,0.07455854350849986
1772527312752513500,0.834513427734375,-0.42407633005604145,-0.25266134038269517,0.21445187510624528
1772527312762511400,0.844511474609375,-0.4633423186480999,-0.3608756313860416,0.3525903258606791
1772527312772509400,0.854509521484375,-0.4772729365840554,-0.3245622089892626,0.33699864284470676
1772527312782506500,0.864506591796875,-0.43742754066884515,-0.24136954651772974,0.24551044571474193
1772527312792504300,0.87450439453125,-0.3049795566409826,-0.14716507616639135,0.1634356813572347
1772527312802502400,0.88450244140625,-0.12920622562766074,-0.06269990954101086,0.06764408794492482
1772527312812500500,0.89450048828125,0.020537322724610566,-0.025878537622094154,-0.02288140163272619
1772527312822498300,0.904498291015625,0.16714812600910664,-0.06054243924617767,-0.09052300535961985
1772527312832496400,0.914496337890625,0.31701383943632244,-0.06149404088258743,-0.1069159217558801
1772527312842494500,0.924494384765625,0.41961978903859853,-0.008273907348513602,-0.12171703891605139
1772527312852492300,0.9344921875,0.4698433711051941,0.034487960535287854,-0.20038111804723738
1772527312862489300,0.9444892578125,0.49079614276289935,0.07810323037803173,-0.3009492782115936
1772527312872487400,0.9544873046875,0.5656583453930915,0.09957447295188904,-0.41833121053278444
1772527312882485500,0.964485595703125,0.6153101189211011,0.10376140324771403,-0.4845566638514399
1772527312892483600,0.974483642578125,0.5587883134931325,0.03277764948606491,-0.3760055421091616
1772527312902481400,0.9844814453125,0.41269349690675733,-0.075059040376544,-0.1817054975412786
1772527312912479500,0.9944794921875,0.2301217379249632,-0.09240940362811088,-0.013318477386981248
1772527312922477600,1.0044775390625,0.06827478706389666,-0.16203297495245933,0.12483838580697774
1772527312932475400,1.014475341796875,-0.09812047475129365,-0.22047756513655184,0.10430924638882279
1772527312942473500,1.024473388671875,-0.20117752912193534,-0.20865560991764068,0.07248553662672638
1772527312952470300,1.03447021484375,-0.2591562553599477,-0.1728968987941742,0.04551847311556339
1772527312962468400,1.04446826171875,-0.2484738255649805,-0.13912322400808333,0.05260507037565112
1772527312972466400,1.054466552734375,-0.17585341051220893,-0.06407178241610527,0.019607640659064052
1772527312982464300,1.06446435546875,-0.1420534322410822,-0.016437924581766128,-0.032043343862146134
1772527312992462300,1.07446240234375,-0.07005144134759902,-0.05937982520759105,-0.027987054208666085
1772527313002460400,1.08446044921875,0.022219430592656134,-0.07605623472034931,-0.03174859869927168
1772527313012458200,1.094458251953125,0.03438581533506512,-0.05074117619991302,-0.004568330828845501
1772527313022456300,1.104456298828125,0.021128420485556125,-0.0027986908078193665,0.06273614989817142
1772527313032453400,1.114453369140625,0.00252469617202878,-0.03963350673019886,0.04933014035820961
1772527313042451500,1.124451416015625,-0.05999050445184111,-0.09068272596597671,0.025089725331962107
1772527313052449500,1.134449462890625,-0.13186346213817596,-0.0517792870759964,0.03370557798594236
1772527313062447400,1.144447265625,-0.1697539245933294,-0.00927402430176735,0.062198389759659765
1772527313072445400,1.154445556640625,-0.18438509201407433,0.08392389935553074,0.1619181164011359
1772527313082443500,1.164443603515625,-0.1974804281696677,0.14639526083767412,0.20136106899529693
1772527313092441300,1.17444140625,-0.19466215587854385,0.1887999858468771,0.1692839689940214
1772527313102439400,1.184439453125,-0.12755714324638245,0.17052490896582603,0.1271861179769039
1772527313112436200,1.194436279296875,-0.00303425312936306,0.09179682468771934,0.12752820941284299
1772527313122434300,1.204434326171875,0.10944587862491607,0.03239712573587894,0.14774024570584296
1772527313132432400,1.214432373046875,0.24047844289690254,-0.018902853390574455,0.13628639314696192
1772527313142430200,1.22443017578125,0.32279929096996784,-0.08947335017621516,0.12477218870297073
1772527313152428300,1.23442822265625,0.31601912931054826,-0.07911620681285858,0.10523322936594486
1772527313162426400,1.24442626953125,0.26009850464612244,-0.05875672487318515,0.09176979055032133
1772527313172424200,1.254424072265625,0.19092881456911562,-0.09289864844977855,0.11545037973672151
1772527313182422300,1.26442236328125,0.1239497664041817,-0.13934768041372297,0.14551730895936488
1772527313192420600,1.274420654296875,0.0533779544442892,-0.19574644398391244,0.14560133398100733
1772527313202417400,1.28441748046875,-0.020449936702102423,-0.2102057619690895,0.15437310784906147
1772527313212415500,1.29441552734375,-0.09675064770281314,-0.21655133160352705,0.15098857997730372
1772527313222413300,1.304413330078125,-0.14683350612446666,-0.1803735182851553,0.13565788598507642
1772527313232411400,1.314411376953125,-0.16283128572329877,-0.08700491423606872,0.12173194422423839
1772527313242409500,1.324409423828125,-0.19143939443975685,0.10116846414506435,0.10529796516522764
1772527313252407300,1.3344072265625,-0.160538790871948,0.265187059956789,0.07431158301010728
1772527313262405400,1.3444052734375,-0.1301294779524207,0.37727205491364,-0.026807342904806134
1772527313272403500,1.354403564453125,-0.087746672514081,0.3957487918466329,-0.16713760461509228
1772527313282400300,1.364400146484375,0.0444222023114562,0.34645196923613547,-0.32552082488834855
1772527313292398300,1.3743984375,0.2219873851776123,0.23655834684371946,-0.38870004237890243
1772527313302396400,1.384396484375,0.34854221951365466,0.11675766294300556,-0.3373036171406507
1772527313312394500,1.39439453125,0.33088585905283685,0.029788404542207717,-0.2542009710401296
1772527313322392600,1.404392578125,0.2504074239760637,-0.009521277061104774,-0.17738821886405348
1772527313332390400,1.414390380859375,0.1451252409018576,-0.031031682601571083,-0.11576412186101079
1772527313342388500,1.424388427734375,0.06145107852369547,-0.027705753049254416,-0.04882584409788251
1772527313352386600,1.434386474609375,0.02592354580760002,-0.02444645899236202,-0.013175269524008035
1772527313362383400,1.44438330078125,0.02832841499224305,-0.02812076359093189,0.034253274996578695
1772527313372381400,1.45438134765625,0.03145151544883847,-0.011940613162517547,0.11798062886670231
1772527313382379300,1.464379150390625,0.03939560632109642,0.016854688689112662,0.1925523241177201
1772527313392377300,1.47437744140625,0.0838426508128643,0.02483165891766548,0.24624957364425062
1772527313402375400,1.48437548828125,0.13659429005235432,0.01106207676231861,0.25489757500216365
1772527313412373200,1.494373291015625,0.15380656000748275,-0.009176993668079376,0.2224545642979443
1772527313422371300,1.504371337890625,0.14078794234991074,-0.0317541516572237,0.16906360424160957
1772527313432369400,1.514369384765625,0.1280313366293907,-0.008567337337136268,0.13772431699559093
1772527313442366500,1.524366455078125,0.12392916200757026,-0.002232289096713066,0.1613442620359361
1772527313452364500,1.534364501953125,0.14821721556782722,0.005558803170919418,0.1937033938489854
1772527313462362400,1.5443623046875,0.11373641542568802,0.012846037569642066,0.24619243662953375
1772527313472360400,1.5543603515625,0.11606164350286126,0.06189268481135368,0.3003612491905689
1772527313482358500,1.564358642578125,0.02925707414448261,0.05198153164982795,0.3281190246880054
1772527313492356400,1.5743564453125,-0.10200345366448163,-0.005017535901069641,0.2846639138430357
1772527313502354400,1.5843544921875,-0.1912466483466327,-0.05556581987738609,0.24379195135906337
1772527313512352500,1.5943525390625,-0.2645287421785295,-0.041993806120753284,0.18965309554487467
1772527313522350300,1.604350341796875,-0.2705047478482127,-0.03587503097951412,0.11285261832848191
1772527313532347400,1.614347412109375,-0.22280045512616634,-0.025354806008934975,0.045722471255064005
1772527313542345200,1.62434521484375,-0.12474340099990368,0.0036760581642389296,0.014596242237836121
1772527313552343300,1.63434326171875,-0.02005056212097406,0.008463876962661742,0.011523995185643433
1772527313562341400,1.64434130859375,0.07521276963353156,-0.037408816418051716,-0.03026888153553009
1772527313572339200,1.654339111328125,0.11293035973981022,-0.07786532996892928,-0.07128156766444445
1772527313582337300,1.664337158203125,0.09103007809892297,-0.08884382010102272,-0.09892024682685732
1772527313592335400,1.67433544921875,0.06381780765503645,-0.055633039894700045,-0.09712532623410225
1772527313602333200,1.684333251953125,0.07150646246150136,-0.011314005696773528,-0.03108838122487068
1772527313612330500,1.69433056640625,0.09449760807901621,-0.0021545476853847504,0.031181174074858424
1772527313622328300,1.704328369140625,0.13172171557992696,-0.04097966064214706,0.04318491560146212
1772527313632326400,1.714326416015625,0.15877572672218082,-0.0695604429602623,0.014501695822179316
1772527313642324500,1.724324462890625,0.13434358851611614,-0.13150690378546714,0.007978723794221878
1772527313652322300,1.734322265625,0.04735241054445505,-0.13597732719779013,0.0082435122102499
1772527313662320400,1.7443203125,-0.04667962584942579,-0.053506549260020256,0.04727963756918907
1772527313672318500,1.754318359375,-0.13859057843610645,-0.00013619360029697419,0.09922142173051833
1772527313682316300,1.76431640625,-0.18182357096299528,-0.01634557012319565,0.1303568569675088
1772527313692313300,1.774313232421875,-0.1961301826044917,-0.027566052317619324,0.16230799250155686
1772527313702311700,1.784311767578125,-0.19192279404252766,-0.019040800556540487,0.14451602296233176
1772527313712309500,1.7943095703125,-0.14914280598014593,-0.03563011630773544,0.10948606450483202
1772527313722307600,1.8043076171875,-0.0713251145452261,-0.056359016081690784,0.12210910697355866
1772527313732305700,1.8143056640625,-0.021171236713975666,-0.016700374910235405,0.17258432571366428
1772527313742303500,1.824303466796875,0.017421821052581072,0.010437807384133338,0.26428499655053017
1772527313752301600,1.834301513671875,0.051044543060660356,0.028018472260236738,0.3307350524052977
1772527313762300000,1.8442998046875,0.06696954968422651,0.037193712362647055,0.3501166292235255
1772527313772296700,1.854296630859375,0.10109846764877438,0.0598047726213932,0.36687151079997415
1772527313782294800,1.864294677734375,0.11003639186397195,0.07191606617569923,0.41650501801893114
1772527313792292600,1.874292724609375,0.11429361091703176,0.060440732437372205,0.43233854696676133
1772527313802290700,1.884290771484375,0.077964698690176,0.03336743207275867,0.37387291399464007
1772527313812288800,1.894288818359375,0.03155804456323385,0.0009422492861747741,0.30367431926131244
1772527313822286600,1.90428662109375,-0.010345452925562859,0.003837386205792427,0.20503230485394597
1772527313832284700,1.91428466796875,-0.046822833712399,0.03690378950536251,0.09653042908087373
1772527313842282800,1.92428271484375,-0.03340630277842283,0.09911094709336757,0.023476737177371976
1772527313852280600,1.934280517578125,0.037893092803657054,0.10329787738919258,0.007311930448561907
1772527313862277600,1.944277587890625,0.14986439825296402,0.08891337820589541,-0.022632833699136972
1772527313872275700,1.954275634765625,0.25086130522340533,0.05967033258676529,-0.08638122937977313
1772527313882273800,1.964273681640625,0.24566870501637458,0.03448620696961879,-0.14333338904902337
1772527313892271900,1.97427197265625,0.2013661835618317,0.013268646895885467,-0.12390680404528975
1772527313902269700,1.984269775390625,0.1199754559457302,-0.0110842885941267,-0.03970043448656797
1772527313912267800,1.994267822265625,0.04950988083928823,-0.006310498321056366,0.12683715840876103
1772527313922265900,2.004265869140625,-0.0627319121144712,-0.012608137160539627,0.1484175604455173
1772527313932263700,2.014263671875,-0.13099106321781873,-0.025766893941164014,0.10406520849987864
1772527313942260700,2.0242607421875,-0.12108590140566229,-0.031059739652276038,0.12098799398913979
1772527313952258600,2.034258544921875,-0.05357727640867233,-0.05856091004014015,0.10025397964864968
1772527313962256600,2.044256591796875,0.018175123637914656,-0.08610358148217201,0.07166150689274073
1772527313972254700,2.054254638671875,0.0797597654134035,-0.08723813847005367,0.041659313469380135
1772527313982252500,2.06425244140625,0.11001374164074659,-0.07671499089002609,0.012135551212728022
1772527313992250600,2.074250732421875,0.1185557984061539,-0.003989946419000625,0.000573562104254961
1772527314002248700,2.084248779296875,0.11724515419900416,0.06837737065553665,-0.026688100439310074
1772527314012246500,2.09424658203125,0.11030921745598316,0.05125263285338878,-0.08366393324509262
1772527314022243800,2.104243896484375,0.14813509024232624,-0.015480477726459503,-0.1337115742228925
1772527314032241700,2.11424169921875,0.1841203035980463,-0.039080549022555346,-0.13123217849731444
1772527314042239700,2.12423974609375,0.14570289465934036,-0.03153027977347374,-0.10165464022681117
1772527314052237800,2.13423779296875,0.0828928027421236,-0.026225159102678298,-0.06886340060681104
1772527314062235600,2.144235595703125,-0.020881459987163543,-0.03269932355284691,-0.02537833301499486
1772527314072233700,2.154233642578125,-0.07254428107663989,-0.04222235417962074,0.03264408623427152
1772527314082231800,2.164231689453125,-0.054541591396182774,-0.02872983539998531,0.07540434668287635
1772527314092229600,2.174229736328125,-0.030756957313418386,-0.04088613713979721,0.04197290946319699
1772527314102226700,2.184226806640625,-0.0033159926801919937,-0.08269289625585079,-0.016876169868558645
1772527314112224500,2.194224609375,0.021173867062479257,-0.07244388944208621,-0.04912628834918141
1772527314122222600,2.20422265625,0.0612521949507296,-0.0552168603092432,-0.03067658555358648
1772527314132220700,2.214220703125,0.10227525634318589,-0.03159340813755989,0.010913023680448532
1772527314142218500,2.224218505859375,0.16227613605856894,-0.02301438036262989,0.02078691357150674
1772527314152216600,2.234216552734375,0.22835341307818888,-0.06448737747967243,0.027183482740819453
1772527314162214700,2.244214599609375,0.22254531132131813,-0.08256488596200942,-0.00956716202944517
1772527314172212500,2.25421240234375,0.09357157927528023,-0.09921966816484927,-0.03620411680340767
1772527314182209800,2.264209716796875,-0.022783932607620953,-0.14881225885152816,0.013508739262074231
1772527314192207600,2.27420751953125,-0.08701645854339003,-0.11673252850174903,0.12024974284246563
1772527314202205700,2.284205810546875,-0.1263940908163786,-0.0754769735276699,0.19467165435925124
1772527314212203800,2.294203857421875,-0.09448387181460857,-0.045641222712397574,0.20731077117994426
1772527314222201600,2.30420166015625,-0.060816580012440676,-0.05902092876732349,0.17330299537703395
1772527314232199700,2.31419970703125,-0.035705227370560165,-0.11300737049877643,0.13762889379709958
1772527314242197800,2.32419775390625,-0.01487929696291685,-0.13726561344265936,0.08626023334860801
1772527314252195600,2.334195556640625,0.02417991701066494,-0.1586088457226753,0.021158669493347406
1772527314262192600,2.344192626953125,0.04120791644006967,-0.13457739727199078,-0.005813070192933082
1772527314272190500,2.3541904296875,0.0029711247652769086,-0.04672667986154556,-0.036398616462200876
1772527314282188500,2.3641884765625,-0.01746872893422842,0.02165185983777046,-0.022287673523277044
1772527314292186600,2.3741865234375,0.03140548435002565,0.05412672698497772,-0.05000701670646667
1772527314302184700,2.384184814453125,0.06727613141536712,0.027152795341610907,-0.06829217659011483
1772527314312182800,2.394182861328125,0.031021307338029144,0.008425298517942428,-0.06686901191920042
1772527314322180900,2.404180908203125,0.054689037042856214,-0.01500350786447525,-0.02417743279263377
1772527314332178700,2.4141787109375,0.10930383980572222,-0.02645020003020763,0.06447597930282353
1772527314342176800,2.4241767578125,0.13898089292794466,-0.0037830256700515743,0.12868234788402913
1772527314352173600,2.434173583984375,0.1566205945149064,0.02146364378929138,0.13147270925492047
1772527314362171600,2.444171630859375,0.20399054071605205,0.008137129226326941,0.08431786710917949
1772527314372169700,2.454169677734375,0.243661164586246,-0.007510521760582923,0.009294336437433957
1772527314382167600,2.46416748046875,0.2853811222016811,0.006250877088308334,-0.0002989829465746879
1772527314392165600,2.47416552734375,0.2748470148362219,0.042351533517241476,-0.00928746830523014
1772527314402163700,2.484163818359375,0.25194778528586026,0.09281097016632556,-0.011690730054676532
1772527314412161500,2.49416162109375,0.1836708062648773,0.12250000598728657,0.030166297943890093
1772527314422159600,2.50415966796875,0.190037564817816,0.09952537311315536,0.12811594617292285
1772527314432156700,2.51415673828125,0.1858168783828616,0.057577744221687314,0.19932722508013248
1772527314442154800,2.52415478515625,0.11291750025823712,-0.007284311789274215,0.24190613761246202
1772527314452152800,2.53415283203125,0.019567016387730837,-0.09078852442800998,0.2425121406815946
1772527314462150700,2.544150634765625,-0.08399959494024514,-0.1819675094783306,0.24046835989430546
1772527314472148700,2.554148681640625,-0.16391981161236763,-0.17681085736751556,0.30310923272445794
1772527314482146800,2.564146728515625,-0.23340543577075004,-0.045459436404705046,0.3873889597803354
1772527314492144600,2.57414453125,-0.3034714901655912,0.022514029625058173,0.4461993145368993
1772527314502142700,2.584142822265625,-0.32004794643521306,0.08086334274113177,0.4059560053452849
1772527314512139500,2.594139404296875,-0.2546145202770829,0.06908814927339553,0.34501682186648247
1772527314522137600,2.6041376953125,-0.15786767196655271,0.05146656786501407,0.2731077699534595
1772527314532135700,2.6141357421875,-0.04359729579463601,0.02298690783381462,0.17257950340807438
1772527314542133500,2.624133544921875,0.0321112945318222,0.018533435556292534,0.1135128358028829
1772527314552131600,2.634131591796875,0.06979249815046787,0.0612339286416769,0.10574980058595537
1772527314562129700,2.644129638671875,0.08666092310398817,0.1436345639526844,0.08794219508618116
1772527314572127500,2.65412744140625,0.0886202404782176,0.19204758946597575,0.06725479636639356
1772527314582125600,2.66412548828125,0.12923983563631772,0.22729484393596647,0.016028613128513097
1772527314592122600,2.67412255859375,0.22302754188030957,0.20780571509003637,-0.01522548005208373
1772527314602120700,2.68412060546875,0.30909751335382457,0.17020809810161588,-0.004731996957957744
1772527314612118800,2.694118896484375,0.3309831819474697,0.12844693169295787,0.0333379137173295
1772527314622116600,2.70411669921875,0.3270541719354689,0.06997486898005008,0.031009616900235414
1772527314632114700,2.71411474609375,0.27201865954250093,0.008631050223112106,0.00656476534307003
1772527314642112800,2.72411279296875,0.2392582534521818,-0.021499884146451948,-0.025389585061371324
1772527314652110600,2.734110595703125,0.2471533906161785,-0.05356733953654766,-0.06577332563698292
1772527314662108700,2.744108642578125,0.23461714964807032,-0.0966045172303915,-0.10685922313258052
1772527314672105500,2.75410546875,0.14846183797866105,-0.09806640647649764,-0.13451499956026672
1772527314682103600,2.764103515625,0.06047901862114668,-0.07233575289249419,-0.16726649169176816
1772527314692101600,2.7741015625,-0.017930062835663556,-0.02967792990505695,-0.18364932508543133
1772527314702099500,2.784099365234375,-0.058171033939719195,-0.003852583774924278,-0.155058459764719
1772527314712097500,2.79409765625,-0.03765416948124766,-0.011782792252302169,-0.17492548201233146
1772527314722095600,2.804095703125,0.004308072457462549,-0.023940263035893437,-0.17287644052803516
1772527314732093700,2.81409375,0.005675999809801578,-0.05308335541188717,-0.17075784093886612
1772527314742091800,2.824091796875,0.011527356186509132,-0.12551613893806934,-0.11811273081377148
1772527314752088600,2.834088623046875,-0.07935790661424398,-0.11838263379633426,-0.12747940183505416
1772527314762086700,2.844086669921875,-0.18455811049342155,-0.11785130339860915,-0.09174202576056122
1772527314772084700,2.854084716796875,-0.22699016190096735,-0.10837152739167213,-0.019271394442021847
1772527314782082600,2.86408251953125,-0.20013298850506542,-0.12151684016883373,0.0673535805657506
1772527314792080600,2.87408056640625,-0.1296358492165804,-0.10445055455565452,0.10550517817512153
1772527314802078700,2.88407861328125,-0.05343582211136818,-0.09722118782401085,0.12178294375911354
1772527314812076500,2.89407666015625,-0.02453939797282219,-0.13523732248544693,0.09671440734565258
1772527314822074600,2.90407470703125,-0.022768296647071837,-0.13775193565487862,0.07433584066852927
1772527314832071400,2.914071533203125,-0.020486615450680253,-0.09888882877528667,0.061899114552140234
1772527314842069500,2.924069580078125,-0.00006108253747224807,-0.029738720181584355,0.08560089265704154
1772527314852067600,2.934067626953125,0.05743395183682441,0.05029927765130996,0.1415149414502084
1772527314862065700,2.944065673828125,0.13285364221930504,0.08167465912401675,0.2264139694482088
1772527314872063700,2.954063720703125,0.15861176833212376,0.05248714308440685,0.2565291217267513
1772527314882061800,2.964061767578125,0.14393296237736938,0.033413609302043915,0.2619555306896567
1772527314892059600,2.9740595703125,0.054224049879610534,0.022411153772473335,0.13123305528014897
1772527314902057700,2.9840576171875,0.044812370672822,0.025877953100204465,0.16510829074457287
1772527314912054500,2.994054443359375,0.049725861677527426,0.013396072667837142,0.1852228580124676
1772527314922052600,3.004052490234375,0.06242986042797565,0.047834933364391326,0.14703852717727423
1772527314932050700,3.01405078125,0.10248422291874885,0.11793781263828276,0.11998057051226496
1772527314942048500,3.024048583984375,0.16912673260569572,0.13321429222524164,0.08160685458481311
1772527314952046600,3.034046630859375,0.21003800418674945,0.12170213360786437,0.023125147260725495
1772527314962044700,3.044044677734375,0.2077881794333458,0.12105272978842258,-0.033656185886263845
1772527314972042500,3.05404248046875,0.190152277238667,0.10374445211291312,-0.05895034774914384
1772527314982040600,3.06404052734375,0.1591381302937865,0.06497896038889885,-0.04702975446134806
1772527314992037600,3.07403759765625,0.12997604095637796,0.024683774879574773,-0.007484364406019448
1772527315002035700,3.08403564453125,0.05770706968978047,0.002233458140492439,0.04029328581318259
1772527315012033800,3.09403369140625,-0.019397358909249304,-0.03419102341532707,0.05849558971896767
1772527315022031600,3.104031494140625,-0.08942278903275727,-0.07912789725065231,0.05723989056944847
1772527315032029700,3.11402978515625,-0.0829299198821187,-0.11307166790664196,0.0706648970708251
1772527315042027800,3.12402783203125,-0.055934360928833485,-0.12283961320519447,0.08534662563502789
1772527315052025600,3.134025634765625,-0.030448622016608713,-0.09621113399863243,0.06127747552245855
1772527315062023700,3.144023681640625,-0.024527415274083614,-0.05858370639383793,0.0395879140228033
1772527315072021800,3.154021728515625,-0.04032134286388755,-0.0031482348978519436,-0.009025164107233285
1772527315082018600,3.1640185546875,-0.031634032408893106,0.03231470814943314,-0.04997223765403032
1772527315092016600,3.1740166015625,0.022698738542199132,-0.0029892449438571928,-0.03064356006681919
1772527315102014500,3.184014404296875,0.05293722493946552,-0.034221418553590774,0.06387304497361183
1772527315112012500,3.194012451171875,0.05854512794911861,-0.058874213773012156,0.13347089733481407
1772527315122010600,3.2040107421875,0.00629851562231779,-0.06535480796396732,0.09923121247217058
1772527315132008400,3.214008544921875,-0.04163549420237541,-0.059657473105192184,0.0350458866789937
1772527315142006500,3.224006591796875,-0.041847529517859215,-0.036628479695320126,-0.0002972293809056282
1772527315152003600,3.234003662109375,-0.011734276935458183,-0.06136953772008419,-0.00709565734937787
1772527315162001700,3.244001708984375,0.042620121325552464,-0.10406243202090262,0.00520209868773818
1772527315171999700,3.253999755859375,0.06225625742673874,-0.1161193650394678,0.0012369944490492344
1772527315181997600,3.26399755859375,0.08045110867843032,-0.1261801558047533,-0.033681320327520366
1772527315191995600,3.27399560546875,0.0922002909220755,-0.11067629720270633,-0.08478168522864579
1772527315201993700,3.28399365234375,0.09000833383575081,-0.082679452252388,-0.08045140093937515
1772527315211991600,3.293991455078125,0.0856390327103436,-0.07801029139757155,-0.006527355942130089
1772527315221989600,3.30398974609375,0.07438815537765622,-0.08552081315815448,0.09646627780348062
1772527315231986400,3.313986328125,0.04365428667888045,-0.12594985418021679,0.09894085122346878
1772527315241984500,3.323984619140625,-0.003486380811035633,-0.15596271512806414,-0.0002928454667329788
1772527315251982600,3.333982666015625,-0.047583004429936404,-0.13110124559402464,-0.1058329488247633
1772527315261980400,3.34398046875,-0.045028643772006036,-0.05957154838740825,-0.13520108212828635
1772527315271978500,3.353978515625,-0.016516542775928972,0.028622867894172666,-0.11047507554218172
1772527315281976600,3.3639765625,0.03137508921176195,0.04277063571214676,-0.06750029556006193
1772527315291974700,3.373974609375,0.09333952408507466,0.029722353568673133,-0.05411708237379789
1772527315301972700,3.38397265625,0.12429463431909679,0.0011205284625291825,-0.05506079296469688
1772527315311969500,3.393969482421875,0.11107201852202415,-0.02322247015535831,-0.05769815573096275
1772527315321967600,3.403967529296875,0.08418985681533812,-0.021364859589934348,-0.03658610185831785
1772527315331965700,3.413965576171875,0.07907032184451818,-0.01801145750880241,0.045888183210790155
1772527315341963500,3.423963623046875,0.044751580396294594,-0.033553894555568696,0.14505276018753646
1772527315351961600,3.433961669921875,0.050075698028504846,-0.025987843215465545,0.2446386313162744
1772527315361959700,3.443959716796875,0.027312662078440186,-0.04547288040816783,0.24948431778177618
1772527315371957500,3.45395751953125,0.041318391077220434,-0.04049100034236908,0.24666078479364512
1772527315381955600,3.46395556640625,0.07155161677747965,-0.022232874596118925,0.24497940757796166
1772527315391952600,3.47395263671875,0.08797522057294845,0.02443301498889923,0.24782895179018377
1772527315401950700,3.48395068359375,0.10690583875328302,0.03976560867726803,0.23096228040233252
1772527315411948800,3.49394873046875,0.1464092893630266,0.07011281614601611,0.1742066662184894
1772527315421946600,3.503946533203125,0.13381868785917758,0.06087795481085777,0.0877041485466063
1772527315431944700,3.51394482421875,0.1181695755675435,0.08881517852842807,0.029707009869068858
1772527315441942800,3.52394287109375,0.1835965719848871,0.12486731964051723,0.05576265762373805
1772527315451940600,3.533940673828125,0.22637904426530003,0.11959493219554423,0.107120358286798
1772527315461938700,3.543938720703125,0.23243834430426358,0.10914660341739654,0.11136033394411206
1772527315471935500,3.553935546875,0.1814990151837468,0.06511223137974739,0.12549684971570968
1772527315481933600,3.56393359375,0.12198971837759018,0.046831309279799456,0.1370902568757534
1772527315491931600,3.573931640625,0.08851181166768074,0.0083960724234581,0.1349535371080041
1772527315501929500,3.583929443359375,0.052556701189279555,-0.0348562093257904,0.12720423815548418
1772527315511927600,3.593927490234375,0.01811491788327694,-0.022412907338142395,0.1252403907366097
1772527315521925600,3.603925537109375,-0.024178601836413145,-0.008836217406392097,0.12212620423883198
1772527315531923500,3.61392333984375,-0.05402151304483414,-0.023283844953775404,0.08928542638868094
1772527315541921500,3.623921630859375,-0.08628770587742328,-0.06982932302951812,0.03353635889887809
1772527315551918600,3.633918701171875,-0.0851063871383667,-0.08993395342528819,0.015667670861631632
1772527315561916700,3.643916748046875,-0.06631108577549458,-0.0920733035415411,0.034320056622475385
1772527315571914800,3.653914794921875,-0.07943710933029652,-0.06784428669214249,0.055874155174195764
1772527315581912600,3.66391259765625,-0.06982932302951812,-0.025779168900847433,0.08251125607863068
1772527315591910700,3.67391064453125,-0.0036398178070783612,0.026617373290657994,0.1098309324197471
1772527315601908700,3.68390869140625,0.07303133394122123,0.05384498743414878,0.12461232196614146
1772527315611906600,3.693906494140625,0.1435211667060852,0.043994624549150464,0.11136837112009525
1772527315621904600,3.703904541015625,0.18007891925275324,0.05291793571710586,0.0940675460986793
1772527315631901400,3.7139013671875,0.20236103981807826,0.06619476591944694,0.0781773185275495
1772527315641899500,3.7238994140625,0.18931334219649432,0.07863631434142589,0.052069794455170626
1772527315651897600,3.733897705078125,0.19031112106218934,0.06528524985909462,0.025636253298819064
1772527315661895400,3.7438955078125,0.2006687028169632,0.0743225427955389,0.041572073577344416
1772527315671893500,3.7538935546875,0.21563392449766397,0.06032032092809677,0.06478402233868837
1772527315681891600,3.7638916015625,0.20528876383304595,0.006813771668076515,0.07309504682719707
1772527315691889400,3.773889404296875,0.16872341250181197,-0.03420680550634861,0.06067278762757778
1772527315701888000,3.783887939453125,0.10292641372829675,-0.06543021128773689,0.02636924374848604
1772527315711885000,3.793885009765625,0.013953122028708458,-0.054795420026779174,-0.0018282383404672146
1772527315721883100,3.803883056640625,-0.06281184548288583,-0.01301321083009243,-0.0009271978475153445
1772527315731881000,3.813880859375,-0.07234685880839824,-0.021644261053204536,-0.0008294365614652633
1772527315741879000,3.823879150390625,-0.06228782160878181,-0.04189619096517563,0.017896014435589313
1772527315751877000,3.833877197265625,-0.08202917165011167,-0.05453939943909645,0.054693713217973706
1772527315761875000,3.843875,-0.081889617048949,-0.049802434045076366,0.11790800202190875
1772527315771873000,3.853873046875,-0.040594752977788445,0.008331775015592575,0.17572189308702946
1772527315781871000,3.86387109375,-0.024389029716700313,0.029302666851878163,0.18634587069302797
1772527315791868000,3.873867919921875,-0.017623773365467787,-0.019743395867943762,0.15301789384782313
1772527315801866000,3.883865966796875,0.003291442760825157,-0.047268531653285026,0.13171762392669914
1772527315811863800,3.89386376953125,-0.010653495961427688,-0.06358195307254791,0.16464724910408257
1772527315821862000,3.90386181640625,-0.01969414989873767,-0.06630173342525959,0.18109233407899736
1772527315831860000,3.91385986328125,-0.019223171386122704,-0.059222004297375674,0.18735154060423373
1772527315841857800,3.92385791015625,0.0008066402077674866,-0.08164601755142212,0.15786577227041124
1772527315851856000,3.93385595703125,-0.013364508485794067,-0.10423428145647048,0.10275178781375288
1772527315861853000,3.94385302734375,-0.00997545056939125,-0.08617723124027252,0.07661576829925179
1772527315871851000,3.95385107421875,-0.009014204321801661,-0.02511749012172222,0.06649842504113912
1772527315881849000,3.96384912109375,-0.0037549686193466183,0.012757774764299392,0.08229030680432915
1772527315891847000,3.973846923828125,0.05434855304211378,0.028449849414825437,0.11099281580597162
1772527315901845000,3.983844970703125,0.09784209620133041,0.03191664874255657,0.11857932541221379
1772527315911843000,3.993843017578125,0.13288812901079655,0.03698737613558769,0.08892506864368915
1772527315921841000,4.0038408203125,0.14344985503554344,0.02056172651350498,0.07073474743664264
1772527315931839000,4.0138388671875,0.13397943137884138,0.013746785801649094,0.0778971864119172
1772527315941835800,4.023835693359375,0.12536767037808894,0.020720131945610044,0.10399930365681648
1772527315951833900,4.033833740234375,0.07137962121143937,0.0607984598338604,0.13434431916847825
1772527315961832000,4.04383203125,0.02739361836016178,0.09207622615098952,0.17290084431692956
1772527315971830000,4.053830078125,0.025241408762335774,0.07259878774285317,0.2205054760567844
1772527315981828000,4.063828125,0.044116351232677695,0.054702481046319,0.2687440217860043
1772527315991826200,4.073826171875,0.07715294391587377,0.016691607081890106,0.26958894817754625
1772527316001824000,4.083823974609375,0.08833513992652296,-0.015805471897125244,0.25431977511420845
1772527316011822000,4.093822021484375,0.06070581311434507,0.006672317370772361,0.23128113709315656
1772527316021819100,4.103819091796875,0.05560089119076728,0.02668167069852352,0.17771613564416766
1772527316031817000,4.11381689453125,0.07015782433152198,0.021104747349023817,0.12797843739837408
1772527316041815000,4.12381494140625,0.08447627254128455,0.05154547832012176,0.14812033106461167
1772527316051812900,4.133812744140625,0.08809943147450686,0.023923896422982215,0.1591980437874794
1772527316061811000,4.14381103515625,0.041378012309968466,-0.029425416448712348,0.09402531439214944
1772527316071809000,4.15380908203125,0.03241597656682133,-0.01314823538661003,0.14828823497742413
1772527316081806800,4.163806884765625,0.06292787307798862,0.028268647629022595,0.1850876873254776
1772527316091805000,4.173804931640625,0.06768821934759617,0.046480596145987506,0.15122896460443735
1772527316101802000,4.183802001953125,0.06351297948956489,0.03893675663769245,0.10902633803859352
1772527316111800000,4.193800048828125,0.06771832222491503,0.018491934502124784,0.11081541341245174
1772527316121798100,4.203798095703125,0.0786404059946537,-0.012758943808078765,0.11532733787894248
1772527316131796000,4.2137958984375,0.08295943823754787,-0.028383213919401167,0.09560323123335837
1772527316141794000,4.2237939453125,0.06521569175422191,-0.03561608778238296,0.041231151185184715
1772527316151792000,4.233792236328125,0.03592296177446842,-0.028433482801914215,-0.023143851961195467
1772527316161790000,4.2437900390625,0.05292670354545116,-0.015945172628760336,-0.04098389842584729
1772527316171788000,4.2537880859375,0.0730946084357798,-0.028438158977031707,-0.009835019185394048
1772527316181785000,4.26378515625,0.06978548388779163,-0.052366147053241725,-0.009822305834293365
1772527316191783000,4.273782958984375,0.011962824994325638,-0.07042085918188094,-0.039980566602200264
1772527316201781000,4.283781005859375,-0.04944382986575365,-0.09216390443444251,-0.05569719117209315
1772527316211778800,4.29377880859375,-0.10123319994434714,-0.09430500811636447,-0.03382730466946959
1772527316221777000,4.30377685546875,-0.12233254046589136,-0.08852993184626103,0.03485533254295587
1772527316231775000,4.31377490234375,-0.1061057744167745,-0.06035013154447078,0.11912395368292927
1772527316241772800,4.323772705078125,-0.10244462156072258,-0.06335048240423202,0.15329086557030677
1772527316251771000,4.33377099609375,-0.0829136993996799,-0.04336158734261989,0.13452245221436024
1772527316261768200,4.343768310546875,-0.028026363305747506,-0.024599603727459906,0.08613178466334938
1772527316271766000,4.35376611328125,0.022623335218429564,0.0021335048973560333,0.06035436932817101
1772527316281764000,4.36376416015625,0.08548223471343516,0.01677285562455654,0.07248889762759209
1772527316291762200,4.37376220703125,0.1161018293827772,0.06461538777351379,0.0573474425971508
1772527316301760000,4.383760009765625,0.1733276914268732,0.06450082148313523,0.05474471275284886
1772527316311758000,4.393758056640625,0.20197218663096428,0.05538111096024513,0.07718509261980652
1772527316321756000,4.403755859375,0.2090542538464069,0.041514498171210286,0.11077800401151179
1772527316331753000,4.4137529296875,0.1895832451790571,0.04093699054419994,0.0977164239950478
1772527316341751000,4.4237509765625,0.14259820664227008,0.036921325162053105,0.04717880754321813
1772527316351748900,4.433748779296875,0.1408627611517906,0.008913958817720412,0.017533756994456053
1772527316361747000,4.443746826171875,0.13890256699472664,-0.0016308160722255706,-0.008703969328850506
1772527316371745000,4.4537451171875,0.1597172453559935,-0.035468203744292257,-0.025577070457488298
1772527316381742800,4.463742919921875,0.135844202337414,-0.06298457170128823,-0.010578969420492648
1772527316391741000,4.473740966796875,0.08830138378739356,-0.029167057773470877,-0.007589432215690612
1772527316401739000,4.483739013671875,0.06112374626547098,-0.03385667689442634,-0.016064853485673665
1772527316411736000,4.493736083984375,0.028934125800430772,-0.03408288686573505,-0.039998248389363285
1772527316421734100,4.503734130859375,-0.04814151509553194,-0.06663315733671188,-0.06725947254151106
1772527316431732000,4.51373193359375,-0.08028875772356986,-0.10979951436817645,-0.045606005268543956
1772527316441730000,4.52372998046875,-0.11342281943187117,-0.09591361235678196,-0.012043196754157543
1772527316451728100,4.53372802734375,-0.13570377095341682,-0.06909808614552021,0.011843436398357152
1772527316461726000,4.543725830078125,-0.11915157234221696,-0.07313245622813701,0.06483385282978416
1772527316471724000,4.55372412109375,-0.09501447155997157,-0.07694412347078323,0.08485825759619474
1772527316481721900,4.563721923828125,-0.07302753454893827,-0.04690963521301746,0.08864084487482905
1772527316491719000,4.573718994140625,-0.05112959099560976,-0.01820142712295055,0.043878158562630415
1772527316501717000,4.583717041015625,-0.032654899889230725,-0.008879472026228904,-0.021472119356691837
1772527316511714800,4.59371484375,-0.0017025661341845987,0.013516484177112579,-0.04585428094118833
1772527316521713000,4.603712890625,0.04134571747556329,0.005596797093749046,-0.014288491462916135
1772527316531711000,4.6137109375,0.0625847587287426,-0.013650924211740493,0.0498323907919228
1772527316541709000,4.623708984375,0.05523731857538223,-0.03806815710961819,0.05450403586477041
1772527316551707100,4.63370703125,0.047452363787591455,-0.017641455152630804,0.022894114983826874
1772527316561704000,4.643703857421875,0.08313011862933635,-0.004545826736092567,0.013598463372141122
1772527316571702000,4.653701904296875,0.16149112316071987,0.008372107025980948,0.004760200139135122
1772527316581700000,4.6637001953125,0.20243629701137542,0.007757189998030662,-0.014159896647185087
1772527316591698000,4.673697998046875,0.17789631451666355,-0.010337269619107246,-0.03293240165635943
1772527316601696000,4.683696044921875,0.11106398134604095,-0.04325111270546913,-0.05176628146395087
1772527316611694000,4.693694091796875,0.04433072463572025,-0.047431028738617896,-0.0888343216203153
1772527316621692000,4.70369189453125,0.02316255666166544,-0.07361059513390064,-0.10314078713133931
1772527316631690000,4.71368994140625,0.03394157869890332,-0.08242284714281559,-0.06801935099810362
1772527316641687000,4.72368701171875,0.05280234651342034,-0.06474632067680358,0.01656608100607991
1772527316651685000,4.73368505859375,0.04748495088294148,-0.03473696686029434,0.062464931741356845
1772527316661683200,4.74368310546875,0.020562311035394666,-0.02339782672226429,0.06518573500737547
1772527316671681000,4.753680908203125,-0.012100187638401984,-0.006648936495184898,0.012229951497912407
1772527316681679000,4.76367919921875,-0.029818215158581733,0.01841536213457584,-0.0016369535520672797
1772527316691677200,4.77367724609375,-0.0007613397613167762,0.021637831312417984,0.022346564103662966
1772527316701675000,4.783675048828125,0.009677928927540779,0.009836334359645843,0.07745791821181773
1772527316711672800,4.7936728515625,0.02458323711454868,0.017872925820946694,0.11829641681760548
1772527316721670000,4.803669921875,0.004992109198868274,0.021344985845685005,0.10008052277788519
1772527316731667700,4.813667724609375,-0.020532792679965495,0.018044190734624863,0.06039630877375602
1772527316741665800,4.823665771484375,-0.023390520198643208,0.038384967973828316,0.07163914893046021
1772527316751663900,4.833663818359375,-0.0254049287609756,0.03566460309922695,0.10769158230349421
1772527316761661700,4.84366162109375,-0.02431611061096191,0.006266659179329872,0.13633169359341263
1772527316771659800,4.85365966796875,0.005026303729414939,-0.027193711873888967,0.15774316880404948
1772527316781657900,4.863657958984375,0.034522739587724206,-0.013043021446466446,0.13585107046961784
1772527316791655000,4.873655029296875,0.138734955342859,0.04584405180811882,0.17581892372071742
1772527316801653000,4.883653076171875,0.19072379351630805,-0.0036252047598361965,0.07617956883907318
1772527316811650800,4.89365087890625,0.18926555753201246,-0.04035714482963085,-0.07739303628206252
1772527316821649000,4.90364892578125,0.16764029344022274,-0.0443155270665884,-0.00329436537027359
1772527316831647000,4.91364697265625,0.08310147705674172,-0.04023088810145855,0.01213715864792466
1772527316841644800,4.923644775390625,0.02501899818331003,-0.04260813862681389,0.003217500741779804
1772527316851643000,4.933642822265625,0.0019657471150159836,-0.015396306574344635,-0.03280716784149408
1772527316861641000,4.943640869140625,0.018165479026734828,0.0055050271570682525,-0.06862944572046399
1772527316871637800,4.9536376953125,0.04857815294712781,-0.015039748221635818,-0.05944689909443259
1772527316881635800,4.9636357421875,0.04801496610641479,-0.03861234698891639,-0.023849516012519598
1772527316891634000,4.973634033203125,0.025932898157835005,-0.037356209447979925,0.009669891751557589
1772527316901631700,4.9836318359375,-0.014544950442016124,-0.04692132565081119,0.023362755408883093
1772527316911629800,4.9936298828125,-0.0460647088214755,-0.03857786019742489,0.05269771709516644
1772527316921627600,5.003627685546875,-0.04652838081046939,-0.004352349990606308,0.08503273738026619
1772527316931625700,5.013625732421875,0.005092500833421945,0.009440613040328026,0.09584610007852315
1772527316941623800,5.023623779296875,0.05907587382495403,-0.003866612300276756,0.08519450381323694
1772527316951620900,5.033620849609375,0.0932736192420125,-0.04159633123576641,0.06961012732088566
1772527316961619000,5.043618896484375,0.09766907772198319,-0.04922492641806602,0.09334040086790919
1772527316971617000,5.053616943359375,0.10076002947464585,-0.03332359293103218,0.09729337627738714
1772527316981614800,5.06361474609375,0.0585511192984879,-0.02793780823945999,0.08464403032362461
1772527316991613000,5.073613037109375,0.030825930896401402,-0.004299743020534515,0.06662073624655604
1772527317001610800,5.08361083984375,0.012063947281241416,0.00822305394411087,0.06135945471748709
1772527317011608800,5.09360888671875,0.025485300520807504,0.022606384083628653,0.07149959432929753
1772527317021606000,5.10360595703125,0.04732523027658462,0.03605214111208915,0.08329597671553492
1772527317031603700,5.113603759765625,0.033794425313174725,-0.0009819967746734618,0.07017974390238522
1772527317041601800,5.123601806640625,0.033578152213990686,0.015926467928290368,0.07999883486628533
1772527317051600000,5.133599853515625,0.07068097142279148,0.0218985280752182,0.11380100509449839
1772527317061598000,5.143597900390625,0.08908362020626663,-0.0027817396730184553,0.12856558963656425
1772527317071596000,5.153595947265625,0.07211188100874423,0.0005570493608713149,0.11423208998814224
1772527317081594000,5.163593994140625,0.04312967828288674,-0.0002063362270593643,0.13098171086758376
1772527317091592000,5.173592041015625,0.029814854157716033,0.007676525977253913,0.1410259888894856
1772527317101589000,5.183589111328125,0.033652678754925724,-0.0008218377768993377,0.11123232365027069
1772527317111586800,5.1935869140625,0.04244169601872563,0.013684826481342316,0.0722094961643219
1772527317121585000,5.2035849609375,0.07068097142279148,-0.010619593691825866,0.02396715104281902
1772527317131583000,5.2135830078125,0.10271452454328536,-0.041111178067326545,0.04794657704532146
1772527317141580800,5.223580810546875,0.0892494782924652,-0.0513520015746355,0.06608794454410671
1772527317151579000,5.233578857421875,0.03787409584224224,-0.044324879416823386,0.07884805739596486
1772527317161577000,5.243576904296875,-0.00524111552387476,-0.05337561635673046,0.04360182583928108
1772527317171574800,5.25357470703125,-0.04616027815043926,-0.06835048264861106,0.014648995338380336
1772527317181571800,5.26357177734375,-0.06530790008231997,-0.07213350831866264,-0.001711918484419584
1772527317191570000,5.27356982421875,-0.06596271072924137,-0.06240764859616756,0.0041002749256789685
1772527317201568000,5.283568115234375,-0.0404540293328464,-0.0360457113713026,0.026898966711014508
1772527317211566000,5.293566162109375,0.013118424770236014,0.007691139024496078,0.04280366119891405
1772527317221564000,5.30356396484375,0.07842135641649364,0.0073643912881612775,0.04039104709923267
1772527317231562000,5.31356201171875,0.13649243711307643,0.04281505937576294,0.016924100663512943
1772527317241560000,5.32356005859375,0.15898381651490925,0.050073067680001256,-0.021701982589811087
1772527317251555800,5.333555908203125,0.1744523115426302,0.01058627594411373,-0.04091653227806091
1772527317261553700,5.3435537109375,0.12943652725219726,-0.023598317730426786,-0.06576324263438582
1772527317271551700,5.3535517578125,0.08863163865506649,-0.0002794014632701874,-0.0442784099265933
1772527317281549800,5.3635498046875,0.10429477947205304,0.002478372812271118,-0.04377864371091127
1772527317291547000,5.373546875,0.10706000640168785,-0.025250176590681076,-0.04124138031825423
1772527317301545000,5.383544921875,0.09340484440624713,-0.006750643303990364,-0.01804652882218361
1772527317311543000,5.39354296875,0.07492430808097124,-0.009382745373249053,-0.01823854426294565
1772527317321540900,5.403540771484375,0.060483548665791746,-0.025154315000772476,-0.01405380592420697
1772527317331539000,5.4135390625,0.04065349742770195,-0.04634849419891834,0.011865794360637665
1772527317341536800,5.423536865234375,0.01708265222609043,-0.06403788014650344,0.029967706631869075
1772527317351534800,5.433534912109375,-0.010974398478865622,-0.03834171335399151,0.03555383620113134
1772527317361533000,5.443532958984375,-0.023214579109847543,-0.02373158872127533,0.05282952678129077
1772527317371529700,5.45352978515625,-0.023420623075962065,-0.048965398699045176,0.05943301669955253
1772527317381527800,5.46352783203125,-0.024501988571882245,-0.06958791548907757,0.10250731153339147
1772527317391526000,5.47352587890625,-0.043075171616673465,-0.11222235760092734,0.13911737878918648
1772527317401523700,5.483523681640625,-0.10491992563307284,-0.1519564020961523,0.12783829827532173
1772527317411521800,5.493521728515625,-0.14222469715476035,-0.09801847568154334,0.08686798998340964
1772527317421520000,5.503519775390625,-0.12797756061553955,-0.05734042833447456,0.07582198757305741
1772527317431518000,5.51351806640625,-0.10335326083824038,-0.03461187917590141,0.07247676879838108
1772527317441515000,5.523514892578125,-0.04055559001117944,-0.006042202773690223,0.07716448822319508
1772527317451512800,5.533512939453125,0.04759191838875413,0.0030500352203845977,0.05259264928549528
1772527317461511000,5.543510986328125,0.1273521221935749,0.018677812463045118,0.05122486806362867
1772527317471509000,5.553509033203125,0.19893881028443575,0.04271919778585434,0.05099310513436794
1772527317481506800,5.5635068359375,0.24190906022191047,0.05821370403766632,0.04278247228041291
1772527317491505000,5.5735048828125,0.23810090011060236,0.04208616057932377,0.030690175687521696
1772527317501502700,5.583502685546875,0.18982377593666314,0.013354571613669394,0.052846331785619254
1772527317511500800,5.593500732421875,0.1058566219612956,-0.0007645546317100524,0.07057429617792367
1772527317521497900,5.603497802734375,0.046886254337429996,-0.0016378303349018097,0.05219195953011512
1772527317531496000,5.613495849609375,-0.009278408215939999,0.0028799393504858016,0.03077142423018813
1772527317541494000,5.623493896484375,-0.011181319227814674,0.001204115092754364,0.03223258282393217
1772527317551492000,5.6334921875,0.01646919650286436,0.027960604593157766,-0.0013297872990369797
1772527317561490000,5.643489990234375,0.04748714284002781,0.046648938450217246,-0.007968933052569627
1772527317571488000,5.653488037109375,0.05875409452468156,-0.03358604325950146,0.01492459740936756
1772527317581486000,5.663486083984375,-0.013053542840480804,-0.008671966755390167,0.037445202905684705
1772527317591483000,5.67348291015625,-0.0477010778516531,0.02917173394858837,0.18476693093851207
1772527317601481000,5.68348095703125,-0.11197656614631414,-0.014372224223613738,0.22421879749149082
1772527317611478800,5.693478759765625,-0.1386963768981397,-0.002537409523129463,0.2460807929486036
1772527317621476900,5.703476806640625,-0.09946867448985576,0.0344470440030098,0.2849354242607951
1772527317631475000,5.713474853515625,-0.008618775263428687,0.08053659500479697,0.31521161231994627
1772527317641472800,5.72347265625,0.09910802448391914,0.07632862192094325,0.3097574385672808
1772527317651470800,5.733470947265625,0.19475348742380738,0.06380640947818755,0.23602102509662506
1772527317661469000,5.743468994140625,0.20089330535307526,0.01300970369875431,0.18238485810756683
1772527317671466800,5.753466796875,0.15343524247705936,-0.005540098470449447,0.16476868352666496
1772527317681464800,5.76346484375,0.11030381062850356,0.0003127192109823227,0.1674848106175661
1772527317691462700,5.773462646484375,0.05976034895777702,-0.008031915286183357,0.15734525552764533
1772527317701460700,5.783460693359375,0.004184592208266258,-0.01834931116104126,0.13617591850981114
1772527317711458800,5.793458740234375,0.009728782331943511,0.006489362019300461,0.13055939380228518
1772527317721455900,5.803455810546875,0.05713379984647035,0.003357493734359741,0.11779007473066448
1772527317731454000,5.813453857421875,0.12384689055159687,-0.03664309274256229,0.09116057261079549
1772527317741452000,5.8234521484375,0.17782295701950787,-0.019081132566928862,0.10525324924066662
1772527317751449900,5.833449951171875,0.1805544278100133,0.028366262784600256,0.12752820941284299
1772527317761448000,5.843447998046875,0.1610822500988841,0.032398879301548,0.06987725382447242
1772527317771446000,5.853446044921875,0.13685206420570611,0.01714753415584564,-0.009683774146437644
1772527317781443800,5.86344384765625,0.13626988040357826,0.051529111707210536,-0.02466287822201848
1772527317791442000,5.87344189453125,0.1425914846405387,0.05428922407031059,0.013406009539961815
1772527317801438700,5.883438720703125,0.12365385219752788,0.01712006162703037,0.015636252810060976
1772527317811436800,5.893436767578125,0.1015191772788763,0.012877601751685142,0.008208440896868705
1772527317821435000,5.903434814453125,0.07855638097301125,0.006835398977994918,-0.01923705378100276
1772527317831432700,5.9134326171875,0.07999313577786088,-0.03299742971658706,-0.001111614503711462
1772527317841430800,5.9234306640625,0.021624679569900034,-0.05116729265749454,0.0019305296711623668
1772527317851428900,5.933428955078125,0.001811141075193882,-0.013801146337389944,0.0440049998126924
1772527317861427000,5.943427001953125,-0.003715221130847931,-0.05591127231419086,0.14183525944575667
1772527317871424000,5.953424072265625,-0.05731675519794226,-0.08321838143467902,0.1744287845365703
1772527317881421800,5.963421875,-0.0826747760772705,-0.028362755653262135,0.23262919070124624
1772527317891420000,5.973419921875,-0.08358575344234705,-0.03598609013855457,0.19253990302756427
1772527317901418000,5.98341796875,-0.07578706239014864,-0.05732756885290145,0.13926906221956015
1772527317911415800,5.993415771484375,-0.04592515422031283,-0.05593699127733707,0.1496462254576385
1772527317921414000,6.003413818359375,-0.0357777080848813,-0.025993103912472722,0.11631810248196124
1772527317931412000,6.013411865234375,0.010702157408744096,0.005617255359888077,0.12581950579881668
1772527317941409800,6.023409912109375,0.0652493017628789,-0.010135025045275688,0.1227250469148159
1772527317951406800,6.03340673828125,0.10015227283984422,-0.04257832801043987,0.12010960371941327
1772527317961405000,6.043405029296875,0.07920213153064251,-0.03853051392436027,0.12363500136658549
1772527317971403000,6.053403076171875,0.06129720313623547,-0.006591068828105926,0.11246917196884751
1772527317981401000,6.063401123046875,0.08596636496856808,0.007352116328477859,0.06880202580839395
1772527317991399000,6.07339892578125,0.1184416705071926,0.034116204613447186,0.04502469824925065
1772527318001397000,6.08339697265625,0.12011077276319265,0.04489771086871624,0.016049509786069394
1772527318011395000,6.09339501953125,0.13677578409910202,0.046729602470993996,0.01750686898753047
1772527318021393000,6.103392822265625,0.13462591258883475,0.03086275577545166,-0.00934241336286068
1772527318031390000,6.113389892578125,0.0886006589949131,0.01310907242000103,0.0022014555670320985
1772527318041387800,6.1233876953125,0.05475450349450111,0.02140928325355053,0.013625643640011549
1772527318051385900,6.1333857421875,0.03982698347568512,0.0023965397477149963,0.007796791356056928
1772527318061384000,6.143384033203125,0.03969546605050563,0.030548282998800275,0.02387801145464182
1772527318071381800,6.1533818359375,0.06278086582273244,0.027737317231297492,0.06553118744418025
1772527318081379800,6.1633798828125,0.08564429340735077,0.01503916369974613,0.09390387996956706
1772527318091378000,6.1733779296875,0.058459349361807106,-0.009466332003474236,0.11073971782773732
1772527318101375000,6.183375,0.013163725216686725,-0.07645604769289494,0.14201149279549716
1772527318111373000,6.193373046875,-0.020633038184046743,-0.0702834965378046,0.17726809961572287
1772527318121371100,6.20337109375,-0.0538160536006093,-0.06896013897955418,0.1425477916292846
1772527318131369000,6.213368896484375,-0.020717501597106454,-0.045775662747025485,0.16234350220635532
1772527318141367000,6.223366943359375,0.020564210731536147,0.002139350116252899,0.1096513380691409
1772527318151364900,6.23336474609375,0.09210954389870166,-0.008426467561721801,0.040028643527626986
1772527318161363000,6.243363037109375,0.11966478256136179,-0.014758593192696571,-0.01947670775577426
1772527318171361000,6.253361083984375,0.1242979953199625,-0.01412029528915882,-0.02137581937536597
1772527318181357800,6.26335791015625,0.11778992860019206,0.007649637970328331,-0.020595921044051647
1772527318191356000,6.27335595703125,0.09871902516633271,0.01345803198814392,-0.006461158838123083
1772527318201354000,6.28335400390625,0.09087678723335266,0.02520458388328552,-0.004278261841088533
1772527318211351800,6.293351806640625,0.10557020623534917,-0.006310498321056366,-0.0026499299868941307
1772527318221350000,6.303349853515625,0.0795747642353177,0.012097849550843238,-0.051196080360561606
1772527318231347700,6.31334765625,0.10143909777998923,-0.026316344517469406,-0.005714724384993314
1772527318241345800,6.323345703125,0.09942132821679114,-0.03139174808561802,0.03363748118579388
1772527318251343000,6.333343017578125,0.0907899857327342,-0.023413608813285827,0.06594006050601602
1772527318261341000,6.3433408203125,0.09837810277417301,-0.0160644150942564,0.06933160264044999
1772527318271339000,6.353339111328125,0.099798344835639,-0.014230185404419898,0.03893704889863729
1772527318281337000,6.363337158203125,0.035138533398509024,-0.07790449293553829,0.00524564556851983
1772527318291335000,6.3733349609375,-0.017403554743528366,-0.09957213486433028,0.040945173850655554
1772527318301333000,6.3833330078125,-0.06607493893206119,-0.09042436729073523,0.04442819366082549
1772527318311330800,6.393330810546875,-0.08902677545249461,-0.0652419952392578,0.05408902532309293
1772527318321327900,6.403327880859375,-0.07301467506736517,-0.051585810330510136,0.035007308234274385
1772527318331326000,6.413325927734375,-0.020186463460326192,-0.034518940195441244,0.020653350319713354
1772527318341323800,6.42332373046875,0.05081979439407587,-0.03159574622511863,0.008124123614281416
1772527318351321900,6.43332177734375,0.10255042002275586,-0.04219020547568798,-0.015377748004347085
1772527318361320000,6.44331982421875,0.12393398431316018,-0.04370294812619686,-0.03949219856336712
1772527318371317800,6.45331787109375,0.11643208425045012,-0.027659575819969175,-0.02691869432479143
1772527318381315800,6.46331591796875,0.06447831739038229,-0.0028945523977279663,-0.038256227027624844
1772527318391314000,6.47331396484375,0.01602612891048193,0.012222352713346481,-0.04073679179698229
1772527318401311000,6.48331103515625,0.01757540417909622,0.020647651231288908,-0.01893003365844488
1772527318411309000,6.49330908203125,0.06047521922886371,0.028448095849156377,-0.0004888064302504062
1772527318421307000,6.503306884765625,0.09627455462366342,0.029819384202361104,-0.012297902167588472
1772527318431305000,6.513304931640625,0.11949454056099057,0.006295300751924514,-0.029085516969859598
1772527318441303000,6.523302978515625,0.11702771205604076,0.004323123896121979,-0.02501549105197191
1772527318451300900,6.53330078125,0.09076718937903643,0.011714403191208839,-0.016005962905287743
1772527318461299000,6.543298828125,0.07450856688693165,0.00987608184814453,0.00846183113604784
1772527318471295700,6.553295654296875,0.08077215732634067,0.014812369206547736,0.04581321827843785
1772527318481293800,6.5632939453125,0.11134499024450778,0.0029576807618141173,0.08727540174052119
1772527318491292000,6.5732919921875,0.07549640888050198,-0.028100305324792862,0.061442310695350166
1772527318501289700,6.583289794921875,0.05994096622169017,-0.039891280883550644,0.09562821954414248
1772527318511287800,6.593287841796875,0.002302431723475456,-0.06525660828649997,0.1046150974676013
1772527318521286000,6.603285888671875,-0.02364741756916046,-0.08865794214010238,0.09278642024695873
1772527318531284000,6.613283935546875,-0.021653905664384365,-0.06899462577104568,0.10107800938263535
1772527318541282000,6.623281982421875,-0.01942337013334036,-0.008562076640129089,0.08946765108779073
1772527318551278800,6.63327880859375,0.02679506794512272,0.005846387940645218,0.08746303326711058
1772527318561277000,6.64327685546875,0.10542378350198268,-0.0311877499461174,0.09415610116496681
1772527318571275000,6.65327490234375,0.10104103837311268,0.006852350112795829,0.016213906567543745
1772527318581272800,6.66327294921875,0.06368775153458119,-0.029485622203350065,-0.01137464984282851
1772527318591271000,6.67327099609375,0.03980944781899452,-0.06158814890682697,0.00006152092888951302
1772527318601269000,6.68326904296875,-0.013369623052328824,-0.0744178198635578,0.03578223812952638
1772527318611266800,6.693266845703125,-0.06519508735761045,-0.043829789376258844,0.12654782007336615
1772527318621264000,6.703263916015625,-0.13399199859946964,-0.05278875637948513,0.1792638034775853
1772527318631262000,6.713261962890625,-0.15946838516145945,-0.0455137969404459,0.19051760341972113
1772527318641260000,6.723260009765625,-0.1355477036088705,-0.045673371416330336,0.1853881315767765
1772527318651258000,6.733258056640625,-0.10728022502362727,-0.05022328980565071,0.15609057929143308
1772527318661256000,6.743255859375,-0.031003917811810968,-0.048666123491525645,0.08961611964777111
1772527318671254000,6.75325390625,0.061725073159486055,-0.03793196350932121,0.012539748099446297
1772527318681252000,6.763252197265625,0.15784955178797244,-0.015588029754161833,-0.010841273618489503
1772527318691250000,6.77325,0.2396823240831494,0.05098316826224327,0.013767682459205389
1772527318701247000,6.7832470703125,0.23136486985385415,0.1050917750686407,-0.010839520052820444
1772527318711244800,6.793244873046875,0.21840718860328195,0.06026128421723842,0.017016893513500688
1772527318721243000,6.803242919921875,0.1687269196331501,0.0370697937220335,0.060729486250877374
1772527318731241000,6.813240966796875,0.0900602101534605,0.0328302564561367,0.08437690382003783
1772527318741238800,6.82323876953125,0.017581395528465507,0.025604981377720833,0.05686857303902507
1772527318751236900,6.83323681640625,0.0025189970836043355,0.028248189362883567,0.05831307275891304
1772527318761234700,6.843234619140625,0.008930325430631637,-0.05213000020980835,0.07022372917458415
1772527318771232000,6.85323193359375,-0.004586743268370628,-0.05338496870696544,0.11267682337015866
1772527318781230000,6.86322998046875,-0.039302082818746566,-0.03361936100721359,0.13143062367886305
1772527318791228000,6.873227783203125,-0.04043956241607666,-0.027144027513265608,0.1321472475156188
1772527318801226000,6.88322607421875,-0.03867079917788505,-0.025090017592906952,0.13998276344686747
1772527318811224000,6.89322412109375,-0.046400516647100445,-0.04038578640222549,0.1515790932163596
1772527318821222000,6.903221923828125,-0.06848872207552194,-0.03559446047246456,0.14857786557376385
1772527318831220000,6.913219970703125,-0.034109774872660634,-0.01647124232947826,0.14982742724344134
1772527318841217800,6.9232177734375,0.027239304581284523,0.00023614684343338012,0.13334449447616933
1772527318851214800,6.93321484375,0.07758885111510753,0.02530219903886318,0.06603343787789344
1772527318861213000,6.943212890625,0.11987433365881442,0.03310790435373783,0.018740502435714006
1772527318871210800,6.953210693359375,0.15452902906313537,0.03072890026271343,-0.004651479067653418
1772527318881208800,6.963208740234375,0.12967822705358267,0.02708031462728977,-0.01031359648257494
1772527318891207000,6.97320703125,0.09579583119601011,0.025128596037626266,0.010655541788041591
1772527318901204700,6.983204833984375,0.0654538844242692,0.013299626556038856,0.021501053190231323
1772527318911202800,6.993202880859375,0.06118862819522619,-0.00980593922138214,0.04459843566119671
1772527318921199900,7.003199951171875,0.05593772192969918,-0.02457271572053432,0.07370879481136798
1772527318931198000,7.013197998046875,0.04839738955274224,-0.050128597259521485,0.06202332545369863
1772527318941196000,7.023196044921875,0.033577859953045845,-0.09201426683068276,0.03893061915785074
1772527318951193900,7.03319384765625,0.04115808594897389,-0.10216098231375217,0.036273090386390684
1772527318961192000,7.04319189453125,0.01595598628371954,-0.09696224462687969,0.0333203780606389
1772527318971190000,7.05318994140625,0.0046126083619892596,-0.11110299818217753,0.04992693720757961
1772527318981187800,7.063187744140625,-0.015805764158070088,-0.08183189551234245,-0.022480565746873616
1772527318991186000,7.07318603515625,-0.07034808620661497,-0.05960661970078945,-0.06617094665244222
1772527319001182700,7.0831826171875,-0.05077317877337336,-0.0672732088059187,-0.05335369678586721
1772527319011180800,7.093180908203125,-0.01655190635025501,-0.07118599833548069,-0.048442982260137796
1772527319021179000,7.103178955078125,-0.0006663549542427063,-0.057042322170734405,-0.048748541077971455
1772527319031176700,7.1131767578125,-0.018948299967497587,-0.02828326067626476,-0.047384120856970545
1772527319041174800,7.1231748046875,-0.03987666783630848,-0.026764088284969328,-0.028996523512154815
1772527319051172900,7.1331728515625,-0.05546995828747749,-0.04376841457784176,0.03338599064275622
1772527319061171000,7.1431708984375,-0.06796966663748026,-0.018937340182065963,0.05903305759653449
1772527319071168000,7.15316796875,-0.01507014335989952,0.024826982742547986,0.024276509252935646
1772527319081165800,7.163165771484375,0.07849851330593229,0.023271569994091985,-0.05608429079353809
1772527319091164000,7.173163818359375,0.14801029481887817,0.01182020165324211,-0.06930354558974504
1772527319101162000,7.183161865234375,0.20611147839277982,0.017865327036380767,-0.06289104819893837
1772527319111159800,7.193159912109375,0.19729221212118864,-0.029732290440797803,-0.057424453356117004
1772527319121158000,7.203157958984375,0.15062208475247024,-0.015006430473923683,-0.05628785054162144
1772527319131156000,7.213156005859375,0.08978139321208,0.022602292430400846,-0.02059723621830344
1772527319141152800,7.22315283203125,0.07454524563550949,0.05057458746135234,0.023462270260602235
1772527319151150800,7.23315087890625,0.09145137225091457,0.0584019200861454,0.04402224320843816
1772527319161148700,7.243148681640625,0.10920622465014457,0.03528115673959255,0.057895577999204396
1772527319171146800,7.253146728515625,0.09675780809596181,0.01764905393719673,0.05690817439705133
1772527319181144800,7.263144775390625,0.08415040158778428,0.024779636469483373,0.04385448542609811
1772527319191143000,7.273142822265625,0.07167319733053445,-0.02918868508338928,0.03795227564498782
1772527319201141000,7.28314111328125,0.007236380994319915,-0.048724575680494306,0.03782850313484668
1772527319211139000,7.29313916015625,-0.025484569868445394,-0.033742110604047776,0.041730186748504636
1772527319221136000,7.303135986328125,-0.002497662034630775,-0.041321021425724025,0.07953779322579503
1772527319231134000,7.313134033203125,0.016125205370783807,-0.04450140502750873,0.08053995600566267
1772527319241131800,7.3231318359375,0.031404169175773856,-0.032793431577086446,0.07626388612166046
1772527319251129900,7.3331298828125,0.05425386049598455,-0.049855625537037845,0.07644786438643932
1772527319261128000,7.3431279296875,0.04578998353332281,-0.0501449638724327,0.09343260919600725
1772527319271125800,7.353125732421875,0.03679828330427408,-0.030349545556306836,0.09318447965383529
1772527319281123800,7.363123779296875,0.0565130375996232,0.008855506628751755,0.08882233892157673
1772527319291122000,7.373121826171875,0.07385317171812057,0.039974867513775825,0.05221022583916783
1772527319301119000,7.383118896484375,0.09327931833043694,0.04644318674504757,0.027373306224495172
1772527319311117000,7.393116943359375,0.1272334642499685,0.05052081144750118,0.01698503707051277
1772527319321115000,7.403114990234375,0.13879998340308666,0.03679916008710861,0.030582769790291786
1772527319331113000,7.413113037109375,0.11935483982935548,0.013245266020298003,0.04815685879513621
1772527319341111000,7.423111083984375,0.07534633288532495,-0.03015723785459995,0.06588248509988189
1772527319351108900,7.43310888671875,0.01653217873647809,-0.05206394923627376,0.07625161116197705
1772527319361107000,7.44310693359375,-0.032941607876122,-0.04454115251600742,0.08897124587297439
1772527319371103700,7.453103759765625,-0.06187573367655277,-0.028801147070527076,0.07710501312091946
1772527319381101800,7.463101806640625,-0.05802431894540786,-0.030503859335184097,0.06716492612585424
1772527319391100000,7.473099853515625,-0.02502513566315174,-0.02237958959043026,0.0488163456171751
1772527319401097700,7.48309765625,0.004825812721252441,-0.023528759625554084,0.042197950390726324
1772527319411095800,7.493095703125,0.04226677784323692,-0.03220890968739986,0.051832624698430294
1772527319421094000,7.503093994140625,0.06284779357910156,-0.06379530356228351,0.07328180157095193
1772527319431091700,7.513091796875,-0.007787585136294364,-0.05594751267135143,0.04684153841286898
1772527319441089000,7.523089111328125,-0.04732157701477408,-0.05715045872032642,0.08051759804338217
1772527319451086800,7.5330869140625,-0.035090018081665036,-0.023993454527854917,0.1319381348095834
1772527319461085000,7.5430849609375,-0.008788871133327483,-0.005810732105374336,0.13201353813335298
1772527319471083000,7.5530830078125,0.01959317374229431,0.012918518283963202,0.12215206933245062
1772527319481080800,7.563080810546875,0.08155906992033124,0.02176642612814903,0.08240662666037678
1772527319491079000,7.573078857421875,0.16019363069608808,0.0360240840613842,0.02504091775417328
1772527319501077000,7.583076904296875,0.19260536947920917,0.04358662827014923,-0.017635317672789096
1772527319511074800,7.59307470703125,0.18913170201927423,0.031133389410376546,-0.017637217368930577
1772527319521071900,7.60307177734375,0.14304551201835275,0.006194762986898422,-0.006995996367186307
1772527319531069700,7.613069580078125,0.05072597863078117,-0.009940963777899742,0.009254150557518005
1772527319541067800,7.62306787109375,0.008976502659916877,-0.020457681617140767,0.04804696867987513
1772527319551065900,7.63306591796875,-0.020836451801657677,-0.002425181320309639,0.07341068864762783
1772527319561063700,7.643063720703125,-0.039357904659211636,0.019476269364356993,0.08529723353534936
1772527319571061800,7.653061767578125,0.021501053190231323,0.03319149098396301,0.09692541974782944
1772527319581059800,7.663059814453125,0.10067235119119286,0.031282442492246626,0.0931932474821806
1772527319591057700,7.6730576171875,0.11198445719182491,0.040111061114072796,0.07915595430135726
1772527319601055000,7.683054931640625,0.10257716189920901,0.024928105029463767,0.05754720295295119
1772527319611053000,7.693052978515625,0.06133621997237205,-0.003598316752910614,0.05820245199128985
1772527319621051000,7.70305078125,0.029709494087100028,-0.0626326895236969,0.07327040339410304
1772527319631049000,7.713049072265625,-0.018446926316618917,-0.10625029745399951,0.08970905862823128
1772527319641046800,7.723046875,-0.07710369794666766,-0.11130290466845034,0.10293518155664205
1772527319651044900,7.733044921875,-0.1013341761007905,-0.10619827500581741,0.1235419162556529
1772527319661043000,7.74304296875,-0.0743576141089201,-0.09261457081139086,0.1615622887007892
1772527319671039700,7.753039794921875,-0.030008184772729873,-0.07621756276190281,0.13046791612654923
1772527319681037800,7.763037841796875,0.011150924089550972,-0.09045067077577114,0.09675298579037189
1772527319691036000,7.773035888671875,0.03946399538218975,-0.07359832017421722,0.07804317075386642
1772527319701033500,7.783033447265625,0.05008242003023624,-0.03390168507993221,0.06301058292537927
1772527319711031600,7.793031494140625,0.07348463066667318,-0.0056231005787849425,0.032277883270382876
1772527319721029600,7.803029541015625,0.06418108800947665,0.030073066702485083,0.0260496564052999
1772527319731027700,7.81302783203125,0.04867489131987095,0.048617023652791976,0.002839168948680162
1772527319741024500,7.8230244140625,0.04695902731269598,0.0429910004645586,0.005149345587193966
1772527319751022600,7.833022705078125,0.02628653390109539,0.010536007061600685,0.017162001072615386
1772527319761020400,7.8430205078125,0.009541735327243804,-0.018320669588446616,0.020573416951298714
1772527319771018500,7.8530185546875,-0.005031856687366962,-0.03665712126791477,0.02609773333072662
1772527319781016600,7.8630166015625,-0.008035422417521476,-0.04033493299782276,0.048816491747647524
1772527319791014400,7.873014404296875,-0.01381049868762493,-0.04020107748508453,0.05369973374456167
1772527319801012500,7.883012451171875,0.004005143988132477,-0.02967792990505695,0.08299903959557414
1772527319811009500,7.893009521484375,0.038051498235762114,-0.03192483204901218,0.10579714685901999
1772527319821007600,7.903007568359375,0.07351590258777141,-0.02249357135891914,0.11298808127641677
1772527319831005700,7.913005615234375,0.10167290653586387,-0.005702011033892631,0.10513269160091876
1772527319841003800,7.923003662109375,0.1315782154560089,-0.018950199663639068,0.0940600934445858
1772527319851001600,7.933001708984375,0.13246215868368744,-0.00104220252931118,0.0915609701052308
1772527319860999700,7.942999755859375,0.14694953371956943,0.025415596285462378,0.08930471561104059
1772527319870997500,7.95299755859375,0.09817527367845177,0.07008885074853896,0.04287307317331433
1772527319880995600,7.96299560546875,0.046908466169238085,0.02983925794661045,0.031861265293508766
1772527319890992600,7.97299267578125,0.04588233799189329,-0.03274608530402184,0.08275354040190577
1772527319900990500,7.982990478515625,0.020067951647192238,-0.019029694640636443,0.05176905794292688
1772527319910988500,7.992988525390625,-0.025250761112570762,0.013475567644834518,0.018809037627279757
1772527319920986600,8.002986572265625,-0.0015407997012138366,-0.012134089908003807,0.046446693876385683
1772527319930984400,8.012984375,0.0212733819141984,-0.034007483541965484,0.06582680938988923
1772527319940982500,8.022982421875,0.027299071944504975,-0.03674947572648525,0.06627236120030283
1772527319950980400,8.03298046875,0.01939341338649392,-0.03349836497604847,0.07120601821020245
1772527319960977700,8.042977783203124,0.013466507555544375,-0.012867080357670783,0.07397986683771014
1772527319970975700,8.052975830078125,0.004223755174875259,-0.014271686458587646,0.0587165389932692
1772527319980973600,8.0629736328125,-0.008063771729171276,-0.008431143736839295,0.044769554444402455
1772527319990971600,8.0729716796875,-0.007028145071119069,0.016017653343081473,0.02623348853960633
1772527320000969700,8.0829697265625,0.029009821385145185,0.04119885635077953,0.019486352366954087
1772527320010967600,8.092967529296875,0.08720949689745902,0.03621346915364265,0.05175473715662956
1772527320020965600,8.102965576171876,0.12437456768751144,0.03672667937278747,0.09437164361178875
1772527320030963500,8.11296337890625,0.13922025464177132,0.049822892311215394,0.11024228969961404
1772527320040960500,8.12296044921875,0.16241875939965247,0.03716156365871429,0.11560001734048128
1772527320050958600,8.13295849609375,0.16869915484339,0.010319149440526962,0.11983122516945004
1772527320060956400,8.142956298828125,0.16089140370190141,-0.019663316369056702,0.13928952048569918
1772527320070954500,8.15295458984375,0.14549217451810836,-0.007858896806836128,0.16766761983856557
1772527320080952600,8.16295263671875,0.11591770498752593,0.007221767947077751,0.17599807967990636
1772527320090950400,8.172950439453125,0.06778130445852876,-0.00042260932624340057,0.15173472216948866
1772527320100948500,8.182948486328126,0.06334171457588672,-0.026702713486552235,0.0970271265566349
1772527320110945500,8.192945556640625,0.03871931449472904,-0.00005903671085834503,0.09595043723583221
1772527320120943600,8.202943603515624,0.02816080334037542,0.0033721067816019057,0.11326353721693158
1772527320130941700,8.212941650390626,0.036124767956882714,0.011788637471199036,0.10039075777083635
1772527320140939500,8.222939453125,0.02347863687351346,-0.022604045996069907,0.07246829323098063
1772527320150937600,8.2329375,-0.0074903557553887366,-0.024348259314894673,0.07637202267125248
1772527320160935700,8.242935791015626,-0.0028282091632485388,-0.010553542718291281,0.11377806261032819
1772527320170933500,8.25293359375,-0.0193561501160264,-0.001287117201089859,0.06754048143997789
1772527320180930600,8.2629306640625,-0.012017770051956176,-0.01191430967748165,0.10550547043606638
1772527320190928400,8.272928466796875,0.005886427690088749,-0.01849310354590416,0.13999956845119596
1772527320200926500,8.282926513671875,0.005728899040818214,-0.021094225955009458,0.1187934065543115
1772527320210924500,8.292924560546876,0.002330634904652834,-0.04295943628251552,0.08739259837940334
1772527320220922400,8.30292236328125,-0.00018339374288916586,-0.04505903891026974,0.05260200163573026
1772527320230920400,8.31292041015625,0.023996377137303352,-0.034920506733655925,0.023694179320335386
1772527320240918500,8.32291845703125,0.037651100741326805,-0.012587678894400597,0.01255509179905057
1772527320250916600,8.33291650390625,0.07270955464094876,0.01925064391493797,0.0266869313955307
1772527320260913700,8.34291357421875,0.10270473380163311,0.0027215339183807373,0.03320113559514284
1772527320270911500,8.352911376953125,0.10261515582203865,-0.01795358984172344,0.024578999330848453
1772527320280909600,8.36290966796875,0.07288169633746147,-0.0013397241711616515,0.01002513493001461
1772527320290907600,8.37290771484375,0.058025049597769975,0.0052589434415102,0.021288433352857825
1772527320300905500,8.382905517578125,0.06012772096544504,-0.010049684849381447,0.02229088839367032
1772527320310903600,8.392903564453125,0.07079670675694942,0.008998714491724968,0.017503215725719928
1772527320320901600,8.402901611328126,0.09677548988312483,0.003090367230772972,0.002724164266884327
1772527320330898400,8.4128984375,0.11221432042494416,-0.008541033852100371,0.008818097227811813
1772527320340896500,8.422896484375,0.1056108305066824,-0.004338905987143516,0.013770751199126243
1772527320350894300,8.432894287109375,0.08749269775301217,-0.023951368951797485,0.01658010953143239
1772527320360892400,8.442892333984375,0.04666837380304932,-0.019599603483080864,0.02584814248383045
1772527320370890500,8.452890380859374,-0.0044870822861790656,-0.0005897825866937637,0.05888268934041262
1772527320380888600,8.462888671875,-0.01545271293669939,-0.05043547125160694,0.08077201119586824
1772527320390886700,8.47288671875,-0.0342898076146841,-0.05230301868915557,0.0833821936942637
1772527320400883500,8.482883544921876,-0.03357844447493553,-0.03477203817367554,0.08071049026697874
1772527320410881500,8.492881591796875,-0.01607405970543623,-0.06600947248041629,0.054545829179883
1772527320420879600,8.502879638671875,0.013479951559007167,-0.016681670209765433,0.054379678832739586
1772527320430877400,8.51287744140625,0.02612769007757306,-0.00010287585258483886,0.05556991153061389
1772527320440875500,8.52287548828125,0.04657558095306158,0.006873392900824547,0.04586494846567511
1772527320450873600,8.53287353515625,0.08000760269463061,-0.004671498942375183,0.05636500743106007
1772527320460871400,8.542871337890626,0.07577098803818226,-0.019491466933488844,0.052775020115077495
1772527320470869500,8.552869384765625,0.04543780909478664,-0.025413842719793318,0.03017228929325938
1772527320480866600,8.562866455078124,0.0044160628765821455,-0.015854571735858917,0.05560191410407424
1772527320490864600,8.57286474609375,-0.020068097777664662,0.04331014941632747,0.07876242493912577
1772527320500862700,8.58286279296875,-0.04789046294391155,-0.006640753188729286,0.06342778542414307
1772527320510860500,8.592860595703126,-0.02498421913087368,0.0013315408647060394,0.02922784804999828
1772527320520858600,8.602858642578125,0.07295709966123104,0.05524608640372753,0.04655848368778825
1772527320530856700,8.612856689453125,0.07694003181755542,0.029704817911982536,0.048121933612227434
1772527320540854500,8.6228544921875,0.0685343147829175,-0.006192424899339676,0.030384178478270768
1772527320550851600,8.6328515625,0.04755319381356239,-0.007380173379182815,0.07048223398029804
1772527320560849400,8.642849365234374,0.022151041531562804,-0.02735562443733215,0.12531418662518262
1772527320570847500,8.652847412109375,0.018606646922975777,-0.012448562684655188,0.15268515476211905
1772527320580845600,8.662845458984375,0.056470659762620924,-0.03001870616674423,0.1892031598202884
1772527320590843400,8.672843505859374,0.09980009840130806,-0.047694063588976855,0.1955604198925197
1772527320600841500,8.682841552734375,0.09952654215693474,-0.04876081603765487,0.18739684105068444
1772527320610839600,8.692839599609375,0.058857408768683665,-0.042592356535792346,0.19001549911648033
1772527320620836600,8.702836669921876,0.0021478256836533543,-0.0386643694370985,0.16311594788357614
1772527320630834700,8.712834716796875,-0.04706102638244629,-0.011551321583986281,0.1410996386475861
1772527320640832500,8.72283251953125,-0.042415830925107,0.01281973408460617,0.12234788416549562
1772527320650830600,8.73283056640625,-0.03485270219445229,0.030285832670331,0.0671463675558567
1772527320660828700,8.74282861328125,-0.001528232480585575,0.010120996519923209,-0.013644348340481519
1772527320670826500,8.752826416015624,0.023063041809946297,-0.005735913303494453,-0.06635404813438654
1772527320680824600,8.762824462890626,0.06247837574481964,-0.01740413926541805,-0.06943550140634179
1772527320690822700,8.77282275390625,0.08387553016915916,-0.02940612722635269,-0.01598623529151082
1772527320700819700,8.78281982421875,0.10002835419923066,0.01609364118874073,0.024778029034286737
1772527320710817500,8.792817626953125,0.05146393751651048,-0.03704232119321823,0.042947161322832106
1772527320720815600,8.802815673828125,0.022935177646577355,-0.07268237437307834,0.04198196955248713
1772527320730813700,8.812813720703126,-0.015134440767765045,-0.06660802289545535,0.04141834432035684
1772527320740811500,8.8228115234375,-0.011705343101918697,-0.050962709996104236,0.059530193463712924
1772527320750809600,8.8328095703125,0.003168400903046131,-0.052312371039390564,0.06183540166616439
1772527320760807700,8.8428076171875,0.04233808951377868,-0.05407938071191311,0.059151131018251174
1772527320770804700,8.8528046875,0.047669805930554865,-0.03744330320954323,0.05392725889012217
1772527320780802800,8.862802734375,0.0189585291005671,-0.039867900007963177,0.05725786461755633
1772527320790800600,8.872800537109375,0.005289338579773903,-0.020797288835048673,0.07151186928898096
1772527320800798700,8.882798828125,-0.006433832439780235,-0.011682839009165762,0.0736306150086224
1772527320810796800,8.892796875,0.004315086720138788,-0.0027846622824668882,0.05418985534906387
1772527320820794600,8.902794677734375,0.043956776756793256,0.02618891874551773,0.037671559007465834
1772527320830792700,8.912792724609375,0.06803980926424265,0.025884382840991017,0.042593817840516565
1772527320840789500,8.92278955078125,0.09689517074003814,0.013731588232517241,0.041480888162553305
1772527320850787600,8.93278759765625,0.13156243336498735,-0.0035842882275581357,0.04999108848497271
1772527320860785700,8.94278564453125,0.15908493880182503,-0.03147767280340195,0.05053527836427092
1772527320870783500,8.952783447265626,0.12033683660402893,-0.05197217929959297,0.05046060569286346
1772527320880781600,8.962781494140625,0.04412555745244026,-0.0381458985209465,0.041034167308360334
1772527320890779600,8.972779541015624,-0.010059475591033696,0.004462240105867385,0.024383184497803446
1772527320900777500,8.982777587890626,-0.034657179622352124,0.026278350594639777,0.0120429044932127
1772527320910775600,8.992775634765625,-0.017341449292749167,0.03059387570619583,0.012134966690838337
1772527320920772600,9.002772705078126,0.0331711788482964,0.018957213926315306,0.007703560114651918
1772527320930770700,9.012770751953125,0.07255319503545761,0.007205401334166526,0.007791238398104906
1772527320940768800,9.022768798828125,0.08545417766273021,-0.011575286981463432,-0.0017195172689855097
1772527320950766600,9.0327666015625,0.07337327924668788,-0.021748305949568746,-0.00417144046574831
1772527320960764700,9.0427646484375,0.041326866644620895,-0.02853811222016811,0.008659107273817062
1772527320970762800,9.0527626953125,0.012079875502735376,-0.017769465446472166,0.036851036404818294
1772527320980760600,9.062760498046876,0.007809504707157611,0.010793196693062782,0.07063932423815131
1772527320990757600,9.072757568359375,0.018439473662525414,0.020613748961687085,0.09647212302237748
1772527321000755500,9.08275537109375,0.059970922968536615,-0.009507833057641982,0.1067605850636959
1772527321010753500,9.09275341796875,0.0694146047487855,-0.06024608664810657,0.10112345595955848
1772527321020751600,9.102751708984375,0.023605916514992713,-0.08509060504734516,0.09579963058829306
1772527321030749400,9.11274951171875,-0.030612872667610643,-0.0974842226743698,0.07363719087988138
1772527321040747500,9.12274755859375,-0.05598769855126738,-0.08347907819747924,0.06112988374531269
1772527321050745600,9.13274560546875,-0.0449514868825674,-0.07013795058727264,0.06352773866727948
1772527321060742700,9.14274267578125,-0.05223404510617256,-0.06195581317543983,0.07105842643305658
1772527321070740700,9.15274072265625,-0.03474631921052933,-0.02848667429387569,0.056486587984114885
1772527321080738600,9.162738525390624,0.01153086331784725,-0.013508300870656966,0.05092661576941609
1772527321090736600,9.172736572265626,0.03823036193400621,-0.031556583258509636,0.038190614445507524
1772527321100734700,9.182734619140625,0.010649696569144725,-0.0670025751709938,0.0013997837953269481
1772527321110732500,9.192732666015624,-0.0005605564922094345,-0.0852238760381937,-0.0007478957578539848
1772527321120730600,9.202730712890625,0.00880012317970395,-0.06574526858627795,-0.004248889616131782
1772527321130728700,9.212728759765625,0.048810500398278237,-0.008021393892168998,-0.020473171447217463
1772527321140725500,9.2227255859375,0.11840309206247329,0.015440145716071128,-0.04714914305731654
1772527321150723600,9.2327236328125,0.19805019088163972,0.03739361884891987,-0.045456221534311766
1772527321160721700,9.2427216796875,0.24275427887439727,0.04991349320411682,-0.058277416923642154
1772527321170719700,9.2527197265625,0.23489070589244365,0.04219897330403328,-0.0760601802431047
1772527321180717800,9.2627177734375,0.17222177601158617,0.010498013138771056,-0.0666433864697814
1772527321190715600,9.272715576171874,0.06915799963921308,-0.009514262798428534,-0.052810822080820795
1772527321200713700,9.282713623046876,-0.0011047463715076445,-0.02864917137920856,-0.03485825515240431
1772527321210710800,9.292710693359375,-0.04755611642301082,-0.03288578603565693,0.006284779357910156
1772527321220708600,9.30270849609375,-0.06389642584919929,-0.031523265510797496,0.04240340983495116
1772527321230706700,9.312706787109375,-0.048960722523927684,-0.016041034218668936,0.0498749147593975
1772527321240704800,9.322704833984375,-0.011951719078421592,-0.060731239816546434,0.02362447508499026
1772527321250702600,9.33270263671875,0.03210544931292534,-0.08519289637804031,0.032181875550001855
1772527321260700700,9.34270068359375,0.04580108944922685,-0.05239478862583637,0.0703631376452744
1772527321270698500,9.352698486328125,0.0360261298879981,-0.029068273574113845,0.06271525324061512
1772527321280695600,9.362695556640626,0.04479804988652467,-0.04158580984175205,0.07460501299872994
1772527321290693600,9.372693603515625,0.033977672925591465,-0.05365560234189033,0.11646467134580016
1772527321300691700,9.382691650390624,0.01382818047478795,-0.0324292744398117,0.1169699905194342
1772527321310689800,9.392689697265626,-0.004384790955483913,-0.012640285864472389,0.10520400327146052
1772527321320687900,9.40268798828125,0.02984291120842099,0.004708908343315124,0.08441592065617441
1772527321330685700,9.412685791015624,0.07765329465344548,-0.0025578677892684936,0.04715674184188246
1772527321340683800,9.422683837890625,0.08035890035033226,-0.01289864453971386,0.0029286007978022097
1772527321350680600,9.4326806640625,0.07393734287023544,0.007060439905524254,-0.02536401222869754
1772527321360678700,9.4426787109375,0.07125847904980183,0.027820319339632988,-0.021932138083875178
1772527321370676700,9.4526767578125,0.06680763712078333,-0.006036357554793357,-0.02118321941271424
1772527321380674600,9.462674560546875,0.06178235630467534,-0.004311433458328247,-0.04227101562693715
1772527321390672600,9.472672607421876,0.10061609095931053,-0.0010433715730905533,-0.04380860045775771
1772527321400670700,9.482670654296875,0.13169395079016685,-0.04355447956621647,-0.011929068855196236
1772527321410668500,9.49266845703125,0.1305439039722085,-0.0710544809103012,0.0004712707735598087
1772527321420666600,9.50266650390625,0.09411810724213719,-0.03602057693004608,0.02606806884482503
1772527321430663700,9.51266357421875,0.043999300724267956,0.012920856371521948,0.03354074281305074
1772527321440661800,9.522661865234374,0.019211773209273815,0.021027005937695502,0.047414223734289405
1772527321450659800,9.532659912109375,-0.007275251699984073,0.030165421161055563,0.07841624184995889
1772527321460657700,9.54265771484375,-0.022715689677000044,0.03114507984817028,0.10875921153500676
1772527321470655700,9.55265576171875,-0.020447744745016098,0.006645429363846779,0.13338424196466803
1772527321480653800,9.56265380859375,-0.010893734458088875,-0.04531505949795246,0.13227452715709806
1772527321490651600,9.572651611328125,-0.004018003469705582,-0.07876374011337757,0.1302092651903629
1772527321500648700,9.582648681640626,0.01506751301139593,-0.06375438703000545,0.13111264377087353
1772527321510646500,9.592646484375,0.013004443001747131,-0.03499240292608738,0.10370075910165906
1772527321520644600,9.60264453125,0.025605273638665674,-0.03831014917194843,0.08569690037742257
1772527321530642700,9.612642578125,0.0385651468463242,-0.048519993019104,0.05199088400006294
1772527321540640500,9.622640625,0.04093172984719276,-0.033975919359922405,0.030623978583514688
1772527321550638600,9.632638671875,0.05439575318470597,-0.018072832307219504,0.021226035641133786
1772527321560636700,9.64263671875,0.06058160221278667,0.008030161720514297,0.016231880615651607
1772527321570633700,9.6526337890625,0.07112608484178781,0.009904138898849486,0.014951777677237987
1772527321580631800,9.6626318359375,0.06717120973616839,0.008515899410843849,0.0321167013593018
1772527321590629600,9.672629638671875,0.012924655763804912,-0.004221417087316512,0.0038942309595644473
1772527321600627700,9.682627685546874,-0.0162561382740736,-0.02529869190752506,-0.033615415484458205
1772527321610625800,9.692625732421876,-0.016584055054187773,-0.026331542086601257,-0.03132438193783164
1772527321620623600,9.70262353515625,0.004943009360134601,-0.006759995654225349,-0.024276509252935646
1772527321630621700,9.71262158203125,0.04309387631714344,0.0034276363611221313,0.007637216880172491
1772527321640618500,9.722618408203125,0.05847206271290779,0.004959668233990669,0.0259092250213027
1772527321650616600,9.732616455078125,0.049077042379975316,-0.004867898297309875,0.052870151052623986
1772527321660614700,9.74261474609375,0.016934768187999723,-0.013491934257745742,0.07983546099811792
1772527321670612500,9.752612548828125,0.01676204196959734,-0.027733810099959372,0.0996653661057353
1772527321680610600,9.762610595703125,0.041883477614074946,-0.04716448675692081,0.12445830044820903
1772527321690608600,9.772608642578126,0.03626841421127319,-0.07407762812376022,0.13645590449497103
1772527321700606500,9.7826064453125,0.04068973778486252,-0.061876318198442457,0.1418758837170899
1772527321710605300,9.792605224609375,0.04990180276632308,-0.028581951361894606,0.1285262805394828
1772527321720602600,9.8026025390625,0.04708440725803375,-0.02395896773636341,0.0747188486367464
1772527321730600400,9.812600341796875,0.03989493414536118,-0.010731237372756004,0.008483604576438665
1772527321740598500,9.8225986328125,0.04030716820806265,-0.029184593430161474,-0.03903992475122213
1772527321750596600,9.8325966796875,0.027575696928799152,-0.013536942443251609,-0.047115240787714716
1772527321760594400,9.842594482421875,0.02194119817316532,-0.020228549036383627,-0.029835458554327485
1772527321770592500,9.852592529296874,0.012765373548865318,-0.07259937226474285,-0.036247079162299634
1772527321780590300,9.86259033203125,-0.009437105908989905,-0.05170797540545463,-0.02089797273054719
1772527321790587400,9.87258740234375,-0.02119271789342165,-0.042738487008214,0.034086101736128326
1772527321800585500,9.88258544921875,-0.039435353809595106,-0.048476153877377505,0.06321545784771442
1772527321810583300,9.892583251953125,-0.02813756859526038,-0.027896891707181928,0.09806465291082858
1772527321820581400,9.902581298828125,0.005644435627758503,-0.024873744493722913,0.12965674587413667
1772527321830579500,9.912579345703126,0.01342705232799053,-0.016383564046025274,0.12273162278607487
1772527321840577300,9.922577392578125,0.033293928445130586,-0.005454173752665519,0.11247954723238944
1772527321850575400,9.932575439453124,0.053926820498704904,0.0036626141607761383,0.08812149717584251
1772527321860572400,9.942572509765625,0.067583151537925,0.014337152910232543,0.0647545039832592
1772527321870570500,9.952570556640625,0.09357450188472867,0.036795068433880807,0.047167555496841665
1772527321880568600,9.962568603515624,0.12200316238105297,0.06587678601145744,0.041819034075737
1772527321890566400,9.97256640625,0.15159341400265694,0.05464812051057815,0.005606733965873718
1772527321900564500,9.982564453125,0.17186375635415316,0.025838790133595465,-0.018524667727947235
1772527321910562600,9.9925625,0.15934008260667323,0.0012269114464521407,-0.0050192894667387
1772527321920560400,10.002560302734375,0.09571487491428851,-0.023574936854839322,0.025939912420511243
1772527321930557400,10.012557373046874,0.03015972207263112,-0.05622048439383506,0.0599864127986133
1772527321940555300,10.02255517578125,-0.051100657162070275,-0.07041618300676346,0.08108385362401604
1772527321950553300,10.03255322265625,-0.09838891642913222,-0.07941957367360591,0.10607917867079376
1772527321960551400,10.042551513671874,-0.09886749372631311,-0.07366261758208274,0.10785101064890623
1772527321970549200,10.05254931640625,-0.07475771934241056,-0.04606149395108223,0.09078004886060953
1772527321980547300,10.06254736328125,-0.002948328411579132,-0.016101239973306654,0.060791153310239314
1772527321990545400,10.07254541015625,0.04581599475741386,0.011097732597589493,0.03972980671152472
1772527322000542500,10.08254248046875,0.08652399885132908,0.022458500045537948,0.02378478021323681
1772527322010540500,10.09254052734375,0.08210077558159827,0.017868834167718887,0.0007959726832807064
1772527322020538400,10.102538330078126,0.07684256279245019,0.008280337089300155,0.006216244166344404
1772527322030536400,10.112536376953125,0.06355506506562232,0.0037532150536775588,-0.008209609940648078
1772527322040534500,10.122534423828125,0.05570318252146244,-0.02964870381057262,0.00983078140169382
1772527322050532400,10.132532470703126,0.050277211949974296,-0.04044716120064258,0.03850362591743469
1772527322060530400,10.142530517578125,0.03204085964411497,-0.035460020437836644,0.051131929083168506
1772527322070528500,10.152528564453124,0.030974545586854217,-0.027896891707181928,0.04695055174529552
1772527322080525300,10.162525390625,0.031602175965905185,-0.00693944387435913,0.037345541923493146
1772527322090523400,10.1725234375,0.0457021591193974,0.006404606345295906,0.05748802011162042
1772527322100521200,10.182521240234376,0.0535980269357562,0.005531915163993835,0.06301409005671739
1772527322110519300,10.192519287109375,0.033715514858067036,0.03604629589319229,0.07059431605264543
1772527322120517400,10.202517333984375,0.07748685204535723,-0.007266191610693931,0.08480389706045388
1772527322130515500,10.212515380859376,0.1277469667300582,-0.04612403779327869,0.09117577017992734
1772527322140513500,10.222513427734375,0.07036693703755736,-0.0025578677892684936,0.06668284169733524
1772527322150510300,10.23251025390625,0.040080665975809095,0.03198737589120865,0.06180939044207334
1772527322160508400,10.24250830078125,0.05862491518706083,0.04212941519916057,0.046974078751355404
1772527322170506500,10.252506591796875,0.09477408693283795,0.01401098969578743,0.05119111192449927
