time,seconds_elapsed,z,y,x
1772527311982677500,0.064677490234375,-0.0008151885122060776,0.1043069064617157,-0.01890571042895317
1772527311992675600,0.074675537109375,-0.009091227315366268,0.11471214890480042,-0.012770853005349636
1772527312002673400,0.08467333984375,-0.00652293860912323,0.11221318691968918,-0.017572883516550064
1772527312012670500,0.09467041015625,-0.01049424521625042,0.0877603068947792,-0.014620236121118069
1772527312022668500,0.10466845703125,-0.01795429177582264,0.046529512852430344,-0.003611260326579213
1772527312032666400,0.114666259765625,-0.01916336640715599,0.037820443511009216,0.002155016176402569
1772527312042664400,0.12466455078125,-0.01869370974600315,0.045547161251306534,-0.0022113677114248276
1772527312052662500,0.13466259765625,-0.017446817830204964,0.05206338316202164,-0.01155267097055912
1772527312062660400,0.144660400390625,-0.02223878726363182,0.04163600504398346,-0.012536458671092987
1772527312072658400,0.154658447265625,-0.01885097846388817,-0.0034134946763515472,-0.000422006007283926
1772527312082656300,0.16465625,-0.019712386652827263,-0.08723423629999161,0.04740970954298973
1772527312092654600,0.174654541015625,-0.014709372073411942,-0.1613854169845581,0.09775970131158829
1772527312102651600,0.184651611328125,-0.0019287383183836937,-0.2079455554485321,0.1359596848487854
1772527312112649500,0.1946494140625,0.012279759161174297,-0.23402881622314453,0.15642820298671722
1772527312122647600,0.2046474609375,0.025433745235204697,-0.2519319951534271,0.16298526525497437
1772527312132645600,0.214645751953125,0.038068581372499466,-0.2767380177974701,0.1500399112701416
1772527312142643500,0.2246435546875,0.06459896266460419,-0.28317198157310486,0.13944809138774872
1772527312152641500,0.2346416015625,0.08284081518650055,-0.28749269247055054,0.13592925667762756
1772527312162639400,0.244639404296875,0.0929655134677887,-0.25539684295654297,0.13317930698394775
1772527312172637400,0.254637451171875,0.09325366467237473,-0.21023495495319366,0.12824739515781403
1772527312182635500,0.264635498046875,0.0757577121257782,-0.17559389770030975,0.09859901666641235
1772527312192632300,0.27463232421875,0.05746045708656311,-0.13654743134975433,0.07338181138038635
1772527312202630400,0.28463037109375,0.061090610921382904,-0.09534246474504471,0.07659731805324554
1772527312212628500,0.29462841796875,0.05679333955049515,-0.062403421849012375,0.08727233111858368
1772527312222626600,0.30462646484375,0.041711609810590744,-0.01612783409655094,0.07069925218820572
1772527312232624600,0.314624755859375,0.02539202570915222,0.02877519279718399,0.028719309717416763
1772527312242622700,0.324622802734375,0.004238568712025881,0.05386805906891823,-0.02170722186565399
1772527312252620500,0.33462060546875,0.011281298473477364,0.07715819776058197,-0.0497196801006794
1772527312262618600,0.34461865234375,0.025201208889484406,0.0877242311835289,-0.054041098803281784
1772527312272615400,0.354615478515625,0.02740124613046646,0.06944110244512558,-0.03511055186390877
1772527312282613500,0.364613525390625,0.03406801074743271,0.0342465415596962,-0.009106448851525784
1772527312292611600,0.374611572265625,0.05224728211760521,0.012962290085852146,0.015768807381391525
1772527312302609400,0.384609375,0.08186076581478119,0.02968602068722248,0.027358271181583405
1772527312312607500,0.394607421875,0.060226570814847946,0.0002458379603922367,0.03875899687409401
1772527312322605600,0.40460546875,0.051134709268808365,-0.02112889662384987,0.05803219601511955
1772527312332603400,0.414603271484375,0.0456499308347702,-0.015632398426532745,0.06194465234875679
1772527312342601500,0.4246015625,0.034966275095939636,-0.006444875616580248,0.056549787521362305
1772527312352599300,0.434599365234375,0.04444632679224014,0.0005267472006380558,0.0552498996257782
1772527312362596600,0.4445966796875,0.055678509175777435,0.01010142918676138,0.045145876705646515
1772527312372594700,0.4545947265625,0.04578406736254692,0.019931688904762268,0.025833431631326675
1772527312382592500,0.464592529296875,0.03465639799833298,0.028280938044190407,0.004772322718054056
1772527312392590600,0.474590576171875,0.030530093237757683,0.02192024514079094,-0.008256926201283932
1772527312402588700,0.484588623046875,0.040554292500019073,0.00982982013374567,-0.0017419876530766487
1772527312412586500,0.49458642578125,0.048512086272239685,0.01427543442696333,0.0031033679842948914
1772527312422584600,0.50458447265625,0.05556030943989754,0.003621308133006096,0.014031675644218922
1772527312432582400,0.51458251953125,0.057043157517910004,0.0036993389949202538,0.0363851860165596
1772527312442579500,0.524579345703125,0.05493199825286865,-0.008147642947733402,0.05933930352330208
1772527312452577500,0.53457763671875,0.05212102830410004,-0.011713082902133465,0.08343026041984558
1772527312462575400,0.544575439453125,0.048183687031269073,-0.003086806507781148,0.09494924545288086
1772527312472573400,0.554573486328125,0.04179396480321884,0.015665842220187187,0.08022116869688034
1772527312482571500,0.564571533203125,0.026421602815389633,0.015798140317201614,0.05666598677635193
1772527312492569300,0.5745693359375,0.022227657958865166,0.0001584608107805252,0.028448734432458878
1772527312502567400,0.5845673828125,0.010023096576333046,0.010244238190352917,0.00764387845993042
1772527312512565500,0.5945654296875,0.0003329189494252205,0.004747473634779453,0.013910030946135521
1772527312522563600,0.6045634765625,0.014307579025626183,-0.011724828742444515,0.03080310858786106
1772527312532560600,0.614560546875,0.0200717244297266,-0.01575712114572525,0.05059252679347992
1772527312542558500,0.624558349609375,0.031110703945159912,-0.01657133921980858,0.07928308099508286
1772527312552556500,0.634556640625,0.03565245866775513,-0.008618340827524662,0.10484010726213455
1772527312562554600,0.6445546875,0.033508479595184326,-0.0031615523621439934,0.11268389970064163
1772527312572552400,0.654552490234375,0.04227320849895477,0.04455803334712982,0.11448179930448532
1772527312582550500,0.664550537109375,0.0479731447994709,0.09013054519891739,0.1111079528927803
1772527312592548600,0.674548583984375,0.04830896854400635,0.1166662871837616,0.11378416419029236
1772527312602546400,0.68454638671875,0.05570828169584274,0.17791487276554108,0.14125585556030273
1772527312612543500,0.69454345703125,0.06668689846992493,0.2596704661846161,0.18055851757526398
1772527312622541300,0.704541259765625,0.09199921786785126,0.3473415970802307,0.20444126427173615
1772527312632539400,0.714539306640625,0.06531940400600433,0.42659515142440796,0.25610125064849854
1772527312642537500,0.724537353515625,0.0698738619685173,0.49581360816955566,0.29214704036712646
1772527312652535600,0.73453564453125,0.05210977420210838,0.6076386570930481,0.291803240776062
1772527312662533600,0.74453369140625,0.026048680767416954,0.6229772567749023,0.28521040081977844
1772527312672531700,0.75453173828125,0.05152474343776703,0.6056510210037231,0.2395470291376114
1772527312682529500,0.764529541015625,0.04803537577390671,0.4889391362667084,0.21099717915058136
1772527312692526600,0.774526611328125,0.04179719090461731,0.32900887727737427,0.17127878963947296
1772527312702523400,0.7845234375,0.028592582792043686,0.21852192282676697,0.14373041689395905
1772527312712521200,0.794521240234375,0.011724120937287807,0.14005960524082184,0.1215532198548317
1772527312722519300,0.804519287109375,0.009645625948905945,0.1194315031170845,0.07952409982681274
1772527312732517400,0.814517333984375,-0.0087083475664258,0.12126455456018448,0.020631488412618637
1772527312742515200,0.82451513671875,-0.02009328454732895,0.14259697496891022,-0.007530053146183491
1772527312752513500,0.834513427734375,-0.016382437199354172,0.1325049251317978,-0.01688414067029953
1772527312762511400,0.844511474609375,-0.01128541398793459,0.08836383372545242,-0.013941880315542221
1772527312772509400,0.854509521484375,-0.008940935134887695,0.05376313254237175,-0.01429903693497181
1772527312782506500,0.864506591796875,-0.007275638170540333,0.018318023532629013,-0.01907750591635704
1772527312792504300,0.87450439453125,-0.008579256944358349,0.011391673237085342,-0.036551039665937424
1772527312802502400,0.88450244140625,-0.009338824078440666,0.03789350017905235,-0.0544668473303318
1772527312812500500,0.89450048828125,-0.014691244810819626,0.056143876165151596,-0.06270480901002884
1772527312822498300,0.904498291015625,-0.01857639104127884,0.05139128863811493,-0.06213262304663658
1772527312832496400,0.914496337890625,-0.01701258309185505,0.044321656227111816,-0.04513579607009888
1772527312842494500,0.924494384765625,-0.01825340837240219,0.047423385083675385,-0.013815738260746002
1772527312852492300,0.9344921875,-0.021443340927362442,0.05276329070329666,0.02555110678076744
1772527312862489300,0.9444892578125,-0.029544668272137642,0.0695248618721962,0.046384409070014954
1772527312872487400,0.9544873046875,-0.05142466723918915,0.09371914714574814,0.03945299983024597
1772527312882485500,0.964485595703125,-0.07008785009384155,0.13463999330997467,0.012578200548887253
1772527312892483600,0.974483642578125,-0.0887153297662735,0.15672025084495544,-0.0019613271579146385
1772527312902481400,0.9844814453125,-0.08987356722354889,0.15723055601119995,0.0067860521376132965
1772527312912479500,0.9944794921875,-0.06912034749984741,0.13347436487674713,0.020327692851424217
1772527312922477600,1.0044775390625,-0.04939154163002968,0.10157021135091782,0.03405481576919556
1772527312932475400,1.014475341796875,-0.037042465060949326,0.0663834661245346,0.05074138566851616
1772527312942473500,1.024473388671875,-0.028277061879634857,0.035112183541059494,0.06429728120565414
1772527312952470300,1.03447021484375,-0.01914055272936821,0.02201955020427704,0.08324433863162994
1772527312962468400,1.04446826171875,-0.0141416871920228,-0.0037462071049958467,0.08839379996061325
1772527312972466400,1.054466552734375,-0.008155434392392635,-0.022505512461066246,0.09348070621490479
1772527312982464300,1.06446435546875,-0.005674924701452255,-0.008540814742445946,0.08893393725156784
1772527312992462300,1.07446240234375,-0.011048651300370693,-0.013791237026453018,0.07404713332653046
1772527313002460400,1.08446044921875,-0.016898278146982193,-0.010119209066033363,0.06541061401367188
1772527313012458200,1.094458251953125,-0.01140657253563404,-0.022095177322626114,0.057217665016651154
1772527313022456300,1.104456298828125,0.00351023580878973,-0.026243673637509346,0.043312035501003265
1772527313032453400,1.114453369140625,0.013121318072080612,-0.03138144314289093,0.03739821910858154
1772527313042451500,1.124451416015625,0.02473411336541176,-0.039278220385313034,0.03525952249765396
1772527313052449500,1.134449462890625,0.028641771525144577,-0.05764417722821236,0.036185771226882935
1772527313062447400,1.144447265625,0.04363618418574333,-0.0657903403043747,0.03982125222682953
1772527313072445400,1.154445556640625,0.06443414092063904,-0.055394161492586136,0.04494251310825348
1772527313082443500,1.164443603515625,0.07992701977491379,-0.03713905066251755,0.053595609962940216
1772527313092441300,1.17444140625,0.08808135241270065,-0.01917389966547489,0.05903644859790802
1772527313102439400,1.184439453125,0.09594090282917023,-0.004251377657055855,0.054703377187252045
1772527313112436200,1.194436279296875,0.11233106255531311,0.008522474206984043,0.045974332839250565
1772527313122434300,1.204434326171875,0.12578213214874268,0.02749619632959366,0.0238234493881464
1772527313132432400,1.214432373046875,0.12949058413505554,0.05123161897063255,-0.00828361976891756
1772527313142430200,1.22443017578125,0.12381099909543991,0.07658979296684265,-0.032129161059856415
1772527313152428300,1.23442822265625,0.10944617539644241,0.08883820474147797,-0.049882858991622925
1772527313162426400,1.24442626953125,0.08655455708503723,0.11508456617593765,-0.05724382400512695
1772527313172424200,1.254424072265625,0.0666399747133255,0.13722316920757294,-0.06756889820098877
1772527313182422300,1.26442236328125,0.03399531543254852,0.15357305109500885,-0.07117179781198502
1772527313192420600,1.274420654296875,0.004955942276865244,0.1641860157251358,-0.06584148108959198
1772527313202417400,1.28441748046875,-0.021981991827487946,0.17462794482707977,-0.05024232715368271
1772527313212415500,1.29441552734375,-0.041059281677007675,0.16757935285568237,-0.03460877388715744
1772527313222413300,1.304413330078125,-0.05068053677678108,0.15256285667419434,-0.019375156611204147
1772527313232411400,1.314411376953125,-0.042328327894210815,0.13505470752716064,-0.002779935020953417
1772527313242409500,1.324409423828125,-0.02369598299264908,0.11086725443601608,0.0046273162588477135
1772527313252407300,1.3344072265625,-0.00583922304213047,0.07469060271978378,0.010203177109360695
1772527313262405400,1.3444052734375,0.006848169490695,0.04343615844845772,0.021568190306425095
1772527313272403500,1.354403564453125,0.003919757436960936,0.024471523240208626,0.02533603087067604
1772527313282400300,1.364400146484375,-0.009734793566167355,0.013263936154544353,0.007890578359365463
1772527313292398300,1.3743984375,-0.024203483015298843,0.01657744124531746,-0.023197298869490623
1772527313302396400,1.384396484375,-0.04295071214437485,0.027809472754597664,-0.051619380712509155
1772527313312394500,1.39439453125,-0.05709342658519745,0.04004297032952309,-0.06638740748167038
1772527313322392600,1.404392578125,-0.07484246045351028,0.047307297587394714,-0.0744359940290451
1772527313332390400,1.414390380859375,-0.0803232416510582,0.04210507869720459,-0.06442970037460327
1772527313342388500,1.424388427734375,-0.08308129757642746,0.02644672989845276,-0.05216033756732941
1772527313352386600,1.434386474609375,-0.08420568704605103,0.018358176574110985,-0.03207824006676674
1772527313362383400,1.44438330078125,-0.08271373063325882,0.016740836203098297,-0.011679025366902351
1772527313372381400,1.45438134765625,-0.08064498752355576,0.01224675215780735,0.0068728202022612095
1772527313382379300,1.464379150390625,-0.07289209216833115,0.01574893109500408,0.01816597953438759
1772527313392377300,1.47437744140625,-0.0667300671339035,0.01921796426177025,0.019091427326202393
1772527313402375400,1.48437548828125,-0.06122470647096634,0.02069619856774807,0.02415030263364315
1772527313412373200,1.494373291015625,-0.059084855020046234,0.006619261112064123,0.023034704849123955
1772527313422371300,1.504371337890625,-0.053332313895225525,-0.003011736087501049,0.022628817707300186
1772527313432369400,1.514369384765625,-0.03813924640417099,-0.006933773402124643,0.017499037086963654
1772527313442366500,1.524366455078125,-0.02863464690744877,-0.006459523923695087,0.006017245352268219
1772527313452364500,1.534364501953125,-0.018505845218896866,0.005113509017974138,-0.0049515157006680965
1772527313462362400,1.5443623046875,-0.0011902851983904839,0.01753002405166626,-0.02211814746260643
1772527313472360400,1.5543603515625,0.008869007229804993,0.010444683954119682,-0.033950306475162506
1772527313482358500,1.564358642578125,0.014368411153554916,0.009824198670685291,-0.0371413454413414
1772527313492356400,1.5743564453125,0.020859867334365845,-0.0036988011561334133,-0.027241043746471405
1772527313502354400,1.5843544921875,0.02563394233584404,-0.035420894622802734,-0.012971585616469383
1772527313512352500,1.5943525390625,0.03039727360010147,-0.06661397218704224,0.004403675906360149
1772527313522350300,1.604350341796875,0.0270024873316288,-0.09477876126766205,0.009240311570465565
1772527313532347400,1.614347412109375,0.02328338474035263,-0.11340837180614471,0.01586146280169487
1772527313542345200,1.62434521484375,0.02085902914404869,-0.11077820509672165,0.014798544347286224
1772527313552343300,1.63434326171875,0.016186779364943504,-0.10978244990110397,0.00672277482226491
1772527313562341400,1.64434130859375,0.00992622971534729,-0.10925374925136566,-0.004270104691386223
1772527313572339200,1.654339111328125,0.00029783695936203003,-0.10468802601099014,-0.004362249746918678
1772527313582337300,1.664337158203125,-0.009754745289683342,-0.10588432103395462,0.0071342806331813335
1772527313592335400,1.67433544921875,-0.017302675172686577,-0.10787130892276764,0.026367897167801857
1772527313602333200,1.684333251953125,-0.011322611942887306,-0.08470272272825241,0.039144862443208694
1772527313612330500,1.69433056640625,-0.008560648187994957,-0.0669679343700409,0.04254358634352684
1772527313622328300,1.704328369140625,-0.00021682772785425186,-0.05386009067296982,0.04265758767724037
1772527313632326400,1.714326416015625,0.0073510766960680485,-0.04871193319559097,0.0356268435716629
1772527313642324500,1.724324462890625,0.013056928291916847,-0.04707539081573486,0.030260730534791946
1772527313652322300,1.734322265625,0.02010951191186905,-0.05754987150430679,0.022244349122047424
1772527313662320400,1.7443203125,0.03430230915546417,-0.07955385744571686,0.022933993488550186
1772527313672318500,1.754318359375,0.04826526343822479,-0.10576149076223373,0.03264547884464264
1772527313682316300,1.76431640625,0.059099387377500534,-0.11953544616699219,0.0447736456990242
1772527313692313300,1.774313232421875,0.05865224450826645,-0.12279009819030762,0.05125151574611664
1772527313702311700,1.784311767578125,0.054584041237831116,-0.12289274483919144,0.05481913313269615
1772527313712309500,1.7943095703125,0.050433505326509476,-0.125809445977211,0.042796291410923004
1772527313722307600,1.8043076171875,0.03602218255400658,-0.11548276990652084,0.0236198753118515
1772527313732305700,1.8143056640625,0.034871961921453476,-0.10816439986228943,0.00656898831948638
1772527313742303500,1.824303466796875,0.03432802855968475,-0.09732918441295624,-0.002126329578459263
1772527313752301600,1.834301513671875,0.034993551671504974,-0.08638466149568558,-0.006327466107904911
1772527313762300000,1.8442998046875,0.029493212699890137,-0.056113626807928085,-0.01249079778790474
1772527313772296700,1.854296630859375,0.0268004909157753,-0.02010183222591877,-0.01760033890604973
1772527313782294800,1.864294677734375,0.026843950152397156,0.006760405842214823,-0.015959102660417557
1772527313792292600,1.874292724609375,0.02747432142496109,0.016280407086014748,-0.007500370033085346
1772527313802290700,1.884290771484375,0.023483820259571075,0.017975009977817535,0.002225987147539854
1772527313812288800,1.894288818359375,0.014384331181645393,0.02768116630613804,0.014303155243396759
1772527313822286600,1.90428662109375,0.005293712951242924,0.04371102899312973,0.02186449058353901
1772527313832284700,1.91428466796875,-0.0050886208191514015,0.05678688362240791,0.01886550337076187
1772527313842282800,1.92428271484375,-0.009191209450364113,0.04640226811170578,0.020166877657175064
1772527313852280600,1.934280517578125,-0.013016574084758759,0.028445906937122345,0.012826940044760704
1772527313862277600,1.944277587890625,-0.019899791106581688,0.028872428461909294,-0.003742602188140154
1772527313872275700,1.954275634765625,-0.02778487838804722,0.03788989037275314,-0.02138817496597767
1772527313882273800,1.964273681640625,-0.035559751093387604,0.04847847297787666,-0.03444809466600418
1772527313892271900,1.97427197265625,-0.05418004095554352,0.062445420771837234,-0.03770407661795616
1772527313902269700,1.984269775390625,-0.04691510647535324,0.06947477906942368,-0.04936729744076729
1772527313912267800,1.994267822265625,-0.03810616582632065,0.06076117604970932,-0.05328880250453949
1772527313922265900,2.004265869140625,-0.03588837757706642,0.03718971461057663,-0.03804054483771324
1772527313932263700,2.014263671875,-0.026096198707818985,0.02252182364463806,-0.026390280574560165
1772527313942260700,2.0242607421875,-0.018089907243847847,0.015944911167025566,-0.014929210767149925
1772527313952258600,2.034258544921875,-0.010327590629458427,0.010645486414432526,-0.01164420135319233
1772527313962256600,2.044256591796875,-0.00828516110777855,0.0066845654509961605,-0.009310276247560978
1772527313972254700,2.054254638671875,-0.006956510245800018,-0.0023078646045178175,-0.011467170901596546
1772527313982252500,2.06425244140625,-0.0030637988820672035,-0.010664896108210087,-0.022651804611086845
1772527313992250600,2.074250732421875,-0.0007404573261737823,-0.0097530297935009,-0.023243293166160583
1772527314002248700,2.084248779296875,0.003984828945249319,-0.014006536453962326,-0.021201172843575478
1772527314012246500,2.09424658203125,0.007192074321210384,-0.02192011848092079,-0.01826077699661255
1772527314022243800,2.104243896484375,0.006707124412059784,-0.0206504724919796,-0.030144447460770607
1772527314032241700,2.11424169921875,0.004029315896332264,-0.013341693207621574,-0.04537373408675194
1772527314042239700,2.12423974609375,-0.00033814460039138794,-0.013388121500611305,-0.050332408398389816
1772527314052237800,2.13423779296875,-0.002476130612194538,-0.016280315816402435,-0.03550099954009056
1772527314062235600,2.144235595703125,-0.0016341740265488625,-0.029298674315214157,-0.015368849970400333
1772527314072233700,2.154233642578125,-0.0009963475167751312,-0.03983413800597191,0.0006540585309267044
1772527314082231800,2.164231689453125,-0.004542927257716656,-0.032639019191265106,0.010463116690516472
1772527314092229600,2.174229736328125,-0.009861527010798454,-0.022183716297149658,0.018047267571091652
1772527314102226700,2.184226806640625,-0.01983831264078617,-0.008037800900638103,0.018243080005049706
1772527314112224500,2.194224609375,-0.02038239687681198,-0.004685147199779749,0.02494945377111435
1772527314122222600,2.20422265625,-0.017286360263824463,-0.002987855114042759,0.026624027639627457
1772527314132220700,2.214220703125,-0.013778976164758205,-0.000867979135364294,0.024011731147766113
1772527314142218500,2.224218505859375,-0.014683590270578861,0.009971998631954193,0.010378561913967133
1772527314152216600,2.234216552734375,-0.010689380578696728,0.019484277814626694,-0.008309106342494488
1772527314162214700,2.244214599609375,-0.014391308650374413,0.029478827491402626,-0.013262071646749973
1772527314172212500,2.25421240234375,-0.009553942829370499,0.0364411324262619,-0.0017343126237392426
1772527314182209800,2.264209716796875,0.0011357199400663376,0.03894077613949776,0.016616731882095337
1772527314192207600,2.27420751953125,0.01914374902844429,0.02668117918074131,0.03952151536941528
1772527314202205700,2.284205810546875,0.034901488572359085,0.016545481979846954,0.06076616793870926
1772527314212203800,2.294203857421875,0.045731768012046814,0.0015023509040474892,0.07536135613918304
1772527314222201600,2.30420166015625,0.05622600018978119,-0.0017694002017378807,0.08470015972852707
1772527314232199700,2.31419970703125,0.061252184212207794,0.007817447185516357,0.07677485793828964
1772527314242197800,2.32419775390625,0.05799124762415886,-0.015890812501311302,0.06395932286977768
1772527314252195600,2.334195556640625,0.050447043031454086,-0.043164514005184174,0.05552322790026665
1772527314262192600,2.344192626953125,0.04379022866487503,-0.07504237443208694,0.050272807478904724
1772527314272190500,2.3541904296875,0.04404429346323013,-0.06732479482889175,0.04142152518033981
1772527314282188500,2.3641884765625,0.035050779581069946,-0.04538026079535484,0.02455998584628105
1772527314292186600,2.3741865234375,0.031005170196294785,-0.03259469196200371,0.01726212538778782
1772527314302184700,2.384184814453125,0.026677576825022697,-0.03580817952752113,0.025338737294077873
1772527314312182800,2.394182861328125,0.023777659982442856,-0.035099513828754425,0.03803908824920654
1772527314322180900,2.404180908203125,0.02558191865682602,-0.03402182087302208,0.0477871298789978
1772527314332178700,2.4141787109375,0.034463025629520416,-0.044281382113695145,0.06492350250482559
1772527314342176800,2.4241767578125,0.040468353778123856,-0.0671197921037674,0.0913611501455307
1772527314352173600,2.434173583984375,0.04970286786556244,-0.08505911380052567,0.11306218057870865
1772527314362171600,2.444171630859375,0.05684131383895874,-0.0879906639456749,0.13573257625102997
1772527314372169700,2.454169677734375,0.05372222140431404,-0.06613436341285706,0.1399797797203064
1772527314382167600,2.46416748046875,0.04497196897864342,-0.038443468511104584,0.12996256351470947
1772527314392165600,2.47416552734375,0.03828823193907738,-0.01536477915942669,0.12620270252227783
1772527314402163700,2.484163818359375,0.03199557214975357,0.004346782807260752,0.11314695328474045
1772527314412161500,2.49416162109375,0.028602171689271927,0.04419912397861481,0.08981286734342575
1772527314422159600,2.50415966796875,0.01779196970164776,0.08621256053447723,0.057810015976428986
1772527314432156700,2.51415673828125,0.010814754292368889,0.1031971350312233,0.03553587198257446
1772527314442154800,2.52415478515625,-0.006746692582964897,0.11558108031749725,0.008277727290987968
1772527314452152800,2.53415283203125,-0.029920190572738647,0.153182253241539,-0.01307443156838417
1772527314462150700,2.544150634765625,-0.06298017501831055,0.17479529976844788,-0.019789518788456917
1772527314472148700,2.554148681640625,-0.056176863610744476,0.15822377800941467,-0.018023842945694923
1772527314482146800,2.564146728515625,-0.03435186669230461,0.14111262559890747,-0.01503031887114048
1772527314492144600,2.57414453125,-0.02261877804994583,0.11856044083833694,-0.009127155877649784
1772527314502142700,2.584142822265625,-0.018274888396263123,0.09885747730731964,-0.0056390236131846905
1772527314512139500,2.594139404296875,-0.005627268925309181,0.07698865979909897,-0.010364536195993423
1772527314522137600,2.6041376953125,-0.001817295327782631,0.054530974477529526,-0.019317125901579857
1772527314532135700,2.6141357421875,-0.010477361269295216,0.021669965237379074,-0.027067458257079124
1772527314542133500,2.624133544921875,-0.012308276258409023,-0.0019010258838534355,-0.03183942288160324
1772527314552131600,2.634131591796875,-0.01487423200160265,-0.016538824886083603,-0.03087482415139675
1772527314562129700,2.644129638671875,-0.018537789583206177,-0.017787959426641464,-0.019870391115546227
1772527314572127500,2.65412744140625,-0.015744667500257492,0.0007087602280080318,-0.004120723344385624
1772527314582125600,2.66412548828125,-0.015630047768354416,0.028781138360500336,-0.0026752986013889313
1772527314592122600,2.67412255859375,-0.019854620099067688,0.053323231637477875,-0.007226374465972185
1772527314602120700,2.68412060546875,-0.014214688912034035,0.066965751349926,-0.015049654990434647
1772527314612118800,2.694118896484375,-0.01931011490523815,0.07168460637331009,-0.01627284474670887
1772527314622116600,2.70411669921875,-0.026345757767558098,0.0759054496884346,-0.02230609580874443
1772527314632114700,2.71411474609375,-0.03322044014930725,0.08756636828184128,-0.020171040669083595
1772527314642112800,2.72411279296875,-0.036561377346515656,0.09798359125852585,-0.02482145093381405
1772527314652110600,2.734110595703125,-0.04586672782897949,0.10848070681095123,-0.03487861528992653
1772527314662108700,2.744108642578125,-0.05336733162403107,0.11036103218793869,-0.038812533020973206
1772527314672105500,2.75410546875,-0.061355747282505035,0.10807178169488907,-0.03969377279281616
1772527314682103600,2.764103515625,-0.06907179951667786,0.09938798099756241,-0.028396733105182648
1772527314692101600,2.7741015625,-0.0697311982512474,0.10022953897714615,-0.01943359710276127
1772527314702099500,2.784099365234375,-0.07385669648647308,0.09408063441514969,-0.014362821355462074
1772527314712097500,2.79409765625,-0.0753462016582489,0.09864769130945206,-0.009305479004979134
1772527314722095600,2.804095703125,-0.07210895419120789,0.10769382864236832,-0.013372862711548805
1772527314732093700,2.81409375,-0.06603055447340012,0.11311335861682892,-0.01760675571858883
1772527314742091800,2.824091796875,-0.06136481463909149,0.0885932520031929,-0.009868422523140907
1772527314752088600,2.834088623046875,-0.0500895194709301,0.05327680706977844,0.008662384934723377
1772527314762086700,2.844086669921875,-0.03929094225168228,0.03402289003133774,0.021035579964518547
1772527314772084700,2.854084716796875,-0.02858024090528488,0.023649079725146294,0.024450285360217094
1772527314782082600,2.86408251953125,-0.015909269452095032,0.005934502463787794,0.029995162039995193
1772527314792080600,2.87408056640625,0.00011284090578556061,-0.008603161200881004,0.025980979204177856
1772527314802078700,2.88407861328125,0.010892529040575027,-0.017164574936032295,0.01615513674914837
1772527314812076500,2.89407666015625,0.022081000730395317,-0.02881244383752346,0.01760522834956646
1772527314822074600,2.90407470703125,0.024892784655094147,-0.03406428173184395,0.015241408720612526
1772527314832071400,2.914071533203125,0.025043785572052002,-0.03733890503644943,0.018839340656995773
1772527314842069500,2.924069580078125,0.02372303232550621,-0.03678132966160774,0.017850570380687714
1772527314852067600,2.934067626953125,0.02288626879453659,-0.03039560467004776,0.015742411836981773
1772527314862065700,2.944065673828125,0.01852726936340332,-0.02097993530333042,0.009638494811952114
1772527314872063700,2.954063720703125,0.032158657908439636,-0.009805046021938324,-0.0011853915639221668
1772527314882061800,2.964061767578125,0.025077322497963905,-0.010116519406437874,-0.0039240336045622826
1772527314892059600,2.9740595703125,0.034163229167461395,-0.012861439026892185,-0.0036843488924205303
1772527314902057700,2.9840576171875,0.03602488338947296,-0.02618475817143917,0.0029661888256669044
1772527314912054500,2.994054443359375,0.037487223744392395,-0.03329619765281677,0.007726589217782021
1772527314922052600,3.004052490234375,0.03324718028306961,-0.03663177788257599,0.0059691304340958595
1772527314932050700,3.01405078125,0.03427889198064804,-0.0431906096637249,-0.004132772795855999
1772527314942048500,3.024048583984375,0.025568103417754173,-0.047555916011333466,-0.01781911961734295
1772527314952046600,3.034046630859375,0.020234590396285057,-0.04859162122011185,-0.031172476708889008
1772527314962044700,3.044044677734375,0.012358689680695534,-0.0337972566485405,-0.04609258472919464
1772527314972042500,3.05404248046875,0.0027976748533546925,-0.014886680990457535,-0.06011652946472168
1772527314982040600,3.06404052734375,-0.008778933435678482,0.00245922664180398,-0.0698855072259903
1772527314992037600,3.07403759765625,-0.013363564386963844,0.0038986648432910442,-0.07579852640628815
1772527315002035700,3.08403564453125,-0.017160922288894653,0.014796627685427666,-0.07458975166082382
1772527315012033800,3.09403369140625,-0.022523995488882065,0.016463765874505043,-0.06521941721439362
1772527315022031600,3.104031494140625,-0.024419542402029037,0.012543844059109688,-0.05535634979605675
1772527315032029700,3.11402978515625,-0.024776939302682877,-0.0044782813638448715,-0.050115250051021576
1772527315042027800,3.12402783203125,-0.025882797315716743,-0.023429129272699356,-0.04713036119937897
1772527315052025600,3.134025634765625,-0.024626052007079124,-0.04218390956521034,-0.045978009700775146
1772527315062023700,3.144023681640625,-0.02259264886379242,-0.03307214006781578,-0.03978021442890167
1772527315072021800,3.154021728515625,-0.017789103090763092,-0.03162391483783722,-0.035693325102329254
1772527315082018600,3.1640185546875,-0.009576478973031044,-0.03068491443991661,-0.029514683410525322
1772527315092016600,3.1740166015625,0.006889047101140022,-0.030939515680074692,-0.031989291310310364
1772527315102014500,3.184014404296875,0.02249390259385109,-0.031876083463430405,-0.032903507351875305
1772527315112012500,3.194012451171875,0.03952375426888466,-0.04664890468120575,-0.030547942966222763
1772527315122010600,3.2040107421875,0.041259367018938065,-0.062127962708473206,-0.02448936179280281
1772527315132008400,3.214008544921875,0.04678089916706085,-0.0769180953502655,-0.015682553872466087
1772527315142006500,3.224006591796875,0.04804697260260582,-0.09201863408088684,-0.007981603033840656
1772527315152003600,3.234003662109375,0.04563121870160103,-0.1088721826672554,-0.0016478071920573711
1772527315162001700,3.244001708984375,0.04548388347029686,-0.10641894489526749,0.0054092565551400185
1772527315171999700,3.253999755859375,0.04072694480419159,-0.09697644412517548,0.00010051112622022629
1772527315181997600,3.26399755859375,0.03554750978946686,-0.09261249005794525,0.00040930602699518204
1772527315191995600,3.27399560546875,0.03313574939966202,-0.08499425649642944,0.0021371650509536266
1772527315201993700,3.28399365234375,0.035757631063461304,-0.07798294723033905,0.007681600283831358
1772527315211991600,3.293991455078125,0.048113636672496796,-0.06801500916481018,0.020852530375123024
1772527315221989600,3.30398974609375,0.06583680957555771,-0.07002441585063934,0.03250368312001228
1772527315231986400,3.313986328125,0.07173171639442444,-0.075110524892807,0.04402478411793709
1772527315241984500,3.323984619140625,0.0704202800989151,-0.07422729581594467,0.05017990618944168
1772527315251982600,3.333982666015625,0.07175212353467941,-0.07688699662685394,0.052484072744846344
1772527315261980400,3.34398046875,0.07663044333457947,-0.08960577845573425,0.060387492179870605
1772527315271978500,3.353978515625,0.08420634269714355,-0.09784719347953796,0.059835419058799744
1772527315281976600,3.3639765625,0.09127544611692429,-0.0907372385263443,0.04759221896529198
1772527315291974700,3.373974609375,0.09390345215797424,-0.08568069338798523,0.03146757930517197
1772527315301972700,3.38397265625,0.09255237132310867,-0.07632539421319962,0.02116425707936287
1772527315311969500,3.393969482421875,0.08259481191635132,-0.06711138784885406,0.009288955479860306
1772527315321967600,3.403967529296875,0.07391748577356339,-0.059473711997270584,0.0026115430518984795
1772527315331965700,3.413965576171875,0.06028902158141136,-0.04856327176094055,0.01203220896422863
1772527315341963500,3.423963623046875,0.06793126463890076,-0.05449250340461731,0.020519327372312546
1772527315351961600,3.433961669921875,0.0633530244231224,-0.04807668179273605,0.02879856340587139
1772527315361959700,3.443959716796875,0.05351433902978897,-0.03489244356751442,0.0358470156788826
1772527315371957500,3.45395751953125,0.038866154849529266,-0.020434409379959106,0.03767607361078262
1772527315381955600,3.46395556640625,0.025608059018850327,-0.0040637725032866,0.03504900634288788
1772527315391952600,3.47395263671875,0.014470983296632767,-0.00034972839057445526,0.032083574682474136
1772527315401950700,3.48395068359375,0.002505342476069927,0.005642325151711702,0.01935894601047039
1772527315411948800,3.49394873046875,-0.013341797515749931,0.011399812996387482,0.013424623757600784
1772527315421946600,3.503946533203125,-0.02445169910788536,0.020992103964090347,0.011301171034574509
1772527315431944700,3.51394482421875,-0.03231601044535637,0.028065990656614304,0.004396393895149231
1772527315441942800,3.52394287109375,-0.030703958123922348,0.036691583693027496,-0.0054825590923428535
1772527315451940600,3.533940673828125,-0.028702590614557266,0.03569529578089714,-0.013333290815353394
1772527315461938700,3.543938720703125,-0.022331133484840393,0.035573650151491165,-0.01889452524483204
1772527315471935500,3.553935546875,-0.014392250217497349,0.03640242666006088,-0.0191336777061224
1772527315481933600,3.56393359375,-0.002513374201953411,0.027667582035064697,-0.010767378844320774
1772527315491931600,3.573931640625,0.0043975287117064,0.015127556398510933,-0.00014562765136361122
1772527315501929500,3.583929443359375,0.016110161319375038,0.004960669204592705,0.007192111108452082
1772527315511927600,3.593927490234375,0.022536903619766235,0.000528902281075716,0.014522729441523552
1772527315521925600,3.603925537109375,0.026388775557279587,-0.007775540929287672,0.020516039803624153
1772527315531923500,3.61392333984375,0.03264667093753815,-0.009951876476407051,0.020218832418322563
1772527315541921500,3.623921630859375,0.032561831176280975,-0.021668659523129463,0.018907468765974045
1772527315551918600,3.633918701171875,0.03365878760814667,-0.03507208451628685,0.014012046158313751
1772527315561916700,3.643916748046875,0.03799385577440262,-0.05149092152714729,0.013150511309504509
1772527315571914800,3.653914794921875,0.03625614196062088,-0.06531751900911331,0.014145735651254654
1772527315581912600,3.66391259765625,0.03922256827354431,-0.07338819652795792,0.014642175287008286
1772527315591910700,3.67391064453125,0.03555513173341751,-0.06617209315299988,0.004748266655951738
1772527315601908700,3.68390869140625,0.03160325437784195,-0.05424497649073601,-0.0003654216416180134
1772527315611906600,3.693906494140625,0.02690037712454796,-0.033468324691057205,-0.006648883689194918
1772527315621904600,3.703904541015625,0.022541256621479988,-0.02353372797369957,-0.008156813681125641
1772527315631901400,3.7139013671875,0.014598645269870758,-0.006222649477422237,-0.007254002150148153
1772527315641899500,3.7238994140625,0.0007926737889647484,0.017198696732521057,-0.007109527476131916
1772527315651897600,3.733897705078125,-0.013316220603883266,0.038730621337890625,-0.008455488830804825
1772527315661895400,3.7438955078125,-0.02845395728945732,0.053068216890096664,-0.015626896172761917
1772527315671893500,3.7538935546875,-0.039001937955617905,0.07140301167964935,-0.025673137977719307
1772527315681891600,3.7638916015625,-0.04946896806359291,0.08168350160121918,-0.03534429520368576
1772527315691889400,3.773889404296875,-0.05700305104255676,0.07700273394584656,-0.03785272687673569
1772527315701888000,3.783887939453125,-0.06550643593072891,0.06842029839754105,-0.040186747908592224
1772527315711885000,3.793885009765625,-0.06471973657608032,0.06752361357212067,-0.030071526765823364
1772527315721883100,3.803883056640625,-0.06524781137704849,0.062121693044900894,-0.017773427069187164
1772527315731881000,3.813880859375,-0.060507647693157196,0.04760267212986946,-0.01034507155418396
1772527315741879000,3.823879150390625,-0.05257157236337662,0.03075430542230606,0.0004368317313492298
1772527315751877000,3.833877197265625,-0.039130598306655884,0.007834343239665031,0.019043538719415665
1772527315761875000,3.843875,-0.025723671540617943,-0.01094026118516922,0.02225242555141449
1772527315771873000,3.853873046875,-0.008280234411358833,-0.018063418567180634,0.02176053822040558
1772527315781871000,3.86387109375,0.0061593735590577126,-0.031463589519262314,0.02059524692595005
1772527315791868000,3.873867919921875,0.019876250997185707,-0.056273866444826126,0.022724710404872894
1772527315801866000,3.883865966796875,0.031474519520998,-0.06857667118310928,0.01693521812558174
1772527315811863800,3.89386376953125,0.04222356900572777,-0.08337453007698059,0.013622511178255081
1772527315821862000,3.90386181640625,0.053878847509622574,-0.09495075047016144,0.016419963911175728
1772527315831860000,3.91385986328125,0.055083125829696655,-0.09848955273628235,0.021768124774098396
1772527315841857800,3.92385791015625,0.04920339956879616,-0.09912765026092529,0.021156663075089455
1772527315851856000,3.93385595703125,0.04338892176747322,-0.10649767518043518,0.02364458702504635
1772527315861853000,3.94385302734375,0.036611054092645645,-0.09985486418008804,0.01989792101085186
1772527315871851000,3.95385107421875,0.0325649119913578,-0.09130718559026718,0.018908023834228516
1772527315881849000,3.96384912109375,0.02993619814515114,-0.0889248475432396,0.024553101509809494
1772527315891847000,3.973846923828125,0.028788374736905098,-0.08402249962091446,0.027391767129302025
1772527315901845000,3.983844970703125,0.03039253130555153,-0.07375657558441162,0.029499903321266174
1772527315911843000,3.993843017578125,0.028200216591358185,-0.060465797781944275,0.02278847247362137
1772527315921841000,4.0038408203125,0.025926008820533752,-0.047279663383960724,0.016082651913166046
1772527315931839000,4.0138388671875,0.02236722782254219,-0.05031486973166466,0.006559986155480146
1772527315941835800,4.023835693359375,0.023100746795535088,-0.054833583533763885,0.0008490793406963348
1772527315951833900,4.033833740234375,0.02118407003581524,-0.051230061799287796,0.004743952304124832
1772527315961832000,4.04383203125,0.026634391397237778,-0.04728042706847191,0.01040741428732872
1772527315971830000,4.053830078125,0.029269322752952576,-0.04759787768125534,0.010196225717663765
1772527315981828000,4.063828125,0.03656812012195587,-0.04143492132425308,0.013027605600655079
1772527315991826200,4.073826171875,0.03489752113819122,-0.031202256679534912,0.011635837145149708
1772527316001824000,4.083823974609375,0.035663411021232605,-0.01923990249633789,0.010065213777124882
1772527316011822000,4.093822021484375,0.028370343148708344,-0.011930057778954506,0.011491336859762669
1772527316021819100,4.103819091796875,0.018271736800670624,-0.006129593122750521,0.004203800577670336
1772527316031817000,4.11381689453125,0.010011410340666771,0.004814134445041418,-0.005069060251116753
1772527316041815000,4.12381494140625,0.014711324125528336,0.018105139955878258,-0.014833963476121426
1772527316051812900,4.133812744140625,0.0059865424409508705,0.022302547469735146,-0.015542098321020603
1772527316061811000,4.14381103515625,0.0007524602115154266,0.023754334077239037,-0.012000955641269684
1772527316071809000,4.15380908203125,-0.002801261842250824,0.02744147926568985,-0.014294736087322235
1772527316081806800,4.163806884765625,-0.004541853442788124,0.032282836735248566,-0.01743973232805729
1772527316091805000,4.173804931640625,-0.007666006684303284,0.03852448612451553,-0.021194256842136383
1772527316101802000,4.183802001953125,-0.010818338952958584,0.045606579631567,-0.025258878245949745
1772527316111800000,4.193800048828125,-0.007836665026843548,0.04564280062913895,-0.026587529107928276
1772527316121798100,4.203798095703125,-0.009796601720154285,0.04495728760957718,-0.027386417612433434
1772527316131796000,4.2137958984375,-0.013263239525258541,0.04606223106384277,-0.02350699156522751
1772527316141794000,4.2237939453125,-0.014693201519548893,0.047018781304359436,-0.017359329387545586
1772527316151792000,4.233792236328125,-0.011162648908793926,0.04913865402340889,-0.010251086205244064
1772527316161790000,4.2437900390625,-0.0029166890308260918,0.05021624267101288,-0.01035510003566742
1772527316171788000,4.2537880859375,0.0012093465775251389,0.03682853281497955,-0.011206512339413166
1772527316181785000,4.26378515625,0.005036706570535898,0.02718285098671913,-0.008491666987538338
1772527316191783000,4.273782958984375,0.007996011525392532,0.02350529283285141,-0.0036204794887453318
1772527316201781000,4.283781005859375,0.010907869786024094,0.013597387820482254,0.001817917451262474
1772527316211778800,4.29377880859375,0.015197422355413437,-0.003211420262232423,0.016876496374607086
1772527316221777000,4.30377685546875,0.022039126604795456,-0.008464625105261803,0.025634879246354103
1772527316231775000,4.31377490234375,0.02433636784553528,-0.011448697187006474,0.02398078888654709
1772527316241772800,4.323772705078125,0.027688302099704742,-0.01433820091187954,0.023154497146606445
1772527316251771000,4.33377099609375,0.026310916990041733,-0.026063833385705948,0.022922536358237267
1772527316261768200,4.343768310546875,0.02326996624469757,-0.03216906636953354,0.013824623078107834
1772527316271766000,4.35376611328125,0.022134393453598022,-0.028192169964313507,0.008879931643605232
1772527316281764000,4.36376416015625,0.015469938516616821,-0.026941869407892227,0.008898397907614708
1772527316291762200,4.37376220703125,0.0073765916749835014,-0.014805312268435955,0.005681831855326891
1772527316301760000,4.383760009765625,-0.0007219472900032997,0.0025781807489693165,-0.001733758021146059
1772527316311758000,4.393758056640625,-0.00803845003247261,0.01010374166071415,-0.0066499533131718636
1772527316321756000,4.403755859375,-0.011961049400269985,0.007208054885268211,-0.009011002257466316
1772527316331753000,4.4137529296875,-0.015718236565589905,0.009443778544664383,-0.0003509353846311569
1772527316341751000,4.4237509765625,-0.01575493812561035,0.016485704109072685,0.0044602626003324986
1772527316351748900,4.433748779296875,-0.0188165083527565,0.026191063225269318,0.0066086347214877605
1772527316361747000,4.443746826171875,-0.023673471063375473,0.029163211584091187,0.0036775371991097927
1772527316371745000,4.4537451171875,-0.030315924435853958,0.036129772663116455,-0.001181666273623705
1772527316381742800,4.463742919921875,-0.039119184017181396,0.033105093985795975,-0.004341797903180122
1772527316391741000,4.473740966796875,-0.036889318376779556,0.030927959829568863,-0.005865924991667271
1772527316401739000,4.483739013671875,-0.03871581330895424,0.033205240964889526,-0.007878072559833527
1772527316411736000,4.493736083984375,-0.03817412629723549,0.03226993978023529,-0.00970020703971386
1772527316421734100,4.503734130859375,-0.0329417809844017,0.022915350273251534,-0.00372418318875134
1772527316431732000,4.51373193359375,-0.026211176067590714,0.002192494925111532,0.0037550386041402817
1772527316441730000,4.52372998046875,-0.013179048895835876,-0.00940791703760624,0.013789404183626175
1772527316451728100,4.53372802734375,-0.0026901885867118835,-0.016743328422307968,0.01850453019142151
1772527316461726000,4.543725830078125,0.007252729497849941,-0.0339839868247509,0.029756804928183556
1772527316471724000,4.55372412109375,0.018681153655052185,-0.04320944473147392,0.03218720853328705
1772527316481721900,4.563721923828125,0.023908931761980057,-0.055235326290130615,0.03271808475255966
1772527316491719000,4.573718994140625,0.029495976865291595,-0.06636574119329453,0.030515385791659355
1772527316501717000,4.583717041015625,0.03157205507159233,-0.07079741358757019,0.028124533593654633
1772527316511714800,4.59371484375,0.03223997727036476,-0.07143896818161011,0.022678902372717857
1772527316521713000,4.603712890625,0.03631007671356201,-0.07092483341693878,0.014310033991932869
1772527316531711000,4.6137109375,0.03295023366808891,-0.07176852226257324,0.01371455006301403
1772527316541709000,4.623708984375,0.026248671114444733,-0.06761162728071213,0.023271609097719193
1772527316551707100,4.63370703125,0.024021735414862633,-0.05786712095141411,0.03200491517782211
1772527316561704000,4.643703857421875,0.019668379798531532,-0.046393897384405136,0.029981425032019615
1772527316571702000,4.653701904296875,0.014543392695486546,-0.041449204087257385,0.018001459538936615
1772527316581700000,4.6637001953125,0.016704406589269638,-0.04060123860836029,0.01176275685429573
1772527316591698000,4.673697998046875,0.017296427860856056,-0.0490138977766037,0.009505195543169975
1772527316601696000,4.683696044921875,0.01484028622508049,-0.04903894290328026,0.008404560387134552
1772527316611694000,4.693694091796875,0.006517108529806137,-0.04681174457073212,0.010556129738688469
1772527316621692000,4.70369189453125,-0.0004088934510946274,-0.0392904169857502,0.011420145630836487
1772527316631690000,4.71368994140625,0.0014611780643463135,-0.03561978042125702,0.020321229472756386
1772527316641687000,4.72368701171875,-0.0037678852677345276,-0.033217769116163254,0.02338208630681038
1772527316651685000,4.73368505859375,-0.004214230924844742,-0.016749048605561256,0.021252356469631195
1772527316661683200,4.74368310546875,-0.006491311825811863,-0.012079487554728985,0.022582249715924263
1772527316671681000,4.753680908203125,-0.007693196646869183,-0.001604476012289524,0.022156409919261932
1772527316681679000,4.76367919921875,-0.0051389336585998535,-0.008990034461021423,0.017261523753404617
1772527316691677200,4.77367724609375,0.0023277709260582924,-0.008800417184829712,0.01426493376493454
1772527316701675000,4.783675048828125,0.00559079647064209,-0.011455681174993515,0.008573890663683414
1772527316711672800,4.7936728515625,0.008973543532192707,-0.018991628661751747,0.000684808474034071
1772527316721670000,4.803669921875,0.00808248296380043,-0.03018592670559883,0.002285525668412447
1772527316731667700,4.813667724609375,0.010030318982899189,-0.03564034774899483,0.0015808525495231152
1772527316741665800,4.823665771484375,0.014245683327317238,-0.04333176091313362,0.0037728785537183285
1772527316751663900,4.833663818359375,0.01561294961720705,-0.04614938795566559,0.010743970051407814
1772527316761661700,4.84366162109375,0.017608311027288437,-0.06381555646657944,0.015505033545196056
1772527316771659800,4.85365966796875,0.004805696662515402,-0.05890095978975296,0.03156069666147232
1772527316781657900,4.863657958984375,0.007663695141673088,-0.05226617306470871,0.027768535539507866
1772527316791655000,4.873655029296875,0.013917063362896442,-0.03049270436167717,0.019867999479174614
1772527316801653000,4.883653076171875,0.004315769299864769,-0.02189863845705986,0.0063298484310507774
1772527316811650800,4.89365087890625,0.003243847284466028,-0.013844972476363182,-0.007982777431607246
1772527316821649000,4.90364892578125,-0.0007012682035565376,-0.014711689203977585,-0.013026563450694084
1772527316831647000,4.91364697265625,-0.004939689300954342,-0.009000539779663086,-0.0023408965207636356
1772527316841644800,4.923644775390625,-0.00919390469789505,-0.004614341072738171,0.007464774418622255
1772527316851643000,4.933642822265625,-0.013651236891746521,0.0057394965551793575,0.010684270411729813
1772527316861641000,4.943640869140625,-0.016497761011123657,0.016437169164419174,0.011219318024814129
1772527316871637800,4.9536376953125,-0.018649861216545105,0.017590051516890526,-0.0004623713903129101
1772527316881635800,4.9636357421875,-0.015274877659976482,0.010099231265485287,-0.00618395023047924
1772527316891634000,4.973634033203125,-0.015755046159029007,-0.00023117056116461754,-0.012114277109503746
1772527316901631700,4.9836318359375,-0.008569885045289993,-0.009227587841451168,-0.008533854968845844
1772527316911629800,4.9936298828125,-0.0032385019585490227,-0.019813120365142822,-0.0038940960075706244
1772527316921627600,5.003627685546875,0.00594736123457551,-0.03504493087530136,0.0029326267540454865
1772527316931625700,5.013625732421875,0.014856433495879173,-0.0399712473154068,0.006913519464433193
1772527316941623800,5.023623779296875,0.019891206175088882,-0.042544323951005936,0.007300789933651686
1772527316951620900,5.033620849609375,0.021040625870227814,-0.03639082610607147,0.012754678726196289
1772527316961619000,5.043618896484375,0.02276703156530857,-0.027148766443133354,0.014024874195456505
1772527316971617000,5.053616943359375,0.015992481261491776,-0.019793381914496422,0.01489253155887127
1772527316981614800,5.06361474609375,0.01455121859908104,-0.01242932677268982,0.013890162110328674
1772527316991613000,5.073613037109375,0.014103807508945465,-0.013200312852859497,0.011609431356191635
1772527317001610800,5.08361083984375,0.019966773688793182,-0.015648063272237778,0.004736651666462421
1772527317011608800,5.09360888671875,0.023973498493433,-0.025799235329031944,-0.005233424250036478
1772527317021606000,5.10360595703125,0.020895635709166527,-0.030170539394021034,-0.00794418714940548
1772527317031603700,5.113603759765625,0.01827242225408554,-0.030961498618125916,-0.005551337264478207
1772527317041601800,5.123601806640625,0.013534259051084518,-0.0245338287204504,-0.005315206944942474
1772527317051600000,5.133599853515625,0.010102509520947933,-0.008586288429796696,-0.010893730446696281
1772527317061598000,5.143597900390625,0.006867016199976206,-0.005754087120294571,-0.01257944107055664
1772527317071596000,5.153595947265625,0.007312296889722347,0.0009504207409918308,-0.010349310003221035
1772527317081594000,5.163593994140625,0.00701756589114666,0.002881506457924843,-0.007267678622156382
1772527317091592000,5.173592041015625,0.006633005104959011,-0.000418683048337698,-0.003706233110278845
1772527317101589000,5.183589111328125,0.005835329182446003,0.009231703355908394,-0.0013355719856917858
1772527317111586800,5.1935869140625,0.00037957727909088135,0.013040555641055107,-0.0026889904402196407
1772527317121585000,5.2035849609375,0.000558340921998024,0.019351406022906303,-0.009950127452611923
1772527317131583000,5.2135830078125,-0.0005330219864845276,0.022775165736675262,-0.018675707280635834
1772527317141580800,5.223580810546875,0.00527145667001605,0.018890583887696266,-0.014877375215291977
1772527317151579000,5.233578857421875,0.0032535791397094727,0.017928650602698326,-0.012707964517176151
1772527317161577000,5.243576904296875,0.00595279224216938,0.010773904621601105,-0.006974242627620697
1772527317171574800,5.25357470703125,0.010351534932851791,0.008311012759804726,-0.0010172836482524872
1772527317181571800,5.26357177734375,0.00739229004830122,-0.0002977079711854458,0.0025334833189845085
1772527317191570000,5.27356982421875,0.010003785602748394,-0.007612079847604036,0.014856461435556412
1772527317201568000,5.283568115234375,0.009251149371266365,-0.001544781494885683,0.016583969816565514
1772527317211566000,5.293566162109375,0.00482897087931633,-0.002630019560456276,0.015292070806026459
1772527317221564000,5.30356396484375,0.006357932463288307,0.0019305236637592316,0.008384142071008682
1772527317231562000,5.31356201171875,0.0031059463508427143,0.008397212252020836,-0.002739349380135536
1772527317241560000,5.32356005859375,-0.003056802786886692,0.006742503028362989,-0.016596375033259392
1772527317251555800,5.333555908203125,-0.009914441965520382,0.007420011330395937,-0.022749872878193855
1772527317261553700,5.3435537109375,-0.018757831305265427,0.016883987933397293,-0.02683909609913826
1772527317271551700,5.3535517578125,-0.034219611436128616,0.026895873248577118,-0.03509888797998428
1772527317281549800,5.3635498046875,-0.042194463312625885,0.03740980848670006,-0.04488418251276016
1772527317291547000,5.373546875,-0.05076185613870621,0.04621714726090431,-0.04474010691046715
1772527317301545000,5.383544921875,-0.05400482192635536,0.05534045770764351,-0.042309749871492386
1772527317311543000,5.39354296875,-0.05543467774987221,0.06155174598097801,-0.035210028290748596
1772527317321540900,5.403540771484375,-0.05250777304172516,0.05868387967348099,-0.02503841370344162
1772527317331539000,5.4135390625,-0.05023609846830368,0.04632441699504852,-0.017538152635097504
1772527317341536800,5.423536865234375,-0.040397316217422485,0.03336552903056145,-0.009984858334064484
1772527317351534800,5.433534912109375,-0.030513526871800423,0.028944944962859154,-0.0054335156455636024
1772527317361533000,5.443532958984375,-0.02504657953977585,0.027099484577775,-0.007956973277032375
1772527317371529700,5.45352978515625,-0.016175059601664543,0.018822647631168365,-0.01276717521250248
1772527317381527800,5.46352783203125,-0.004555556923151016,0.004467276390641928,-0.018292874097824097
1772527317391526000,5.47352587890625,-0.001690261997282505,-0.013588156551122665,-0.012982530519366264
1772527317401523700,5.483523681640625,0.0013430872932076454,-0.03414231911301613,-0.006636596750468016
1772527317411521800,5.493521728515625,0.00173270795494318,-0.05954568088054657,-0.0008354331366717815
1772527317421520000,5.503519775390625,-0.005673223175108433,-0.07672136276960373,0.01083009596914053
1772527317431518000,5.51351806640625,-0.0032521430402994156,-0.07767850160598755,0.011204005219042301
1772527317441515000,5.523514892578125,-0.009543415158987045,-0.07446074485778809,0.017680834978818893
1772527317451512800,5.533512939453125,-0.014996504411101341,-0.06548642367124557,0.016082674264907837
1772527317461511000,5.543510986328125,-0.01370440423488617,-0.05294167622923851,0.0183258056640625
1772527317471509000,5.553509033203125,-0.01893671788275242,-0.04601452499628067,0.016967594623565674
1772527317481506800,5.5635068359375,-0.01723838597536087,-0.041934527456760406,0.015904884785413742
1772527317491505000,5.5735048828125,-0.01022734772413969,-0.04871786758303642,0.01991879940032959
1772527317501502700,5.583502685546875,-0.0013250140473246574,-0.06168721988797188,0.027455724775791168
1772527317511500800,5.593500732421875,0.0035714744590222836,-0.07993733137845993,0.04096380993723869
1772527317521497900,5.603497802734375,0.006255319807678461,-0.09234566986560822,0.05526048317551613
1772527317531496000,5.613495849609375,0.014500998891890049,-0.08705556392669678,0.06670834869146347
1772527317541494000,5.623493896484375,0.014430134557187557,-0.08869040012359619,0.07009641826152802
1772527317551492000,5.6334921875,0.015849333256483078,-0.08166152238845825,0.05527938902378082
1772527317561490000,5.643489990234375,0.01239061914384365,-0.07759200781583786,0.04100000485777855
1772527317571488000,5.653488037109375,-0.0049921004101634026,-0.08093135058879852,0.02897423505783081
1772527317581486000,5.663486083984375,0.018620319664478302,-0.0935770720243454,0.01667165197432041
1772527317591483000,5.67348291015625,0.035367608070373535,-0.11203863471746445,0.01786927506327629
1772527317601481000,5.68348095703125,0.05494256690144539,-0.1365654617547989,0.026219148188829422
1772527317611478800,5.693478759765625,0.07281104475259781,-0.1531500369310379,0.03864652290940285
1772527317621476900,5.703476806640625,0.09215886890888214,-0.15867315232753754,0.04732077568769455
1772527317631475000,5.713474853515625,0.11121964454650879,-0.16231980919837952,0.046153511852025986
1772527317641472800,5.72347265625,0.11449815332889557,-0.16704235970973969,0.03607095777988434
1772527317651470800,5.733470947265625,0.10448599606752396,-0.15621128678321838,0.022033438086509705
1772527317661469000,5.743468994140625,0.09509213268756866,-0.14399348199367523,0.01296524703502655
1772527317671466800,5.753466796875,0.07839677482843399,-0.1279071867465973,0.009243212640285492
1772527317681464800,5.76346484375,0.06140882149338722,-0.1100354865193367,0.009415606036782265
1772527317691462700,5.773462646484375,0.041447896510362625,-0.09928910434246063,0.018822424113750458
1772527317701460700,5.783460693359375,0.028018001466989517,-0.08876769244670868,0.03192668408155441
1772527317711458800,5.793458740234375,0.021306302398443222,-0.06632949411869049,0.038678862154483795
1772527317721455900,5.803455810546875,0.01463368535041809,-0.0571587048470974,0.03637171909213066
1772527317731454000,5.813453857421875,0.01239902712404728,-0.053177811205387115,0.027739349752664566
1772527317741452000,5.8234521484375,0.01817496493458748,-0.05961742252111435,0.019554056227207184
1772527317751449900,5.833449951171875,0.019370457157492638,-0.056630685925483704,0.014018676243722439
1772527317761448000,5.843447998046875,0.011795340105891228,-0.052006177604198456,0.013255486264824867
1772527317771446000,5.853446044921875,0.005774731747806072,-0.040331412106752396,0.0062369913794100285
1772527317781443800,5.86344384765625,0.004201664589345455,-0.02633015811443329,-0.00006940076127648354
1772527317791442000,5.87344189453125,0.00040639378130435944,-0.017777414992451668,-0.0011759442277252674
1772527317801438700,5.883438720703125,0.0010130619630217552,0.0009739021770656109,-0.0045850565657019615
1772527317811436800,5.893436767578125,-0.013020998798310757,0.018658623099327087,-0.002386617474257946
1772527317821435000,5.903434814453125,-0.005940505303442478,0.009842123836278915,-0.004751856438815594
1772527317831432700,5.9134326171875,-0.01088519673794508,0.01938662678003311,0.0035372325219213963
1772527317841430800,5.9234306640625,-0.013544187881052494,0.03832768276333809,-0.0006244638934731483
1772527317851428900,5.933428955078125,-0.018224425613880157,0.06120530143380165,-0.00248521426692605
1772527317861427000,5.943427001953125,-0.024370212107896805,0.057794902473688126,0.0066971369087696075
1772527317871424000,5.953424072265625,-0.014955670572817326,0.05288403108716011,0.009706775657832623
1772527317881421800,5.963421875,-0.01142601203173399,0.0564526803791523,0.00816920306533575
1772527317891420000,5.973419921875,-0.008391340263187885,0.0450357086956501,0.004598703235387802
1772527317901418000,5.98341796875,-0.006123739294707775,0.01934097148478031,0.002714162226766348
1772527317911415800,5.993415771484375,-0.004507998935878277,-0.0031374392565339804,0.00573605066165328
1772527317921414000,6.003413818359375,-0.0013430370017886162,-0.005929810460656881,0.005959995556622744
1772527317931412000,6.013411865234375,-0.0017640823498368263,-0.0035220463760197163,-0.0005769995041191578
1772527317941409800,6.023409912109375,-0.0018951501697301865,0.001851267646998167,-0.002456170041114092
1772527317951406800,6.03340673828125,-0.0009390749037265778,0.006475580390542746,0.0036573829129338264
1772527317961405000,6.043405029296875,-0.0020763305947184563,0.009707986377179623,0.009880682453513145
1772527317971403000,6.053403076171875,-0.00516799371689558,0.016124874353408813,0.015706080943346024
1772527317981401000,6.063401123046875,-0.0064596207812428474,0.023818857967853546,0.01968366466462612
1772527317991399000,6.07339892578125,-0.011061030440032482,0.03546939045190811,0.015065476298332214
1772527318001397000,6.08339697265625,-0.012978535145521164,0.048788465559482574,0.003241572994738817
1772527318011395000,6.09339501953125,-0.020556559786200523,0.048621486872434616,-0.0004405132494866848
1772527318021393000,6.103392822265625,-0.024508729577064514,0.04566800594329834,-0.008934102952480316
1772527318031390000,6.113389892578125,-0.022929206490516663,0.04800146818161011,-0.01130138710141182
1772527318041387800,6.1233876953125,-0.026861179620027542,0.04729452729225159,-0.009365431033074856
1772527318051385900,6.1333857421875,-0.02293222025036812,0.04322442039847374,-0.009422422386705875
1772527318061384000,6.143384033203125,-0.024344580247998238,0.04807496443390846,-0.01587044447660446
1772527318071381800,6.1533818359375,-0.025666838511824608,0.05148274451494217,-0.024306539446115494
1772527318081379800,6.1633798828125,-0.028201939538121223,0.04498235508799553,-0.018280647695064545
1772527318091378000,6.1733779296875,-0.030101308599114418,0.05245065689086914,-0.010919138789176941
1772527318101375000,6.183375,-0.018367599695920944,0.04997298866510391,-0.003244732040911913
1772527318111373000,6.193373046875,-0.018621666356921196,0.03899117931723595,0.013595500029623508
1772527318121371100,6.20337109375,-0.009050412103533745,0.03439739719033241,0.016903812065720558
1772527318131369000,6.213368896484375,-0.007560107856988907,0.02745533548295498,0.014412958174943924
1772527318141367000,6.223366943359375,-0.007371255196630955,0.035761501640081406,0.0011084931902587414
1772527318151364900,6.23336474609375,-0.012925011105835438,0.03470875322818756,-0.015237988904118538
1772527318161363000,6.243363037109375,-0.0133933424949646,0.03110114112496376,-0.02762794867157936
1772527318171361000,6.253361083984375,-0.011562153697013855,0.02737538143992424,-0.034443777054548264
1772527318181357800,6.26335791015625,-0.006821681745350361,0.01977338083088398,-0.030774354934692383
1772527318191356000,6.27335595703125,-0.0012721866369247437,0.019123835489153862,-0.024285295978188515
1772527318201354000,6.28335400390625,0.00025466084480285645,0.029349153861403465,-0.02096904255449772
1772527318211351800,6.293351806640625,-0.0000015348196029663086,0.033013395965099335,-0.014514073729515076
1772527318221350000,6.303349853515625,-0.0011441772803664207,0.03630310669541359,-0.013837765902280807
1772527318231347700,6.31334765625,-0.0020658979192376137,0.041682157665491104,-0.009435826912522316
1772527318241345800,6.323345703125,0.002929393667727709,0.04140625521540642,-0.0016964143142104149
1772527318251343000,6.333343017578125,0.009293816052377224,0.05332603305578232,0.0035305717028677464
1772527318261341000,6.3433408203125,0.017102623358368874,0.05956123024225235,-0.003443958004936576
1772527318271339000,6.353339111328125,0.018151110038161278,0.056045059114694595,-0.0009163515642285347
1772527318281337000,6.363337158203125,0.02583956904709339,0.0428907684981823,-0.00349160423502326
1772527318291335000,6.3733349609375,0.02950461022555828,0.026401273906230927,-0.00023748772218823433
1772527318301333000,6.3833330078125,0.03216104954481125,0.012757031247019768,0.005353771615773439
1772527318311330800,6.393330810546875,0.03515763580799103,-0.0033590870443731546,0.017604846507310867
1772527318321327900,6.403327880859375,0.03266265243291855,-0.009235751815140247,0.02265588939189911
1772527318331326000,6.413325927734375,0.031975023448467255,-0.004124613478779793,0.021139752119779587
1772527318341323800,6.42332373046875,0.028840087354183197,-0.002093819435685873,0.014105452224612236
1772527318351321900,6.43332177734375,0.019296914339065552,0.0018814816139638424,0.0030128532089293003
1772527318361320000,6.44331982421875,0.014498175121843815,0.008210171945393085,-0.004351276904344559
1772527318371317800,6.45331787109375,0.008288215845823288,0.013593219220638275,-0.011073628440499306
1772527318381315800,6.46331591796875,-0.001498219557106495,0.011602602899074554,-0.004673917777836323
1772527318391314000,6.47331396484375,-0.006343841552734375,0.010287001729011536,0.011481083929538727
1772527318401311000,6.48331103515625,-0.017223505303263664,0.021938160061836243,0.012197340838611126
1772527318411309000,6.49330908203125,-0.020790010690689087,0.031172936782240868,0.007976497523486614
1772527318421307000,6.503306884765625,-0.029461756348609924,0.04016444832086563,0.001594275701791048
1772527318431305000,6.513304931640625,-0.03462802246212959,0.051854927092790604,-0.007145686075091362
1772527318441303000,6.523302978515625,-0.040588218718767166,0.058413345366716385,-0.016844164580106735
1772527318451300900,6.53330078125,-0.04675210267305374,0.06059420481324196,-0.013845711015164852
1772527318461299000,6.543298828125,-0.057738251984119415,0.07607007771730423,-0.014974979683756828
1772527318471295700,6.553295654296875,-0.0462682843208313,0.06183468550443649,-0.01690683700144291
1772527318481293800,6.5632939453125,-0.047314830124378204,0.05838218703866005,-0.013706693425774574
1772527318491292000,6.5732919921875,-0.04092191159725189,0.0652851015329361,-0.016970131546258926
1772527318501289700,6.583289794921875,-0.03907937556505203,0.06037492677569389,-0.010640080086886883
1772527318511287800,6.593287841796875,-0.0316624715924263,0.0518655963242054,0.006729322485625744
1772527318521286000,6.603285888671875,-0.022588711231946945,0.03727024421095848,0.02030853182077408
1772527318531284000,6.613283935546875,-0.01684640347957611,0.025923846289515495,0.03494686260819435
1772527318541282000,6.623281982421875,-0.009805317968130112,0.025108395144343376,0.04021759331226349
1772527318551278800,6.63327880859375,-0.0008978424593806267,0.023592257872223854,0.033758629113435745
1772527318561277000,6.64327685546875,0.005747994873672724,0.009638065472245216,0.03758469969034195
1772527318571275000,6.65327490234375,0.005041191820055246,0.0130343958735466,0.03296225517988205
1772527318581272800,6.66327294921875,0.009427184239029884,0.01978234387934208,0.025864552706480026
1772527318591271000,6.67327099609375,0.011736145243048668,0.009756607934832573,0.02415214106440544
1772527318601269000,6.68326904296875,0.021411657333374023,-0.00700406963005662,0.0263264961540699
1772527318611266800,6.693266845703125,0.030503422021865845,-0.01222839206457138,0.029534276574850082
1772527318621264000,6.703263916015625,0.03860484063625336,-0.021807491779327393,0.033083293586969376
1772527318631262000,6.713261962890625,0.049294766038656235,-0.03627724200487137,0.039388857781887054
1772527318641260000,6.723260009765625,0.053241364657878876,-0.047075074166059494,0.038887813687324524
1772527318651258000,6.733258056640625,0.051727890968322754,-0.043699249625205994,0.03560493141412735
1772527318661256000,6.743255859375,0.04110308736562729,-0.042825374752283096,0.026804916560649872
1772527318671254000,6.75325390625,0.03384996950626373,-0.0398239940404892,0.019924640655517578
1772527318681252000,6.763252197265625,0.028992466628551483,-0.02680492401123047,0.010096949525177479
1772527318691250000,6.77325,0.023425396531820297,-0.007620044983923435,0.007438581436872482
1772527318701247000,6.7832470703125,0.02012147754430771,0.00850219838321209,-0.0027219108305871487
1772527318711244800,6.793244873046875,0.025471769273281097,0.019359108060598373,-0.007279910612851381
1772527318721243000,6.803242919921875,0.029755447059869766,0.019014429301023483,-0.009699854999780655
1772527318731241000,6.813240966796875,0.03420798480510712,0.015136334113776684,-0.007653482723981142
1772527318741238800,6.82323876953125,0.03390766680240631,0.030006233602762222,-0.01779216155409813
1772527318751236900,6.83323681640625,0.026789303869009018,0.025586985051631927,-0.015017413534224033
1772527318761234700,6.843234619140625,0.024706892669200897,0.014097434468567371,-0.005351712461560965
1772527318771232000,6.85323193359375,0.020051421597599983,0.023950599133968353,0.0001892605796456337
1772527318781230000,6.86322998046875,0.0176029521971941,0.037926748394966125,-0.0011723698116838932
1772527318791228000,6.873227783203125,0.01754116639494896,0.042193666100502014,-0.004443797282874584
1772527318801226000,6.88322607421875,0.01691088080406189,0.03384319320321083,0.0016348441131412983
1772527318811224000,6.89322412109375,0.015362786129117012,0.029611965641379356,0.011843539774417877
1772527318821222000,6.903221923828125,0.01296550128608942,0.022956980392336845,0.013882771134376526
1772527318831220000,6.913219970703125,0.00812414102256298,0.018008027225732803,0.014430582523345947
1772527318841217800,6.9232177734375,0.005366338416934013,0.021739548072218895,0.00696234405040741
1772527318851214800,6.93321484375,-0.004932904615998268,0.026751352474093437,0.0016570603474974632
1772527318861213000,6.943212890625,-0.009419964626431465,0.03777267783880234,-0.009688335470855236
1772527318871210800,6.953210693359375,-0.011816011741757393,0.04446493461728096,-0.02015695534646511
1772527318881208800,6.963208740234375,-0.013115087524056435,0.05355692654848099,-0.02136732079088688
1772527318891207000,6.97320703125,-0.017525281757116318,0.06697686016559601,-0.023087190464138985
1772527318901204700,6.983204833984375,-0.020439069718122482,0.06904286891222,-0.023048236966133118
1772527318911202800,6.993202880859375,-0.014251215383410454,0.06490511447191238,-0.023332929238677025
1772527318921199900,7.003199951171875,-0.008866672404110432,0.06163933500647545,-0.018930014222860336
1772527318931198000,7.013197998046875,-0.0025722915306687355,0.06235865131020546,-0.014940598979592323
1772527318941196000,7.023196044921875,0.0013019749894738197,0.050706688314676285,-0.010493057779967785
1772527318951193900,7.03319384765625,0.005247181747108698,0.050834786146879196,-0.0034332838840782642
1772527318961192000,7.04319189453125,0.013281031511723995,0.0476749986410141,0.0020945495925843716
1772527318971190000,7.05318994140625,0.00993929710239172,0.021762974560260773,0.012013759464025497
1772527318981187800,7.063187744140625,0.010447392240166664,0.010002950206398964,0.02589666098356247
1772527318991186000,7.07318603515625,0.014092993922531605,-0.0001460895873606205,0.033040326088666916
1772527319001182700,7.0831826171875,0.017059221863746643,-0.008336640894412994,0.03684758022427559
1772527319011180800,7.093180908203125,0.024042297154664993,-0.016815880313515663,0.038867056369781494
1772527319021179000,7.103178955078125,0.0330861434340477,-0.0125465989112854,0.03325200825929642
1772527319031176700,7.1131767578125,0.03988652303814888,-0.029429441317915916,0.029454870149493217
1772527319041174800,7.1231748046875,0.04745718091726303,-0.045439694076776505,0.03484082221984863
1772527319051172900,7.1331728515625,0.049942974001169205,-0.05641750991344452,0.04036608338356018
1772527319061171000,7.1431708984375,0.053923361003398895,-0.06147519871592522,0.046672187745571136
1772527319071168000,7.15316796875,0.04899704456329346,-0.057964619249105453,0.045098792761564255
1772527319081165800,7.163165771484375,0.04090031608939171,-0.04127402976155281,0.03415941074490547
1772527319091164000,7.173163818359375,0.03511486575007439,-0.02164386957883835,0.014532447792589664
1772527319101162000,7.183161865234375,0.0270736925303936,-0.012811418622732162,0.004928819369524717
1772527319111159800,7.193159912109375,0.013667071238160133,-0.018404323607683182,-0.0010787388309836388
1772527319121158000,7.203157958984375,0.005605450365692377,-0.010198824107646942,-0.00711889797821641
1772527319131156000,7.213156005859375,0.0022655799984931946,-0.0025462303310632706,0.00015392852947115898
1772527319141152800,7.22315283203125,-0.0005076490342617035,0.006928471848368645,-0.0013465844094753265
1772527319151150800,7.23315087890625,-0.00578337162733078,0.012202062644064426,-0.000991585198789835
1772527319161148700,7.243148681640625,-0.002890458330512047,0.01372430007904768,-0.0032590883783996105
1772527319171146800,7.253146728515625,0.0008531464263796806,0.02031669020652771,-0.011184655129909515
1772527319181144800,7.263144775390625,-0.0005569057539105415,0.02502381056547165,-0.0163558516651392
1772527319191143000,7.273142822265625,0.0027589956298470497,0.018857527524232864,-0.01563972793519497
1772527319201141000,7.28314111328125,0.003052318003028631,0.011843241751194,-0.01097058318555355
1772527319211139000,7.29313916015625,0.005982860457152128,0.004732069093734026,-0.005441594868898392
1772527319221136000,7.303135986328125,0.006531223189085722,0.00048573175445199013,-0.004159966949373484
1772527319231134000,7.313134033203125,0.006014570128172636,-0.005289599299430847,-0.0010975981131196022
1772527319241131800,7.3231318359375,-0.0004370352253317833,-0.0012803096324205399,-0.001481829211115837
1772527319251129900,7.3331298828125,-0.003684493713080883,-0.003196720266714692,0.0012841299176216125
1772527319261128000,7.3431279296875,-0.003916182555258274,-0.003590489737689495,0.01091693714261055
1772527319271125800,7.353125732421875,-0.005710886791348457,-0.0007917736656963825,0.013782231137156487
1772527319281123800,7.363123779296875,0.000004163011908531189,0.004575575701892376,0.011309092864394188
1772527319291122000,7.373121826171875,0.00008006300777196884,0.0023821964859962463,0.015938464552164078
1772527319301119000,7.383118896484375,0.003748300950974226,0.001648229081183672,0.008049648255109787
1772527319311117000,7.393116943359375,0.004642324056476355,0.013251621276140213,0.0020042727701365948
1772527319321115000,7.403114990234375,0.0036416463553905487,0.020041057839989662,-0.0020697684958577156
1772527319331113000,7.413113037109375,-0.0005517667159438133,0.0288742296397686,-0.0024133166298270226
1772527319341111000,7.423111083984375,-0.004822970367968082,0.03064265474677086,-0.00316308019682765
1772527319351108900,7.43310888671875,-0.005417654290795326,0.026908371597528458,0.003273780457675457
1772527319361107000,7.44310693359375,-0.0055673327296972275,0.020751293748617172,0.00608645798638463
1772527319371103700,7.453103759765625,-0.004780368879437447,0.016214333474636078,0.012908145785331726
1772527319381101800,7.463101806640625,-0.007280672900378704,0.018054978922009468,0.013644680380821228
1772527319391100000,7.473099853515625,-0.007182137109339237,0.013593384996056557,0.010357540100812912
1772527319401097700,7.48309765625,-0.015244930982589722,0.03138978034257889,0.007181256078183651
1772527319411095800,7.493095703125,-0.004109188914299011,0.012773750349879265,-0.006241076160222292
1772527319421094000,7.503093994140625,-0.008665258064866066,0.01216528657823801,-0.0024574771523475647
1772527319431091700,7.513091796875,-0.00583138782531023,0.010227036662399769,-0.0046191648580133915
1772527319441089000,7.523089111328125,-0.0009892284870147705,0.009352454915642738,-0.0008518570102751255
1772527319451086800,7.5330869140625,0.00034235231578350067,-0.005226221401244402,0.008727800101041794
1772527319461085000,7.5430849609375,0.003736704122275114,-0.006257457192987204,0.014156143181025982
1772527319471083000,7.5530830078125,0.0018597082234919071,0.0008827438578009605,0.01959431916475296
1772527319481080800,7.563080810546875,0.003862905316054821,0.0019245380535721779,0.013339993543922901
1772527319491079000,7.573078857421875,-0.003654932603240013,0.017452631145715714,0.003278304822742939
1772527319501077000,7.583076904296875,-0.01202474907040596,0.030127381905913353,-0.008244550786912441
1772527319511074800,7.59307470703125,-0.017337756231427193,0.03703482076525688,-0.017548304051160812
1772527319521071900,7.60307177734375,-0.018579594790935516,0.03588821738958359,-0.02074505016207695
1772527319531069700,7.613069580078125,-0.019534338265657425,0.0319155789911747,-0.020601771771907806
1772527319541067800,7.62306787109375,-0.01931765303015709,0.026765838265419006,-0.015333102084696293
1772527319551065900,7.63306591796875,-0.01583583652973175,0.019639750942587852,-0.0037893643602728844
1772527319561063700,7.643063720703125,-0.013670322485268116,0.017282843589782715,0.0013280278071761131
1772527319571061800,7.653061767578125,-0.010755759663879871,0.024515986442565918,-0.008214876987040043
1772527319581059800,7.663059814453125,-0.010498878546059132,0.035609323531389236,-0.016279971227049828
1772527319591057700,7.6730576171875,-0.011469067074358463,0.040420059114694595,-0.023177558556199074
1772527319601055000,7.683054931640625,-0.011081237345933914,0.04239097982645035,-0.025336651131510735
1772527319611053000,7.693052978515625,-0.008737122640013695,0.046947650611400604,-0.025204824283719063
1772527319621051000,7.70305078125,-0.01088081393390894,0.03894345462322235,-0.024218101054430008
1772527319631049000,7.713049072265625,-0.01299030426889658,0.031217625364661217,-0.016322892159223557
1772527319641046800,7.723046875,-0.009952929802238941,0.02661822736263275,-0.0022672172635793686
1772527319651044900,7.733044921875,-0.006429302506148815,0.029898975044488907,0.0040964060463011265
1772527319661043000,7.74304296875,-0.002594389021396637,0.021927721798419952,0.013103971257805824
1772527319671039700,7.753039794921875,0.0009721163660287857,0.009844427928328514,0.020466811954975128
1772527319681037800,7.763037841796875,0.004010629374533892,0.010500956326723099,0.02229132130742073
1772527319691036000,7.773035888671875,0.008934814482927322,0.005668917205184698,0.022926485165953636
1772527319701033500,7.783033447265625,0.009323029778897762,-0.0004552020691335201,0.024896495044231415
1772527319711031600,7.793031494140625,0.011281518265604973,0.0007315021939575672,0.023679163306951523
1772527319721029600,7.803029541015625,0.010943609289824963,0.007948128506541252,0.016302136704325676
1772527319731027700,7.81302783203125,0.01044959295541048,0.016253462061285973,0.01422460563480854
1772527319741024500,7.8230244140625,0.008893575519323349,0.018529202789068222,0.01030288077890873
1772527319751022600,7.833022705078125,0.006637611426413059,0.013529649935662746,0.005337949842214584
1772527319761020400,7.8430205078125,0.00047395192086696625,0.01219659112393856,0.003219627309590578
1772527319771018500,7.8530185546875,0.000008697621524333954,0.0025618071667850018,0.004626309033483267
1772527319781016600,7.8630166015625,-0.001580151729285717,-0.0008591371588408947,0.002583244349807501
1772527319791014400,7.873014404296875,-0.003909085877239704,0.0032743550837039948,0.005478100385516882
1772527319801012500,7.883012451171875,-0.0020466838032007217,-0.008204562589526176,0.012093477882444859
1772527319811009500,7.893009521484375,-0.0017034020274877548,-0.013888547196984291,0.012753142975270748
1772527319821007600,7.903007568359375,-0.0022725099697709084,-0.007717250846326351,0.014246686361730099
1772527319831005700,7.913005615234375,-0.004789196886122227,-0.007412584964185953,0.014531644992530346
1772527319841003800,7.923003662109375,-0.003309253603219986,0.002576214261353016,0.011434501968324184
1772527319851001600,7.933001708984375,-0.004119387827813625,0.010243454948067665,0.0030660508200526237
1772527319860999700,7.942999755859375,-0.009174373932182789,0.015727821737527847,-0.002584954258054495
1772527319870997500,7.95299755859375,-0.005591623485088348,0.014023133553564548,-0.002609189134091139
1772527319880995600,7.96299560546875,-0.00218221265822649,0.024601243436336517,-0.0012241890653967857
1772527319890992600,7.97299267578125,-0.00039549730718135834,0.01739952340722084,0.0023029018193483353
1772527319900990500,7.982990478515625,0.001345079392194748,0.007744430098682642,0.007499481085687876
1772527319910988500,7.992988525390625,-0.0007492313161492348,0.012222802266478539,0.008325593546032906
1772527319920986600,8.002986572265625,0.0014166836626827717,0.004540613386780024,0.007535544689744711
1772527319930984400,8.012984375,0.005225802771747112,-0.0018728114664554596,0.011728957295417786
1772527319940982500,8.022982421875,0.006910013034939766,-0.007830912247300148,0.00982879288494587
1772527319950980400,8.03298046875,0.012928756885230541,-0.017729349434375763,0.004820187110453844
1772527319960977700,8.042977783203124,0.020453259348869324,-0.021792955696582794,0.009340258315205574
1772527319970975700,8.052975830078125,0.02601899951696396,-0.02839013747870922,0.011465460062026978
1772527319980973600,8.0629736328125,0.027052000164985657,-0.025335904210805893,0.015089178457856178
1772527319990971600,8.0729716796875,0.02454862743616104,-0.021959815174341202,0.017637824639678
1772527320000969700,8.0829697265625,0.023828856647014618,-0.02640194073319435,0.013449293561279774
1772527320010967600,8.092967529296875,0.02173587679862976,-0.025687947869300842,0.005268328823149204
1772527320020965600,8.102965576171876,0.02426788955926895,-0.023972246795892715,-0.0015518921427428722
1772527320030963500,8.11296337890625,0.02299702912569046,-0.01955086551606655,-0.004499479196965694
1772527320040960500,8.12296044921875,0.018103964626789093,-0.009255231358110905,-0.009530500508844852
1772527320050958600,8.13295849609375,0.014157960191369057,-0.0011046268045902252,-0.011824280954897404
1772527320060956400,8.142956298828125,0.00557801965624094,0.006742609664797783,-0.015325961634516716
1772527320070954500,8.15295458984375,-0.0027885669842362404,0.0062155695632100105,-0.007518904749304056
1772527320080952600,8.16295263671875,-0.0064915381371974945,0.027492834255099297,-0.0026695337146520615
1772527320090950400,8.172950439453125,-0.01531112939119339,0.03522186353802681,0.0005675386637449265
1772527320100948500,8.182948486328126,-0.01824132166802883,0.046654149889945984,0.007209972012788057
1772527320110945500,8.192945556640625,-0.019080750644207,0.053766652941703796,0.007052046712487936
1772527320120943600,8.202943603515624,-0.01578410714864731,0.05744088441133499,-0.0023377034813165665
1772527320130941700,8.212941650390626,-0.012404555454850197,0.044944532215595245,-0.0019222507253289223
1772527320140939500,8.222939453125,-0.015938278287649155,0.06806521117687225,0.0006730025634169579
1772527320150937600,8.2329375,0.001723006833344698,0.043785709887742996,-0.011816689744591713
1772527320160935700,8.242935791015626,0.0025949175469577312,0.030322249978780746,-0.0060071577318012714
1772527320170933500,8.25293359375,0.0011908989399671555,0.012854309752583504,-0.0025943168438971043
1772527320180930600,8.2629306640625,0.008506964892148972,0.008906960487365723,-0.0026391949504613876
1772527320190928400,8.272928466796875,0.011607948690652847,0.010140004567801952,-0.005790513474494219
1772527320200926500,8.282926513671875,0.01411600224673748,0.0017379368655383587,-0.0023483564145863056
1772527320210924500,8.292924560546876,0.0133644575253129,-0.0010748938657343388,-0.0023060119710862637
1772527320220922400,8.30292236328125,0.01267457939684391,-0.00137307308614254,0.0004576854407787323
1772527320230920400,8.31292041015625,0.007705919444561005,-0.004025848116725683,0.000749567523598671
1772527320240918500,8.32291845703125,0.003672847058624029,0.0006750710308551788,0.001047926489263773
1772527320250916600,8.33291650390625,-0.00274563767015934,0.005671693477779627,-0.004146835766732693
1772527320260913700,8.34291357421875,-0.004339477978646755,0.011252999305725098,-0.0049923863261938095
1772527320270911500,8.352911376953125,-0.01225466001778841,0.014745734632015228,-0.008844648487865925
1772527320280909600,8.36290966796875,-0.015825917944312096,0.024098636582493782,-0.008654455654323101
1772527320290907600,8.37290771484375,-0.020202556625008583,0.02094545215368271,-0.006842973176389933
1772527320300905500,8.382905517578125,-0.020184295251965523,0.02778332494199276,-0.0034743179567158222
1772527320310903600,8.392903564453125,-0.024579843506217003,0.03259485960006714,-0.0014689578674733639
1772527320320901600,8.402901611328126,-0.026869527995586395,0.03387034684419632,-0.008702167309820652
1772527320330898400,8.4128984375,-0.030344154685735703,0.037339113652706146,-0.006542875897139311
1772527320340896500,8.422896484375,-0.030941441655158997,0.0432606041431427,-0.011002898216247559
1772527320350894300,8.432894287109375,-0.03199472278356552,0.04643136262893677,-0.010618871077895164
1772527320360892400,8.442892333984375,-0.032947469502687454,0.04505224898457527,-0.010399600490927696
1772527320370890500,8.452890380859374,-0.028376150876283646,0.03073136880993843,-0.00879664346575737
1772527320380888600,8.462888671875,-0.019150376319885254,0.018630599603056908,-0.002688064705580473
1772527320390886700,8.47288671875,-0.010663681663572788,0.006382721941918135,0.004412721376866102
1772527320400883500,8.482883544921876,-0.0074313245713710785,-0.003358563408255577,0.009815298952162266
1772527320410881500,8.492881591796875,-0.0011135069653391838,-0.011042581871151924,0.01260522473603487
1772527320420879600,8.502879638671875,-0.0021443143486976624,-0.011144477874040604,0.007624251302331686
1772527320430877400,8.51287744140625,0.0005340268835425377,-0.005259158089756966,0.005568824242800474
1772527320440875500,8.52287548828125,0.00044827908277511597,-0.01048390194773674,0.0023401612415909767
1772527320450873600,8.53287353515625,0.0025974498130381107,-0.012987272813916206,-0.00269401166588068
1772527320460871400,8.542871337890626,0.0034355558454990387,-0.010983024723827839,-0.005466320551931858
1772527320470869500,8.552869384765625,0.004007603041827679,-0.006370163056999445,-0.007411759812384844
1772527320480866600,8.562866455078124,0.008273564279079437,-0.008721251040697098,-0.011398954316973686
1772527320490864600,8.57286474609375,0.013599087484180927,-0.018167749047279358,-0.0018922686576843262
1772527320500862700,8.58286279296875,0.011412733234465122,-0.026679642498493195,0.010263132862746716
1772527320510860500,8.592860595703126,0.007034762762486935,-0.022450275719165802,-0.0068841613829135895
1772527320520858600,8.602858642578125,0.005382385104894638,-0.009901400655508041,-0.015028396621346474
1772527320530856700,8.612856689453125,-0.0013868380337953568,-0.025282222777605057,-0.015509895980358124
1772527320540854500,8.6228544921875,-0.009575745090842247,-0.02362441085278988,-0.014422595500946045
1772527320550851600,8.6328515625,-0.012708155438303947,-0.013022633269429207,-0.014591174200177193
1772527320560849400,8.642849365234374,-0.011239309795200825,-0.010995374992489815,-0.009562880732119083
1772527320570847500,8.652847412109375,-0.011732793413102627,-0.013350674882531166,0.0005392879247665405
1772527320580845600,8.662845458984375,-0.009471995756030083,-0.013472501188516617,0.004655247554183006
1772527320590843400,8.672843505859374,-0.007804058492183685,-0.00948441680520773,0.007506960071623325
1772527320600841500,8.682841552734375,-0.004345060326159,-0.00834657996892929,0.010707257315516472
1772527320610839600,8.692839599609375,0.0024119121953845024,-0.019106550142169,0.01780511438846588
1772527320620836600,8.702836669921876,0.011361867189407349,-0.03056732378900051,0.02578163892030716
1772527320630834700,8.712834716796875,0.02130397967994213,-0.03849928081035614,0.03101954236626625
1772527320640832500,8.72283251953125,0.028704605996608734,-0.04412497952580452,0.026208121329545975
1772527320650830600,8.73283056640625,0.027396194636821747,-0.04820920154452324,0.019515331834554672
1772527320660828700,8.74282861328125,0.025610316544771194,-0.0514056459069252,0.015419432893395424
1772527320670826500,8.752826416015624,0.02402626909315586,-0.04591261222958565,0.003608847502619028
1772527320680824600,8.762824462890626,0.021545881405472755,-0.030137084424495697,-0.0002595726400613785
1772527320690822700,8.77282275390625,0.018484577536582947,-0.040360163897275925,-0.006519865244626999
1772527320700819700,8.78281982421875,0.012337276712059975,-0.02850758470594883,-0.014550426974892616
1772527320710817500,8.792817626953125,0.01146349310874939,-0.019195042550563812,-0.015738196671009064
1772527320720815600,8.802815673828125,0.009989053942263126,-0.025670045986771584,-0.006307921372354031
1772527320730813700,8.812813720703126,0.007608720101416111,-0.019846776500344276,0.0004349360242486
1772527320740811500,8.8228115234375,0.004650568123906851,-0.011299916543066502,0.0031269900500774384
1772527320750809600,8.8328095703125,0.0010646218433976173,-0.0014845700934529305,0.0019445465877652168
1772527320760807700,8.8428076171875,-0.002546040341258049,0.00806659460067749,-0.0018343632109463215
1772527320770804700,8.8528046875,-0.004695744253695011,0.009133189916610718,0.001249311026185751
1772527320780802800,8.862802734375,-0.000159483402967453,0.010556476190686226,0.0066672638058662415
1772527320790800600,8.872800537109375,-0.0019491277635097504,0.008551383391022682,0.010238030925393105
1772527320800798700,8.882798828125,-0.0002778461202979088,0.0029122354462742805,0.011788656935095787
1772527320810796800,8.892796875,0.0012686513364315033,0.0037013301625847816,0.006542761344462633
1772527320820794600,8.902794677734375,-0.0002551702782511711,0.004480717703700066,0.0033526048064231873
1772527320830792700,8.912792724609375,-0.0029769204556941986,0.004370196722447872,-0.002971603535115719
1772527320840789500,8.92278955078125,-0.004586021415889263,0.010336672887206078,-0.007708497811108828
1772527320850787600,8.93278759765625,-0.013752621598541737,0.01877782866358757,-0.015786664560437202
1772527320860785700,8.94278564453125,-0.01577189564704895,0.02503832057118416,-0.01655742898583412
1772527320870783500,8.952783447265626,-0.02053016424179077,0.02780880779027939,-0.011514201760292053
1772527320880781600,8.962781494140625,-0.02557886391878128,0.02822187729179859,-0.007192669436335564
1772527320890779600,8.972779541015624,-0.027937892824411392,0.032766032963991165,0.0022996352054178715
1772527320900777500,8.982777587890626,-0.02758825197815895,0.03714289888739586,0.0031301192939281464
1772527320910775600,8.992775634765625,-0.03219711780548096,0.04406019300222397,-0.0013189571909606457
1772527320920772600,9.002772705078126,-0.03307744115591049,0.045091111212968826,-0.006401578895747662
1772527320930770700,9.012770751953125,-0.031119486317038536,0.045085251331329346,-0.013914356008172035
1772527320940768800,9.022768798828125,-0.03431650623679161,0.043287888169288635,-0.018602272495627403
1772527320950766600,9.0327666015625,-0.03497137874364853,0.03771895170211792,-0.0176714975386858
1772527320960764700,9.0427646484375,-0.03332836180925369,0.030012357980012894,-0.01478465273976326
1772527320970762800,9.0527626953125,-0.02910325676202774,0.024595219641923904,-0.010344631038606167
1772527320980760600,9.062760498046876,-0.025746967643499374,0.01829606294631958,-0.008692801930010319
1772527320990757600,9.072757568359375,-0.017818469554185867,0.01751016266644001,-0.008059502579271793
1772527321000755500,9.08275537109375,-0.015258959494531155,0.02264489233493805,-0.009551675990223885
1772527321010753500,9.09275341796875,-0.009419181384146214,0.012651912868022919,-0.007827279157936573
1772527321020751600,9.102751708984375,-0.003891643136739731,0.0019679395481944084,0.0005911071784794331
1772527321030749400,9.11274951171875,0.005929828621447086,-0.0055107492953538895,0.006814914755523205
1772527321040747500,9.12274755859375,0.011339454911649227,-0.01641223579645157,0.015591543167829514
1772527321050745600,9.13274560546875,0.01661544293165207,-0.02684197574853897,0.025712085887789726
1772527321060742700,9.14274267578125,0.020277351140975952,-0.03558481112122536,0.02905341610312462
1772527321070740700,9.15274072265625,0.02163875848054886,-0.03326919302344322,0.027947138994932175
1772527321080738600,9.162738525390624,0.018406353890895844,-0.02405957132577896,0.02134285867214203
1772527321090736600,9.172736572265626,0.014318401925265789,-0.02526172250509262,0.014748871326446533
1772527321100734700,9.182734619140625,0.011512947268784046,-0.03198516368865967,0.010108759626746178
1772527321110732500,9.192732666015624,0.007513145450502634,-0.03706780821084976,0.010096242651343346
1772527321120730600,9.202730712890625,0.005854461342096329,-0.044780123978853226,0.012821407988667488
1772527321130728700,9.212728759765625,0.0010988544672727585,-0.03471177816390991,0.015505874529480934
1772527321140725500,9.2227255859375,-0.007655040360987186,-0.022860314697027206,0.014107739552855492
1772527321150723600,9.2327236328125,-0.008574097417294979,-0.014110767282545567,0.008872763253748417
1772527321160721700,9.2427216796875,-0.009049919433891773,0.0027437182143330574,-0.001792155671864748
1772527321170719700,9.2527197265625,-0.009242999367415905,0.013162803836166859,-0.006162136327475309
1772527321180717800,9.2627177734375,-0.009114068001508713,0.018627643585205078,-0.007558541838079691
1772527321190715600,9.272715576171874,-0.010361757129430771,0.016824685037136078,-0.004372335970401764
1772527321200713700,9.282713623046876,-0.006347722373902798,0.0063900575041770935,0.004255905281752348
1772527321210710800,9.292710693359375,-0.00422251969575882,0.0010283156298100948,0.00987757183611393
1772527321220708600,9.30270849609375,-0.003665120340883732,-0.003433011705055833,0.01666996441781521
1772527321230706700,9.312706787109375,-0.0055698128417134285,-0.009661080315709114,0.014186033979058266
1772527321240704800,9.322704833984375,-0.00896869320422411,-0.014911175705492496,0.008214672096073627
1772527321250702600,9.33270263671875,-0.004318014718592167,-0.013085045851767063,0.0023485273122787476
1772527321260700700,9.34270068359375,-0.006166594102978706,-0.013021422550082207,-0.003762450534850359
1772527321270698500,9.352698486328125,-0.003287450410425663,-0.018004728481173515,-0.00474835280328989
1772527321280695600,9.362695556640626,0.001960279420018196,-0.02301539108157158,-0.004158730618655682
1772527321290693600,9.372693603515625,0.007680216804146767,-0.02843865193426609,0.002894385252147913
1772527321300691700,9.382691650390624,0.01570049300789833,-0.027683472260832787,0.01304873451590538
1772527321310689800,9.392689697265626,0.02153627946972847,-0.03209446743130684,0.02068454958498478
1772527321320687900,9.40268798828125,0.02348438836634159,-0.028181372210383415,0.020253272727131844
1772527321330685700,9.412685791015624,0.027761157602071762,-0.026381341740489006,0.015390073880553246
1772527321340683800,9.422683837890625,0.01665222831070423,-0.024380115792155266,0.007413930259644985
1772527321350680600,9.4326806640625,0.014141665771603584,-0.015247337520122528,0.0013485811650753021
1772527321360678700,9.4426787109375,0.0053738802671432495,-0.009244597516953945,-0.001622113399207592
1772527321370676700,9.4526767578125,-0.008846067823469639,-0.005108442157506943,-0.004073287360370159
1772527321380674600,9.462674560546875,-0.01728673093020916,0.012490380555391312,-0.009073415771126747
1772527321390672600,9.472672607421876,-0.024361154064536095,0.031221456825733185,-0.018155328929424286
1772527321400670700,9.482670654296875,-0.02665816806256771,0.033253300935029984,-0.013751035556197166
1772527321410668500,9.49266845703125,-0.02736976556479931,0.039831310510635376,-0.01220826618373394
1772527321420666600,9.50266650390625,-0.02653166837990284,0.039762068539857864,-0.015019765123724937
1772527321430663700,9.51266357421875,-0.02002476528286934,0.03256567567586899,-0.007944812066853046
1772527321440661800,9.522661865234374,-0.012974850833415985,0.023347297683358192,-0.002702533733099699
1772527321450659800,9.532659912109375,-0.009562809020280838,0.01738021895289421,-0.0026577929966151714
1772527321460657700,9.54265771484375,-0.0026546837761998177,0.011417875066399574,-0.0017717378214001656
1772527321470655700,9.55265576171875,0.003137691877782345,0.005598068702965975,-0.0031869413796812296
1772527321480653800,9.56265380859375,0.0023505892604589462,0.003658450208604336,-0.005990120582282543
1772527321490651600,9.572651611328125,0.003752477467060089,0.0017196694388985634,-0.007855664938688278
1772527321500648700,9.582648681640626,0.0033187074586749077,0.002922631800174713,-0.009393792599439621
1772527321510646500,9.592646484375,0.0025818110443651676,0.004811079241335392,-0.007403079885989428
1772527321520644600,9.60264453125,0.000545223243534565,-0.0021984302438795567,-0.0047354367561638355
1772527321530642700,9.612642578125,-0.006213612854480743,0.0018253396265208721,-0.0028946599923074245
1772527321540640500,9.622640625,-0.004799705930054188,0.0123573774471879,0.00014895666390657425
1772527321550638600,9.632638671875,-0.0040521565824747086,0.00943375937640667,-0.0001967218704521656
1772527321560636700,9.64263671875,-0.0032450659200549126,0.0060916985385119915,-0.0010912558063864708
1772527321570633700,9.6526337890625,-0.00011185742914676666,0.009919991716742516,-0.0067938826978206635
1772527321580631800,9.6626318359375,0.002177099697291851,0.0030933194793760777,-0.0077781882137060165
1772527321590629600,9.672629638671875,0.004499109927564859,-0.007638420909643173,0.0005146288312971592
1772527321600627700,9.682627685546874,0.0042063393630087376,-0.007097245659679174,0.006327113602310419
1772527321610625800,9.692625732421876,0.0012177396565675735,-0.0025309897027909756,0.004445856902748346
1772527321620623600,9.70262353515625,0.0007497025653719902,0.0035115503706038,-0.003958678804337978
1772527321630621700,9.71262158203125,-0.0012037260457873344,0.00042175082489848137,-0.009654914028942585
1772527321640618500,9.722618408203125,-0.00370689295232296,-0.005203867796808481,-0.014897504821419716
1772527321650616600,9.732616455078125,-0.0018810294568538666,-0.0003143041394650936,-0.01136695221066475
1772527321660614700,9.74261474609375,-0.0013222191482782364,-0.0008445153944194317,-0.010004390962421894
1772527321670612500,9.752612548828125,-0.00004976149648427963,-0.0011891284957528114,-0.007280509453266859
1772527321680610600,9.762610595703125,-0.0001948811113834381,-0.0036607286892831326,-0.0015599257312715054
1772527321690608600,9.772608642578126,0.005518132355064154,-0.007495148107409477,0.004603161942213774
1772527321700606500,9.7826064453125,0.006719343364238739,-0.0017565516754984856,0.010864539071917534
1772527321710605300,9.792605224609375,0.010415278375148773,-0.003162168199196458,0.008608309552073479
1772527321720602600,9.8026025390625,0.011806054972112179,-0.006475226022303104,0.008640468120574951
1772527321730600400,9.812600341796875,0.010593784041702747,-0.009252903051674366,0.0030757919885218143
1772527321740598500,9.8225986328125,0.01613738015294075,-0.0015392028726637363,0.0005987421609461308
1772527321750596600,9.8325966796875,0.017298251390457153,-0.004233522806316614,-0.002412760630249977
1772527321760594400,9.842594482421875,0.01803085394203663,-0.00789567083120346,-0.0034456902649253607
1772527321770592500,9.852592529296874,0.016640150919556618,-0.00909462571144104,-0.008022066205739975
1772527321780590300,9.86259033203125,0.013448625802993774,-0.005975847132503986,-0.006625728216022253
1772527321790587400,9.87258740234375,0.015875831246376038,-0.007289850618690252,0.003243680577725172
1772527321800585500,9.88258544921875,0.017465010285377502,-0.014455810189247131,0.012465985491871834
1772527321810583300,9.892583251953125,0.020001139491796494,-0.017807133495807648,0.012064913287758827
1772527321820581400,9.902581298828125,0.023225955665111542,-0.023193752393126488,0.011258088052272797
1772527321830579500,9.912579345703126,0.022501308470964432,-0.021978018805384636,0.012939341366291046
1772527321840577300,9.922577392578125,0.02133770100772381,-0.025049623101949692,0.00873667374253273
1772527321850575400,9.932575439453124,0.01918879523873329,-0.02823076955974102,0.008729217574000359
1772527321860572400,9.942572509765625,0.01506120152771473,-0.02600262314081192,0.0055582355707883835
1772527321870570500,9.952570556640625,0.014873448759317398,-0.02799813076853752,0.007564128376543522
1772527321880568600,9.962568603515624,0.01426735334098339,-0.015097899362444878,0.004421109799295664
1772527321890566400,9.97256640625,0.00475454144179821,-0.0023437542840838432,-0.0035646450705826283
1772527321900564500,9.982564453125,-0.00020761322230100632,0.008319603279232979,-0.013474289327859879
1772527321910562600,9.9925625,-0.005035923793911934,0.019020451232790947,-0.02382759563624859
1772527321920560400,10.002560302734375,-0.008285592310130596,0.019403919577598572,-0.02369425818324089
1772527321930557400,10.012557373046874,-0.008899451233446598,0.019562646746635437,-0.015884006395936012
1772527321940555300,10.02255517578125,-0.008168418891727924,0.007294949144124985,-0.006808639969676733
1772527321950553300,10.03255322265625,-0.0020311642438173294,-0.006771335378289223,0.011562643572688103
1772527321960551400,10.042551513671874,0.0007414296269416809,-0.011936777271330357,0.02008240297436714
1772527321970549200,10.05254931640625,0.0077428799122571945,-0.015433773398399353,0.020066160708665848
1772527321980547300,10.06254736328125,0.010970155708491802,-0.015338690020143986,0.01398547738790512
1772527321990545400,10.07254541015625,0.011625826358795166,-0.014416171237826347,0.005201573949307203
1772527322000542500,10.08254248046875,0.012438755482435226,-0.011708566918969154,0.0007072859443724155
1772527322010540500,10.09254052734375,0.01456821896135807,-0.011028129607439041,-0.000767839141190052
1772527322020538400,10.102538330078126,0.010847164317965508,-0.01216474361717701,-0.006773664616048336
1772527322030536400,10.112536376953125,0.007850308902561665,-0.00843232311308384,-0.00642212713137269
1772527322040534500,10.122534423828125,0.007244212552905083,-0.006603650748729706,-0.009717744775116444
1772527322050532400,10.132532470703126,0.0049325888976454735,-0.0023604361340403557,-0.008963271044194698
1772527322060530400,10.142530517578125,0.004939892794936895,-0.006453387904912233,-0.002419374417513609
1772527322070528500,10.152528564453124,0.002437320537865162,-0.0081599410623312,0.0026193265803158283
1772527322080525300,10.162525390625,0.005136621650308371,-0.01123671792447567,0.0034181862138211727
1772527322090523400,10.1725234375,0.000970904715359211,-0.011325666680932045,0.003367586527019739
1772527322100521200,10.182521240234376,0.00404906552284956,0.0003549833782017231,0.004245453048497438
1772527322110519300,10.192519287109375,-0.0014682048931717873,-0.007034489419311285,0.009476698935031891
1772527322120517400,10.202517333984375,-0.001676478423178196,0.002736157737672329,-0.0034535210579633713
1772527322130515500,10.212515380859376,-0.005073872394859791,0.011983984149992466,-0.01090584509074688
1772527322140513500,10.222513427734375,-0.009116911329329014,0.012012220919132233,-0.008829958736896515
1772527322150510300,10.23251025390625,-0.010686046443879604,0.01272488385438919,-0.0039217532612383366
1772527322160508400,10.24250830078125,-0.010680832900106907,0.020912177860736847,-0.01123983133584261
1772527322170506500,10.252506591796875,-0.011734114028513432,0.015837524086236954,-0.014607664197683334
