time,seconds_elapsed,z,y,x
1772561432341620200,0.0846201171875,2.8814480014830828,0.7085315695844591,0.5536250855110585
1772561432351650300,0.094650390625,2.569038587102294,0.5444881315924227,0.6401626744963228
1772561432361679400,0.104679443359375,1.9188947629481552,0.5966412204168736,0.5304450662579387
1772561432371709400,0.11470947265625,1.4269985499888658,1.1860561428420244,0.21888247796483337
1772561432381738500,0.124738525390625,0.7676525977253913,1.943520670160651,-0.5503028822857886
1772561432391768300,0.134768310546875,-0.48925534306168555,2.342820870878547,-1.3868652770429848
1772561432401797400,0.14479736328125,-2.043855021569133,2.051168121061474,-2.151456149110198
1772561432411826400,0.154826416015625,-3.263400907689333,1.3254016312986612,-2.4787282015800476
1772561432421856500,0.1648564453125,-6.203649473187327,0.3765720899507403,-0.23155776207745074
1772561432431885300,0.17488525390625,-9.28884894593358,-0.9345467489734292,2.6335271336257455
1772561432441915400,0.184915283203125,-8.760331267541646,-1.825745646868646,3.675559567067027
1772561432451944400,0.1949443359375,-9.087674631682038,-1.860928896191716,3.6795401611357925
1772561432461974300,0.204974365234375,-10.313404759395121,-1.4155363679930566,2.7898239030137657
1772561432472003300,0.21500341796875,-11.060877323400973,-0.7480290288448334,1.3822116060182452
1772561432482033200,0.225033203125,-12.2575643119812,-0.2830228686377406,-1.1044660932615398
1772561432492062200,0.235062255859375,-9.825042565780878,0.2092269800648093,-0.704388624560833
1772561432502092300,0.24509228515625,-10.775843407201766,-0.31100276245325803,-1.640727079256624
1772561432512121000,0.25512109375,-9.299550957211851,-0.5019409293726086,-0.5857761275313794
1772561432522151200,0.265151123046875,-7.800777210822701,-0.6591314327299594,-0.32337533729225393
1772561432532180200,0.27518017578125,-6.6281847990572444,-0.5332710103988647,-0.5851018815316259
1772561432542209300,0.285209228515625,-5.124639015960693,-0.6521937424212694,-0.8087624606184661
1772561432552239400,0.2952392578125,-3.7292034789711237,-1.3599617802873254,-1.0209659722760318
1772561432562268200,0.30526806640625,-2.686953018864989,-1.6022659773066639,-0.8227948584284633
1772561432572298200,0.31529833984375,-2.3639579130619763,-1.9419123581811784,-0.34753793784193693
1772561432582327300,0.325327392578125,-1.8304297130316496,-2.5686823210105296,-0.04160597584694624
1772561432592357400,0.335357421875,-0.6546329522669315,-2.2242194797649977,0.11780417632125317
1772561432602386200,0.34538623046875,0.27191782951653004,-1.3867784755423664,0.08095131328552961
1772561432612416300,0.355416259765625,1.4429980831533669,-0.8570181036129594,-0.039542540511116386
1772561432622445300,0.3654453125,2.4413193851619956,-0.5541945559620857,0.051688978444039815
1772561432632475400,0.375475341796875,3.1632524342417714,-0.4614446683332324,0.10644640454798936
1772561432642504200,0.385504150390625,3.9301130048066377,-0.4140785215243697,0.06508373593762516
1772561432652534300,0.3955341796875,4.651545703148842,-0.3021729747876525,0.05984488543607294
1772561432662563300,0.405563232421875,5.484802115163207,-0.13834712506905197,0.06578720803186297
1772561432672592400,0.41559228515625,6.266918122527003,0.028040537961572406,0.1854755723982118
1772561432682622200,0.425622314453125,6.754822635501623,0.01996960583925247,0.38671697880290445
1772561432692651300,0.4356513671875,6.91478932557404,-0.19269553198069334,0.5275299459962174
1772561432702681300,0.445681396484375,6.545659660583734,-0.5444165276609361,0.7930889445379375
1772561432712710400,0.45571044921875,6.319738443088531,-0.7680006805106997,1.0773986381158231
1772561432722740500,0.465740478515625,6.652485712099075,-0.7518003640770912,1.29163760112375
1772561432732769300,0.475769287109375,7.315608844813704,-0.49719607293307777,1.335197049126029
1772561432742799400,0.48579931640625,7.841289838474989,-0.11170052568390965,1.3626127331875264
1772561432752828400,0.495828369140625,8.090408976206183,0.29290859509706496,1.3963897689744829
1772561432762858500,0.5058583984375,8.145470353692769,0.6128434365466237,1.3742735064953564
1772561432772887300,0.51588720703125,8.1333286650002,0.8349437805794179,1.362550919997692
1772561432782917400,0.52591748046875,8.162540730959176,1.0022961969889699,1.3624163338325916
1772561432792946400,0.535946533203125,8.113487653976678,1.1705750805936752,1.347215842091292
1772561432802975500,0.5459755859375,7.787613777866959,1.4210308737561106,1.3488891821309923
1772561432813005300,0.55600537109375,7.375362764030695,1.7265172108754514,1.4047159910321234
1772561432823034400,0.566034423828125,7.0867451441258185,2.0520888891682025,1.56286569481045
1772561432833064200,0.576064208984375,7.01881902436912,2.4197237855561076,1.6676175704002378
1772561432843093500,0.586093505859375,7.053578787583112,2.724161928796768,1.659720241279155
1772561432853123300,0.596123291015625,7.134013675779104,2.844009082187712,1.6852514267683028
1772561432863152400,0.60615234375,7.281818803414702,2.8235663058787583,1.5271018691204488
1772561432873182200,0.61618212890625,7.214053427177667,2.6944372371405363,1.361355572733283
1772561432883211300,0.626211181640625,6.711082862496376,2.3475232033506033,1.2320593307346104
1772561432893241300,0.636241455078125,5.590899852403998,1.8608052698120474,1.083983788659796
1772561432903270100,0.646270263671875,4.151893469235301,1.16839817494601,1.104047502523288
1772561432913300200,0.65630029296875,2.848097520545125,0.3959679875552654,1.243855128598958
1772561432923329300,0.666329345703125,1.7649100698947906,-0.24402853659391402,0.8616207020375877
1772561432933358000,0.676358154296875,0.6584580635130405,-0.7667819523707031,-0.12113215170018374
1772561432943388200,0.68638818359375,-1.3618588460803032,-1.0496659970596431,-0.8859066367059946
1772561432953417200,0.696417236328125,-4.771587794589996,-1.015374728140235,-0.4992899764724075
1772561432963447300,0.706447265625,-8.16812934474647,-1.2069476858317851,0.551246373680979
1772561432973476400,0.716476318359375,-9.984966585755348,-1.8040723058514296,0.9376376276608556
1772561432983506400,0.72650634765625,-11.907982812547683,-1.8468766977027058,0.5266103834658861
1772561432993535500,0.736535400390625,-13.412324714457988,-1.380540750196576,-0.025339754570275545
1772561433003565600,0.746565673828125,-15.315663596355915,-1.001269338159263,-0.7914413965266197
1772561433013594600,0.7565947265625,-17.161769601947068,-1.1690846959054468,-1.2199299900669605
1772561433023624400,0.76662451171875,-17.505220635801553,-1.7377052521049976,-1.6549214626953004
1772561433033653500,0.776653564453125,-16.603412081086635,-1.7493150258779524,-1.9439771817564964
1772561433043682600,0.7866826171875,-15.417524718940257,-1.5095704502135514,-2.065942057953775
1772561433053712600,0.796712646484375,-14.13533036120534,-1.5710495857879518,-1.8097990129351615
1772561433063741400,0.806741455078125,-12.901394130682945,-1.813852379979193,-1.0536950333800166
1772561433073771500,0.816771484375,-11.183608215534687,-2.00298846591264,-0.5085895736068486
1772561433083800600,0.826800537109375,-9.26139745990634,-2.0257833583056923,-0.6219390355415642
1772561433093830700,0.83683056640625,-7.727868041956424,-2.005330937385559,-0.8147222458057105
1772561433103859500,0.846859375,-6.15545155172944,-2.108447612988949,-0.8451455141853541
1772561433113889500,0.8568896484375,-4.437690771022439,-2.145780441561341,-0.6976065632052719
1772561433123918600,0.866918701171875,-2.9337603725224732,-1.9674343374505638,-0.5240297558555379
1772561433133948700,0.87694873046875,-1.6347545807182788,-1.7094506330013275,-0.25593996019456533
1772561433143977500,0.8869775390625,-0.4511807562112808,-1.4533385676428674,0.258700291753374
1772561433154006500,0.897006591796875,0.4672761509656906,-1.0983236449837683,0.9834572026148438
1772561433164036600,0.90703662109375,0.886789849281311,-0.8929223606869577,0.9691443804282694
1772561433174065700,0.917065673828125,1.192212473514676,-0.8200573232233523,0.6789132609121501
1772561433184095700,0.927095703125,1.7471891197651623,-0.7008993211403489,0.6097182537307962
1772561433194124500,0.93712451171875,2.3490146109521386,-0.4886027243718505,0.5440424336515367
1772561433204154400,0.947154296875,3.0437282291948793,-0.17757219712883232,0.48763541370965535
1772561433214183700,0.95718359375,3.94178356885612,0.19746727642714976,0.5678577551335096
1772561433224213500,0.967213623046875,4.830974634060263,0.5416439942076802,0.577243386583589
1772561433234242600,0.97724267578125,5.658797330588102,0.6814072696849703,0.548283541820012
1772561433244272400,0.9872724609375,6.467600269347429,0.5762096961542964,0.6677383714251219
1772561433254301400,0.997301513671875,7.038059731411933,0.3417041901871562,0.8967917494662105
1772561433264331500,1.00733154296875,6.954708078986406,0.13379939863681792,1.204022957491502
1772561433274360300,1.0173603515625,6.869724441444873,-0.02480769352018833,1.4149448318406939
1772561433284389400,1.027389404296875,7.204728549471497,-0.08607610895335674,1.4239233803272247
1772561433294419500,1.03741943359375,7.727644754594564,0.14927870731949805,1.3243255264997482
1772561433304448500,1.047448486328125,8.027313929867743,0.4796466799780726,1.2128347711089997
1772561433314478600,1.057478515625,7.97112910130918,0.6701379799127578,1.1229792166821657
1772561433324507400,1.06750732421875,7.852785045957565,0.7411166191078722,0.9658565909292548
1772561433334537500,1.077537353515625,7.8715785937547675,0.8163271967843174,0.8339508970845491
1772561433344566500,1.08756640625,7.972317434310913,1.0270639968901871,0.781289055020362
1772561433354596600,1.0975966796875,8.148177859085799,1.2668196784704924,0.7998775817647575
1772561433364625400,1.10762548828125,8.262942302384973,1.462295196558535,0.8912786851331591
1772561433374655500,1.117655517578125,8.154806921836734,1.6419535523116588,0.9787634187754243
1772561433384684500,1.1276845703125,7.889918552565574,1.7200389547720552,1.0238144205097108
1772561433394713300,1.13771337890625,7.70788323854804,1.7705255716890096,1.0551027812860905
1772561433404743400,1.147743408203125,7.45329063784182,1.8479755988553166,0.9792758252769708
1772561433414772500,1.1577724609375,7.152696164417266,1.9719497690483927,0.826364095217362
1772561433424802600,1.167802490234375,6.889796923136711,2.1588290159657597,0.7241456836279481
1772561433434831600,1.17783154296875,6.517960921797156,2.2948069276854395,0.6848675662066787
1772561433444861400,1.187861328125,6.009118834733963,2.303575340552628,0.6482323645096272
1772561433454890500,1.197890380859375,5.5445648022085425,2.1680928111344575,0.49862844382375476
1772561433464920600,1.207920654296875,4.981083362463116,1.7427113898292184,0.3447235745409503
1772561433474949600,1.21794970703125,3.997159419119358,0.844858879263699,-0.08306667973799631
1772561433484979700,1.227979736328125,2.337577271136641,-0.20800942096859215,-0.6027965281762182
1772561433495008500,1.238008544921875,0.44532384687662124,-1.1276549534082412,-0.900345642555505
1772561433505037600,1.24803759765625,-1.7902888413012026,-1.827869799415767,-1.1507554776843636
1772561433515067600,1.258067626953125,-3.154202866345644,-1.6605889869377015,-1.3320797938883304
1772561433525096400,1.268096435546875,-4.422942114701867,-0.9304819837525486,-1.2010837622344492
1772561433535126500,1.27812646484375,-5.994603987169265,-0.3200561297416687,-0.6659887512788176
1772561433545155600,1.288155517578125,-7.788543167671561,0.04404050951749086,0.42805166342779993
1772561433555185700,1.298185546875,-9.15436214955449,0.19708324554562567,1.4084753435656427
1772561433565214700,1.308214599609375,-9.953763638240098,0.278799697984755,1.6055638498082756
1772561433575244500,1.31824462890625,-10.967753634023666,0.16130816780924795,1.0147541120238601
1772561433585273600,1.328273681640625,-12.056881580638885,0.09882175488844513,0.8214939318977296
1772561433595303400,1.338303466796875,-12.359756273955107,0.22900135559290646,1.0707115615673362
1772561433605332700,1.348332763671875,-12.717757226687668,0.6019954409264028,1.1981446400426328
1772561433615362300,1.3583623046875,-12.413377974027394,0.9729777480460703,1.0953861302271484
1772561433625391400,1.368391357421875,-11.320823560094833,1.1168094420060515,0.5799506362482905
1772561433635420700,1.378420654296875,-10.502460181307793,1.0284506289429962,-0.1978166743867099
1772561433645450500,1.388450439453125,-10.139965424287318,0.5635471984580159,-1.0351173202905803
1772561433655479600,1.3984794921875,-9.711771575909852,-0.12405673390999436,-1.2715958068311213
1772561433665509400,1.40850927734375,-9.225882494410872,-0.718005792633444,-1.0247472443804144
1772561433675538400,1.418538330078125,-7.903768798741698,-1.0217914633147418,-0.9829733646206558
1772561433685568500,1.428568603515625,-6.104082599020004,-1.09725323927328,-1.070272731758654
1772561433695597300,1.438597412109375,-4.375464908733964,-1.0986141523629427,-0.9544709082357585
1772561433705627400,1.44862744140625,-2.786065719524026,-1.2105527245864272,-0.7104805847603828
1772561433715656400,1.458656494140625,-1.2658686613559722,-1.240849955433607,-0.417949481206201
1772561433725686500,1.4686865234375,0.2902233015358448,-1.0210856531329453,0.036480394727829844
1772561433735715600,1.478715576171875,1.5375450833320616,-0.714708504653722,0.6160973237760364
1772561433745744400,1.488744384765625,2.5563287431329487,-0.3882745104432106,1.1301024926908314
1772561433755774500,1.4987744140625,3.3126170662790533,-0.17972864451035855,1.5470920793563128
1772561433765803500,1.508803466796875,3.732650989076495,-0.06027955052629113,1.7809899748191236
1772561433775833600,1.51883349609375,4.12358448959589,0.10233575435876846,1.7772050494529306
1772561433785862400,1.5288623046875,4.6140082919150585,0.3124181822091341,1.7124964304380117
1772561433795892500,1.538892578125,4.9742041243433945,0.5528539550080895,1.8334236341506243
1772561433805921500,1.548921630859375,5.23260956133604,0.6721995886176824,1.9684407380141318
1772561433815951600,1.55895166015625,5.7388984567850825,0.696258801858127,2.2115403231948614
1772561433825980400,1.56898046875,6.224668295818567,0.7343634915858507,2.5165128655731674
1772561433836010500,1.579010498046875,6.520874763417243,0.7447831787914038,2.490102997553348
1772561433846039600,1.58903955078125,6.313284736904501,0.7945718765720725,2.252265716814995
1772561433856068600,1.599068603515625,6.452189934247731,0.7843684624657035,2.167105261401832
1772561433866098400,1.609098388671875,6.919282545340061,0.8026791951820254,2.0831972902677953
1772561433876127500,1.61912744140625,7.198426234456896,0.9058201284438371,1.8885232978209852
1772561433886157600,1.629157470703125,7.468558934122323,1.018783659800887,1.636509023170173
1772561433896186600,1.6391865234375,7.674357985565066,1.08394148388803,1.3626013350106776
1772561433906216700,1.649216796875,7.699720390358567,1.124798102672398,1.0584668508917092
1772561433916245500,1.65924560546875,7.701410243141651,1.1646154415369032,0.7400267049793153
1772561433926275600,1.669275634765625,7.6356994613468645,1.2865747647762298,0.5665875890672206
1772561433936304600,1.6793046875,7.3681211223393674,1.4736799294039606,0.5461029829105362
1772561433946334700,1.689334716796875,7.0515908286362885,1.5744298758760094,0.49266321527641266
1772561433956363500,1.699363525390625,6.791594907581806,1.601307361407578,0.40900889010988173
1772561433966393300,1.709393310546875,6.491620611882209,1.6451973565384745,0.25385219413507726
1772561433976422700,1.719422607421875,6.142579795196652,1.5897189226835966,-0.04559253843219485
1772561433986454300,1.729454345703125,5.608844089895486,1.5421543306931853,-0.43754765991717576
1772561433996484400,1.739484375,4.934486446461081,1.6411372674927114,-0.4426446177300066
1772561434006513400,1.749513427734375,3.8628514864385126,1.4426453241929411,-0.36039303550086915
1772561434016543500,1.75954345703125,2.910188942798972,0.8440843877598643,0.28997721782028674
1772561434026572300,1.769572265625,2.2949024970144034,-0.07406886029541492,1.2812395412281155
1772561434036602400,1.779602294921875,1.3625731318295,-1.0739420679211615,2.3956901451483366
1772561434046631400,1.78963134765625,-0.11244096878767013,-2.12986478728801,3.7980502207040785
1772561434056661200,1.7996611328125,-2.1318109529197216,-3.075361969342828,4.787759761711955
1772561434066690300,1.809690185546875,-3.6999639404833315,-3.6695527278676625,4.333143478094041
1772561434076720000,1.81972021484375,-5.596029616507887,-3.3128871153920887,2.951729744455218
1772561434086749400,1.82974951171875,-8.790396735459566,-2.5666873478010297,2.11681007540375
1772561434096778500,1.839778564453125,-11.397316432666777,-2.6577631647378204,1.9499188467651605
1772561434106808300,1.849808349609375,-13.757230038774013,-2.890653344462812,1.423266085462272
1772561434116837400,1.85983740234375,-15.660995621651411,-2.533804776635766,0.40744500179402526
1772561434126867200,1.8698671875,-16.49504289178252,-1.6794778118029237,-0.6750424108281731
1772561434136896300,1.879896240234375,-16.608264781814814,-1.0238327598839998,-1.3940391141951083
1772561434146926300,1.88992626953125,-15.771467920714615,-0.924500278994441,-2.10141829887405
1772561434156955100,1.899955078125,-14.284803129792213,-0.9987380661159754,-2.585114692634344
1772561434166985200,1.909985107421875,-12.294720030421018,-1.0909376263856887,-2.589212191081047
1772561434177014300,1.92001416015625,-9.993313558340072,-1.261615095564723,-1.6275427496433257
1772561434187044400,1.93004443359375,-7.8344976941168305,-1.5390636712014674,-0.6825426303904503
1772561434197073200,1.9400732421875,-6.04735708771348,-1.7307132012605666,-0.05646145354285836
1772561434207102200,1.950102294921875,-4.341074563354254,-1.8994708082929253,0.438167764576897
1772561434217132300,1.96013232421875,-2.643356453722715,-1.9862047966331242,0.7577292426694184
1772561434227161300,1.970161376953125,-1.0532038157969712,-1.883385642671585,0.8229964454151689
1772561434237191200,1.980191162109375,0.25704525455534455,-1.6391919786438345,0.7892934977777302
1772561434247220200,1.99022021484375,1.200586334106326,-1.3001762968882917,0.6570676320679485
1772561434257250300,2.000250244140625,1.8559750731766222,-0.8784013756424188,0.2886136743821204
1772561434267279400,2.010279296875,2.31146960093379,-0.4697647529110312,-0.09942258859211578
1772561434277309400,2.020309326171875,2.819351903054118,-0.0783636348798871,-0.5686259995596483
1772561434287338200,2.030338134765625,3.4362329245537517,0.39101971749812364,-1.0084820460170507
1772561434297368300,2.040368408203125,3.9373505548447367,0.7057192886427044,-1.3837228873640297
1772561434307397400,2.0503974609375,4.318545920681953,0.7443643688574433,-1.6051716356202959
1772561434317427500,2.060427490234375,4.711942596444487,0.7169105447426438,-1.4612354583725333
1772561434327456300,2.070456298828125,5.2389568845361465,0.7216983635410666,-0.9729511523000896
1772561434337485300,2.0804853515625,5.752845149073004,0.749249218289554,-0.6034378217544406
1772561434347515400,2.090515380859375,6.080911566790938,0.8584002056211233,-0.3063698784882203
1772561434357544400,2.10054443359375,6.382077118101716,0.9701061381325126,-0.06520571834947914
1772561434367574300,2.11057421875,6.802913004931807,1.0283271486938,0.05639850784186273
1772561434377603300,2.120603271484375,7.158679330480099,1.0900982529520988,0.046414819167088714
1772561434387633400,2.13063330078125,7.442143805405497,1.1681143895685673,-0.12168457968486472
1772561434397662500,2.140662353515625,7.550558002895117,1.2467615175649522,-0.3784886641617864
1772561434407692300,2.1506923828125,7.645476758995652,1.3038476788774132,-0.5258962438471615
1772561434417721300,2.160721435546875,7.833002487123012,1.3559642350837589,-0.5880748329278082
1772561434427751400,2.17075146484375,8.077737126159667,1.4796704019904137,-0.5997558818386868
1772561434437780500,2.180780517578125,8.266604332023858,1.633163219873607,-0.5696078867364675
1772561434447809300,2.190809326171875,8.259045294946432,1.732454491969943,-0.52742615682818
1772561434457839400,2.20083935546875,8.083101283541321,1.6566227136552334,-0.465260975218378
1772561434467868400,2.210868408203125,7.809442163315415,1.5410624438032507,-0.34594621167108414
1772561434477898200,2.220898193359375,7.647895510575175,1.564135568615794,-0.22133335998198017
1772561434487927300,2.23092724609375,7.649691746342182,1.6363237297311424,-0.11937783711245283
1772561434497957000,2.24095703125,7.487348390266299,1.6453797273680566,-0.06639005102952941
1772561434507986400,2.250986328125,7.447785610684752,1.3729700226813555,0.06409786670543254
1772561434518016300,2.261016357421875,7.151840424370765,1.05922059186846,0.10290884153898805
1772561434528045300,2.27104541015625,6.986080537849665,0.6589505232051015,0.12608427594853563
1772561434538075100,2.2810751953125,6.729595839786529,0.1629345999673009,0.2134696408695541
1772561434548104200,2.291104248046875,5.82709871828556,0.07224076808542013,0.32511293820720166
1772561434558134300,2.30113427734375,4.948613756012916,-0.009060089290142058,0.7933858816578984
1772561434568163300,2.311163330078125,4.0883956873148675,-0.4052335362896323,1.4158286289379
1772561434578192100,2.321192138671875,2.917611786276102,-1.2561556611150502,1.9367735339879988
1772561434588222200,2.33122216796875,1.3694003475010394,-2.2011495698228476,2.279307452997565
1772561434598251300,2.341251220703125,-0.6191068808555603,-2.73124516505599,2.2809004212774333
1772561434608281300,2.35128125,-2.2732354396075007,-2.0752803796634076,1.5035656568408011
1772561434618310100,2.36131005859375,-6.464504056897759,-0.9485682600632309,-0.01538757527861744
1772561434628340200,2.37134033203125,-11.396547201859951,-0.6256415433213114,-0.047097485935315486
1772561434638369300,2.381369384765625,-16.010338636153936,-0.6085530458763242,0.1170556595088914
1772561434648399400,2.3913994140625,-19.577664038473365,-0.4897612467572093,-0.54731732713636
1772561434658428200,2.40142822265625,-21.731581609261035,-0.4846984104096889,-2.177984090551734
1772561434668458200,2.411458251953125,-22.258352736246586,-0.36525983781963584,-3.679169574257731
1772561434678487300,2.4214873046875,-20.583370190036295,-0.2724982597529888,-4.612995315480232
1772561434688516400,2.431516357421875,-18.19536913808584,-0.4425152191966772,-4.997056592142582
1772561434698546400,2.44154638671875,-15.493171203815937,-0.8962187718838452,-4.317074679085612
1772561434708575200,2.4515751953125,-12.046738956809044,-1.3077017239570616,-2.7498803074210882
1772561434718605300,2.461605224609375,-8.784936716488003,-1.7534484724208712,-1.1232805377162993
1772561434728634400,2.47163427734375,-6.29308950561583,-2.1893162164270876,-0.16966524166287852
1772561434738664400,2.48166455078125,-4.568080653476715,-2.554369718019664,0.5247134638033807
1772561434748693200,2.491693359375,-3.6070442492455244,-2.860497275651991,0.9385533542662858
1772561434758723300,2.501723388671875,-3.2324194939702746,-2.9825422313481567,1.086740028565377
1772561434768752400,2.51175244140625,-2.9804028812319037,-2.788716818554699,0.9040341218098997
1772561434778782500,2.521782470703125,-2.913617163681984,-2.2921301096916196,0.48416671468578276
1772561434788811300,2.531811279296875,-2.4018881230056284,-1.805857581833005,0.14134416059372015
1772561434798841300,2.54184130859375,-1.7605355080723761,-1.3947808724731205,-0.3065057067623362
1772561434808870400,2.551870361328125,-1.1769839247226714,-0.895961874513328,-0.755298581456393
1772561434818899500,2.5618994140625,-0.6222288122683763,-0.4680044652402401,-0.8915031415387987
1772561434828929500,2.571929443359375,0.05499532651305198,-0.2597457456856966,-0.5849686105407774
1772561434838958300,2.581958251953125,1.0792992110401392,-0.18861147753745316,0.0014527926241979002
1772561434848988400,2.591988525390625,2.3805220943719148,-0.1455126327842474,0.4402661616282537
1772561434859017500,2.602017578125,3.460093108090758,-0.07030775419622659,0.7197236294019966
1772561434869047300,2.61204736328125,4.51471205138266,-0.04557867887020111,0.874782892884314
1772561434879076400,2.622076416015625,5.537179368132352,0.014821429295837879,0.9067036332800984
1772561434889106200,2.632106201171875,6.389880485329032,0.16565379579812287,0.969534110398218
1772561434899135200,2.64213525390625,6.897900150093436,0.28757337154895063,1.1045234494719653
1772561434909165300,2.652165283203125,7.168308159568905,0.3496446277976036,1.234064094685763
1772561434919194000,2.662194091796875,7.481430690655112,0.4619646005541086,1.068451799941808
1772561434929224200,2.67222412109375,7.673853543174267,0.6105223001226783,0.7837709349639713
1772561434939253200,2.682253173828125,7.784222966384887,0.6945262789770961,0.49075763738341627
1772561434949282300,2.6922822265625,7.864556732293963,0.7414847217679024,0.18974687477555124
1772561434959312100,2.70231201171875,7.86148448524177,0.8413523324474692,0.02807066367177758
1772561434969341200,2.712341064453125,7.750347584789991,1.1155848686471581,0.06910758005965036
1772561434979371300,2.722371337890625,7.648806195679307,1.5081643828079103,0.19794987231232225
1772561434989396700,2.732396728515625,7.552683909007906,1.9243805008828638,0.2511137456145137
1772561434999426800,2.7424267578125,7.449954771417379,2.3359826954215763,0.29978955024983733
1772561435009455600,2.75245556640625,7.374081492048502,2.7310709775328634,0.47324974548257887
1772561435019485700,2.762485595703125,7.183341478049755,3.07489990478903,0.635707887044549
1772561435029514800,2.7725146484375,6.8134425822526214,3.398201300062239,0.6660032181955874
1772561435039544800,2.782544921875,6.365142349913716,3.689781861425936,0.6021023353669792
1772561435049573600,2.79257373046875,6.01665858258903,3.957547831960022,0.41075949663687494
1772561435059602700,2.802602783203125,5.709536753222346,4.229625528213382,0.039283049324713645
1772561435069632800,2.8126328125,5.438841158977151,4.534800899687409,-0.3244634613225236
1772561435079661800,2.822661865234375,5.197357630690932,4.588734149926901,-0.5437724210711196
1772561435089692000,2.83269189453125,4.900380763241649,4.263988401064276,-0.5467545786870643
1772561435099720700,2.842720703125,4.58267382697463,3.544106439295411,-0.17183211910687385
1772561435109750800,2.852750732421875,3.99213779156506,2.270338549122214,0.12508775745816528
1772561435119779800,2.86277978515625,2.534192314648628,0.5875234095901251,0.6714546154692769
1772561435129810000,2.872809814453125,0.5773135657429694,-1.4477087450623511,1.693132535406947
1772561435139838700,2.882838623046875,-1.491916720101237,-3.3203549670547243,2.7294042133644223
1772561435149868800,2.892868896484375,-3.7233068221479653,-4.593063703563809,2.9900252805799243
1772561435159897900,2.90289794921875,-6.552789658594131,-5.19314731951952,2.3566737474031747
1772561435169928000,2.912927978515625,-9.431946918791532,-5.209750079274177,1.9936827312983572
1772561435179956700,2.922956787109375,-11.051825417417287,-4.62271474546194,1.5406656995706258
1772561435189985800,2.93298583984375,-11.550262430322169,-3.5654607774913307,0.5582881088860333
1772561435200016000,2.943015869140625,-12.46941141141653,-2.9652035585343834,-0.33937472432628274
1772561435210045000,2.953044921875,-13.722074554240702,-3.215902366672456,-1.0566397815950215
1772561435220074800,2.96307470703125,-14.126091408216952,-3.494416525714099,-1.4130604793988168
1772561435230103800,2.973103759765625,-13.763192162048815,-3.5742698146298526,-1.2118662914030254
1772561435240134000,2.9831337890625,-12.82413787252307,-3.7716584728628395,-0.5079479147024453
1772561435250163000,2.993162841796875,-11.60239009244442,-4.048155739124119,0.047675066627562046
1772561435260192800,3.00319287109375,-10.228946022510527,-4.120634992140531,0.17896993509754539
1772561435270221800,3.013221923828125,-8.779436365506053,-3.9651881175801154,0.12926497007757423
1772561435280251600,3.023251708984375,-7.667640075486898,-3.864956057502329,0.19829335198774933
1772561435290280700,3.03328076171875,-6.864627995088696,-3.9768651113703846,0.0919565452940762
1772561435300310800,3.043310791015625,-6.125222417682409,-4.120405859559774,-0.004684942945837974
1772561435310339600,3.053339599609375,-4.96468284728229,-4.0103906566143035,-0.11082768837213515
1772561435320368600,3.06336865234375,-3.4018478398710488,-3.438584748376906,-0.18567191695421933
1772561435330398700,3.073398681640625,-1.9197206923782824,-2.4787536282822487,0.03336202524527907
1772561435340427800,3.083427734375,-0.5417150136172771,-1.6498820072233675,0.21046485129669307
1772561435350457600,3.09345751953125,0.7183370704144239,-0.9295435338586568,-0.017314561285823583
1772561435360486700,3.103486572265625,1.573386212041974,-0.21460604275465012,-0.4822900340937078
1772561435370516700,3.113516845703125,1.9730144756704568,0.3036065147221088,-0.910389628316462
1772561435380545800,3.1235458984375,2.571646723774075,0.44461628312915563,-1.1760292543463409
1772561435390575900,3.133575927734375,3.5045202788382768,0.43421296253651376,-1.4909386688493191
1772561435400604700,3.143604736328125,4.696178625601529,0.4770037642538547,-1.7918815173201261
1772561435410634800,3.153634765625,5.563026341572404,0.42500674277395006,-1.9255906073249875
1772561435420663800,3.163663818359375,6.319453196406364,0.32541853355765343,-1.706133763538301
1772561435430694000,3.17369384765625,7.050905184459686,0.24795769273638724,-1.3345279176928102
1772561435440722700,3.18372265625,7.665278022530675,0.11170973190367221,-1.1770460301734507
1772561435450751700,3.193751708984375,8.207658222058415,0.07686988919079303,-1.1321784221820532
1772561435460781800,3.20378173828125,8.496179395851492,0.18265987565666436,-0.9732809687763452
1772561435470810600,3.213810546875,8.676347746953368,0.3147285049781203,-0.7477022811084986
1772561435480840700,3.2238408203125,8.671118029606342,0.46809623517692084,-0.5106161109983921
1772561435490869800,3.233869873046875,8.439659051728247,0.6862012259632349,-0.2881133236445486
1772561435500899800,3.24389990234375,8.306446513068675,1.011676458144188,-0.29612127353325485
1772561435510929000,3.253928955078125,8.044248698055744,1.4573887198165059,-0.5257670645095408
1772561435520958700,3.263958740234375,7.769842558854818,1.9008505722135305,-0.5500277916714549
1772561435530987800,3.27398779296875,7.768044569522142,2.300945284309983,-0.3358472808524966
1772561435541017900,3.284017822265625,7.683270775339007,2.7910493531554934,-0.12772994253002107
1772561435551047000,3.294046875,7.748125232565402,3.3993682980149984,-0.1662258235324174
1772561435561075700,3.30407568359375,7.614640306705236,4.012589920224249,-0.5197585448097437
1772561435571105800,3.314105712890625,7.505283859929442,4.557204746936262,-0.9377231870524585
1772561435581134800,3.324134765625,7.326801269957423,5.038671043556929,-1.3103843871697782
1772561435591165000,3.3341650390625,7.021516592890023,5.425947190612554,-1.643883351330459
1772561435601193700,3.34419384765625,6.72836308312118,5.578949302369356,-1.8845836202844977
1772561435611223800,3.354223876953125,6.337580973771214,5.523070178759098,-1.7783903137147425
1772561435621252900,3.3642529296875,5.852820019519329,5.345770661091804,-1.5492280684717
1772561435631282700,3.37428271484375,5.603360690048337,5.1957712382823225,-1.2554974894672633
1772561435641312000,3.38431201171875,5.497427203458547,5.099999080222845,-0.9137767865367233
1772561435651341600,3.394341552734375,5.221050640967488,4.874548987370729,-0.5738127180151641
1772561435661371000,3.404370849609375,5.022261760547757,4.277570936214923,-0.10226137394830584
1772561435671400700,3.414400634765625,5.054761177614331,3.0841292131662366,0.4318419956214726
1772561435681429800,3.4244296875,4.879525022217631,1.5461796406865118,1.1738973568841815
1772561435691458800,3.434458740234375,4.199039251291752,-0.02125847660601139,2.275167722844332
1772561435701488600,3.444488525390625,3.0189532689005136,-1.5752373928666115,3.0659909144073723
1772561435711517700,3.454517578125,1.0925976685523986,-2.768888374751806,3.4241727766647934
1772561435721547800,3.4645478515625,-1.643006860756874,-3.7976568374723194,3.581529868760705
1772561435731576600,3.47457666015625,-4.39305843309164,-4.686358657854795,3.8116663658633825
1772561435741606700,3.484606689453125,-6.953970412361621,-4.815008418643474,4.069862836280465
1772561435751635700,3.4946357421875,-9.495330718943476,-4.381038324952125,3.7751594667211172
1772561435761665800,3.504665771484375,-12.3466758431077,-4.410288969355821,2.7187673762768507
1772561435771694600,3.514694580078125,-14.502114339852332,-4.642047222441435,1.1858114473659545
1772561435781724700,3.524724609375,-15.481817450630665,-4.344403415516019,-0.558123419843614
1772561435791753700,3.534753662109375,-15.730435653102397,-3.913420228680968,-1.560685720422864
1772561435801783800,3.54478369140625,-15.253500862431526,-3.8818426026344297,-1.2026632134456188
1772561435811812900,3.554812744140625,-13.31559920119643,-4.183275572709739,-0.17134601609036326
1772561435821841700,3.564841552734375,-10.327281309056282,-4.416403652843833,0.816946351595968
1772561435831871700,3.574871826171875,-7.412709036606549,-4.457032015830278,1.3545476462841033
1772561435841900800,3.58490087890625,-4.711765486311912,-4.399774881865084,1.4204260397307573
1772561435851931000,3.594930908203125,-2.058358763217926,-4.099155273999274,1.4463118838764726
1772561435861959700,3.604959716796875,0.33090894766747947,-3.626718671530485,1.7807867073319852
1772561435871989800,3.61498974609375,1.8445476702332495,-3.031172991265356,2.0298926933206616
1772561435882018800,3.625018798828125,0.8454898706436157,-2.3951909634545445,1.3003235964044928
1772561435892049000,3.635048828125,-1.654133234927058,-1.948293583650887,0.5217815020047127
1772561435902077700,3.64507763671875,-3.1598657144129274,-1.6612606025889516,0.24024711835905907
1772561435912107800,3.655107666015625,-3.589284136149287,-1.3496455534562468,0.03867708278819918
1772561435922136800,3.66513671875,-3.9085441470772024,-0.6539686431393027,0.1733161471195519
1772561435932167000,3.6751669921875,-4.34339453073442,-0.058679567983746524,0.4956278372356668
1772561435942195700,3.68519580078125,-3.8462270993739365,0.10732406416535377,0.7540716700099408
1772561435952225800,3.695225830078125,-2.9564211171418426,0.3304571122467518,0.9834192086920142
1772561435962254800,3.7052548828125,-1.7982395080447195,0.6032698447763919,1.013635629387945
1772561435972284000,3.715283935546875,-0.4589660032600164,0.6655798782169818,0.8795962845154106
1772561435982314000,3.72531396484375,0.7512205183625221,0.36757132963240147,0.7620999320343136
1772561435992343600,3.735343505859375,2.1033079120129345,-0.1530851138651371,0.5788801574725657
1772561436002373400,3.745373291015625,3.4509272203385826,-0.5272229624062776,0.41600349823758004
1772561436012402200,3.755402099609375,4.293987818008661,-0.7154781738519668,0.5156226140487938
1772561436022432300,3.765432373046875,4.8008998137921095,-0.8551477796964347,0.657313861913979
1772561436032461300,3.77546142578125,5.177189871931076,-0.7900587830618023,0.6201651577368378
1772561436042491400,3.785491455078125,5.3369724376082415,-0.5803145011246204,0.17911000115536152
1772561436052520200,3.795520263671875,5.511058253926039,-0.24677593560591338,-0.40032048367634415
1772561436062550300,3.80555029296875,5.714166751110554,0.1665147965416312,-0.8560217129867523
1772561436072579300,3.815579345703125,5.960254558321833,0.5104262875147163,-1.2727870624423026
1772561436082608400,3.8256083984375,6.307405615738034,0.7824082683086395,-1.5491194935306907
1772561436092638500,3.835638427734375,6.769931941828132,1.0150023876965046,-1.7516110278606414
1772561436102667300,3.845667236328125,7.106416059279441,1.1863231232151388,-1.8932554409094153
1772561436112697300,3.855697265625,7.2145613766998045,1.246889235597849,-1.9103952301502227
1772561436122726400,3.865726318359375,7.344586517494917,1.1904317275777458,-1.7664654826432467
1772561436132756500,3.875756591796875,7.449517549043893,1.1734732862532138,-1.4275952007077632
1772561436142785300,3.885785400390625,7.51321465292871,1.1803498940244317,-1.2722284056462347
1772561436152815400,3.8958154296875,7.417796130612492,1.311656891323626,-1.235296851351112
1772561436162844400,3.905844482421875,7.04770901876688,1.575887088946998,-1.3274652858301996
1772561436172874500,3.91587451171875,6.5199155629962675,1.8174740776076912,-1.4556209794916213
1772561436182903300,3.9259033203125,5.83232083684802,1.803024404233694,-1.870033993667364
1772561436192933400,3.935933349609375,5.315881134262681,1.7348215133622287,-2.24292125762552
1772561436202962400,3.94596240234375,5.030450912222266,1.9782617286741733,-2.100970116715133
1772561436212992500,3.955992431640625,4.606784770402312,2.183247125646472,-1.7913601237945258
1772561436223021600,3.966021484375,4.3924476077169174,1.937390496842563,-1.2193367734141647
1772561436233050400,3.97605029296875,4.035822034990788,1.5365739002123475,-0.3107641313917935
1772561436243080400,3.98608056640625,2.8568595036715267,1.2036992054298519,0.8373293605417013
1772561436253107200,3.996107177734375,1.1657307093024254,0.541338581520319,1.2398477926537395
1772561436263137300,4.00613720703125,-0.6156658004909753,-0.27079496296644207,1.4096851577468215
1772561436273166300,4.016166259765625,-2.005181884303689,-1.0669672604724765,0.9079973263524472
1772561436283196400,4.026196533203125,-3.9036125358939167,-1.5891367388814688,-0.2342497776404023
1772561436293225200,4.03622509765625,-5.965917406389117,-1.8178338508307932,-0.5113710210189223
1772561436303255300,4.04625537109375,-8.07926214376986,-2.2867615683957934,0.2560617964759469
1772561436313284400,4.056284423828125,-10.20838955669403,-2.915043104831874,0.7215238837569952
1772561436323314400,4.066314453125,-12.478966006225347,-3.332306393872201,0.7671570692934095
1772561436333343500,4.076343505859375,-14.11811619155407,-3.75426690081805,0.5924227259390056
1772561436343372300,4.086372314453125,-14.836879378426074,-4.131460629798472,0.5785124932039529
1772561436353402400,4.09640234375,-14.918056609421967,-4.261413289879262,0.4500527020294219
1772561436363431400,4.106431396484375,-14.710489379262924,-4.167077009841799,0.12283391411677003
1772561436373461500,4.11646142578125,-14.05740541000366,-4.005434787772596,-0.2747050490822643
1772561436383490300,4.126490234375,-12.706914345633983,-3.683668054720759,-0.3519819481713697
1772561436393520400,4.136520263671875,-10.924742175292968,-3.3215281024873256,-0.2719364246191457
1772561436403549400,4.146549560546875,-9.036612552964687,-2.9760505312412975,-0.09712375533152372
1772561436413579500,4.15657958984375,-7.079322885170579,-2.745660059377551,0.33750019915867596
1772561436423608300,4.1666083984375,-4.962278708750009,-2.654364462210238,0.9221765852872281
1772561436433638400,4.176638427734375,-2.765529711973667,-2.4834800722822545,1.378677878934145
1772561436443667500,4.18666748046875,-0.6917611981779337,-2.1747055072724817,1.5235034062370656
1772561436453697500,4.196697509765625,1.1350637683600187,-1.6844763507425784,1.303195352448523
1772561436463726300,4.206726318359375,2.802130719140172,-1.10365448461771,0.9054755527898669
1772561436473755400,4.21675537109375,3.809397544148564,-0.5334367223545908,0.37246845402419565
1772561436483785500,4.226785400390625,4.024372420215607,-0.21782032862603662,-0.28873576639182863
1772561436493814500,4.236814453125,4.07121483541131,-0.22742753040492533,-0.8375657265808433
1772561436503844600,4.2468447265625,4.499710881605744,-0.27420681723654267,-0.93338881110996
1772561436513873400,4.256873291015625,4.857673255893587,-0.15120762955546377,-0.49467645479496564
1772561436523903500,4.266903564453125,4.883860421073437,-0.04292319592535496,0.2141239583261311
1772561436533932500,4.2769326171875,5.126632820126414,-0.012819441823661326,0.8375506020769476
1772561436543962400,4.28696240234375,5.702492679929733,0.10651610878333449,1.0582841878011822
1772561436553991400,4.296991455078125,6.274483004823327,0.26017595379650593,1.0373889184843748
1772561436564021200,4.307021240234375,6.752704912695288,0.318756591450423,1.0613106229502707
1772561436574050300,4.31705029296875,7.1229714727610345,0.19326120303943753,1.0860838296789674
1772561436584080400,4.327080322265625,7.390677822062373,-0.07193930092081427,1.1045159237526356
1772561436594109200,4.337109130859375,7.572059640607238,-0.281739989220351,1.130053100591153
1772561436604138500,4.347138427734375,7.574269717872142,-0.4558410031072795,1.2056524583894759
1772561436614168300,4.357168212890625,7.7287360569626085,-0.5862450602173805,1.3216191901504992
1772561436624197400,4.367197265625,7.877389910382032,-0.5521366005189716,1.410634567426145
1772561436634227200,4.377227294921875,7.5935910889357325,-0.44123277817070483,1.3541079396925866
1772561436644256300,4.38725634765625,7.032285824185609,-0.3525402031086385,1.088675965064019
1772561436654286300,4.397286376953125,6.592686200174689,-0.24494594369977712,0.9388420350145548
1772561436664315400,4.4073154296875,6.368803795030713,-0.09546732989400625,0.7792115911591797
1772561436674345500,4.417345458984375,6.255799347141385,0.08370601882115006,0.718285121031478
1772561436684374300,4.427374267578125,6.15696195629239,0.1911209761403501,0.7281457861147821
1772561436694404400,4.437404296875,6.191144211879372,0.2075871039032936,0.7613543012987822
1772561436704433400,4.447433349609375,6.370161639380455,0.25288302030935883,0.7493515826854854
1772561436714463500,4.45746337890625,6.4228206319004295,0.33580154201462864,0.6359858272030949
1772561436724492300,4.4674921875,6.364370781019329,0.32979806381613014,0.5671310848267749
1772561436734521300,4.477521240234375,6.364783453473448,0.19518939462304113,0.307077149974741
1772561436744551400,4.487551513671875,6.356403163141012,0.2510011520855129,0.18428965054927393
1772561436754580500,4.49758056640625,6.0986079670011994,0.41411198540255423,0.1620411399926059
1772561436764610300,4.5076103515625,5.603959240463376,0.48157794030159706,0.15372911085709928
1772561436774639400,4.517639404296875,5.000766552576422,0.2848429236717522,-0.1527286651102826
1772561436784669400,4.52766943359375,4.183640022107959,-0.04239434974566102,-0.5953292610354721
1772561436794698500,4.537698486328125,3.1035388470351695,-0.4808373510673642,-0.8850967816278338
1772561436804728600,4.547728515625,1.7290402996122836,-1.0857108316481112,-1.1162829339139162
1772561436814757400,4.55775732421875,-0.08509060504734516,-1.6127131370410321,-1.3515946416974067
1772561436824787500,4.567787353515625,-2.3192893347740173,-1.8790107885882257,-1.2533248216032982
1772561436834816500,4.57781640625,-4.522940366023779,-1.962447196687758,-0.7885137455768882
1772561436844846600,4.5878466796875,-6.8253732585430145,-1.9572829457923768,-0.11497925509363412
1772561436854875400,4.59787548828125,-9.216305687770246,-2.195022319114208,0.7030119293801486
1772561436864905500,4.607905517578125,-11.904905889320373,-2.5699264758527276,1.126068268738687
1772561436874934500,4.6179345703125,-14.34993523491621,-2.88157396595031,0.41622824690416454
1772561436884963300,4.62796337890625,-16.319486418390273,-2.9203353660210967,-1.1472986152287572
1772561436894993400,4.637993408203125,-17.456088063842056,-2.630141875101626,-2.682507145372033
1772561436905022500,4.6480224609375,-18.554449118226767,-2.4256983299210666,-3.8702629317387935
1772561436915052300,4.65805224609375,-18.947410325181483,-2.473293901571631,-4.665255371810495
1772561436925081600,4.66808154296875,-18.209167361813783,-2.568894210195541,-4.737430965705216
1772561436935111200,4.678111083984375,-16.782528292787074,-2.5734485124990343,-4.293804862657189
1772561436945140500,4.688140380859375,-14.785869322156906,-2.401943068063259,-3.669202891516685
1772561436955170300,4.69817041015625,-12.159287477624416,-2.310371284303069,-2.8607480355426667
1772561436965199400,4.708199462890625,-9.796416775277256,-2.2197578241810203,-1.929209674604982
1772561436975229400,4.7182294921875,-7.928395874997973,-2.248300320315361,-1.0297163380298764
1772561436985258200,4.72825830078125,-6.143896723014116,-2.384608194641769,-0.1779473871167749
1772561436995286800,4.738286865234375,-4.476660260885954,-2.334078615365922,0.323984628297016
1772561437005316600,4.748316650390625,-3.055856473883986,-2.0939047083735467,0.6867727422408759
1772561437015346000,4.758345947265625,-1.7287135518759489,-1.8102739369705318,0.9153750885788351
1772561437025375700,4.768375732421875,-0.7840542819499969,-1.3796189591765402,1.017801516895741
1772561437035404800,4.77840478515625,-0.05337152470350265,-0.8418950610220431,1.12648722480312
1772561437045434600,4.7884345703125,0.6924310602635145,-0.316495222389698,1.1981785423122346
1772561437055463700,4.798463623046875,1.5077251146078108,0.14131401205062866,1.0370342598278075
1772561437065493800,4.80849365234375,2.353892446121573,0.5591062934011221,0.7840266632907092
1772561437075522800,4.818522705078125,3.132917501732707,0.8815086940079927,0.5629226368188858
1772561437085552600,4.828552734375,3.8542888252764937,1.022844771759957,0.5036150731299073
1772561437095581700,4.838581787109375,4.566473218280077,1.029742568449676,0.6915951208960265
1772561437105611800,4.84861181640625,5.383554740563035,0.9905608971402049,1.2878776640683411
1772561437115640800,4.858640869140625,6.178123986786604,0.878755303646624,1.8813740105882286
1772561437125669600,4.868669677734375,6.926688437682389,0.6926961409404874,2.401575696055591
1772561437135699700,4.87869970703125,7.519837285938858,0.5093152575328945,2.7575641399219633
1772561437145728800,4.888728759765625,8.048100697308778,0.40365342749133704,2.748890127339959
1772561437155758800,4.8987587890625,8.593363174274563,0.4295753658637404,2.4392541231952607
1772561437165787600,4.90878759765625,8.810611255970597,0.5312649312734603,2.0898786677278576
1772561437175817700,4.918817626953125,8.962649491131305,0.5489933340571821,1.8210569045305252
1772561437185846800,4.9288466796875,9.059318890291452,0.5389760901726782,1.6732652208983898
1772561437195876900,4.938876953125,9.01687441779375,0.4772669452346861,1.6360263542197644
1772561437205906000,4.948906005859375,8.912923629453777,0.33922976289764045,1.675484358252585
1772561437215935700,4.958935791015625,8.581343066135048,0.5759801251821219,1.638870929995924
1772561437225964800,4.96896484375,8.34711345449984,0.8549906894385814,1.86085612321645
1772561437235995000,4.978994873046875,8.366019230499862,0.6904819720223546,1.7908816926278173
1772561437246024000,4.98902392578125,8.37926391199827,0.6014755087055266,1.2790453921847045
1772561437256054000,4.999053955078125,8.139441010400652,0.822387519736588,0.943626858138293
1772561437266082800,5.009082763671875,8.009104903960228,0.9755375155314803,0.7328961955122649
1772561437276112000,5.01911181640625,7.939496530205011,0.9045917556926607,0.541881675421074
1772561437286142000,5.029141845703125,7.726746344450116,0.8935435613252222,0.42438152354769404
1772561437296170800,5.039170654296875,7.3758011554479594,1.0168928776182233,0.3174668439008295
1772561437306200800,5.049200927734375,7.033425641870498,1.1139666197955607,0.025378406080231068
1772561437316230000,5.05922998046875,6.788362501531839,1.1436690996199845,-0.16055800702907144
1772561437326260000,5.069260009765625,6.516860851600766,1.0973910403087734,-0.29539613759648053
1772561437336288800,5.079288818359375,5.995601181513071,0.9289403072685003,-0.3938260070905089
1772561437346318800,5.08931884765625,5.098637144219875,0.529978690855205,-0.8532453070759772
1772561437356348000,5.099347900390625,4.03339334653914,0.0655956309825182,-1.3598629960879682
1772561437366377700,5.109377685546875,2.5441630890429017,-0.41220688243359327,-1.7346331511832773
1772561437376406800,5.11940673828125,-0.09448094920516013,-0.7379737910374998,-1.7855489532977342
1772561437386436600,5.1294365234375,-3.4338550895065065,-1.0665201012268661,-0.9226485136479139
1772561437396465700,5.139465576171875,-6.037966743555665,-1.593858214445412,0.49430502766668794
1772561437406495000,5.149494873046875,-8.067161956131457,-2.1651345458507536,1.3024077092021702
1772561437416524800,5.15952490234375,-9.974290877962112,-2.2787588792040943,1.224939854118228
1772561437426553600,5.1695537109375,-12.082446230006218,-2.047702052386105,0.5252794271230697
1772561437436583700,5.179583740234375,-13.42709441356659,-2.021438607099652,-0.08886208641007542
1772561437446612700,5.18961279296875,-13.699806608331203,-2.224219187504053,-0.4307349111624062
1772561437456642800,5.199642822265625,-13.851422234165668,-2.3843512972712517,-0.4260615125238895
1772561437466671600,5.209671630859375,-13.591221145927905,-2.567320677268505,-0.30892697909250855
1772561437476701700,5.21970166015625,-13.3361007219553,-2.538176123587787,-0.586955692704767
1772561437486730800,5.229730712890625,-13.672331741428374,-2.270754728707671,-0.9013269086778163
1772561437496760800,5.2397607421875,-13.70273857012987,-2.274706681203842,-1.4850368974596262
1772561437506790000,5.249789794921875,-13.569956239581106,-2.0946002894222735,-1.9164790801085532
1772561437516819700,5.25981982421875,-12.766602213877439,-1.8029837799623607,-1.8340920349314809
1772561437526848800,5.269848876953125,-11.424654521447419,-1.565758201381564,-1.8414188706882297
1772561437536877800,5.2798779296875,-9.778217101719974,-1.3904995418921111,-1.8218787423074245
1772561437546908000,5.289907958984375,-7.6140207135021685,-1.3042115437537432,-1.6167536446034907
1772561437556936700,5.299936767578125,-5.436792994275689,-1.1964938040956854,-1.0594497975144535
1772561437566966800,5.309966796875,-3.3660563955217597,-1.3395192962393163,-0.37912199362926186
1772561437576995800,5.319995849609375,-1.2979355322241783,-1.5992919299319386,-0.0013071370758116244
1772561437587026000,5.33002587890625,0.5465215371161699,-1.6644178975760935,0.2607962045866996
1772561437597054700,5.3400546875,2.002373256623745,-1.5790823778569698,0.5055663533281535
1772561437607084800,5.350084716796875,2.9708038627594706,-1.4058578545436262,0.6361357570677996
1772561437617113900,5.36011376953125,3.565158579674363,-1.1128928530842066,0.5183928824797273
1772561437627144000,5.37014404296875,3.938675665968656,-0.7825047144204378,0.4517951617825776
1772561437637172700,5.3801728515625,4.458241976141929,-0.5335542112544178,0.4990144839992746
1772561437647202800,5.390202880859375,5.091603007799387,-0.3061893708221614,0.5056462136313319
1772561437657232000,5.40023193359375,5.704860578104853,0.033184915112704036,0.5766948127901181
1772561437667261000,5.410260986328125,6.26375235197246,0.36686449653729797,0.7531835620637982
1772561437677291000,5.420291015625,6.793857007294893,0.586350274157524,1.1174388259507715
1772561437687319800,5.43031982421875,7.163609188097715,0.7764294861599802,1.510416253387928
1772561437697350000,5.440349853515625,7.517068990269303,0.8202832409337163,1.7428361852526664
1772561437707379000,5.45037890625,7.862117522448301,0.8641288124009966,1.9723842149429023
1772561437717408800,5.46040869140625,8.102695041805505,0.9394593631953001,2.063656869626045
1772561437727437800,5.470437744140625,8.175562125095725,0.9337865782558917,2.054832050396502
1772561437737467600,5.480467529296875,8.068377761662006,0.8153504607066512,1.8380505632989108
1772561437747497000,5.4904970703125,7.935167561089992,0.7077937568292021,1.3000327967643737
1772561437757526800,5.50052685546875,7.710392006498575,0.7238947045415639,0.8992117431547493
1772561437767555800,5.510555908203125,7.455089796218275,0.705833854933083,0.6441850618802011
1772561437777585700,5.520585693359375,7.3028300272613755,0.7207831483922899,0.4401199580905959
1772561437787614700,5.53061474609375,7.119227025535702,0.8125786579057573,0.39241471552047874
1772561437797643800,5.540643798828125,6.954493559452891,0.8834734182097017,0.47154601030461485
1772561437807673600,5.550673583984375,7.003572939920425,1.0007985057771205,0.5887953292220831
1772561437817702700,5.56070263671875,7.114407058033347,1.1620207488685845,0.6978314580023288
1772561437827732700,5.570732666015625,7.114842526841163,1.2125687405839563,0.6271068666335194
1772561437837761800,5.58076171875,7.00399204211533,1.2012339843600988,0.55359092751313
1772561437847791900,5.5907919921875,6.611444676658511,1.213169921347499,0.6354003554653376
1772561437857820700,5.600820556640625,6.084577103561163,1.1396110564008355,0.6095976960910484
1772561437867850800,5.610850830078125,5.59984829801321,1.1779720589771867,0.4084687188185751
1772561437877879800,5.6208798828125,5.290952444711327,1.4393664486527442,-0.10797427170239389
1772561437887910000,5.630909912109375,5.1648944539815185,1.6366688899070023,-0.668226008811593
1772561437897938700,5.640938720703125,5.070553790029883,1.7671558029949663,-0.6916830183751881
1772561437907968800,5.65096875,4.5771360665917395,1.6467933935582637,-0.2209365426841192
1772561437917997800,5.660997802734375,3.589636602848768,1.206696049158275,0.3548174638582393
1772561437928027000,5.67102685546875,2.166234031525254,0.39570495270490647,0.768342845011875
1772561437938056700,5.681056640625,0.6256108559221029,-0.6036462768733502,0.7406999280657619
1772561437948085800,5.691085693359375,-1.4911901593923569,-1.379511407148838,0.6063373060556129
1772561437958115800,5.70111572265625,-4.169431464013457,-2.1009549191460013,0.8851703583206981
1772561437968145000,5.711144775390625,-6.896973682898283,-2.7886715181082486,1.109001033277437
1772561437978175000,5.721175048828125,-9.039163991013169,-2.795466585075855,0.769936397813633
1772561437988203800,5.731203857421875,-10.268618692207335,-1.8979554352939128,-0.24643594479551537
1772561437998234600,5.741234619140625,-11.225213314598799,-0.7421896551668643,-1.5835232829138635
1772561438008264000,5.751263916015625,-12.699411422657965,-0.2143576209515333,-2.498520697286725
1772561438018293800,5.761293701171875,-14.48309399756193,-0.6422936951756477,-2.620026723800599
1772561438028322800,5.77132275390625,-14.970602789217233,-1.3758908785641193,-2.349684619168192
1772561438038352600,5.7813525390625,-14.307339955770969,-1.742260431191325,-1.681599334001541
1772561438048381700,5.791381591796875,-13.41925714406967,-1.7554022368371485,-1.0645908867299556
1772561438058411000,5.801410888671875,-12.261585822582244,-1.8405796433851123,-0.48997974834609775
1772561438068440600,5.811440673828125,-10.819956105172633,-2.1515032031223176,0.10174135039588436
1772561438078469600,5.8214697265625,-9.363532138735055,-2.2873186177566645,0.5576631088554859
1772561438088499700,5.831499755859375,-8.195420671775937,-2.137015535825491,0.7821009559251367
1772561438098528800,5.84152880859375,-7.182211012715101,-1.955598645967245,0.808935698293522
1772561438108558600,5.85155859375,-6.249253286498785,-1.8244339797481894,0.7786912205468863
1772561438118587600,5.861587646484375,-5.3525400090962645,-1.6605682364106178,0.6582809533804654
1772561438128617700,5.87161767578125,-4.202718232065439,-1.3663283927097916,0.35779662579949945
1772561438138646800,5.881646728515625,-2.9585405935138462,-0.9022194736033677,0.10502108445260673
1772561438148676900,5.8916767578125,-1.660108802205324,-0.591943564119935,-0.14313684356361628
1772561438158705700,5.90170556640625,-0.19920973618030546,-0.36747400673776864,-0.12358842227850109
1772561438168735700,5.91173583984375,1.0468810425162314,-0.17795125957429409,0.1706036732904613
1772561438178764800,5.921764892578125,1.7601859639823436,-0.09540127892047166,0.6320815132409334
1772561438188793600,5.931793701171875,2.3517910899281502,-0.16170447365045545,0.8805308619517832
1772561438198823700,5.94182373046875,3.127928022882342,-0.190457251534611,0.8689974413506686
1772561438208852700,5.951852783203125,3.8751550876945253,-0.08725435895249246,0.7942148067627102
1772561438218882800,5.9618828125,4.552161199811101,0.024636866997927425,0.8731587988138199
1772561438228911900,5.971911865234375,5.223386390438676,0.013151888648420571,1.0743247105631977
1772561438238941700,5.981941650390625,5.908651796856522,-0.016116291411966084,1.209053425939381
1772561438248970800,5.991970703125,6.807091167399287,-0.04212093963176012,1.2323816945567727
1772561438259000800,6.002000732421875,7.706349453109502,-0.08328077914640307,1.2558106470696628
1772561438269030000,6.01202978515625,8.118475379261374,-0.10955781456679105,1.4268994735285638
1772561438279059700,6.022059814453125,8.14966488277316,-0.23466537270396948,1.6129384702295064
1772561438289088800,6.0320888671875,8.07072052539587,-0.4250980743192136,1.7526441703006623
1772561438299118800,6.042118896484375,8.09200238287747,-0.4929674954526126,1.5467679619684815
1772561438309148000,6.05214794921875,8.172913656413554,-0.18817440129444002,1.2434993008986115
1772561438319176700,6.0621767578125,8.280684879824518,0.2767176310136914,1.147564718819037
1772561438329206800,6.072206787109375,8.41854670559466,0.5904248301200569,1.0023825600981713
1772561438339235800,6.08223583984375,8.438250938495994,0.7916469290360808,0.8261078554339707
1772561438349266000,6.092265869140625,8.322270105144382,0.9079578711248933,0.6892927622377872
1772561438359294700,6.102294677734375,8.342175413575768,0.984039532547444,0.5907941018238664
1772561438369324800,6.11232470703125,8.35593388981521,1.034288541316241,0.5135072293300181
1772561438379353900,6.122353759765625,8.214331123951077,1.0594196215718985,0.4090714339520782
1772561438389383700,6.1323837890625,8.149369114696979,1.0935058694384991,0.2668613863771781
1772561438399413000,6.1424130859375,7.97402014657557,1.2284653978958726,0.3255183406703174
1772561438409442600,6.152442626953125,7.561737568557262,1.4039645881429315,0.5494902507286519
1772561438419471600,6.1624716796875,6.820254600355029,1.5777449917733668,0.7249070964545011
1772561438429501700,6.172501708984375,6.0115481077075,1.6542206209495662,0.48656117207426575
1772561438439530800,6.18253076171875,5.386936199694872,1.669601729954779,-0.05159198434296995
1772561438449559800,6.192559814453125,4.843855742943287,1.4550278359040618,-0.41608777898754923
1772561438459589600,6.202589599609375,4.073797253119945,0.9008353257685899,-0.5357952681794762
1772561438469618700,6.21261865234375,3.0030525199353693,0.17864567157924174,-0.269458563263528
1772561438479648800,6.222648681640625,1.4259271213650702,-0.7956962044268846,0.05135493331723846
1772561438489677600,6.232677490234375,-1.2733242380589247,-2.003477126212418,0.6188449419837445
1772561438499707600,6.242707763671875,-4.341179777294397,-3.0687109870210287,0.9805992559004575
1772561438509736700,6.25273681640625,-7.040441658112407,-3.49470381822288,0.7599831590760499
1772561438519766800,6.262766845703125,-9.529704697710276,-3.28832258297801,-0.04710424446966499
1772561438529795800,6.2727958984375,-11.28281911587119,-2.7647248253315686,-1.2603390842795372
1772561438539825700,6.28282568359375,-12.663051823031902,-2.141274946835637,-2.5319439511999486
1772561438549854700,6.292854736328125,-14.177913949912785,-1.882232965505123,-3.6647900435104965
1772561438559884800,6.302884765625,-15.783281108105182,-1.9931693749487398,-3.9776913330614563
1772561438569913900,6.312913818359375,-16.95525918736458,-2.292855209095776,-3.41402401535511
1772561438579942700,6.322942626953125,-17.00650889760852,-2.746542102909088,-2.7661797003149986
1772561438589972700,6.33297265625,-16.06905970519185,-3.096801355473697,-2.4448927136041223
1772561438600001800,6.343001708984375,-14.453696053642034,-3.2136911203637717,-2.1022050653375683
1772561438610031900,6.353031982421875,-12.777909205311536,-3.2978687022194264,-1.604959600304812
1772561438620060700,6.363060791015625,-11.103596521186828,-3.4690015139505266,-1.2057063074685632
1772561438630090800,6.3730908203125,-9.469646242588757,-3.536495087508857,-0.9418119176708162
1772561438640119800,6.383119873046875,-7.98340055386126,-3.4280572168827055,-0.574185935241729
1772561438650150000,6.39314990234375,-6.467026268851757,-3.167809951415658,-0.45021808519158507
1772561438660178700,6.4031787109375,-4.844643093928695,-2.5171339200809597,-0.651447454098612
1772561438670208800,6.413208740234375,-3.3453742574989795,-1.7052976049751043,-0.6418715973060578
1772561438680237800,6.42323779296875,-1.8550456833720206,-1.1440198127537966,-0.4901393593546003
1772561438690268000,6.433267822265625,-0.42040801680684087,-0.8269073352485895,-0.1874249711666256
1772561438700297000,6.443296875,1.0841945818662644,-0.6118102941066026,0.3517977872435003
1772561438710325800,6.45332568359375,2.394393967857957,-0.4262181643903255,0.735180799318105
1772561438720355800,6.46335595703125,3.4336540139764544,-0.25095775133520365,1.173280978551507
1772561438730385000,6.473385009765625,4.276790014970302,-0.09630991819798945,1.4205692475937306
1772561438740415000,6.4834150390625,4.596245840731263,-0.05959902091622352,1.3148267535313962
1772561438750443800,6.49344384765625,5.0070074927926065,-0.16750263853520153,1.1325558771923183
1772561438760473900,6.503473876953125,5.5695215488106005,-0.20272885021716355,1.0216703211531042
1772561438770503000,6.5135029296875,6.096506610807776,-0.2375090716972947,1.0206532530650496
1772561438780532700,6.52353271484375,6.5081859622359275,-0.2907797663748264,1.103102695953846
1772561438790561800,6.533561767578125,7.003306982460618,-0.16419219881296157,1.2108391403123735
1772561438800591600,6.543591552734375,7.551610726818442,0.11267828467488288,1.4628165900841354
1772561438810620700,6.55362060546875,7.706691982936858,0.3384384663894772,1.6948286718003451
1772561438820650800,6.563650634765625,7.642050876200199,0.3679726039096713,1.91057248641327
1772561438830679600,6.573679443359375,7.5905170883178705,0.3052183338329196,1.9575917194806038
1772561438840708600,6.58370849609375,7.652069581389426,0.3880861482642591,1.8253652692489324
1772561438850738700,6.59373876953125,7.910466835075616,0.7270549221381545,1.7777651675537227
1772561438860767700,6.603767822265625,8.234460304266214,1.1180194023177028,1.7034850025951862
1772561438870797800,6.6137978515625,8.471652272838353,1.3688188943512738,1.519768165231496
1772561438880826600,6.62382666015625,8.298725563427805,1.3217756958864628,1.4887150014504789
1772561438890856700,6.633856689453125,8.04061881712079,1.1532441526949404,1.5168188139066099
1772561438900885800,6.6438857421875,7.9187641232997175,1.1817913250043988,1.6434274242565035
1772561438910915800,6.653915771484375,7.726865586915612,1.26834381929785,1.8027951255224643
1772561438920944600,6.663944580078125,7.498178996360301,1.3059008120149374,1.8331931863956152
1772561438930974700,6.673974609375,7.308712071037292,1.385109957808256,1.7478823627263307
1772561438941003800,6.684003662109375,6.94270842911303,1.5257280965492128,1.5544044481962918
1772561438951033900,6.694033935546875,6.593090689322352,1.7314701571077107,1.1756833635181188
1772561438961062700,6.704062744140625,6.430346351230144,2.0311630055174232,0.8352772503174841
1772561438971091700,6.714091796875,6.240874165210127,2.296965567024052,0.5526675655905157
1772561438981121800,6.724121826171875,6.057282853922247,2.368948853217065,0.3067033847589046
1772561438991150800,6.73415087890625,5.991017360854149,2.1777944131985305,0.14810244834804906
1772561439001180200,6.74418017578125,5.951883620339632,1.7104849444851278,-0.12863668211139737
1772561439011209200,6.754209228515625,5.521781307992339,0.9995309700593352,-0.6852764392685144
1772561439021239000,6.764239013671875,4.365349172911047,0.3384101170778274,-1.3576634402170777
1772561439031268000,6.77426806640625,2.5079344223201274,-0.3007034867569804,-1.4477406015053391
1772561439041298200,6.784298095703125,-0.24311726696789263,-0.9451631277948618,-0.5460313059138133
1772561439051327200,6.7943271484375,-3.073714786657691,-1.4396622167289257,0.6939208604298531
1772561439061357300,6.804357421875,-5.5723459585815664,-1.7055287833824753,1.0162156359437853
1772561439071386000,6.81438623046875,-8.606584474897383,-1.6812977207064628,0.3650623059535399
1772561439081416200,6.824416259765625,-11.674538798332213,-1.6997294494539499,-0.26318492635414004
1772561439091445200,6.8344453125,-13.359873227208851,-1.87543146879673,-0.6854159208044409
1772561439101474000,6.84447412109375,-14.088169966101646,-1.9656608980372547,-0.8480236269049346
1772561439111504100,6.854504150390625,-14.646523979830741,-2.1652862292811275,-0.6532450781051069
1772561439121533200,6.864533203125,-15.27728856525421,-2.7369758176624774,-0.3864177035953849
1772561439131563300,6.874563232421875,-15.554544833189247,-3.0943343808382746,-0.49379152518659825
1772561439141592000,6.884592041015625,-15.088815327143669,-2.92473097063154,-0.7808081396356225
1772561439151622100,6.8946220703125,-14.39452724083662,-2.655080501525104,-0.7919540952891111
1772561439161651200,6.904651123046875,-13.096772910398244,-2.4925179497405887,-0.6406750079326331
1772561439171681300,6.914681396484375,-11.353312455767393,-2.385967500296235,-0.5130803822200745
1772561439181710300,6.92471044921875,-9.788602886655926,-2.354860998892784,-0.5404262159157545
1772561439191740200,6.934740234375,-8.236121515476704,-2.3683047100946304,-0.4724332049353048
1772561439201769200,6.944769287109375,-6.613462446221709,-2.528847154228389,-0.18799250538889317
1772561439211799000,6.954799072265625,-4.900112467694282,-2.672167537665367,0.12902548963273874
1772561439221828000,6.964828125,-3.1367204011470076,-2.7146605254799128,0.20429933267058803
1772561439231857200,6.974857177734375,-1.3479361191898585,-2.630598386697471,0.44748299767188726
1772561439241887000,6.984886962890625,0.09063654873669147,-2.549000299941003,0.7893200935237109
1772561439251916300,6.994916259765625,1.2577063976883887,-2.381308860835433,1.0645463900011032
1772561439261946000,7.004946044921875,2.101467837104201,-1.9910887692824004,1.4272753211036324
1772561439271975200,7.01497509765625,2.7325644309610126,-1.333207044352591,1.6817445876911281
1772561439282005000,7.0250048828125,3.216527512833476,-0.4303057259649038,1.6716164307780563
1772561439292034000,7.035033935546875,3.819293499740958,0.21213030029088256,0.9169551243118941
1772561439302064000,7.045064208984375,4.117981262761354,0.5582543527469038,-0.08325535244420171
1772561439312093200,7.05509326171875,4.465355023017525,0.8015259334936737,-0.5951834228239953
1772561439322123000,7.065123046875,5.2969677594780915,1.0476336144492029,-0.4692990350954234
1772561439332152000,7.075152099609375,6.183672268563509,1.135408051753044,0.2928182864651084
1772561439342182100,7.08518212890625,6.7547846415787935,0.9726701434016227,0.9822009189434349
1772561439352211200,7.095211181640625,6.862430777305364,0.8452443714499474,1.7311697128564119
1772561439362240000,7.105239990234375,7.22322399110496,0.5567927557617426,2.37701949307844
1772561439372270000,7.11527001953125,7.442644156143069,0.22750205694586037,2.4791046336770055
1772561439382299100,7.125299072265625,7.560685429155826,0.06527955077067017,2.125882293523103
1772561439392329200,7.1353291015625,7.773416325688362,0.12991305872276424,1.452058903095871
1772561439402358000,7.14535791015625,7.8407298665046685,0.3430935987189412,0.9333801163468509
1772561439412388000,7.15538818359375,7.9108496969133615,0.4397019153416156,0.6241401988476515
1772561439422417200,7.165417236328125,7.877144411188364,0.44924759619161486,0.6457932277292012
1772561439432447200,7.175447265625,7.801576252245902,0.4174290009960532,0.8567938664030283
1772561439442476000,7.18547607421875,7.763414571633935,0.5106057357348501,1.1647734085775912
1772561439452506000,7.195506103515625,7.780963087806105,0.532119794537127,1.3104419625759125
1772561439462535200,7.20553515625,7.714408256402611,0.5210355059430003,1.3155555061973632
1772561439472564200,7.215564208984375,7.373144503459334,0.6430478745438158,1.3297463825047016
1772561439482594300,7.22559423828125,6.787654645523428,0.822287712623924,1.3035916582897304
1772561439492623000,7.235623046875,6.346292103493213,0.8990143939517438,1.0417452870629726
1772561439502653200,7.245653076171875,5.969127016085386,0.9401948378629982,0.57492309040986
1772561439512682200,7.25568212890625,5.492110976871848,1.0366950179360805,0.13706486670617013
1772561439522712300,7.26571240234375,4.814221652179956,1.0112937424369155,-0.22373260314343496
1772561439532741000,7.2757412109375,4.262001026639342,1.1242555202282964,-0.15665281628407537
1772561439542771200,7.285771240234375,3.5473271549075838,1.3236580025017262,0.3182635472364724
1772561439552800300,7.29580029296875,3.0667630678236484,1.3216422787651418,0.4673055962558835
1772561439562830300,7.305830322265625,2.409368249627948,1.244790802013874,0.3624915056174621
1772561439572859100,7.315859130859375,0.9147761728376149,0.8120867827355861,0.18528317336495964
1772561439582889000,7.325888916015625,-1.312074532213807,-0.018997838197648526,0.20827881249450145
1772561439592918300,7.335918212890625,-3.661357438713312,-1.0398001443445681,0.3287398965327069
1772561439602948000,7.345947998046875,-5.597880797332525,-1.702638322637975,0.5402689429948107
1772561439612977200,7.35597705078125,-7.499323490220307,-1.8580536330163477,0.7968117644533514
1772561439623006200,7.366006103515625,-9.371440719902514,-1.8518793282955883,0.8817758205115794
1772561439633036000,7.3760361328125,-10.686308682227134,-1.7431605949014424,0.5760322572281584
1772561439643065000,7.386065185546875,-11.593608235573768,-1.7204378909617661,-0.2230473790919408
1772561439653095200,7.39609521484375,-12.292232305258512,-1.6316665515750646,-1.0135502161268144
1772561439663124000,7.4061240234375,-12.72073945736885,-1.514345701791346,-1.1039665462415664
1772561439673154000,7.416154052734375,-12.468732196980714,-1.7474150374755262,-0.9867558057688176
1772561439683183000,7.42618310546875,-11.941143908393382,-1.7573562935143707,-0.8913676055256277
1772561439693213200,7.436213134765625,-11.317266159874201,-1.671575075854361,-0.6674522479601204
1772561439703242000,7.446241943359375,-10.361314511561392,-1.6944406953960656,-0.573759636121057
1772561439713272000,7.45627197265625,-9.158377230414748,-1.5773510240197182,-0.44536469034366305
1772561439723301000,7.466301025390625,-7.921527742794155,-1.6476485490828752,-0.31761407035179434
1772561439733331200,7.476331298828125,-6.668126348823309,-1.8135121882393954,-0.3862008459743112
1772561439743360000,7.486360107421875,-5.520704034149646,-1.8329402345478534,-0.32239450956135984
1772561439753389000,7.49638916015625,-4.36836589038372,-1.8046268709942697,-0.19209259765148162
1772561439763419100,7.506419189453125,-3.385770565295219,-1.797432867836952,-0.1344415141989477
1772561439773448200,7.5164482421875,-2.4307301866084337,-1.7809701010748742,-0.3013097090218216
1772561439783478300,7.526478271484375,-1.3642267442554235,-1.6273130325406788,-0.4022052745096385
1772561439793507000,7.536507080078125,-0.2976221796154976,-1.3217369713112712,-0.2857312508136034
1772561439803537200,7.546537109375,0.7644441570729017,-0.9229407745927571,-0.20449903822746127
1772561439813566200,7.556566162109375,1.4639415024608373,-0.4881766079142689,-0.255169414213486
1772561439823596300,7.56659619140625,1.770925969183445,-0.04787234276533127,-0.3117065268084407
1772561439833625000,7.576625,1.9118559503525494,0.3284881502613425,-0.16979337982088327
1772561439843655200,7.5866552734375,2.069520793223381,0.4346659670010209,0.040642683772742744
1772561439853684200,7.596684326171875,2.3898031329363585,0.26047055282890796,0.025069047870114443
1772561439863713000,7.606713134765625,2.906065725389123,0.05111147081702947,-0.07195968612171709
1772561439873743000,7.6167431640625,3.745112411242723,-0.032042028687894346,-0.037409327874705196
1772561439883772200,7.626772216796875,4.749537875345349,-0.0183705000795424,0.1606521881185472
1772561439893802200,7.63680224609375,5.558772775781154,-0.06590002075657247,0.32961035922430454
1772561439903831300,7.646831298828125,6.072379885289073,0.0096247374355793,0.7580468572512269
1772561439913861000,7.656861083984375,6.528983835592865,0.10465484495609999,1.0549509517252444
1772561439923890200,7.66689013671875,6.753779263928532,0.18893866366520523,1.2385368561856447
1772561439933920300,7.676920166015625,6.644574792844057,0.24822189663052557,1.2126238317720592
1772561439943949300,7.68694921875,6.525925617066025,0.36821313466727734,1.0105364212635903
1772561439953979100,7.696979248046875,6.430548595803976,0.7134894842527806,1.0013789360135794
1772561439964008200,7.70700830078125,6.470118974170088,1.0956119018070398,1.0132271216522901
1772561439974038000,7.7170380859375,6.77301237218678,1.3367127143859863,0.9818915607333183
1772561439984067300,7.7270673828125,6.904817966657877,1.4202137121543288,0.7105031619183719
1772561439994097400,7.737097412109375,6.74561524669528,1.3395438461586833,0.35402459644749756
1772561440004126500,7.74712646484375,6.797361216023564,1.2901651904836295,0.47979292004834856
1772561440014155500,7.757155517578125,6.936735784444212,1.2602882308751344,0.7449621886201202
1772561440024185300,7.767185302734375,6.933739525237679,1.2487170355468988,0.7254869421690702
1772561440034214400,7.77721435546875,6.721190999534726,1.3751818535119293,0.5672608121536672
1772561440044244500,7.787244384765625,6.303128084549307,1.5662652741208671,0.41886951866056765
1772561440054273500,7.7972734375,5.9780871521323915,1.7226511830970643,0.022795102455606682
1772561440064303400,7.807303466796875,5.749622095373272,1.9208678165867923,-0.5024405494578182
1772561440074332400,7.81733251953125,5.294780478566885,2.1102906105071306,-0.9472617805745452
1772561440084362500,7.827362548828125,4.701867192631959,2.1921756975114346,-1.0723097174789755
1772561440094391600,7.8373916015625,3.866580151572823,2.171657810139656,-0.7203238603174686
1772561440104421600,7.847421630859375,2.817462728306651,1.9770076369598506,-0.4328074065875262
1772561440114450400,7.857450439453125,1.5598901861310004,1.8109984518527984,-0.1177577798962593
1772561440124479500,7.8674794921875,-0.0866658915400505,1.454738205307722,0.2686657689180225
1772561440134509600,7.877509521484375,-1.7362258272022009,0.8921963844999671,0.5035019681442529
1772561440144538400,7.887538330078125,-2.502013800099492,0.24159400292336938,0.6005041063901037
1772561440154568400,7.897568359375,-2.786852485987544,-0.2814952206790447,0.6761478147868066
1772561440164597500,7.907597412109375,-3.3625083476513624,-0.8645666192963719,0.634888606550917
1772561440174627600,7.917627685546875,-4.228390433460474,-1.5613883157342672,0.06178286776132881
1772561440184656600,7.92765673828125,-5.387709522154927,-2.0694769540816544,-0.6296351430021226
1772561440194686500,7.9376865234375,-6.43110038446784,-2.2176506227687,-0.45528000822365283
1772561440204715500,7.947715576171875,-7.203773440703749,-2.6264570491090415,0.05039755039401352
1772561440214745600,7.95774560546875,-8.302009991925955,-2.8139149726971984,0.5300127392552793
1772561440224774700,7.967774658203125,-9.727169636049867,-2.6008669730395075,0.640972310378775
1772561440234804700,7.9778046875,-10.761524958992004,-2.20048292260766,0.1434983703523874
1772561440244833500,7.98783349609375,-11.274817011201382,-1.8859347426325082,-0.5836626790413633
1772561440254863600,7.997863525390625,-11.330198122161626,-1.57940824881047,-0.9128294226840138
1772561440264892700,8.007892578125,-10.870230832904577,-1.4020885651379822,-0.8489505324915051
1772561440274921500,8.01792138671875,-10.23776178165078,-1.523610666003823,-0.7023746543899179
1772561440284951600,8.02795166015625,-9.166165400072932,-1.7221043628692625,-0.5667732112998143
1772561440294980600,8.037980712890626,-8.058323985159397,-1.8837173588439822,-0.36556517744176087
1772561440305010400,8.048010498046875,-7.301305594173074,-2.1194234727725387,0.016302717362158
1772561440315039700,8.058039794921875,-6.497914743590354,-2.3562737883001565,0.27013094609975813
1772561440325069300,8.0680693359375,-5.590006118434667,-2.4345427306339142,0.2286329972045496
1772561440335098600,8.0780986328125,-4.7630765713542695,-2.2726175999701024,0.08277306708628311
1772561440345128400,8.08812841796875,-3.998329047420621,-1.9843638449415564,0.031803160164412106
1772561440355157500,8.098157470703125,-3.0818454861432314,-1.7142533571079372,0.06847341490853577
1772561440365187300,8.108187255859375,-2.262186806848645,-1.343649527911842,0.1546215296521783
1772561440375216400,8.11821630859375,-1.5614321548759937,-0.8389932021006942,0.10878350572604685
1772561440385246500,8.12824658203125,-0.8621966752946376,-0.3269777456983924,0.0645864174073562
1772561440395275500,8.138275634765625,-0.1537818639576435,0.19172814825326204,0.041254532060772175
1772561440405304300,8.14830419921875,0.5615297211557626,0.7531459334671496,0.19876754537075758
1772561440415334400,8.15833447265625,1.4008996476143598,1.0267688133358954,0.48028527014255523
1772561440425363500,8.168363525390625,2.2386866887956858,1.0593126540660858,0.6361082114737481
1772561440435393500,8.1783935546875,3.1185470310747623,1.0250155399277805,0.687526556282863
1772561440445422300,8.18842236328125,3.9738808348625896,0.8937915447369217,0.6559354131676256
1772561440455452400,8.198452392578124,4.688135019877553,0.7205559155076742,0.6076587273851036
1772561440465481500,8.2084814453125,5.264062684220075,0.625246991045773,0.6966148487541824
1772561440475511600,8.218511474609375,5.639359639668465,0.5143582201361656,0.94995006981045
1772561440485540600,8.22854052734375,5.900919156777858,0.44174744969457386,1.0956149705469607
1772561440495570400,8.2385703125,6.286192147317529,0.5839996193781495,1.137406020637229
1772561440505599500,8.248599609375,6.571384468948841,0.9647647771045565,1.1454390319019556
1772561440515628500,8.258628662109375,6.89123426246345,1.146841007654369,1.1612209767930208
1772561440525658600,8.26865869140625,7.221333062791824,1.1742355027973652,1.2556968114316462
1772561440535687400,8.2786875,7.438833657944202,1.222127134785056,1.2565747633099555
1772561440545717500,8.288717529296875,7.637453611537814,1.3504393341824412,0.9804295253567397
1772561440555746600,8.29874658203125,7.80566498286426,1.4846782932803033,0.7398917534880339
1772561440565776600,8.308776611328126,7.938530900043249,1.5690461370110511,0.7862480656672268
1772561440575805400,8.318805419921874,7.9973636127620935,1.612704076951742,0.839142182117328
1772561440585835500,8.32883544921875,7.80255240380168,1.7953899638324975,0.756023973121494
1772561440595864600,8.338864501953125,7.723193620404601,2.081027983404696,0.5815859092999249
1772561440605894700,8.348894775390624,7.935961341816187,2.3840850475504993,0.294014528778661
1772561440615923500,8.35892333984375,7.833571226921677,2.7178569834336637,-0.08702354587130248
1772561440625953500,8.36895361328125,7.286002811101079,3.0517490385651587,-0.4250935442745685
1772561440635982600,8.378982666015625,6.818278331845998,3.2359386080071326,-0.6025951603852212
1772561440646011600,8.38901171875,6.4587529460251325,3.153710114392638,-0.5604885415397584
1772561440656041700,8.399041748046875,5.977987783411145,2.8514333869695663,-0.48624037915468216
1772561440666070500,8.409070556640625,5.512113900458813,2.3607009570926425,-0.30781762961111964
1772561440676100600,8.4191005859375,5.123679815539718,1.709727404116094,-0.1816676132163033
1772561440686129700,8.429129638671874,4.681771330064535,0.9612681671604514,-0.09855280175395309
1772561440696159500,8.439159423828125,3.9242771382600066,-0.1396636144950986,0.11097696064971387
1772561440706188500,8.4491884765625,2.6715602194219827,-1.389720374213159,0.48954815199580043
1772561440716218400,8.45921826171875,1.252364452138543,-2.18095696888268,0.7271032182592898
1772561440726247400,8.469247314453124,-0.03275485313236713,-2.679888487306237,0.6377081209510564
1772561440736277500,8.479277587890625,-1.170162554270029,-3.0002813016563654,0.7064216647583991
1772561440746306300,8.489306396484375,-2.6244150218874216,-2.9710116602912544,0.8612653127286582
1772561440756336400,8.49933642578125,-4.204103548943996,-2.897859622579813,0.7998398801028728
1772561440766365400,8.509365478515624,-6.208909001150727,-3.279872734540701,0.5716076091863215
1772561440776394500,8.51939453125,-8.763362013539671,-3.852684897211194,-0.13628979068044572
1772561440786424300,8.52942431640625,-11.013817466062306,-4.01076153575331,-1.1074697320569307
1772561440796453400,8.539453369140626,-12.914190483891963,-3.4735917643502354,-1.873762804932147
1772561440806483500,8.5494833984375,-14.135297627979517,-2.9241555088311433,-2.3520789669588207
1772561440816512500,8.559512451171875,-14.494514386242628,-2.5383450504139065,-2.723811215662956
1772561440826542600,8.56954248046875,-14.163150096023083,-2.2077558362200853,-2.7892256448596715
1772561440836571400,8.5795712890625,-13.516400005960463,-2.118830767576396,-2.882367162154615
1772561440846601500,8.5896015625,-12.829829946684837,-2.348059209923446,-3.077589582264423
1772561440856630500,8.599630615234375,-11.690159561312198,-2.833149249999225,-2.735733124125004
1772561440866662400,8.609662353515626,-10.0200799847126,-3.312000980207324,-1.8371926312953233
1772561440876691500,8.61969140625,-8.265104448854922,-3.6412381952703,-1.0280047118064015
1772561440886721500,8.629721435546875,-6.970293770653009,-3.877565363706648,-0.631548356212303
1772561440896750300,8.639750244140625,-5.808495140102505,-3.8575218158483504,-0.32520372176319357
1772561440906780400,8.649780517578124,-4.711556811997294,-3.461586853779852,-0.28933274590428915
1772561440916809500,8.6598095703125,-3.867022634643316,-2.811611664190888,-0.4955537125535309
1772561440926838300,8.66983837890625,-3.054838821274042,-2.213426867593825,-0.8843984241001307
1772561440936868400,8.679868408203125,-2.2961551274240017,-1.671013642579317,-1.384623343335092
1772561440946897400,8.6898974609375,-1.536992710146308,-1.1188146443486213,-1.6046264228276907
1772561440956927500,8.699927490234375,-0.2889163105905056,-0.7496066534250975,-1.6771834172554314
1772561440966956500,8.70995654296875,1.0915478672385215,-0.3092258159086108,-1.563575888906419
1772561440976986400,8.719986328125,2.3330969108521935,0.02702624635249376,-1.1654175517000258
1772561440987015400,8.730015380859374,3.286078603443503,0.04157587296962738,-0.6346618851229548
1772561440997048800,8.740048828125,3.92037311655879,0.07923194214701652,-0.19122849163543432
1772561441007078000,8.750077880859376,4.247237172749639,0.340728184761852,0.2870024763258174
1772561441017108000,8.76010791015625,4.111186780315637,0.5124690453886985,0.7466707461036741
1772561441027136800,8.77013671875,3.9349639519691464,0.4031476699262857,1.1022992706164716
1772561441037166800,8.780166748046875,4.0647494387894865,0.09943374930694698,1.172505025742948
1772561441047196000,8.79019580078125,4.084127508476376,-0.1040932655505836,1.0236441054441034
1772561441057225000,8.800224853515624,4.0412545814335346,-0.21267843569293618,1.0055964806433766
1772561441067254800,8.8102548828125,4.376856070831418,-0.33798341609835625,1.1523963036939502
1772561441077283800,8.820283935546875,5.105420520749687,-0.278266321760416,1.2328170172341166
1772561441087314000,8.83031396484375,6.110529290941357,-0.1552804319523275,1.1876707384318113
1772561441097343000,8.840343017578125,7.150837384808063,-0.025066490586847064,1.2285441622205078
1772561441107373000,8.850373046875,7.841786097559332,-0.022225275811553,1.4232861053369938
1772561441117401900,8.86040185546875,8.108384193357825,-0.02617123695835471,1.5016950406633316
1772561441127432000,8.870431884765624,8.18935216551721,0.1856885758280754,1.406362735325843
1772561441137461000,8.8804609375,8.212710829272865,0.6274617444857955,1.2752781486056743
1772561441147491000,8.890490966796875,8.253354974350334,1.0497788097843528,0.9568426058031618
1772561441157520000,8.900519775390626,8.160490812692046,1.411200823006779,0.6781623694796115
1772561441167550000,8.910550048828124,7.932259564688802,1.6849993517033754,0.5416815497390925
1772561441177579000,8.9205791015625,7.967629568755626,1.8491934502124785,0.5045586010577157
1772561441187608000,8.930608154296875,7.9909227660596365,1.9356091663837431,0.5540914243811741
1772561441197638000,8.940637939453126,7.666614239570498,1.9169842531517147,0.575989842858538
1772561441207667000,8.9506669921875,7.117393964889645,1.8371990610361097,0.5652145471483468
1772561441217697000,8.960697021484375,6.461578524839878,1.7846321307137607,0.5587678917596116
1772561441227726000,8.97072607421875,5.832220299082994,1.7095581850290298,0.5030572200514376
1772561441237755600,8.980755615234376,5.545850165843963,1.7731030209615826,0.1042896009734366
1772561441247785000,8.990784912109374,5.175760131388903,1.9913219935163855,-0.38170623796880243
1772561441257814800,9.000814697265625,4.763115734320879,2.1483996841490267,-0.5190662516966462
1772561441267843800,9.01084375,4.535535643702745,2.006326378163695,-0.3327492417719215
1772561441277874000,9.0208740234375,4.2552258334159845,1.6818731825068591,-0.20803329503452403
1772561441287902700,9.03090283203125,3.8135558328717947,1.3822878861248493,-0.03575819966681301
1772561441297932800,9.040932861328125,3.1052713699162005,0.7762181814968585,0.2559404716512188
1772561441307961900,9.0509619140625,2.1716496268332004,-0.25672785916924473,0.4830451998425647
1772561441317990700,9.06099072265625,0.4273299250245094,-1.1897697565376757,0.9904004458814859
1772561441328020700,9.071020751953125,-1.3949585671275853,-2.0119775357931853,1.327489981880039
1772561441338049800,9.0810498046875,-3.0253216348886487,-2.7934099448069927,0.8738820715870708
1772561441348079900,9.091079833984375,-4.851946694940328,-3.3477462473273274,0.3404937914840877
1772561441358109000,9.10110888671875,-6.658470047205686,-3.881331145980954,-0.244478728046827
1772561441368138800,9.111138671875,-8.222744732031225,-4.144214897431433,-0.7479420081485062
1772561441378167800,9.121167724609375,-9.172268393123149,-3.7882828599274156,-0.7946824973396956
1772561441388198000,9.131197998046876,-10.096533109796047,-3.19070801192224,-0.42500126288123424
1772561441398227000,9.14122705078125,-10.751216330945491,-2.7481670737624166,0.10350267924629152
1772561441408257000,9.151257080078125,-11.359371609675884,-2.461514908711612,0.3970730261877179
1772561441418285800,9.161285888671875,-11.60949554053545,-2.192963340757787,0.3703282271251082
1772561441428315000,9.17131494140625,-11.755053181505202,-1.994873840779066,0.24756533241793513
1772561441438345000,9.181344970703124,-11.332025337588787,-2.0499223587840794,0.027386896358430383
1772561441448373800,9.191373779296875,-10.410055453854799,-2.264246077466011,-0.37094347294662144
1772561441458403800,9.20140380859375,-9.509398991784453,-2.5983886002272367,-0.7559988386802375
1772561441468433000,9.211432861328126,-8.79441415440738,-3.0367420235693454,-0.5139761620160191
1772561441478463000,9.221462890625,-7.869431060332059,-3.5864059503644703,0.2836385893832892
1772561441488491800,9.23149169921875,-6.591077011412382,-3.8687428825646637,0.9197035462372004
1772561441498521900,9.24152197265625,-5.612177618232369,-3.8109970882996915,1.0828985507063567
1772561441508551000,9.251551025390626,-4.6455075920283795,-3.621722178417444,1.4201162431292236
1772561441518581000,9.2615810546875,-3.4121132132977245,-3.3860745166778563,1.6002306720867752
1772561441528610000,9.271610107421875,-2.042597714984417,-2.90841170399338,1.526218218153715
1772561441538640000,9.281639892578125,-0.8574304838061332,-2.17480195338428,1.3931255064815282
1772561441548669000,9.2916689453125,-0.25367723942697046,-1.4658885448753833,1.335508307032287
1772561441558699000,9.301698974609375,0.36801030557155606,-0.9395411962598562,1.1284975417122245
1772561441568728000,9.31172802734375,0.82699968970716,-0.38367841482460496,0.4098254671897739
1772561441578756900,9.3217568359375,1.0192243893057107,0.0979264134839177,-0.28378358734454956
1772561441588787000,9.331786865234376,1.4609645324766636,0.42492081805616616,-0.5394387757809832
1772561441598816000,9.34181591796875,2.188339480349421,0.8007856365203857,-0.31073965453766283
1772561441608845800,9.351845703125,2.8163766866356132,1.0636065518677233,0.053698345505073665
1772561441618875000,9.361875,3.161746705853939,1.058683708512783,0.20289419684670865
1772561441628904700,9.37190478515625,3.460214104121923,1.0769713526144624,0.16317118520215151
1772561441638934000,9.38193408203125,3.738717741769552,1.1889610705032945,0.15938465240076183
1772561441648963800,9.3919638671875,4.04372477093935,1.2917580126330255,0.45183461701013145
1772561441658993000,9.401992919921875,4.573243735328316,1.3137383737728,0.679985493253544
1772561441669022700,9.412022705078124,5.061995805042982,1.3491124694928527,0.6582805149890482
1772561441679051800,9.4220517578125,5.45118859937489,1.4125713807076214,0.6566713992919773
1772561441689081900,9.432081787109375,5.717985432615876,1.4384727146834133,0.7070079402137547
1772561441699111000,9.44211083984375,5.880434002631902,1.3673349394038319,0.7820338820382953
1772561441709139700,9.4521396484375,6.169158005520701,1.2289651641115547,0.8338878417856991
1772561441719169800,9.462169677734375,6.581266396015882,1.176969896197319,0.7728587880663573
1772561441729198800,9.47219873046875,6.9536021635711185,1.2449980150237678,0.6970433763645589
1772561441739229000,9.48222900390625,7.177508534112572,1.2946549031183123,0.6078229415034875
1772561441749257700,9.4922578125,7.309339263024926,1.3750181873828171,0.49217999833673237
1772561441759287800,9.502287841796875,7.385252289882302,1.5676578975230455,0.44398379391189663
1772561441769316900,9.51231689453125,7.3686916157037015,1.786355008983612,0.35108383028786627
1772561441779347000,9.522346923828126,7.28409843878448,2.0131252445235845,0.20149353626854716
1772561441789375700,9.532375732421874,7.248349664533138,2.1461925294935704,0.10124978575296699
1772561441799405800,9.54240576171875,7.186952654284238,2.214605263723433,0.10916401120992376
1772561441809435000,9.552434814453125,7.100871284633874,2.384993979088962,0.06027145855138078
1772561441819464000,9.5624638671875,7.038676986527443,2.615254979354143,-0.12006071394323371
1772561441829494000,9.572493896484374,6.868242678454518,2.69571675555706,-0.3550410434810444
1772561441839522800,9.582522705078125,6.578021130484342,2.6446236971795556,-0.5795894747857004
1772561441849553000,9.592552978515625,6.378273634165525,2.6671198988869786,-0.8079637845214456
1772561441859582000,9.60258203125,6.100570791506767,2.698445888260007,-0.972611325886473
1772561441869612000,9.612612060546875,5.757300374916196,2.46113643078804,-0.8143172452013939
1772561441879640800,9.622640869140625,5.096179814195633,2.046224673309922,-0.48163705007769164
1772561441889671000,9.6326708984375,4.169280072844028,1.610699459131062,-0.31106848463322967
1772561441899700000,9.642699951171876,2.8789176062226294,1.2730217479810118,-0.12962152843028307
1772561441909730000,9.65272998046875,1.5678350076556204,0.7259209496721625,0.01994516551773995
1772561441919758800,9.6627587890625,0.19111527705192566,-0.05175736750513315,0.2924145645024255
1772561441929789000,9.672788818359376,-1.1226526150763034,-1.0192042233005165,0.9644503773931413
1772561441939818000,9.68281787109375,-2.4537393062740565,-2.1085040193513036,1.3509788478866218
1772561441949847000,9.692846923828125,-4.315895698434114,-3.058232847626507,1.1751977719582616
1772561441959876900,9.702876953125,-5.9275499740719795,-3.4499019689440726,0.6414524220459162
1772561441969906000,9.712906005859375,-7.317267133414745,-3.326782662014663,0.2713961437299847
1772561441979936000,9.72293603515625,-8.1295029692322,-3.5018750250265,0.16991543529797346
1772561441989965000,9.732965087890625,-9.202989110079407,-3.5839009818062184,0.04128500026427209
1772561441999991000,9.742990966796874,-10.836189447093009,-3.299613207799196,-0.4080837380889803
1772561442010019800,9.753019775390625,-12.15189678285122,-3.0537893122211095,-1.0093532758936286
1772561442020050000,9.7630498046875,-13.082890515518187,-2.8639763499394055,-1.4920267563469707
1772561442030079000,9.773078857421876,-13.224522507476806,-2.5760461277768014,-1.7897781153000891
1772561442040108800,9.78310888671875,-12.771929546380042,-2.100824570764601,-1.5298935456655918
1772561442050138000,9.79313818359375,-11.5138747736454,-1.8889692880228162,-0.7552214976321905
1772561442060167700,9.803167724609375,-9.651672204256057,-2.028347071313858,0.07063552484586834
1772561442070197000,9.813197021484376,-8.029936095064878,-2.3516221631020304,0.6239917302876711
1772561442080226000,9.82322607421875,-7.030422368401289,-2.8001877683788536,0.8488121469341218
1772561442090256000,9.833255859375,-6.0908922780573365,-3.208039378212392,0.945039501415193
1772561442100285000,9.843284912109375,-5.287522470262647,-3.4555139636069536,0.8706721696298569
1772561442110314800,9.853314697265626,-4.847434770473837,-3.6208486104533075,0.7580495606649666
1772561442120343800,9.86334375,-4.670736141309142,-3.8667122535198923,0.5481515129381791
1772561442130374000,9.873373779296875,-4.431338771647215,-3.8721988682374358,0.3072147683471441
1772561442140402700,9.883402587890625,-4.291334673151374,-3.651808104601502,0.04589284111959859
1772561442150432800,9.893432861328124,-4.038079458528757,-3.3916236752375957,-0.5909925470054149
1772561442160461800,9.9034619140625,-3.631411213260889,-2.8787273443475363,-1.008907066496089
1772561442170492000,9.913491943359375,-2.979295212250948,-2.295031676352024,-0.9243281372979283
1772561442180520700,9.923520751953125,-1.7830571364820003,-1.7221160533070563,-0.8780139106947928
1772561442190550800,9.93355078125,-0.41077743415236473,-1.0706056169748306,-0.9405174939461052
1772561442200579800,9.943579833984375,0.8351455867618321,-0.40969694543927904,-0.8665444952405988
1772561442210609000,9.95360888671875,2.144918856295943,0.15231149914413689,-0.8366083527907728
1772561442220639000,9.963638916015626,3.749062610173225,0.6413797952011228,-0.4344520319893956
1772561442230667800,9.973667724609374,3.6107004336655137,0.8171925814419985,0.15508428832571952
1772561442240697900,9.98369775390625,3.382466847574711,0.5103431392759085,-0.10699706070069223
1772561442250727000,9.993726806640625,2.9781191542088985,0.5052681740991771,-0.4594192269202321
1772561442260757000,10.003757080078126,3.063089932268858,0.7726819701947272,-0.24614671605797483
1772561442270785800,10.013785888671874,3.8593174670934673,0.9731801387503742,-0.3453030914619565
1772561442280815900,10.02381591796875,4.285134064945578,1.1129115577846764,-0.2506380543941632
1772561442290845000,10.033844970703125,4.843330257764459,1.1289615059621632,0.11760576767232268
1772561442300875000,10.043875,5.704152722096443,1.3145916296012699,0.37216822896860535
1772561442310903800,10.05390380859375,6.723379449489713,1.5822940333798527,0.5853087292153388
1772561442320934000,10.063933837890625,7.895350514486432,1.7030647313565015,0.7389655785538256
