time,seconds_elapsed,z,y,x
1772566803343188000,0.07718798828125,0.12187281399965286,-0.06293167247027158,0.08121814752817154
1772566803353217000,0.087217041015625,0.18977789096832273,0.017326105593144892,0.041597500279545785
1772566803363246000,0.09724609375,0.17179916668534279,0.03555325167924166,0.025505320395529267
1772566803373275100,0.107275146484375,0.13912263948619366,0.0034156536623835563,0.010904548113048076
1772566803383304200,0.11730419921875,0.12707915047109125,0.024112258601933716,-0.004186053512990474
1772566803393333000,0.1273330078125,0.12697510557472705,0.054881929266452786,-0.0049365796193480485
1772566803403362000,0.137362060546875,0.17121230670809745,0.09311828254982829,0.01401990365460515
1772566803413395700,0.147395751953125,0.2213157695263624,0.15276011969447134,-0.0004769698619842529
1772566803423424500,0.157424560546875,0.23799217903912065,0.1653156498849392,-0.0004946516491472721
1772566803433453600,0.16745361328125,0.21867256154119968,0.13074556402415036,0.008564122466742992
1772566803443482600,0.177482666015625,0.18543781593739986,0.09582987959608436,0.027095658326894045
1772566803453511400,0.187511474609375,0.133077514103055,0.0743145056195557,0.043359395385533565
1772566803463540500,0.19754052734375,0.13563655093610286,0.060506345019489524,0.02683773804306984
1772566803473569500,0.207569580078125,0.09191723619699478,0.0744663351804018,0.031880408385396
1772566803483598600,0.2175986328125,0.017009586989879606,0.03644274786487221,0.03943491541817784
1772566803493627600,0.227627685546875,-0.02551613405048847,-0.002598492060601711,0.03221270907968282
1772566803503657500,0.237657470703125,-0.040137364599108695,-0.007123714400082826,0.017622896582633257
1772566803513686800,0.247686767578125,0.06672434275150299,-0.005136193844676017,0.0034068858340382574
1772566803523715600,0.257715576171875,0.08992869272828101,0.009759908122569322,0.021744506557285784
1772566803533744600,0.26774462890625,0.09211012842059135,-0.02192629286497831,0.04220438013151288
1772566803543773700,0.277773681640625,0.12686521545946597,-0.024043577279895544,0.051838469917327164
1772566803553802500,0.287802490234375,0.1426104816019535,-0.011769348248839377,0.056339434598386286
1772566803563831600,0.29783154296875,0.1774935789346695,-0.021718495333194733,0.0517867397300899
1772566803573860600,0.307860595703125,0.17043489259481429,-0.024299597867578265,0.04769070258811116
1772566803583890400,0.317890380859375,0.08183890977501869,-0.027332828083634374,0.04019508613571524
1772566803593919500,0.32791943359375,-0.010935235512256622,-0.035880145546048875,0.021398177337646485
1772566803603948500,0.337948486328125,-0.04493336670398712,-0.04582549323812127,0.04018120374083519
1772566803613977600,0.3479775390625,-0.07377075413167476,-0.0469504056148231,0.06412146677672863
1772566803624006400,0.35800634765625,-0.005057867911458016,-0.05973638356029987,0.05522986592128873
1772566803634035700,0.36803564453125,-0.006719079121947288,-0.04870557871907949,0.06079568335488438
1772566803644064800,0.378064697265625,0.012030045011639595,-0.059307052232325075,0.06580693564563989
1772566803654093600,0.388093505859375,0.04786123684942722,-0.02218187506124377,0.03371653777137398
1772566803664122600,0.39812255859375,0.0021329203754663468,-0.012840046220272778,0.032646570452302695
1772566803674152700,0.408152587890625,0.04835223523676395,-0.03517316632047295,0.03647942661345005
1772566803684181500,0.418181396484375,0.12175590962171554,-0.008492810796201228,0.058247314046323294
1772566803694210600,0.42821044921875,0.16588555872738361,-0.008975333616137504,0.06164630883485078
1772566803704239600,0.438239501953125,0.2281915005147457,-0.012549538841098546,0.03166486593857407
1772566803714268400,0.448268310546875,0.2563929281264543,-0.006256283915787935,0.0325055545464158
1772566803724297500,0.45829736328125,0.2216080304712057,-0.00933978301435709,0.045518034724146124
1772566803734326500,0.468326416015625,0.19757307488918302,-0.006776216136664152,0.03584931201636791
1772566803744355300,0.478355224609375,0.16875965285897254,0.04526815161630511,0.01823591391444206
1772566803754385400,0.488385498046875,0.09709025492072104,0.047406332688778634,-0.00291442614197731
1772566803764414500,0.49841455078125,0.05767185224592685,-0.027545886312425136,0.0004939209967851639
1772566803774443500,0.508443603515625,0.06847381676733494,-0.06194003108441829,0.013448095116019248
1772566803784472600,0.51847265625,0.0834159498333931,-0.08961509673446416,0.0420715475320816
1772566803794501600,0.528501708984375,0.12012041737437247,-0.09521218608915805,0.04842924599573016
1772566803804530700,0.53853076171875,0.12226911984086036,-0.06538432631939649,0.03349237362667918
1772566803814559500,0.5485595703125,0.1681213549554348,-0.017911504265666008,0.01030029860958457
1772566803824588500,0.558588623046875,0.14064824161827563,0.014963906506448982,0.019747049129754304
1772566803834617600,0.56861767578125,0.12214870833158492,-0.0037007542140781876,0.02113601927012205
1772566803844647700,0.578647705078125,0.12489771477878094,0.009140607180446386,0.014268909979611635
1772566803854676500,0.588676513671875,0.10775894845128059,0.016319558899104594,0.03305778160169721
1772566803864705500,0.59870556640625,0.0778209063053131,-0.016236118399351834,0.014967121376842259
1772566803874734600,0.608734619140625,0.12952479005753995,0.006836275760829448,-0.029071926835924387
1772566803884763400,0.618763427734375,0.1385147367209196,0.04229673459008336,-0.01738718813061714
1772566803894792400,0.62879248046875,0.12799977244734764,0.024435353076457975,-0.013674889609217642
1772566803904821800,0.63882177734375,0.13901801006793976,-0.0009302665874361991,-0.01698211446106434
1772566803914850600,0.6488505859375,0.16221826839148998,0.02946048776209354,-0.01568257616981864
1772566803924880400,0.65888037109375,0.18374328697919845,0.07702507975250482,0.0012234043151140212
1772566803934909700,0.66890966796875,0.13047346908450125,0.059777153962105506,0.0036855566449463363
1772566803944938800,0.678938720703125,0.12722411189973354,0.03440174355655908,-0.01660758206024766
1772566803954967600,0.688967529296875,0.10624152962565421,0.0842632143124938,-0.012575257804244755
1772566803964996600,0.69899658203125,0.025226795715093613,0.07281155371069908,0.022836685708165168
1772566803975025700,0.709025634765625,-0.037895138630270955,0.008053104204684495,0.016812164721637962
1772566803985054500,0.719054443359375,-0.015713117438554764,-0.0011636369518935679,0.0209345053486526
1772566803995083500,0.72908349609375,0.005410919132828712,0.038238399109989406,0.008552724289894103
1772566804005112600,0.739112548828125,0.0566939471244812,0.03325710356608033,0.002265314583480358
1772566804015142400,0.749142333984375,0.13618541699051856,0.04455708073750138,0.004345627988874912
1772566804025171500,0.75917138671875,0.21564590719640253,0.07231734045296907,-0.015604688628017902
1772566804035200500,0.769200439453125,0.2531137603253126,0.059940527830272906,-0.02279080073982477
1772566804045229600,0.7792294921875,0.22403788796663282,0.04114887972921133,-0.008898907379060983
1772566804055258600,0.789258544921875,0.18450141187012195,0.02689502118825912,-0.005387392126768827
1772566804065287700,0.79928759765625,0.15498305644094942,0.01503112652376294,-0.0030826223157346248
1772566804075316700,0.809316650390625,0.1266986267209053,0.011137041694670915,0.008510054191946982
1772566804085345500,0.819345458984375,0.13046937743127346,0.02759513228163123,-0.008312193532288074
1772566804095375600,0.829375732421875,0.12594810061454773,0.0505493068896234,-0.009261895472556353
1772566804105404700,0.83940478515625,0.10085516041219234,0.05161021411940455,0.006854395939409732
1772566804115433500,0.84943359375,0.04991933842301369,0.04635287811309099,0.029163404511660336
1772566804125462500,0.859462646484375,-0.00692249273955822,0.01782221854701638,0.03551598840877414
1772566804135491600,0.86949169921875,-0.03328735257387161,-0.024940087728202342,-0.0013163432955741882
1772566804145520400,0.879520263671875,-0.015957447588443755,-0.003072247052192688,0.00643339404836297
1772566804155549400,0.889549560546875,0.06527648203074932,0.01158127833083272,0.010773907470703125
1772566804165578500,0.89957861328125,0.10887655430436134,-0.001371288353204727,0.002150602162629366
1772566804175607600,0.909607666015625,0.15996318294107914,0.02900149194821715,0.003953413800895214
1772566804185637400,0.919637451171875,0.1695452502787113,0.060775517349690195,-0.012488310173153877
1772566804195666400,0.92966650390625,0.2098088716059923,0.05855944873541593,0.014183862044662236
1772566804205695700,0.93969580078125,0.08210428271293639,0.04179959872290492,0.018078239134699105
1772566804215724500,0.949724609375,0.059036126336455344,0.006884791077673435,-0.011604659206420183
1772566804225753600,0.959753662109375,0.06252104584276676,0.009370762674510478,-0.01267594169974327
1772566804235782700,0.96978271484375,0.05156184493303299,0.007906827601790428,-0.0026952304333448408
1772566804245811500,0.9798115234375,0.06859539732038974,0.005351005639135837,-0.002058978356420994
1772566804255840500,0.989840576171875,0.06074293025434017,0.026942951983213424,0.0014710954658687114
1772566804265869600,0.99986962890625,0.07509528073370456,0.04891293785944581,0.01217602935358882
1772566804275899600,1.009899658203125,0.09934183323979377,0.058851709680259226,0.008488865273445844
1772566804285928400,1.019928466796875,0.14249416174590587,0.05626622323170304,0.00710544809103012
1772566804295957500,1.02995751953125,0.17020166836082934,0.029545389566570518,0.007351239545643329
1772566804305986600,1.039986572265625,0.1950339118003845,0.03174728352501988,0.010512041664123534
1772566804316015400,1.050015380859375,0.15832242999672888,0.024388445194810628,0.002035451350361109
1772566804326044700,1.060044677734375,0.12190730079114437,-0.01567570803761482,0.025359628314524887
1772566804336073700,1.07007373046875,0.07280746205747127,-0.013178484394401311,0.025158260523527858
1772566804346102500,1.0801025390625,0.05218260717988014,-0.02269318558424711,0.021275135479867455
1772566804356132600,1.090132568359375,0.03202536981403827,-0.036979192829132077,0.019769991613924502
1772566804366161700,1.10016162109375,0.047670682713389395,-0.052103112202882766,0.008604892868548632
1772566804376190700,1.110190673828125,0.11243629261255264,-0.04903466454297304,0.027669366561621427
1772566804386219500,1.120219482421875,0.16660218256413936,-0.026048487361520527,0.03514452474787831
1772566804396248600,1.13024853515625,0.18718202925622462,-0.00817950706332922,0.02599105808585882
1772566804406277600,1.140277587890625,0.17532149559259413,-0.018830957198143004,0.002390110006928444
1772566804416302800,1.150302734375,0.13616320515871047,-0.012239742239564656,0.01779167727828026
1772566804426331600,1.16033154296875,0.09316343686580657,-0.007958119397610425,0.02677037189528346
1772566804436361000,1.17036083984375,0.030772739404439923,0.012864742270112037,0.004763415009528398
1772566804446390800,1.180390869140625,0.030043840608000753,-0.0025847557961940766,-0.009418255078047513
1772566804456419600,1.190419677734375,0.028306641551852224,-0.02961830867230892,0.011504267571866511
1772566804466449000,1.200448974609375,0.015364157870411873,-0.0654174979366362,0.06002469898238778
1772566804476478000,1.21047802734375,0.0461368972748518,-0.08164061072394252,0.053438306329399346
1772566804486506800,1.2205068359375,0.10843582479953766,-0.05076777194589376,0.03400587610676884
1772566804496535800,1.230535888671875,0.10637363157272338,-0.011696575273573397,0.04190729688107967
1772566804506564900,1.24056494140625,0.12605506812036038,-0.01764452389255166,0.036557021894305944
1772566804516593700,1.25059375,0.1642038892507553,0.004248743485659361,0.020179449197649954
1772566804526622700,1.260622802734375,0.17203882066011428,0.03070069708153605,0.022659575575590132
1772566804536652800,1.27065283203125,0.11587737297713756,-0.011681816095858812,0.028755115971714255
1772566804546681900,1.280681884765625,0.09226327315568923,-0.0362178530678153,0.03980097225159406
1772566804556710700,1.290710693359375,0.11097206527888774,-0.01757905744090676,0.044298283670842646
1772566804566739700,1.30073974609375,0.12609890726208686,-0.02370674654096365,0.043736265873909
1772566804576768800,1.310768798828125,0.13899112206101416,-0.0323151465408504,0.04889101828858256
1772566804586797800,1.3207978515625,0.14558160636723042,-0.02422361002191901,0.05021992880478501
1772566804596827000,1.330826904296875,0.11984978373944759,0.0007028875723481178,0.046447570659220214
1772566804606856000,1.34085595703125,0.05232639956474304,-0.011694383316487074,0.0447927891895175
1772566804616886000,1.350885986328125,0.059902972298860546,-0.008935293866693972,0.019030571423470973
1772566804626914800,1.360914794921875,0.07505202611386776,-0.024812369695305824,0.0429255340129137
1772566804636944000,1.37094384765625,0.04079787433445453,-0.04220920243710279,0.07040346965566277
1772566804646973000,1.380972900390625,0.07224690556526184,-0.022511253146082162,0.05609963449314236
1772566804657001700,1.391001708984375,0.0806359637260437,-0.0030133564718067643,0.025677315961569545
1772566804667030800,1.40103076171875,0.10073708699047565,0.020367080724239348,0.03201119515821337
1772566804677059800,1.411059814453125,0.14245090712606906,0.027596447455883025,0.025322949565947054
1772566804687088600,1.421088623046875,0.17336919248104093,0.027251287280023097,0.031951720055937764
1772566804697117700,1.43111767578125,0.15329904887676238,0.01255962184369564,0.07617591557726264
1772566804707147800,1.441147705078125,0.14275895016193388,0.01303016196489334,0.06712269441932439
1772566804717176800,1.4511767578125,0.1694943968743086,0.04250570116564631,0.03707710024565458
1772566804727205600,1.46120556640625,0.12458265748023986,0.05743161374926567,0.03155526808425784
1772566804737235000,1.47123486328125,0.043377953955531116,0.016135872895270586,0.03413973161950707
1772566804747264000,1.481263916015625,0.009202712631225586,-0.011071136851608753,0.013462123641371726
1772566804757292800,1.491292724609375,0.04001110787093639,-0.004842909986525774,0.019765753830224275
1772566804767321900,1.50132177734375,0.047600540086627,-0.0005152560457587241,0.039570962888002395
1772566804777351000,1.511350830078125,0.06905775413513184,-0.013335720782727002,0.03669745327830314
1772566804787379700,1.521379638671875,0.12999123852550984,-0.021241087079793212,0.033090076436102386
1772566804797409800,1.531409912109375,0.17582593798339366,0.01780994358733296,0.0338685134626925
1772566804807438800,1.54143896484375,0.1607183852225542,0.015003653994947672,0.05539499335512518
1772566804817467600,1.551467529296875,0.145491005474329,-0.016236849051713943,0.0511427427381277
1772566804827496700,1.56149658203125,0.174437698495388,-0.004609393491595983,0.04105842496678233
1772566804837525800,1.57152587890625,0.15362813470065592,0.00945712578371167,0.02192088603749871
1772566804847554800,1.581554931640625,0.1545575245052576,-0.0037099604338407515,0.023747224681824445
1772566804857583900,1.591583984375,0.14125263725221157,-0.0036887715153396125,0.002587824536114931
1772566804867613000,1.601613037109375,0.11118658481240272,-0.007164192540943622,-0.016310791070759296
1772566804877642800,1.611642822265625,0.06317863296866416,-0.0181983583830297,0.012503215481340884
1772566804887671800,1.621671875,-0.02856616927087307,-0.048357642064243554,0.011568418849259614
1772566804897700900,1.631700927734375,-0.05842880809307098,-0.06732347768843173,0.0030414135225117203
1772566804907730000,1.64172998046875,-0.035328503012657164,-0.050437224817276,0.01110372394695878
1772566804917758700,1.6517587890625,-0.009158873489499092,-0.031158085460215805,0.03699789752960205
1772566804927787800,1.661787841796875,0.04802899463176727,-0.027782179286330935,0.035557489462941884
1772566804937816800,1.67181689453125,0.10034779541194438,-0.011051701498776673,0.023019494929164646
1772566804947845600,1.681845703125,0.1279050799012184,0.010508242271840572,0.018766367529332636
1772566804957874700,1.691874755859375,0.1360568221747875,0.008935147736221552,0.010824468614161014
1772566804967904800,1.70190478515625,0.11837561953365802,0.00491539070084691,0.017440087361633775
1772566804977933800,1.711933837890625,0.09821896668970584,-0.002728548181056976,0.009350742799788713
1772566804987962600,1.721962646484375,0.1111439147144556,0.01172419393286109,-0.0010454173997044563
1772566804997991700,1.73199169921875,0.1361532682865858,0.026255846501886844,0.0012217968799173831
1772566805008021000,1.74202099609375,0.16102175208330152,-0.007288111181557178,0.005791442883014679
1772566805018049800,1.7520498046875,0.1424754570454359,-0.03290814399793744,0.008788725002855062
1772566805028078800,1.762078857421875,0.15309680430293082,-0.03434533719420433,0.007258738956600427
1772566805038108000,1.77210791015625,0.09700666829049587,-0.0346907896310091,0.012713351100683211
1772566805048138000,1.782137939453125,0.04905541507005691,-0.0342452378205955,0.01609378731921315
1772566805058166800,1.792166748046875,0.02653846283555031,-0.025537761360406874,0.028197189828008413
1772566805068195800,1.80219580078125,0.021972762355208397,-0.03340177273377776,0.03300955854579806
1772566805078225000,1.812224853515625,0.018521160596609115,-0.026967063511162993,0.03459171317070722
1772566805088253700,1.822253662109375,0.058876551860570905,-0.03769669344872236,0.009794833305478095
1772566805098282800,1.83228271484375,0.16697160039842127,-0.01703822856247425,-0.008906067772209644
1772566805108311800,1.842311767578125,0.1885983257949352,-0.0006968962229788303,0.009267448430508375
1772566805118340600,1.852340576171875,0.19370295545756816,-0.02408683189973235,-0.002412321838736534
1772566805128370000,1.862369873046875,0.23541736011505127,0.002639846984297037,-0.02593070620074868
1772566805138399700,1.872399658203125,0.22357845376133917,0.02834989617168903,-0.02548676182553172
1772566805148428800,1.8824287109375,0.18142507316470144,-0.004130523933470249,-0.02175985025689006
1772566805158457900,1.892457763671875,0.11492460229694842,-0.03538622454926371,0.009076309772580862
1772566805168487000,1.90248681640625,0.07487140884995461,-0.04351707016527653,0.0170338446483016
1772566805178516000,1.912515869140625,0.06318097105622292,-0.030856910556554793,0.027510522738099098
1772566805188544800,1.922544677734375,0.028020810347795484,-0.0032128245666623112,0.03507511277347803
1772566805198573800,1.93257373046875,0.01507365049123764,-0.014141338077187537,0.030036095692962405
1772566805208603000,1.942602783203125,0.0407470209300518,-0.0010533084452152251,0.012692308312654494
1772566805218631700,1.952631591796875,0.06392506742179394,0.03260360809341073,-0.0009362579368054866
1772566805228661800,1.962661865234375,0.07572013463377952,0.04427212631627917,-0.01036152727752924
1772566805238690800,1.97269091796875,0.11374737521111965,0.05423340222984552,0.004481090936809778
1772566805248719600,1.9827197265625,0.1383142457127571,0.0701721451178193,0.020630407835543155
1772566805258748700,1.992748779296875,0.12020400400459766,0.06097951548919081,0.01399871473610401
1772566805268777700,2.00277783203125,0.09956979677677154,0.06524082619547844,0.019407295781373977
1772566805278806800,2.012806884765625,0.10116144988238811,0.05588000039309263,0.004077624702453613
1772566805288835800,2.0228359375,0.10460895998775958,0.02817117860391736,-0.0005127718277275562
1772566805298865000,2.032864990234375,0.15334113445281983,0.02561813312023878,-0.009284984087198972
1772566805308895000,2.04289501953125,0.20103636708557604,0.02594955703169107,0.006083411566913128
1772566805318923800,2.052923828125,0.23583470874428747,0.026434564069658516,0.014397797056287527
1772566805328952800,2.062952880859375,0.2447568508684635,0.03336524011567235,0.010842881053686141
1772566805338982000,2.07298193359375,0.20429507662057875,0.06046133683398366,0.017692600817978382
1772566805349010700,2.0830107421875,0.13064239591062068,0.03843611363917589,0.02138531785607338
1772566805359039700,2.093039794921875,0.063124856954813,0.030551936260610816,0.01609115697070956
1772566805369068800,2.10306884765625,-0.028021394869685173,0.024384791933000086,0.011287848342210053
1772566805379097600,2.11309765625,-0.09133739048242569,-0.010920330204069614,-0.007279927875101566
1772566805389126700,2.123126708984375,-0.11077975757718085,-0.05197393286526203,0.008256517822295428
1772566805399156700,2.13315673828125,-0.06832008751034736,-0.07685966005772352,0.04970218854099512
1772566805409185500,2.143185546875,0.016539631390571595,-0.04516571415513754,0.0350796428181231
1772566805419214600,2.153214599609375,0.11616671131253242,-0.011423749681562184,0.030226942089945075
1772566805429243600,2.16324365234375,0.17835691776573656,-0.015464549504965543,0.014107143546640872
1772566805439272400,2.1732724609375,0.2583896549016237,-0.002052256354689598,0.0067390989966690535
1772566805449301500,2.183301513671875,0.2632861947715282,0.06955225965380668,0.01930456605926156
1772566805459330600,2.19333056640625,0.240652922680974,0.11445464669764041,0.021922201211750505
1772566805469359400,2.203359375,0.16216273881196974,0.09016118630990386,0.012485387563705444
1772566805479389400,2.213389404296875,0.09127017046511172,0.05525353905782103,0.014794395158439874
1772566805489418500,2.22341845703125,0.0071627312362194055,0.04726897004470229,0.023675328489392994
1772566805499447600,2.233447509765625,-0.02436287236213684,0.016344547209888694,0.0059235448300838465
1772566805509476400,2.243476318359375,-0.020657003581523895,0.005014321030676365,0.00012844868525862694
1772566805519505400,2.25350537109375,0.010033318236470221,-0.0038309564650058745,-0.004484013546258211
1772566805529534500,2.263534423828125,0.05899462528228759,-0.017029460734128952,0.011518296097218989
1772566805539563500,2.2735634765625,0.14229951595664023,-0.015628361764550208,0.017826748591661452
1772566805549592600,2.283592529296875,0.2148456967294216,0.017528642427921293,0.018987901325523852
1772566805559621600,2.29362158203125,0.1885650080472231,0.005574731392413377,0.05209317533075809
1772566805569651700,2.303651611328125,0.11869827561676502,-0.02468786653280258,0.06611804742142557
1772566805579680500,2.313680419921875,0.03423544707894325,-0.0497661936879158,0.030393823089450597
1772566805589709600,2.32370947265625,0.06395487803816795,-0.05273351906090974,-0.005607464618235826
1772566805599738600,2.333738525390625,0.11006897895932197,-0.045022506292164324,0.018037322602421045
1772566805609767400,2.343767333984375,0.0949877296835184,-0.07497370018064975,0.03625233985930681
1772566805619796500,2.35379638671875,0.13368950852155684,-0.09560030862390995,0.01604761008992791
1772566805629825500,2.363825439453125,0.17982932840585708,-0.049881636761128896,0.015270195976644753
1772566805639854300,2.373854248046875,0.16856676063537596,-0.02839329692199826,0.03657017363682389
1772566805649884400,2.383884521484375,0.1007610523879528,-0.04266790599003434,0.054975891160219906
1772566805659913500,2.39391357421875,0.019988310539722443,-0.050395431502163406,0.0474688765309751
1772566805669942500,2.403942626953125,0.08125672597289085,-0.009638327569514512,0.02219137354195118
1772566805679971600,2.4139716796875,0.08450666767954826,0.04140826131775975,0.05077347103431821
1772566805690000600,2.424000732421875,0.09536649986803532,-0.0017909750699996946,0.03938654623180628
1772566805700029700,2.43402978515625,0.13200199382603167,-0.0193986740835011,0.025780776336044073
1772566805710058500,2.44405859375,0.17664076149761676,0.018887801951915025,0.017423136226832867
1772566805720087600,2.454087646484375,0.10276713151335716,0.013428221371769904,0.01739595595896244
1772566805730116600,2.46411669921875,-0.02146890448629856,-0.041452100459486246,0.061924248993396755
1772566805740146400,2.474146484375,-0.03869710266292095,-0.026680355524271726,0.048296413396298886
1772566805750175500,2.484175537109375,-0.025042671319842336,0.0020171850413084028,0.04636179207190871
1772566805760204500,2.49420458984375,0.03619710254073143,-0.03548281679153442,0.06079641400724649
1772566805770233600,2.504233642578125,0.10375146637558937,-0.05891892969757318,0.07630509491488337
1772566805780262400,2.514262451171875,0.13173369827866555,-0.037352117794752115,0.06447612543329596
1772566805790291500,2.52429150390625,0.23743162254691122,0.023767975208908318,0.019165888240933418
1772566805800320500,2.534320556640625,0.2726356223970651,0.07476546425744891,0.012222644974291324
1772566805810349600,2.544349609375,0.22968436942100523,0.0564522473230958,0.03128726479783654
1772566805820379400,2.55437939453125,0.1974345432013273,0.03496113100498915,0.02516454413384199
1772566805830408400,2.564408447265625,0.1572369728475809,0.03454685111567378,0.020243746605515478
1772566805840437500,2.5744375,0.08036299200356006,0.016702274606376886,0.02653685540035367
1772566805850466600,2.584466552734375,0.00873977129459381,-0.03429594509452581,0.05453823039531708
1772566805860495600,2.59449560546875,-0.029374563044309614,-0.0699304453164339,0.03972206179648637
1772566805870524400,2.6045244140625,0.037191958796977995,-0.04947159465551376,0.01381941264644265
1772566805880553500,2.614553466796875,0.09003741379976272,-0.030186171688139436,0.017502777334302663
1772566805890582500,2.62458251953125,0.0985474679917097,-0.049358051278442144,0.04221066374182701
1772566805900611300,2.634611328125,0.1108212586313486,-0.0806495538599789,0.047342181411385534
1772566805910641400,2.644641357421875,0.21709610600471496,-0.040750235800445074,0.015148907684534788
1772566805920670500,2.65467041015625,0.2581716282367706,0.008062310424447059,0.003802314892411232
1772566805930699500,2.664699462890625,0.20626433086693285,-0.018818389977514744,0.02908931636214256
1772566805940728300,2.674728271484375,0.1492243467837572,-0.022146073095500467,0.028084815494716166
1772566805950757400,2.68475732421875,0.07591887207627296,0.015853402692079542,0.01570493413209915
1772566805960786700,2.69478662109375,0.04481587780416012,0.0032449732705950736,0.0042763621449470515
1772566805970815500,2.7048154296875,0.010597966381907463,-0.02049406810477376,0.02364829435199499
1772566805980844500,2.714844482421875,-0.003615852409601211,-0.045318274368345735,0.03619403380081057
1772566805990874600,2.72487451171875,-0.008919804036617279,-0.04545081470683217,0.03686170392930507
1772566806000903700,2.734903564453125,0.030745266875624656,-0.02719385800436139,-0.0014670038126409052
1772566806010932500,2.744932373046875,0.09712006553709507,0.03400236897543073,0.0021961948700249196
1772566806020961500,2.75496142578125,0.11609890677332878,0.05642623609900474,0.009574906944483519
1772566806030990600,2.764990478515625,0.11521218706667423,0.05038739432618022,0.009650748659670352
1772566806041019400,2.775019287109375,0.15470950019657612,0.07597162517681717,-0.0005205167427659034
1772566806051048400,2.78504833984375,0.16147066489458084,0.10081731261983513,0.006148001235723495
1772566806061077500,2.795077392578125,0.0966565396785736,0.05010214764401316,0.019528145682066678
1772566806071107600,2.805107666015625,0.06228372995555401,-0.014063304404914378,0.011189356403797864
1772566806081136400,2.815136474609375,0.08293313475251197,-0.0038813714779913425,-0.014185615610331296
1772566806091165400,2.82516552734375,0.08461305066347122,-0.0018574644349515436,-0.009044891721010207
1772566806101194500,2.835194580078125,0.10522446153759955,-0.02570683431699872,-0.008945961391180753
1772566806111223600,2.8452236328125,0.12565174801647663,-0.024465309823304412,-0.007457330268621444
1772566806121252600,2.855252685546875,0.17122984236478805,0.0011290040299296378,0.001997019036114216
1772566806131281700,2.86528173828125,0.18826281023025512,0.015960370197892187,0.01376958215534687
1772566806141310500,2.875310546875,0.1714373476356268,0.020014467894285917,0.027595716803520916
1772566806151340500,2.885340576171875,0.08820493767559529,0.020015344677120447,0.015006138212978838
1772566806161369600,2.89536962890625,0.03996609968543052,0.004151128330081701,0.01003054175749421
1772566806171398400,2.9053984375,0.0011281272470951079,-0.02273132563754916,0.025643267561495302
1772566806181427500,2.915427490234375,-0.01358662680387497,-0.04258388096839189,0.0034336277104914186
1772566806191456500,2.92545654296875,0.0013753800064325332,-0.04941621120646596,0.01617006742581725
1772566806201485300,2.9354853515625,0.03863689690828323,-0.05753945803791284,0.012472820343077182
1772566806211514400,2.945514404296875,0.12446224597096442,-0.05149184843674302,0.006244739608466625
1772566806221543400,2.95554345703125,0.1718114416450262,-0.033842356108129024,0.013838701868802308
1772566806231573500,2.965573486328125,0.1787520545631647,-0.021543138766288755,0.017624211756885052
1772566806241602300,2.975602294921875,0.18278350203633306,0.005227963781356811,0.00959010451361537
1772566806251631600,2.985631591796875,0.18792495657801628,0.035434593735635275,0.010908785896748303
1772566806261660700,2.99566064453125,0.14215864618122576,0.03364946388453245,0.00902282601967454
1772566806271689500,3.005689453125,0.06352174731791019,0.012917641501128672,0.014441490067541599
1772566806281718500,3.015718505859375,0.06847790842056274,0.026991321169584987,-0.001630231550335884
1772566806291747600,3.02574755859375,0.08482114045619964,0.048951516304165124,0.005794365492463111
1772566806301776400,3.0357763671875,0.11122808586657047,0.013910890322178602,0.030588030487298964
1772566806311806500,3.045806396484375,0.06572656388580798,-0.0179161804407835,0.06059066230207681
1772566806321835500,3.05583544921875,0.03957388549745083,-0.02190831881687045,0.020258505783230064
1772566806331864600,3.065864501953125,0.07019874086380004,0.030962416757643222,-0.026341186697781085
1772566806341893400,3.075893310546875,0.08416764498353003,0.04529182475283742,-0.02154693815857172
1772566806351922400,3.08592236328125,0.09054887045323848,0.01619227925762534,0.009952508085221051
1772566806361951500,3.095951416015625,0.09010521833896637,0.008037760505080222,0.03531666644439101
1772566806371980500,3.10598046875,0.12427461444437503,0.005845949549227953,0.03660933660343289
1772566806382009600,3.116009521484375,0.1761550238072872,0.03877952024936676,0.036352877624332904
1772566806392038700,3.12603857421875,0.18109540281891823,0.05110211846679449,0.04287818773984909
1772566806402068700,3.13606884765625,0.16319208185970782,0.033258564870804544,0.022147388269752263
1772566806412097800,3.146097900390625,0.1450853472828865,0.038397389063984155,-0.00696340927183628
1772566806422126800,3.156126953125,0.13023323058784006,0.039640959384292365,-0.007399900992959737
1772566806432156000,3.166156005859375,0.08282090654969215,0.009990940399467945,0.03697261695787311
1772566806442184700,3.176184814453125,0.03212766114473343,-0.03374678677916527,0.06074526834189892
1772566806452213800,3.1862138671875,0.040808395728468894,-0.046025838115811346,0.05204334483966231
1772566806462242800,3.196242919921875,0.049991234615445135,-0.0162277889624238,0.040470688206702465
1772566806472272000,3.20627197265625,0.05635433990657329,0.001851619216054678,0.0017522504948079584
1772566806482301700,3.2163017578125,0.10948036541640759,0.0014143968425691126,-0.01857683630660176
1772566806492330800,3.226330810546875,0.1724696132928133,0.03228299783691764,-0.008710691330581903
1772566806502359800,3.23635986328125,0.16531331179738043,0.0496811457529664,0.005420417613536119
1772566806512388600,3.246388671875,0.16874562433362006,0.040277795983105893,0.0008244681254029274
1772566806522417700,3.256417724609375,0.15207096838653086,0.056796822977066036,0.022270868518948553
1772566806532447000,3.266447021484375,0.13966156866848467,0.04190539718493819,0.03529489300400018
1772566806542475800,3.276475830078125,0.1258662675499916,0.012767857766896486,0.04584989702701568
1772566806552504800,3.2865048828125,0.08962941752076148,-0.010368541540205478,0.03199848180711269
1772566806562535000,3.296534912109375,0.058200844556093215,-0.0005060498259961605,0.012651391780376433
1772566806572564000,3.30656396484375,0.028566753792762755,-0.017567074742168187,0.0175239662528038
1772566806582592800,3.3165927734375,0.06278232712745666,-0.014768968456238507,0.014128040204197168
1772566806592621800,3.326621826171875,0.08568214119970798,0.007763181347399949,0.025703034924715755
1772566806602651000,3.33665087890625,0.08611234931051731,0.004423661661148071,0.0471792459346354
1772566806612679700,3.3466796875,0.08627543091773986,-0.006687953331321477,0.045104047095775604
1772566806622708700,3.356708740234375,0.07315700614750385,0.016208061348646878,0.05823693878278136
1772566806632737800,3.36673779296875,0.07222644729912281,0.022596593341976404,0.03345496422573924
1772566806642768000,3.376767822265625,0.0800473501831293,0.020875468637794256,0.03639817807078361
1772566806652796700,3.386796630859375,0.10718845508694648,0.00503258733972907,0.026156331650167702
1772566806662825700,3.39682568359375,0.13517477864325045,-0.013970365424454212,0.03380114731490612
1772566806672854800,3.406854736328125,0.14436872344613075,0.005149783978611231,0.022139497224241494
1772566806682883800,3.4168837890625,0.1523614757657051,0.02753916431069374,0.023806407523155212
1772566806692913000,3.426912841796875,0.14758008670806885,0.025043548102676866,0.03418298623934388
1772566806702942000,3.43694189453125,0.12930559434890745,0.03468450602069497,0.03426803417429328
1772566806712970800,3.446970703125,0.09393675932586193,0.02508124976456165,0.04557268752083182
1772566806723000800,3.457000732421875,0.03534545414745807,0.007289718616753816,0.031110446926206348
1772566806733030000,3.46702978515625,0.05988192951083183,0.0016850304774940013,0.02370674654096365
1772566806743059000,3.477058837890625,0.12311843014657496,0.02735372474119067,0.030030981126427648
1772566806753087700,3.487087646484375,0.14512626381516455,0.025239070674777028,0.03768471074998379
1772566806763116800,3.49711669921875,0.1696411118686199,0.028818098205327988,0.04200418138429522
1772566806773145900,3.507145751953125,0.18117665136158465,0.06182444188073277,0.028639380637556312
1772566806783174700,3.517174560546875,0.14682371538281438,0.08975874298885464,0.029271541061252355
1772566806793203700,3.52720361328125,0.0745791479051113,0.06924158626943826,0.05316109682321548
1772566806803233800,3.53723388671875,-0.030828853505849838,0.02246507591679692,0.052325376651436085
1772566806813262600,3.5472626953125,-0.07813245647251606,0.0029376608870923518,0.04807181086018681
1772566806823292000,3.5572919921875,0.0013385551273822783,0.011952011339366434,0.06212430161014199
1772566806833321000,3.567321044921875,0.058231239694356916,0.004926642747223377,0.0770458302795887
1772566806843349800,3.577349853515625,0.13665244998037815,0.008878010721504688,0.048268940867483616
1772566806853378800,3.58737890625,0.20205226612985133,0.044956893710047005,0.04607055404037237
1772566806863407900,3.597407958984375,0.18067279349267482,0.07527531347572804,0.05311579637676477
1772566806873436700,3.607436767578125,0.13666881659328936,0.051418052548170085,0.03730082599893212
1772566806883466800,3.617466796875,0.11005261234641074,0.052833764564991,0.03701572544723749
1772566806893495800,3.627495849609375,0.10280395639240741,0.031207623690366743,0.03872749780118465
1772566806903524900,3.63752490234375,0.13121990353763102,0.013460223945230245,0.03593231412470341
1772566806913553700,3.6475537109375,0.15276421134769916,0.007163023497164249,0.03312894714176655
1772566806923582700,3.657582763671875,0.14341303015649318,-0.00815568779632449,0.02894815432578325
1772566806933611800,3.66761181640625,0.14657763166725635,-0.004953238493204117,0.04020049296319485
1772566806943640800,3.677640869140625,0.12293313670754431,0.00004676175117492675,0.033211218597739935
1772566806953670700,3.687670654296875,0.0625152006238699,-0.0016113807193934918,0.03398644075393677
1772566806963699700,3.69769970703125,-0.0035001170754432676,-0.0197395964756608,0.04685512854680419
1772566806973728800,3.707728759765625,-0.0029939211189746857,-0.03395575335472822,0.036917818030714984
1772566806983757800,3.7177578125,0.001387070444226265,-0.029711101522296664,0.029393413875252006
1772566806993787000,3.727786865234375,0.02082008518874645,-0.0572853371463716,0.012906535585224628
1772566807003816000,3.73781591796875,0.08915946192145346,-0.08233414594605565,0.008081307385861873
1772566807013844700,3.7478447265625,0.14174597372710704,-0.09539718726724386,-0.0031933892138302326
1772566807023873800,3.757873779296875,0.14170155006349086,-0.12355652930289507,0.010217004240304231
1772566807033903900,3.76790380859375,0.12974457028806208,-0.12976137529239057,0.012707798142731189
1772566807043933000,3.777932861328125,0.12599895401895045,-0.07931099873259663,0.021729455118626353
1772566807053961700,3.787961669921875,0.0936895065665245,-0.04674523843154311,0.025321488261222838
1772566807063990800,3.79799072265625,0.07947802586257458,-0.019688596940785646,0.023751024074107407
1772566807074019800,3.808019775390625,0.09855331321060656,-0.004496580766886473,0.007166384498029947
1772566807084048600,3.818048583984375,0.1451204185962677,0.011563012021780013,-0.004789572364091873
1772566807094078000,3.828077880859375,0.16377017400860786,-0.006571195083856582,-0.0091737787976861
1772566807104107000,3.83810693359375,0.1634708988010883,-0.052138329646736384,-0.02788023283332586
1772566807114136600,3.848136474609375,0.20076047275364398,-0.05583177733719349,-0.025564357106387613
1772566807124166000,3.858165771484375,0.17206512414515018,-0.05987009294256568,-0.03592369242683053
1772566807134195000,3.86819482421875,0.07884791126549244,-0.05399740151688456,-0.02978533580228686
1772566807144223700,3.8782236328125,0.06470423510074615,-0.03913359438404441,-0.03410466030612588
1772566807154252800,3.888252685546875,0.041758243799209595,0.002924655275046825,-0.02743526554480195
1772566807164281900,3.89828173828125,0.002533317869901657,-0.021930238387733697,-0.003386427567899227
1772566807174311000,3.908310791015625,0.005157821154594421,-0.059405690301209686,0.007757774519920348
1772566807184339700,3.918339599609375,0.07514438057243823,-0.050451253342628476,-0.007539601724594831
1772566807194369800,3.928369873046875,0.16166589520573615,-0.010184417144954204,-0.006395400125533342
1772566807204398800,3.93839892578125,0.205085350215435,-0.016417174054682255,-0.013826865300536156
1772566807214427600,3.948427734375,0.20694003817141055,-0.028817952074855564,-0.009252104730904102
1772566807224456700,3.958456787109375,0.1539952144473791,0.00190773331746459,-0.012651391780376433
1772566807234485800,3.96848583984375,0.118785953900218,0.020380963119119404,-0.02494900168702006
1772566807244514800,3.978514892578125,0.08172785061597823,0.026996143475174903,-0.019998685803264377
1772566807254544000,3.9885439453125,0.03492927456200123,-0.0038793256513774393,-0.014483575643599032
1772566807264572000,3.998572021484375,0.0068096800148487084,-0.026204554706066845,-0.005515110159665346
1772566807274600700,4.0086005859375,0.06635550943911075,-0.01739171817526221,-0.024942864207178353
1772566807284629800,4.018629638671875,0.14314064295589923,0.023002982185781,-0.009560440027713776
1772566807294659800,4.028659912109375,0.1420142692744732,0.009425853862613439,-0.0004712707735598087
1772566807304688600,4.038688720703125,0.1532061098963022,0.010154898789525031,-0.0024149521872401237
1772566807314717700,4.0487177734375,0.14388473932147025,0.05573518509492278,0.01530278307199478
1772566807324746800,4.058746826171875,0.11918401330709456,0.09071472853943705,0.009163988056033849
1772566807334775800,4.06877587890625,0.08270400217175483,0.0853359581105411,0.010711948150396347
1772566807344804900,4.078804931640625,0.059279871964454646,0.055158846511691804,0.015636106679588556
1772566807354834000,4.088833984375,0.07564765391945838,0.02382233574464917,0.008995645751804112
1772566807364864000,4.098864013671875,0.09372750048935413,0.029618016411364075,0.0007068330951035022
1772566807374892800,4.108892822265625,0.08694237039387226,0.025346768832951783,0.0110647071108222
1772566807384921900,4.118921875,0.08028466607034206,0.01146685817092657,0.015393968486785889
1772566807394951000,4.128950927734375,0.12039748075008391,0.03941065775975585,0.04376519970744848
1772566807404979700,4.138979736328125,0.11511515643298625,0.07220584290251135,0.041629795113950964
1772566807415008300,4.14900830078125,0.11832476612925528,0.07265563249662518,0.049345045666396616
1772566807425037300,4.159037353515625,0.1373474465072155,0.08676321443468332,0.03533727084100246
1772566807435066400,4.16906640625,0.14167641562223435,0.10677271389290689,0.027598493282496927
1772566807445096400,4.179096435546875,0.11159224300384521,0.0790163997001946,0.02055909616500139
1772566807455125200,4.189125244140625,0.13028759112358093,0.06200768949314951,0.028036884699761865
1772566807465154300,4.199154296875,0.09532382977008819,0.039404081888496874,0.04517798911482095
1772566807475183400,4.209183349609375,0.06646423051059246,0.06782236712127923,0.020204291377961633
1772566807485212400,4.21921240234375,0.12708382664620876,0.08385083411931991,-0.0024811492912471295
1772566807495241500,4.229241455078125,0.07349953597486018,0.013865736006200313,0.04087532348483801
1772566807505270500,4.2392705078125,0.059065936952829357,-0.031129736148566005,0.06644435676634311
1772566807515299300,4.24929931640625,0.06805003839731216,-0.021280396176874636,0.035882775894552466
1772566807525329400,4.259329345703125,0.05074292976558208,-0.030569325786828992,0.04122530596628785
1772566807535358500,4.2693583984375,0.08646656957566738,-0.08079276172295212,0.034750556994229555
1772566807545387500,4.279387451171875,0.16039806722700595,-0.08768310575857759,0.0376503700889647
1772566807555416300,4.289416259765625,0.18982991341650485,-0.0884710412658751,0.021526918283849953
1772566807565445400,4.2994453125,0.23174831621348857,-0.06827142606303095,0.020145108536630867
1772566807575474400,4.309474365234375,0.23261165504455564,-0.04844765843525529,0.01865910776257515
1772566807585503200,4.319503173828125,0.18546821107566355,-0.04807853286191821,0.021893559639155864
1772566807595533300,4.329533203125,0.09438041144013404,-0.06933584042415022,0.03813201612606645
1772566807605562400,4.339562255859375,0.04576455683112144,-0.07573723189905285,0.03420212933123112
1772566807615591200,4.349591064453125,-0.018882395124435424,-0.0633273937895894,0.04688040911853313
1772566807625620500,4.359620361328125,0.021219898161292074,-0.0745993139103055,0.05214417486563325
1772566807635649500,4.3696494140625,0.030059038177132603,-0.05541515936031937,0.0007353285372257233
1772566807645678300,4.37967822265625,-0.01489712488055229,-0.0429484764970839,0.028305034116655588
1772566807655707400,4.389707275390625,0.05715747298300266,-0.08722162572667003,0.03882745104432106
1772566807665736400,4.399736328125,0.08918284279704093,-0.0689009561382234,0.04631093866750598
1772566807675766500,4.4097666015625,0.12528583731353282,-0.04482508402392268,0.014109335503727196
1772566807685795300,4.41979541015625,0.15069617290198803,-0.026300270165503025,0.018309125281125306
1772566807695824400,4.429824462890625,0.14256547341644762,-0.018364216469228267,0.06608706776127218
1772566807705853400,4.439853515625,0.09401683882474898,-0.05086567936241627,0.04599778106510639
1772566807715882200,4.44988232421875,0.10794365736842154,-0.02218976610675454,0.005473316844552755
1772566807725911300,4.459911376953125,0.09704290864765644,-0.013469430164992809,0.00596022357866168
1772566807735940400,4.4699404296875,0.08020809370279312,-0.0383922744974494,0.005036825123429298
1772566807745970400,4.479970458984375,0.08091419614553451,-0.05673690948337316,0.027634441378712654
1772566807755999200,4.489999267578125,0.06819324626028538,-0.03969648896381259,0.02998027385249734
1772566807766028300,4.5000283203125,0.09372048622667789,-0.019338614459335803,0.025156068566441533
1772566807776057600,4.5100576171875,0.0968663830369711,0.013462123641371726,0.038930473027378315
1772566807786086400,4.52008642578125,0.08185235377848148,0.013806991556286811,0.03512508939504623
1772566807796115500,4.530115478515625,0.07982932351827621,0.031709143471717834,0.009404811074584721
1772566807806144500,4.54014453125,0.05910977609455585,0.04996507726088166,-0.0032975802406668663
1772566807816173300,4.55017333984375,0.05327157146036625,0.015652619422972202,-0.012159808871150016
1772566807826203400,4.560203369140625,0.09897124636173248,0.005184855291992425,-0.014661416428536175
1772566807836232400,4.570232421875,0.13564181163311004,0.006063830083608627,0.00844590291455388
1772566807846261500,4.580261474609375,0.16270225251615048,-0.01621273752376437,0.017297317890077827
1772566807856290300,4.590290283203125,0.200780931019783,-0.026836568999290464,0.026059154886007307
1772566807866319400,4.6003193359375,0.16265023006796836,-0.031443770533800125,0.05419043987095356
1772566807876348400,4.610348388671875,0.17222820575237274,-0.03488967320397496,0.012071838326752186
1772566807886377200,4.620377197265625,0.20705635802745817,0.0061252048820257185,-0.004843348377943039
1772566807896407300,4.6304072265625,0.17903320959210395,-0.012930500982701777,-0.011329203265905379
1772566807906438400,4.6404384765625,0.12437690577507018,-0.06569251548573374,0.0168313078135252
1772566807916467500,4.650467529296875,0.11739070014953612,-0.07589680637493729,0.0010685060143470764
1772566807926496500,4.66049658203125,0.10865209789872168,-0.040902649883180854,0.00415551224425435
1772566807936525300,4.670525390625,0.07189443886578083,-0.03935761239826679,0.03714870417714119
1772566807946554400,4.680554443359375,0.002524550041556358,-0.058136985539644956,0.0483403986684978
1772566807956583400,4.69058349609375,-0.045482232758402824,-0.011616641905158757,-0.005879705688357353
1772566807966612200,4.7006123046875,-0.04078852198421955,0.03162570297196507,-0.03440174355655908
1772566807976642300,4.710642333984375,-0.0749058956414461,0.03455006598606705,-0.01281710373610258
1772566807986671400,4.72067138671875,-0.02973287496268749,0.004560147522389889,-0.0117607265509665
1772566807996700200,4.7307001953125,0.07091770278811454,0.019084785828739403,-0.0031797990798950195
1772566808006729500,4.7407294921875,0.15324059668779372,0.024547873540222642,0.004176847293227911
1772566808016758500,4.750758544921875,0.251432675370574,0.0464177600428462,0.006979922015219926
1772566808026787300,4.760787353515625,0.32533027075231075,0.07152370585724711,0.018663491676747797
1772566808036816400,4.77081640625,0.2934726587206125,0.07446268191859126,0.03830854173675179
1772566808046845400,4.780845458984375,0.19416940392553805,0.040939328631758684,0.04006429936289787
1772566808056875500,4.79087548828125,0.11368892302215099,0.026408698976039886,0.018257687354832887
1772566808066904300,4.800904296875,0.05311842672526836,0.016143910071253775,-0.0068313073247671125
1772566808076933400,4.810933349609375,-0.02613923438489437,-0.024046499889343976,-0.00034749826341867447
1772566808086962400,4.82096240234375,-0.023049451676011082,-0.07856368749663234,-0.01018061775267124
1772566808096991200,4.8309912109375,-0.007746084082126617,-0.07300196171626448,-0.0036914018638432022
1772566808107020300,4.841020263671875,0.03902385039925575,-0.026005671133100986,0.00500146154910326
1772566808117050400,4.85105029296875,0.1208469780832529,0.0020674539238214494,0.07378887431025505
1772566808127079400,4.861079345703125,0.10522212345004081,-0.008319061664491891,0.05540156922638416
1772566808137108200,4.871108154296875,0.14208441190123558,0.040135318772494794,0.04675517530366778
1772566808147137300,4.88113720703125,0.14480536129772661,0.034280163003504276,0.03861746155545115
1772566808157166600,4.89116650390625,0.15984160238802433,-0.011471534346044063,0.012907120107114315
1772566808167195400,4.9011953125,0.2012298438310623,-0.02426160394474864,0.003814151460677385
1772566808177224400,4.911224365234375,0.2111649623900652,-0.04107435318827629,0.02907587235867977
1772566808187253500,4.92125341796875,0.16104571748077867,-0.03670943597704172,0.03544438447728753
1772566808197283600,4.93128369140625,0.16279519149661062,-0.03165902071967721,0.03702507779747247
1772566808207312400,4.9413125,0.12655191172659397,0.0024365794971585274,0.06137567519992589
1772566808217341400,4.951341552734375,0.029997078856825826,-0.008013064455240965,0.06245002643316984
1772566808227370500,4.96137060546875,-0.021305822879076,-0.006176496677845716,0.04201104951649904
1772566808237399300,4.9713994140625,-0.02910334488749504,0.027300679379701612,0.023403671941161153
1772566808247428400,4.981428466796875,-0.018496610677242276,0.07274988665133714,0.026337825696915385
1772566808257457400,4.99145751953125,-0.008530512458086014,0.09100903531089424,0.039600188982486725
1772566808267486200,5.001486328125,0.045043256819248194,0.08644874165803193,0.04110430993512273
1772566808277516300,5.011516357421875,0.07278349665999412,0.09300298560708761,0.04958016959652305
1772566808287545300,5.02154541015625,0.06747194624841213,0.0658751785762608,0.06659019497781991
1772566808297574400,5.031574462890625,0.1025385834544897,0.02603372818380594,0.05373217470943927
1772566808307603500,5.041603515625,0.1863987699240446,0.04269537851884961,0.03435717376247048
1772566808317632500,5.051632568359375,0.23062837227284907,0.059707741987705225,0.025952187380194662
1772566808327661300,5.061661376953125,0.2778232541680336,0.04815978140458464,0.023614976604282856
1772566808337690400,5.0716904296875,0.25854572224617,0.02629910112172365,0.03395414591953158
1772566808347720400,5.081720458984375,0.1956190182119608,0.005840688852220773,0.030591537618637085
1772566808357749500,5.09174951171875,0.109414314442873,-0.039094139156490564,0.05825359765663743
1772566808367778300,5.1017783203125,-0.001110007068514824,-0.10291004711538553,0.06651333034932613
1772566808377807400,5.111807373046875,-0.06680383772850036,-0.10633651443272829,0.03187792416736483
1772566808387836400,5.12183642578125,-0.043323593419790266,-0.0673440820850432,0.036566228114068504
1772566808397865200,5.131865234375,-0.002375496959686279,-0.05623261322304606,0.05013020469471812
1772566808407894300,5.141894287109375,0.04039689231812954,-0.06073255499079823,0.05504164987280964
1772566808417924400,5.15192431640625,0.07958733145594596,-0.032518998549878594,0.04007672045305371
1772566808427953400,5.161953369140625,0.12725509155988693,0.0013392857797443866,0.0281444367274642
1772566808437982200,5.171982177734375,0.16149579933583735,0.022686609712988137,0.019587182392925024
1772566808448011500,5.182011474609375,0.14946107814908027,0.03102525286078453,0.02551540339812636
1772566808458040600,5.19204052734375,0.11640461172163485,-0.010093962382525206,0.009742956987768411
1772566808468069400,5.2020693359375,0.10654898813962936,-0.011773732163012028,0.010638736783713102
1772566808478098400,5.212098388671875,0.10150982492864132,-0.008446341305971146,0.01622311278730631
1772566808488128500,5.22212841796875,0.1419219148159027,-0.041265784107148644,0.01796864128038287
1772566808498157600,5.232157470703125,0.18328151468634604,-0.05010755447149277,0.02270107662975788
1772566808508186400,5.242186279296875,0.19467910701334476,-0.07014116545766591,0.032792554794251916
1772566808518215400,5.25221533203125,0.20315818154513834,-0.06996084045469761,0.04026669006720185
1772566808528244500,5.262244384765625,0.14514321494996546,-0.06323197059109807,0.035495384012162685
1772566808538273300,5.272273193359375,0.07992226249873638,-0.08133709773272275,0.03401157519519329
1772566808548302300,5.28230224609375,-0.00665887336730957,-0.08711027430668472,0.04714052135944366
1772566808558331400,5.292331298828125,-0.003585457271337509,-0.08545388540178536,0.03643573360219598
1772566808568361200,5.302361328125,0.04483575154840946,-0.07212956279590725,0.03854717279821634
1772566808578390300,5.312390380859375,0.06537818883955478,-0.08627075474262237,0.025478578519076107
1772566808588419300,5.32241943359375,0.16480185514390466,-0.049566141071170564,0.006374503467977047
1772566808598448400,5.332448486328125,0.20303718551397323,0.005879705688357353,-0.009680120884627103
1772566808608477400,5.3424775390625,0.18780220698118208,0.002402823358029127,0.006479717408120632
1772566808618506500,5.352506591796875,0.14238544067442416,-0.004030132298916578,0.0031812603846192358
1772566808628535300,5.362535400390625,0.06122925246655941,-0.007424158651381731,0.01278422437980771
1772566808638565400,5.3725654296875,-0.030160160464048385,-0.012790800251066685,0.006345861895382404
1772566808648594400,5.382594482421875,-0.04940379011631012,-0.013038783662766217,-0.009283522782474756
1772566808658623500,5.39262353515625,-0.0022796353697776793,-0.0013186813831329346,0.005535860686749219
1772566808668652300,5.40265234375,0.06355506506562232,-0.008651216228306294,0.014438859719038008
1772566808678681300,5.412681396484375,0.1075146183013916,-0.004538374081999063,0.009227700942009687
1772566808688710400,5.42271044921875,0.1721861201763153,0.037353579099476335,-0.003842208511382341
1772566808698739200,5.4327392578125,0.17482348294258115,0.037110710254311556,-0.0025037995144724843
1772566808708769300,5.442769287109375,0.14524433723688124,0.025996026521921158,0.0012825871564447879
1772566808718798300,5.45279833984375,0.10560966146290302,0.04120177896022796,-0.0028270401194691657
1772566808728827400,5.462827392578125,0.08068564808666706,0.017496055332571266,-0.008456862699985504
1772566808738856200,5.472856201171875,0.010566986721754074,0.05665463802739978,-0.017301263412833213
1772566808748885500,5.482885498046875,0.04841594812273979,0.02568929866030812,-0.013138298514485358
1772566808758914600,5.49291455078125,0.03938800753653049,-0.047613984090089795,0.016474018808454276
1772566808768943400,5.502943359375,0.05963350770771503,-0.03968216817751526,0.028345950648933648
1772566808778973400,5.512973388671875,0.1506499956727028,-0.0021821663446724413,0.00937719241529703
1772566808789002500,5.52300244140625,0.19652093548774718,0.017597616010904312,-0.01208192132934928
1772566808799031600,5.533031494140625,0.20215046580731869,0.008209317679703235,0.01005187680646777
1772566808809060400,5.543060302734375,0.21070552818477153,0.040674540215730665,-0.0019739304214715955
1772566808819089400,5.55308935546875,0.20510171682834624,0.08989069880545139,-0.007102671612054109
1772566808829118500,5.563118408203125,0.16277239514291286,0.10196458295881748,-0.010492460180819034
1772566808839147300,5.573147216796875,0.08554068690240382,0.05856412491053342,0.0007765373304486274
1772566808849176300,5.58317626953125,0.0715466483414173,0.055620911065489054,0.003845569512248039
1772566808859206400,5.593206298828125,0.04424830704927444,0.029084640187025067,-0.000431523285061121
1772566808869235200,5.603235107421875,0.022819734573364257,-0.02400777531415224,0.020443506961315867
1772566808879264300,5.61326416015625,0.04732055410146713,-0.04434241507351398,0.052916328281909224
1772566808889293300,5.623293212890625,0.03452653898000717,-0.012143588388711213,0.041964580026268954
1772566808899322400,5.633322265625,0.022251579296588896,0.031207623690366743,0.022555822940170764
1772566808909351400,5.643351318359375,0.004643441891670227,0.07737988453954457,0.0021544015549123286
1772566808919380500,5.65338037109375,-0.005015782335400581,0.07736234888285398,-0.004405249221622944
1772566808929410600,5.66341064453125,-0.0009463409394025802,0.04521496012434363,0.020458412269502877
1772566808939439400,5.673439453125,0.01615735407471657,0.001332125386595726,0.01669818295314908
1772566808949468400,5.683468505859375,0.07300327689051628,-0.02724894919246435,0.02070975668206811
1772566808959497500,5.69349755859375,0.13029928156137466,-0.044696050816774364,0.0241533212646842
1772566808969526300,5.7035263671875,0.21509762566387652,-0.03902691913917661,0.03998918830007314
1772566808979555300,5.713555419921875,0.24242460852861403,-0.032697131595760584,0.04771481411606073
1772566808989584400,5.72358447265625,0.226008895778656,-0.00753682524561882,0.041076691275835034
1772566808999614500,5.733614501953125,0.17403496291339396,0.006040303077548742,0.02111760683059692
1772566809009643300,5.743643310546875,0.12705226246416568,-0.0017469897978007792,0.0063785951212048525
1772566809019672300,5.75367236328125,0.09575579144656658,-0.03825754220187664,0.0033666999541223045
1772566809029701400,5.763701416015625,0.0788800599694252,-0.0884751329191029,0.01589914152994752
1772566809039730400,5.77373046875,0.07998071468770504,-0.12415405680462717,0.03325038156434893
1772566809049759500,5.783759521484375,0.09777122292220591,-0.1360816643550992,0.04133548834249377
1772566809059788500,5.79378857421875,0.12972118941247462,-0.11267170880362391,0.05658157279118895
1772566809069818600,5.803818603515625,0.12963877182602881,-0.08469020755290985,0.05222732310444116
1772566809079847400,5.813847412109375,0.13370645965635775,-0.02686199570149183,0.03369739467948675
1772566809089876500,5.82387646484375,0.10758943710327148,0.027312515947967766,0.016314590463042258
1772566809099905500,5.833905517578125,0.09033259735405444,0.003313216201215982,0.006578501607477664
1772566809109934300,5.843934326171875,0.09861351896524428,-0.03923793154135346,0.016239771661162375
1772566809119963400,5.85396337890625,0.14519991357326506,-0.0431314318485558,0.014298866726458071
1772566809129992400,5.863992431640625,0.1912649146556854,-0.05035100783854723,0.009375731110572815
1772566809140022300,5.874022216796875,0.20707214011847971,-0.03892784267887473,0.028821751467138525
1772566809150051300,5.88405126953125,0.16992168237566946,-0.015331570775061846,0.016896628134697673
1772566809160080400,5.894080322265625,0.10570786114037037,-0.004160334549844265,0.026323651041090485
1772566809170109200,5.904109130859375,0.003715221130847931,-0.017178221555054187,0.04063055494353175
1772566809180138200,5.91413818359375,-0.017703414472937582,-0.03025397622734308,0.062077539858967065
1772566809190167600,5.92416748046875,-0.013217793491482733,0.0009533552020788192,0.04750979306325316
1772566809200196600,5.934196533203125,0.041513329127430915,0.001627747332304716,0.04438201643154025
1772566809210225400,5.944225341796875,0.09351824165284633,-0.009599602994322776,0.037619974950701
1772566809220255500,5.95425537109375,0.12420914799273014,-0.01186725566536188,0.03588876724392175
1772566809230284500,5.964284423828125,0.14095336204469203,-0.0003841770119965076,0.05108516733199358
1772566809240313300,5.974313232421875,0.08673603416681289,0.013811813861876725,0.046477089014649385
1772566809250342400,5.98434228515625,0.05283668717443943,-0.0016970131762325763,0.04772533551007509
1772566809260371500,5.994371337890625,-0.006879822641611099,0.08606120364516973,0.021482640750706196
1772566809270400300,6.004400146484375,0.01080722521841526,0.10612710946574806,0.0012803951993584633
1772566809280429300,6.01442919921875,0.03225859404802322,0.02423442367687821,0.01291208854317665
1772566809290459400,6.02445947265625,0.06951426573097705,0.02313070021867752,0.033908553212136025
1772566809300488400,6.034488525390625,0.18850655585825443,0.04092968402057886,0.0175894327044487
1772566809310517200,6.044517333984375,0.23882103107869623,0.07144187279269099,-0.00242883458212018
1772566809320546300,6.05454638671875,0.25189503218531606,0.03483852753862739,0.01991539143398404
1772566809330575400,6.064575439453125,0.2561854228556156,0.011195786144584417,0.03509674008339643
1772566809340604400,6.0746044921875,0.1683177543103695,0.044277971535176035,0.03276259804740548
1772566809350633500,6.084633544921875,0.08750117332041263,0.04438318547531962,-0.004753624267876148
1772566809360663300,6.094663330078125,0.013825696256756781,0.013004735262691974,-0.01654723017513752
1772566809370692600,6.104692626953125,-0.017934885141253472,-0.05742313818186521,-0.0036776655994355677
1772566809380721400,6.114721435546875,-0.007002572238445281,-0.07037818908393383,0.01716258559450507
1772566809390750500,6.12475048828125,0.008303717964887618,-0.05572130270004272,0.02933613073006272
1772566809400779500,6.134779541015625,0.11472820294201373,-0.019500527022778987,0.0034494098015129563
1772566809410808300,6.144808349609375,0.14643851545751094,0.026936814503371712,-0.0028046821571886538
1772566809420838000,6.154837890625,0.16583645888864992,0.012781594031304121,-0.0013150281213223933
1772566809430868000,6.164867919921875,0.16280337480306625,0.004533113384991884,-0.0016981822200119495
1772566809440896800,6.174896728515625,0.15179390501081944,0.01553703021928668,-0.0036358722843229767
1772566809450925800,6.18492578125,0.16014613829255103,0.008386135551333426,0.0005539806209504604
1772566809460955000,6.194954833984375,0.14627660289406774,-0.005672931069880724,0.018692717771232128
1772566809470983700,6.204983642578125,0.11810264781117438,-0.025410189457982776,0.009167349056899548
1772566809481012700,6.2150126953125,0.12379647553861141,-0.014010551304370164,0.003654284723848104
1772566809491041800,6.225041748046875,0.1273380936682224,0.011530132665485143,0.01042728599011898
1772566809501071600,6.235071533203125,0.12954933997690676,0.033251112216711044,-0.010824030222743749
1772566809511100700,6.2451005859375,0.10534838017821312,0.052586804066598415,-0.02107026055753231
1772566809521129700,6.255129638671875,0.08802022875845432,0.023319646919518707,-0.008006342453509568
1772566809531159000,6.265158935546875,0.06515490147769451,-0.007120937921106815,0.006325695890188217
1772566809541187800,6.275187744140625,0.030273557710647582,-0.03431450366452336,0.011379179887473582
1772566809551217000,6.285216796875,0.08102525530457497,-0.03589563537612557,0.004665215332061052
1772566809561246000,6.295245849609375,0.11821662957966327,-0.009119418261945247,0.01793152414038777
1772566809571275800,6.30527587890625,0.13038579080104828,-0.016866232996433972,0.03424450716823339
1772566809581304800,6.315304931640625,0.12063830376863478,-0.0046219607122242445,0.024023411274701357
1772566809591334000,6.325333984375,0.05532324329316616,0.004547141910344362,0.02280234504714608
1772566809601362700,6.33536279296875,0.03585866436660289,0.011264613597095012,0.008450579089671372
1772566809611391700,6.345391845703125,0.019703063857555388,0.021241525471210478,0.01530176015868783
1772566809621420800,6.3554208984375,0.031084289571642873,0.018946546401828527,0.0024541151538491246
1772566809631449600,6.36544970703125,0.05538344904780387,0.02641995102241635,0.0032148703932762144
1772566809641479700,6.375479736328125,0.1196703355193138,0.02652911048531532,0.00980155530720949
1772566809651508700,6.3855087890625,0.16178455314934254,0.02546469612419605,0.02298427748531103
1772566809661537800,6.395537841796875,0.17710370283424853,0.012804974906891583,0.026226766537874934
1772566809671566800,6.40556689453125,0.15144260735511778,-0.0035607612214982507,0.025274288118630646
1772566809681596000,6.415595947265625,0.15684826579093933,0.02094254252463579,0.011128858388215302
1772566809691625000,6.425625,0.11292027673721312,0.034491759927570816,-0.002929331450164318
1772566809701653800,6.43565380859375,0.08425999944210052,0.01196136368960142,0.010633037695288658
1772566809711683800,6.445683837890625,0.08875321920812129,-0.0004661562070250511,0.01966053989008069
1772566809721713000,6.455712890625,0.07496142522096634,-0.01633329516351223,0.02919306899756193
1772566809731742000,6.465741943359375,0.0826093096256256,-0.022324352271854878,0.02289820663705468
1772566809741770800,6.475770751953125,0.09860182852745056,-0.034431115781515836,0.020024258635938166
1772566809751799800,6.4857998046875,0.11267360849976539,-0.026553952665627,0.03711903969123959
1772566809761828900,6.495828857421875,0.13517010246813296,-0.028487697207182645,0.036140696178376674
1772566809771857700,6.505857666015625,0.1426584123969078,-0.020703326941281557,0.028529344391822812
1772566809781886700,6.51588671875,0.13339607853293417,-0.02262465039268136,0.04553074807524681
1772566809791916800,6.525916748046875,0.08971358867287635,-0.03687091014906764,0.051270606901496645
1772566809801945600,6.535945556640625,0.10305588532686233,-0.016620587672293186,0.03310205913484096
1772566809811974700,6.545974609375,0.08106032661795616,-0.008807575833797454,0.029493220987915993
1772566809822004000,6.55600390625,0.008240589600801467,-0.02745645446330309,0.05746361632272601
1772566809832033000,6.566032958984375,-0.028043022179603576,-0.035671178970485926,0.014088146585226058
1772566809842061800,6.576061767578125,0.02227145304083824,0.0015261866539716719,-0.003679126904159784
1772566809852091000,6.5860908203125,0.09456395131349563,-0.009988017790019512,0.015847411342710255
1772566809862121000,6.596120849609375,0.16458499752283096,-0.0536560407333076,0.06539280188679694
1772566809872149800,6.606149658203125,0.20317513267993925,-0.06161883630603551,0.07498202961757779
1772566809882178800,6.6161787109375,0.18142974933981895,-0.015978344246000052,0.06333966874927283
1772566809892207900,6.626207763671875,0.1415858147293329,-0.006755027218163013,0.04095101906955242
1772566809902236700,6.636236572265625,0.11611235077679156,-0.02056260329633951,0.03880100142881274
1772566809912265700,6.646265625,0.052743163672089574,-0.03483195166736841,0.04157251196876168
1772566809922294800,6.656294677734375,0.009468670091032982,-0.041944414021074766,0.016222820526361464
1772566809932324900,6.666324951171875,0.01892740330994129,-0.02668079391568899,0.005981997019052505
1772566809942353700,6.676353759765625,0.031633740147948265,-0.009897270766645669,0.03320011268183589
1772566809952382700,6.6863828125,0.039406127715110775,-0.024006460139900446,0.04658054938912391
1772566809962411800,6.696411865234375,0.05491349344849586,-0.005414134003221989,0.04555032955855131
1772566809972440800,6.70644091796875,0.12307283743917942,0.04043824724182486,0.02823065370619297
1772566809982470000,6.716469970703125,0.15672142454087734,0.044886897213757035,0.027616905722022054
1772566809992499000,6.7264990234375,0.14178513669371604,0.0331603651933372,0.030949995667487382
1772566810002529000,6.736529052734375,0.16902151866555212,0.029664632032066582,0.013212386664003133
1772566810012557800,6.746557861328125,0.19876959119737148,0.008134060486406088,0.00743570295870304
1772566810022587000,6.7565869140625,0.21770517781376839,-0.010367080235481262,0.019256196872889996
1772566810032616000,6.766615966796875,0.19484569575190544,-0.03766220665723085,0.026116584161669013
1772566810042644700,6.776644775390625,0.13876140495836733,-0.04063625403195619,0.010918868899345397
1772566810052673800,6.786673828125,0.10840309157371521,-0.04169862256646156,0.007008417457342147
1772566810062702800,6.796702880859375,0.05944879879057407,-0.0355839390784502,0.002241349186003208
1772566810072732700,6.806732666015625,0.006428571742773056,-0.054699996828287835,0.020201807159930467
1772566810082761700,6.81676171875,0.06632336073517799,-0.03924348449930548,0.021187749457359312
1772566810092790800,6.826790771484375,0.09430325455069541,-0.013650924211740493,0.01838686669245362
1772566810102819800,6.83681982421875,0.12228840906322001,-0.02014452401474118,0.005851502507179975
1772566810112848600,6.8468486328125,0.1149865616172552,-0.010122603955119847,0.02377162847071886
1772566810122878000,6.8568779296875,0.1142588318645954,0.007598492304980754,0.019825813454389572
1772566810132907000,6.866906982421875,0.08500526485145092,0.01221080840602517,0.01632452733516693
1772566810142936800,6.876936767578125,0.07494447408616542,0.00845920078754425,0.01947773066908121
1772566810152966000,6.8869658203125,0.09043079703152179,0.007147679797559976,0.035235564032197
1772566810162995000,6.896994873046875,0.13215163142979144,0.01603679643496871,0.019102759876847265
1772566810173023700,6.907023681640625,0.1536380715727806,0.03895268485918641,0.01930573510304093
1772566810183052800,6.917052734375,0.15374796168804167,0.03242167565524578,0.010391045632958411
1772566810193081900,6.927081787109375,0.15779226864278315,0.032278760053217406,-0.0024669746354222294
1772566810203110700,6.937110595703125,0.11912789920568466,0.06604585896804928,-0.0023927403554320336
1772566810213140700,6.947140625,0.08576923496127128,0.04191650310084224,-0.0037009003445506094
1772566810223169800,6.957169677734375,0.07340718151628971,0.031263883922249075,0.010814093350619077
1772566810233198800,6.96719873046875,0.06880056450366974,0.025244915893673895,0.021187603326886892
1772566810243227600,6.9772275390625,0.05786649803519248,0.03341843160763383,0.030663579941540956
1772566810253256700,6.987256591796875,0.054932782670855516,0.04814619127064943,0.030491292114555833
1772566810263285800,6.99728564453125,0.05334931287169456,0.06565715191140771,0.01931508745327592
1772566810273314800,7.007314697265625,0.028084523233771322,0.03298836962729692,0.010170242489129304
1772566810283344600,7.0173447265625,0.026395254972577095,-0.011937398292124271,0.031928046919405456
1772566810293373700,7.027373779296875,0.05958499239087105,-0.01056406411230564,0.04210559593215585
1772566810303403000,7.037403076171875,0.09833177941441536,-0.03088336017206311,0.03335135772079229
1772566810313431800,7.047431884765625,0.15265490575432777,-0.04053673918023705,0.02960486466884613
1772566810323460900,7.0574609375,0.1964016930222511,-0.028277123196423053,0.050359629536420106
1772566810333490000,7.067489990234375,0.1966682350039482,-0.030029812082648277,0.049222734460979696
1772566810343518700,7.077518798828125,0.17553893773555754,-0.023065087636560202,0.03786868901476264
1772566810353548800,7.087548828125,0.1393126091003418,-0.026672172217816113,0.03524477025195956
1772566810363577900,7.097577880859375,0.1206505787283182,-0.07779124181941151,0.006424626220017671
1772566810373607000,7.10760693359375,0.1367763686209917,-0.11807386010810732,0.02208659799322486
1772566810383635700,7.1176357421875,0.13442249897122382,-0.11560542416796088,0.03881502995416522
1772566810393664800,7.127664794921875,0.10990940448343753,-0.07901435387358069,0.031355215467512604
1772566810403693800,7.13769384765625,0.10237199471592903,-0.04890694651007652,0.023478344612568616
1772566810413726000,7.147725830078125,0.06389291871786117,-0.04581351053938269,0.023938071078807115
1772566810423755800,7.157755859375,0.02849427307844162,-0.007341887195408344,0.017903467089682816
1772566810433785000,7.16778515625,-0.005790273839235306,0.02119637115523219,0.002162146469950676
1772566810443814000,7.17781396484375,-0.017422259443998337,0.012083090373128652,0.011099778424203396
1772566810453843000,7.187843017578125,0.02475976272523403,0.002900836008042097,0.0013289105162024497
1772566810463872000,7.1978720703125,0.07841419602334498,0.017001988205313682,0.010920330204069614
1772566810473900800,7.20790087890625,0.15985329282581806,0.04240019496455788,-0.0005158405676484107
1772566810483929900,7.217929931640625,0.21409341705739496,0.05751797685846686,0.000613601853698492
1772566810493960000,7.2279599609375,0.23424831633567808,0.07925166976079344,-0.005922814177721739
1772566810503989000,7.237989013671875,0.23368834436535835,0.05269815548658371,-0.004141191457957029
1772566810514017800,7.248017822265625,0.2119172420620918,0.04372559834942221,0.007705021419376135
1772566810524046800,7.258046875,0.15560557225346563,0.04351765468716621,0.020931728869676588
1772566810534076000,7.268075927734375,0.10289923346042633,0.03733472826853394,0.02300356670767069
1772566810544104700,7.278104736328125,0.07029401793181896,0.030162790812551972,0.022737901508808136
1772566810554134800,7.288134765625,0.05191781876385212,0.03777005094587803,0.021756927647441623
1772566810564163800,7.298163818359375,0.02174947499334812,0.0383396675273776,0.013692133004963396
1772566810574193000,7.30819287109375,0.059199207943677896,0.04302767921313643,0.011258914508670568
1772566810584222000,7.318221923828125,0.07798106530308722,0.06015928514748811,0.015493921729922294
1772566810594251000,7.3282509765625,0.05856617073714733,0.045935529483854765,0.014394289924949406
1772566810604280000,7.338280029296875,0.046782209441065786,0.030460604715347287,0.016304361329972743
1772566810614308900,7.348308837890625,0.015890812093019485,0.022431904299557208,0.0320484584286809
1772566810624339000,7.3583388671875,0.014186930784583092,0.03652428866848349,0.018499825547635552
1772566810634368000,7.368367919921875,0.015483400335907935,0.03832110895738006,0.038314971477538345
1772566810644396800,7.378396728515625,0.07698679356873035,0.02045695096477866,0.04844853521808982
1772566810654425900,7.38842578125,0.11658698255121708,0.02401961188241839,0.06450491313636303
1772566810664455000,7.398454833984375,0.15101239924430845,0.005431961920857429,0.05912395075038075
1772566810674483700,7.408483642578125,0.20882219865620136,0.007026976027339696,0.03704407475888729
1772566810684512800,7.4185126953125,0.18424305319488046,-0.01534179990813136,0.01443359902203083
1772566810694542800,7.42854296875,0.16793080081939696,-0.021308891618996857,0.019548165556788445
1772566810704572000,7.438572021484375,0.15165361975729463,-0.04335252725332975,0.02352934414744377
1772566810714600700,7.4486005859375,0.13289105162024498,-0.06145517017692327,0.04463467601835727
1772566810724629800,7.458629638671875,0.11018237620592117,-0.055742930009961125,0.04070698118060827
1772566810734659000,7.4686591796875,0.04908756377398967,-0.04481617006510496,0.038987171650677915
1772566810744687900,7.47868798828125,0.029608956322073936,-0.022737755378335712,0.02655658301413059
1772566810754717000,7.488717041015625,-0.006624386575818061,0.00475201683267951,0.03937339448928833
1772566810764747000,7.4987470703125,-0.012101356682181357,-0.0016945289582014082,0.026170798566937443
1772566810774776000,7.508776123046875,-0.004351180946826934,-0.01670256686732173,0.03247457488626242
1772566810784804900,7.518804931640625,0.03671440441310406,-0.030622078887373207,0.0375916256390512
1772566810794834000,7.528833984375,0.12851122910082338,-0.007475450447201729,0.03903276435807347
1772566810804863000,7.538863037109375,0.2066273189604282,0.015422756189852952,0.021889760246872902
1772566810814891800,7.548891845703125,0.2518330728650093,0.0064656888827681535,0.0032328444413840768
1772566810824920800,7.5589208984375,0.2519815414249897,0.013333674956113099,0.014898440054804086
1772566810834951000,7.568950927734375,0.22022037550508974,0.03358005191013217,0.06224558990225196
1772566810844980000,7.57897998046875,0.12871464271843433,0.020947949352115393,0.034790158352255816
1772566810855008800,7.5890087890625,0.10566109938919543,0.011858195576071739,0.02794043858796358
1772566810865037800,7.599037841796875,0.07321078216135501,-0.011190525447577237,0.032824118976294996
1772566810875067000,7.60906689453125,0.06941781961917877,-0.03939239145070314,0.04069894400462508
1772566810885096000,7.619095947265625,0.05964110649228096,-0.04061579576581716,0.02573445297628641
1772566810895125000,7.629125,0.01704991900026798,-0.033928573086857795,0.024271102425456045
1772566810905154800,7.63915478515625,0.07217793198227881,-0.010220803632587193,0.022507015362381935
1772566810915183900,7.649183837890625,0.1281494100511074,0.007307108142971992,-0.005660948371142149
1772566810925213000,7.659212890625,0.1327986971616745,-0.0003914835356175899,-0.0020950725831091403
1772566810935242000,7.669241943359375,0.17157354123592375,-0.0038294951602816578,0.008762567648291588
1772566810945270800,7.679270751953125,0.191174313762784,0.0018365677773952483,0.008032499808073043
1772566810955299800,7.6892998046875,0.18353461266458032,0.008968319353461264,0.014448796591162681
1772566810965329000,7.699328857421875,0.12497896332144737,0.0015213643483817576,0.029118834717571734
1772566810975359000,7.70935888671875,0.08778291287124157,-0.0013648586124181746,0.026469196991622448
1772566810985387800,7.7193876953125,0.06023147360086441,0.00820084211230278,0.02030512140393257
1772566810995416800,7.729416748046875,0.04784545475840568,-0.0007933423347771168,0.00890752907693386
1772566811005446000,7.73944580078125,0.054873745959997174,-0.01627659654021263,-0.005849602811038494
1772566811015474700,7.749474609375,0.08686813611388206,-0.02702814604863524,-0.004213818302750587
1772566811025504000,7.75950390625,0.13548632881045342,-0.02496054599434137,-0.013429974937438964
1772566811035533800,7.769533935546875,0.1501747793763876,-0.027110855896025896,0.0014982757337391375
1772566811045563000,7.77956298828125,0.15592705929279327,-0.016027736345678566,0.012720511493831872
1772566811055592000,7.789592041015625,0.12277473127543925,-0.003791062846034765,0.01685191221013665
1772566811065621000,7.79962109375,0.07963000155389309,0.001391162097454071,0.012855536050349474
1772566811075650000,7.809650146484375,0.04178746989369392,0.000798603031784296,0.016474164938926696
1772566811085678800,7.819678955078125,0.04754325694143772,-0.002279050847887993,0.011351853489130734
1772566811095708000,7.8297080078125,0.063164019921422,0.01289163027703762,0.008722674029320478
1772566811105738000,7.839738037109375,0.1014583870023489,0.026714842315763234,-0.007656798363476991
1772566811115767000,7.84976708984375,0.12438976525664329,0.04256006170138717,-0.021839345233887433
1772566811125795800,7.8597958984375,0.1372165136039257,0.029779198322445154,-0.009702771107852459
1772566811135825000,7.869824951171875,0.1292816289514303,0.003011749036610126,0.009876374109089373
1772566811145854000,7.87985400390625,0.11985972061157225,0.007221914077550172,0.025596505810320375
1772566811155882800,7.8898828125,0.10076631308495998,0.00957958311960101,0.026834815433621404
1772566811165911800,7.899911865234375,0.08485679629147053,0.012027122402191162,0.04416998111605644
1772566811175942000,7.90994189453125,0.10448328778147697,0.02284223866611719,0.035815702007710934
1772566811185970700,7.919970703125,0.1096715040743351,0.04718932893723249,-0.005813946975767612
1772566811195999700,7.929999755859375,0.08954992254376411,0.05576353440657258,-0.021339432887732983
1772566811206029000,7.940029052734375,0.10107844777405262,0.03091273239701986,-0.020985212622582912
1772566811216057900,7.950057861328125,0.08548281923532486,0.024345336705446242,-0.046670273499190805
1772566811226087000,7.9600869140625,0.11230068353414535,0.04161299010962247,-0.07400047123432159
1772566811236116000,7.970115966796875,0.14690847105681895,0.07012202236577868,-0.030836744551360606
1772566811246146000,7.98014599609375,0.11778174529373645,0.061830579360574484,0.021903788772225378
1772566811256174800,7.9901748046875,0.1025344918012619,0.05666954333558678,0.032244419392198326
1772566811266201900,8.000201904296874,0.1144943941861391,0.0546058888040483,0.04952741649597883
1772566811276231000,8.01023095703125,0.14372750293314457,0.035613019042462106,0.08121069487407803
1772566811286260000,8.020260009765625,0.19799568421542643,-0.005157382763177156,0.08011369341760874
1772566811296289000,8.0302890625,0.18814882846176623,-0.0058820437759161,0.07942235015258192
1772566811306319000,8.040319091796874,0.13020400449335576,-0.007014408806711435,0.065418813110888
1772566811316348000,8.050347900390625,0.06815992851257324,-0.006260375569015741,0.05822612512782216
1772566811326377000,8.060376953125,-0.038456279644370074,0.0023690672188997268,0.07795490794852375
1772566811336406000,8.070406005859375,-0.061608022651076316,-0.023897154546529055,0.09622370121926069
1772566811346434800,8.080434814453126,-0.03637421267330646,-0.03057707070186734,0.07306640525460242
1772566811356463900,8.0904638671875,-0.004333645290136337,-0.03361307739689946,0.07961509624570608
1772566811366493000,8.100492919921875,0.08381400924026966,-0.03729702660664916,0.06790230048969388
1772566811376522800,8.110522705078125,0.1666734942346811,-0.01587546839341521,0.04377338301390409
1772566811386551800,8.1205517578125,0.19100304884910582,-0.007297025140374899,0.032197803771495816
1772566811396580900,8.130580810546874,0.20108955857753752,-0.008721358855068683,0.02751446826085448
1772566811406609700,8.140609619140625,0.16491875952184198,-0.047071840037405485,0.048600510909408326
1772566811416639000,8.150638916015625,0.12082535077333449,-0.10471256649270654,0.06623597471266984
1772566811426664700,8.160664794921875,0.10039631072878837,-0.11455839933305978,0.06357537720128893
1772566811436693800,8.17069384765625,0.07910860802829266,-0.09313713338077068,0.05390913871154189
1772566811446723600,8.1807236328125,0.03968260656893253,-0.08037439018040896,0.049710810238867996
1772566811456752600,8.190752685546874,0.02377718142867088,-0.05895882331654429,0.02483779639750719
1772566811466781700,8.20078173828125,0.024260581031441686,-0.04676131278350949,0.004538227951526642
1772566811476810800,8.210810791015625,0.05764087258577347,-0.05446574968099594,-0.0033536943420767783
1772566811486839600,8.220839599609375,0.1004389808267355,-0.07501593188717962,0.04647299736142158
1772566811496868600,8.23086865234375,0.14255904367566108,-0.07759279663786292,0.05941212004199624
1772566811506897700,8.240897705078124,0.1776794568955898,-0.023910598549991845,0.03638283437117934
1772566811516927700,8.250927734375,0.1779845773220062,0.019918314043432472,0.019756839871406553
1772566811526956500,8.26095654296875,0.1612584834486246,0.044441053142398594,0.015096300714462994
1772566811536985600,8.270985595703126,0.10578560255169868,0.05881210832223296,0.011377864713221787
1772566811547014700,8.2810146484375,0.054714756006002424,0.0387568700261414,0.006242839912325143
1772566811557043500,8.29104345703125,0.0227916775226593,0.013237521105259656,-0.10380538851991296
1772566811567072500,8.301072509765625,0.050475803261995314,0.021108692871779203,-0.1373164668470621
1772566811577102600,8.3111025390625,0.13036416349112986,0.027876287310570475,-0.045405952651798726
1772566811587131600,8.321131591796876,0.19093699787557125,0.02059957430586219,0.02474383450374007
1772566811597160700,8.33116064453125,0.21991817768812177,0.04226283232048154,0.058403527521342036
1772566811607189800,8.341189697265625,0.21693068630993365,0.035156507446616886,0.04170110678449273
1772566811617218800,8.35121875,0.2241091996371746,0.015608049628883599,-0.032698592900484796
1772566811627247600,8.36124755859375,0.20115736311674118,-0.000625584552437067,-0.02547361008301377
1772566811637276700,8.371276611328126,0.11773439902067184,-0.04957797763943672,0.048761254429072136
1772566811647306800,8.381306640625,0.09493921436667442,-0.09335179904475807,0.04340805683284998
1772566811657335600,8.39133544921875,0.08426759822666645,-0.06894128814861178,0.0676040481954813
1772566811667364600,8.401364501953125,0.06462240203619003,-0.06571969575360417,0.10485109818056225
1772566811677393700,8.4113935546875,0.04900222357809543,-0.050891544456034894,0.10526683937460184
1772566811687422700,8.421422607421874,-0.001513327172398567,-0.026514789699018,0.1182377454329282
1772566811697451500,8.431451416015625,-0.04980944830775261,-0.011676701529324054,0.10257409315928816
1772566811707480600,8.44148046875,-0.06751520086824894,-0.03768164201006293,0.074207172787562
1772566811717510700,8.4515107421875,-0.06388882706463336,-0.04839768181368708,0.06005239070691168
1772566811727539500,8.46153955078125,-0.03472235381305218,-0.029421763186901807,0.042949937801808113
1772566811737568500,8.471568603515625,0.015373510220646857,-0.020016367590427398,0.047404725253582
1772566811747597600,8.48159765625,0.08566928171813487,0.0020569325298070906,0.04947247143834829
1772566811757626600,8.491626708984375,0.12881050430834293,0.019234715693444013,0.056362523213028905
1772566811767655700,8.50165576171875,0.14126023603677748,0.025764555853605268,0.05952858602851629
1772566811777684700,8.511684814453124,0.1327104343563318,0.05269128735437989,0.04866100892499089
1772566811787714800,8.52171484375,0.1192827975064516,0.06116583184152841,0.019493220499157905
1772566811797743600,8.53174365234375,0.10544774889945983,0.011379618278890847,0.013427636849880218
1772566811807772700,8.541772705078126,0.10764145955145359,-0.022212124069035052,0.01291398823931813
1772566811817801700,8.5518017578125,0.11881751808226108,-0.03033741672709584,0.01637859560996294
1772566811827830500,8.56183056640625,0.13293138363063334,-0.030901480350643395,0.012922902198135851
1772566811837859600,8.571859619140625,0.1720984418928623,-0.018741671479493377,0.021968962962925432
1772566811847889700,8.5818896484375,0.1576589976519346,0.004941840316355228,0.01272387249469757
1772566811857918700,8.591918701171876,0.16409633722305297,0.00802066323980689,-0.007568681688606738
1772566811867947500,8.601947509765624,0.13835165511369704,0.011571779850125313,-0.004483867415785789
1772566811877977600,8.6119775390625,0.09268354439437389,0.008365677285194396,-0.0017890753738582133
1772566811888006700,8.622006591796875,0.07116203293800354,-0.005230740260332822,-0.02998334259241819
1772566811898036700,8.63203662109375,0.05194295320510864,-0.002589870362728834,-0.04204465952515602
1772566811908065500,8.6420654296875,0.05243862776756286,0.00273863118365407,-0.024660101743042468
1772566811918094600,8.652094482421875,0.043932080706954,0.0025610826596617698,-0.02749050286337733
1772566811928123600,8.66212353515625,0.07529577174186707,0.021802958746254444,-0.021202654765546322
1772566811938152400,8.67215234375,0.10811199967265128,0.0353179816186428,-0.04244184214919805
1772566811948181500,8.682181396484374,0.1746136395841837,0.05326294976249337,-0.052521191484481096
1772566811958210800,8.6922109375,0.170953948032856,0.05485694095566868,0.0003492518290877342
1772566811968240600,8.70224072265625,0.1704080045878887,0.022175299189984798,0.020818916144967076
1772566811978269700,8.712269775390626,0.15319149684906005,-0.001758680235594511,0.028181261606514452
1772566811988298800,8.722298828125,0.09680267015099525,-0.018514146333932877,0.03774403972178697
1772566811998327800,8.732327880859375,0.09609422962069511,-0.042186113822460174,0.03452566219717264
1772566812008356600,8.742356689453125,0.08696575126945973,-0.04386778329908848,0.04035685256868601
1772566812018385700,8.7523857421875,0.07980535812079906,-0.046912557822465895,0.03707987672463059
1772566812028414700,8.762414794921876,0.10779401976466178,-0.047531274242699144,0.023900661677867172
1772566812038444800,8.77244482421875,0.118149994084239,-0.051500470134615894,0.021386194638907906
1772566812048473600,8.7824736328125,0.12538345246911048,-0.059527124723792076,0.015490122337639332
1772566812058502700,8.792502685546875,0.13690613248050212,-0.04566738006696105,0.01235182431191206
1772566812068531700,8.80253173828125,0.12427110731303691,-0.028472645768523215,0.010417641378939151
1772566812078560500,8.812560546875,0.10927695179879665,-0.026406799279898405,0.024835019918531178
1772566812088589600,8.822589599609374,0.0940250221312046,-0.0405336704403162,0.032034137642383574
1772566812098619600,8.83261962890625,0.09254092105329036,-0.0360031874038279,0.028695494738966223
1772566812108648400,8.8426484375,0.09440613040328025,-0.03456073351055383,0.0362049935862422
1772566812118677500,8.852677490234376,0.09062953447401523,-0.04288710169866681,0.020358605156838894
1772566812128706800,8.862706787109374,0.04731003270745277,-0.06193447812646627,0.0015279402196407318
1772566812138735600,8.872735595703125,0.044670331853628155,-0.05354980387985706,-0.045699967162311075
1772566812148764700,8.8827646484375,0.07064005489051342,-0.022904490247368813,-0.007207154899835586
1772566812158793700,8.892793701171875,0.09765665663182735,-0.014977058248966932,0.03814282978102564
1772566812168823800,8.90282373046875,0.11511574095487594,-0.018688333857059477,0.035166005927324294
1772566812178852600,8.9128525390625,0.15899813730120657,-0.009648702833056449,0.042296296198666095
1772566812188881700,8.922881591796875,0.1841378392547369,0.02123188086003065,0.02292392560020089
1772566812198910700,8.93291064453125,0.179445297524333,0.008335136016458272,0.034082302343845364
1772566812208939500,8.942939453125,0.1411415780931711,-0.004503595029562712,0.04103606700450182
1772566812218968600,8.952968505859374,0.08878945956528186,-0.012365414445847272,0.04968830614611506
1772566812228997600,8.96299755859375,0.06899637933671474,-0.016136895808577537,0.03771978206336498
1772566812239027700,8.97302783203125,0.02824760484099388,-0.029150106638669966,0.03555383620113134
1772566812249056500,8.983056396484375,0.048719899505376814,-0.03613251287192106,0.013834537150338291
1772566812259085600,8.99308544921875,0.09176058433055877,-0.010112520952522753,0.010528992798924445
1772566812269114600,9.003114501953124,0.10673486610054969,-0.003167962511628866,0.009002806144952774
1772566812279143700,9.013143798828125,0.14505144501328468,-0.00878317204490304,0.00036116146259009837
1772566812289172700,9.0231728515625,0.1822375585913658,0.031055355738103387,0.0080632602725178
1772566812299202600,9.03320263671875,0.185040341052413,0.0596738397181034,0.03963533336110413
1772566812309231600,9.043231689453124,0.13501228155791759,0.04759133386686444,0.04092573849782347
1772566812319260700,9.0532607421875,0.09779460379779338,0.02932166381329298,0.058063408846780656
1772566812329289700,9.063289794921875,0.0681441464215517,0.02213555170148611,0.04965462307222187
1772566812339318800,9.07331884765625,0.03715513391792774,0.00980579309090972,0.036192718626558776
1772566812349347600,9.08334765625,0.01258709437251091,0.009405687857419251,0.00842186445184052
1772566812359376600,9.093376708984374,0.025007600006461142,0.007807166619598865,-0.017742723570019006
1772566812369406700,9.10340673828125,0.03224456552267074,0.02082008518874645,-0.005316957239061594
1772566812379435500,9.113435546875,0.06519698705375195,0.010283785866200924,0.01787811345271766
1772566812389464600,9.123464599609376,0.0738297908425331,-0.010159428834170103,0.03083981329128146
1772566812399493600,9.13349365234375,0.1094663368910551,-0.020088848304748535,0.014273074698075651
1772566812409522400,9.1435224609375,0.11500526631772517,-0.01623480322510004,0.016103212734684347
1772566812419551500,9.153551513671875,0.1325321551799774,-0.02474018124192953,0.018918635481595992
1772566812429580800,9.163580810546875,0.14632453368902207,-0.013933686675876378,-0.003815320504456758
1772566812439610600,9.173610595703124,0.14889467643797397,0.009398819725215434,0.0041414837189018726
1772566812449639700,9.1836396484375,0.15779986742734908,0.0076147127874195576,0.0077331515353173015
1772566812459668700,9.193668701171875,0.15341478421092034,-0.004501110811531543,0.025278818163275717
1772566812469697800,9.20369775390625,0.13356383631527424,0.002707651523500681,0.038404549457132814
1772566812479726600,9.2137265625,0.06644903294146061,-0.020601912393420935,0.02574512050077319
1772566812489755600,9.223755615234374,0.054176995867490765,-0.021231442468613384,-0.010868380821123718
1772566812499785700,9.23378564453125,0.04706219542622566,-0.026191256833076475,-0.02427745910100639
1772566812509814800,9.243814697265625,0.05735504138171672,-0.03384688615277409,-0.01971541188247502
1772566812519843600,9.253843505859376,0.10319149440526962,0.012710136230289935,-0.013830664692819118
1772566812529872600,9.26387255859375,0.18016075231730938,0.0332778540931642,0.0014511486563831568
1772566812539901700,9.273901611328125,0.21828326996266842,0.03446151091977954,0.017992241351678966
1772566812549930500,9.283930419921875,0.18996435345113277,0.03225464852526784,0.01711363188624382
1772566812559959600,9.29395947265625,0.15992752710580824,0.04658624847754836,0.001538607744127512
1772566812569989600,9.30398974609375,0.09952537311315536,0.04651888232976198,-0.005122969036921859
1772566812580018400,9.314018310546874,0.05651157629489898,0.002102232976257801,-0.023139321916550395
1772566812590047500,9.324047607421875,0.014248305583000182,-0.027344664651900528,-0.004107069992646575
1772566812600076800,9.334076904296875,0.022861820149421692,-0.02733487391024828,0.002285992045328021
1772566812610105900,9.34410595703125,0.018531681990623473,-0.024491174916923045,0.009942717343568802
1772566812620134700,9.354134765625,0.10126081860363483,-0.017618366537988185,0.02954378213137388
1772566812630164700,9.364164794921875,0.13866378980278968,-0.022582710947096348,0.041009252062812446
1772566812640193800,9.37419384765625,0.183613523119688,-0.02828574489429593,0.03737001877762377
1772566812650222600,9.38422265625,0.17419979808628558,-0.016321312464773655,0.03242109113335609
1772566812660251600,9.394251708984376,0.1369680918008089,-0.02002294346168637,0.018528394054993985
1772566812670280700,9.40428076171875,0.055035658523440355,-0.019175386721640823,0.027682226043194532
1772566812680309500,9.4143095703125,0.000346036958694458,-0.016437486190348863,0.04278831749930977
1772566812690338600,9.424338623046875,-0.014227262794971465,0.012459522470086812,0.04081109914220869
1772566812700368600,9.43436865234375,-0.006606266397237777,0.017438333795964718,0.023731296460330484
1772566812710397700,9.444397705078124,0.0683534052580595,0.0007645546317100524,0.021685323715955017
1772566812720426500,9.454426513671875,0.11054010360240936,0.012413637501746415,0.03975435663089156
1772566812730455600,9.46445556640625,0.17985329380333423,0.002306961768120527,0.03516732110157609
1772566812740484600,9.474484619140625,0.19187866263985634,0.002567074009031057,0.030453005930781363
1772566812750513700,9.484513671875,0.17409575318992138,0.0014008067086338997,0.016929653621464966
1772566812760542700,9.494542724609374,0.12446633762419224,-0.01316869365274906,0.017533026342093944
1772566812770572500,9.504572509765625,0.09478606963157653,-0.03969575831145048,0.005400543869286775
1772566812780601900,9.514601806640625,0.11207213547527789,-0.03159019326716661,0.014863076480478047
1772566812790630700,9.524630615234376,0.11071721373498439,-0.04154138617813587,0.03707213180959224
1772566812800659700,9.53465966796875,0.09161153124868869,-0.05778612627536058,0.03310951178893447
1772566812810688800,9.544688720703125,0.08440963704586028,-0.051099488118290896,0.05286971266120672
1772566812820717600,9.554717529296875,0.07248188336491584,-0.040207653356343506,0.06231091022342443
1772566812830746600,9.56474658203125,0.05918927107155323,-0.031139965281635523,0.05232581504285335
1772566812840776700,9.574776611328126,0.07786123831570148,-0.017280074494332075,0.02959244357869029
1772566812850805500,9.584805419921874,0.07994096719920635,0.00943564460426569,0.029452888977527618
1772566812860834600,9.59483447265625,0.07761573912203311,0.013205518531799316,0.0171438808940351
1772566812870863600,9.604863525390625,0.06539397093057632,0.03951850204840302,0.0258241770863533
1772566812880892700,9.614892578125,-0.007103110003471374,0.040677755086123944,0.05619359638690948
1772566812890921500,9.62492138671875,0.04063888438045978,0.045833822675049304,0.03624152620434761
1772566812900951600,9.63495166015625,0.07277414430975913,0.06275616977289318,0.024658932699263093
1772566812910980600,9.644980712890625,0.06588964549303054,0.023604893601685762,0.02177402491271496
1772566812921009700,9.655009765625,0.11281740088462829,0.00861994430720806,0.0124121761970222
1772566812931038700,9.665038818359376,0.15400924297273158,0.04077010954469442,0.016676847904175517
1772566812941067800,9.67506787109375,0.17702829951047896,0.06418781001120806,0.027532588439434767
1772566812951096600,9.6850966796875,0.19968202986717223,0.0630539836756885,0.02266819727346301
1772566812961125600,9.695125732421875,0.21755787829756734,0.06389218806549907,0.019076018000394105
1772566812971155700,9.70515576171875,0.18792437205612658,0.059247723260521884,0.03778992469012737
1772566812981184800,9.715184814453124,0.15816227099895477,0.028802023853361607,0.02913286324292421
1772566812991213600,9.725213623046875,0.1335878017127514,-0.006259060394763946,0.04264028733074665
1772566813001242600,9.73524267578125,0.10615852751731872,-0.024281916080415248,0.03825271989628672
1772566813011271700,9.745271728515625,0.08474339904487133,-0.015882190395146607,0.017621143016964196
1772566813021300500,9.755300537109376,0.05853051490187645,-0.005123480493575334,-0.010230740504711866
1772566813031330600,9.76533056640625,0.042241643401980396,0.0035721593983471392,0.0023451018214225767
1772566813041359600,9.775359619140625,0.0464373415261507,-0.01681362602636218,0.021265929260104892
1772566813051388700,9.785388671875,0.09264788855910301,-0.034952070915699004,0.022393471985310314
1772566813061417500,9.79541748046875,0.12204641700088976,-0.043405134223401545,0.02346022443398833
1772566813071446800,9.80544677734375,0.10606968019008636,-0.04494841814264655,0.027472090423852204
1772566813081475800,9.815475830078125,0.17599252672195434,-0.06724602853804826,0.034411095906794066
1772566813091504600,9.825504638671875,0.19285364515185355,-0.026669541869312523,0.02883797194957733
1772566813101534700,9.83553466796875,0.18696458711326122,-0.03139467069506645,0.012322159826010464
1772566813111563800,9.845563720703124,0.1511322262316942,-0.03464578144550323,0.024642858347296712
1772566813121592600,9.855592529296874,0.1314513742059469,-0.017304186022281644,0.020582769301533698
1772566813131621600,9.86562158203125,0.08263502858877181,-0.003941577232629061,0.03236424637958407
1772566813141650700,9.875650634765625,0.053983519122004504,0.009613046997785568,0.018793986188620326
1772566813151679700,9.8856796875,0.03538052546083927,0.01787277969047427,0.0059561319254338736
1772566813161709600,9.89570947265625,0.040758126845955846,0.012292203079164028,0.0003374152608215809
1772566813171738600,9.905738525390625,0.07001110933721065,0.007523965764045715,0.01845861675441265
1772566813181767700,9.915767578125,0.06562894873023033,-0.010340630619972944,0.05648614959269762
1772566813191796500,9.92579638671875,0.0971317559748888,-0.021633301267772912,0.04905088502541184
1772566813201825500,9.935825439453126,0.0696995591700077,0.011558920368552206,0.017843845856934784
1772566813211854600,9.9458544921875,0.1531722076267004,0.059616994964331385,-0.032911066607385873
1772566813221883600,9.955883544921875,0.4723199903517961,0.25040084810480473,0.05812120344862341
1772566813231913500,9.96591357421875,0.006057984864711761,0.11374810586348175,0.07703150949329138
1772566813241942500,9.975942626953126,0.10076806665062904,-0.06535422344207763,-0.058531537815183395
1772566813251971800,9.985971923828124,-0.12146890937387943,0.029634967546164986,-0.015790420458465813
1772566813262000600,9.996000732421875,-0.22927754218578336,0.02651654326468706,-0.005589928961545229
1772566813272029700,10.00602978515625,-0.11374912877678871,-0.04588365316614508,0.06974062183275818
1772566813282058800,10.016058837890625,-0.016177812340855597,-0.05585924986600876,0.12987652610465883
1772566813292087600,10.026087646484376,0.24821079071462154,-0.051462037820369004,0.070085051356256
1772566813302117600,10.03611767578125,0.30062369951903817,0.046616789746284484,0.0204018597766757
1772566813312146700,10.046146728515625,0.4144762886703014,0.18367665148377418,-0.0029508126296103
1772566813322175700,10.05617578125,0.45694121943414207,0.18772592687457798,-0.11234744528532027
