time,seconds_elapsed,z,y,x
1772566803343188000,0.07718798828125,0.1100694015622139,-0.07583215832710266,0.01941354013979435
1772566803353217000,0.087217041015625,0.10793446004390717,-0.07476112991571426,0.012187779881060123
1772566803363246000,0.09724609375,0.1029926985502243,-0.06120004877448082,0.011513735167682171
1772566803373275100,0.107275146484375,0.09398073703050613,-0.0519297793507576,0.02040795050561428
1772566803383304200,0.11730419921875,0.07672931253910065,-0.03972557559609413,0.025488728657364845
1772566803393333000,0.1273330078125,0.06110077351331711,-0.024697575718164444,0.02853727899491787
1772566803403362000,0.137362060546875,0.04307037219405174,-0.009264823980629444,0.019482530653476715
1772566803413395700,0.147395751953125,0.02662784606218338,0.008210502564907074,0.0002958187833428383
1772566803423424500,0.157424560546875,0.01887858286499977,0.01744741015136242,-0.01698756404221058
1772566803433453600,0.16745361328125,0.014764674007892609,0.03170553594827652,-0.015420576557517052
1772566803443482600,0.177482666015625,0.014097819104790688,0.03321421891450882,-0.013916423544287682
1772566803453511400,0.187511474609375,0.014290662482380867,0.04424233362078667,-0.006732743699103594
1772566803463540500,0.19754052734375,0.007903601974248886,0.04625594988465309,-0.006321817636489868
1772566803473569500,0.207569580078125,0.006604977883398533,0.03929106146097183,-0.004337183199822903
1772566803483598600,0.2175986328125,0.015026159584522247,0.020051319152116776,0.01135842315852642
1772566803493627600,0.227627685546875,0.021321332082152367,0.000295199453830719,0.025259241461753845
1772566803503657500,0.237657470703125,0.023137874901294708,-0.004356277175247669,0.04646040126681328
1772566803513686800,0.247686767578125,0.023740332573652267,-0.008737502619624138,0.05307627469301224
1772566803523715600,0.257715576171875,0.02363966777920723,-0.005569406319409609,0.04916169494390488
1772566803533744600,0.26774462890625,0.02429606020450592,-0.0030813952907919884,0.03625304996967316
1772566803543773700,0.277773681640625,0.023138118907809258,0.0006507588550448418,0.02106211520731449
1772566803553802500,0.287802490234375,0.016570184379816055,0.007818179205060005,-0.0022863163612782955
1772566803563831600,0.29783154296875,0.00859321840107441,0.014672622084617615,-0.020993690937757492
1772566803573860600,0.307860595703125,0.0055859144777059555,0.010435344651341438,-0.032839566469192505
1772566803583890400,0.317890380859375,0.012061923742294312,-0.006954830139875412,-0.03196471557021141
1772566803593919500,0.32791943359375,0.02110528014600277,-0.023013237863779068,-0.01682797446846962
1772566803603948500,0.337948486328125,0.029388776049017906,-0.045796580612659454,0.0010399715974926949
1772566803613977600,0.3479775390625,0.04202672466635704,-0.060210298746824265,0.011838975362479687
1772566803624006400,0.35800634765625,0.05244873836636543,-0.07926947623491287,0.011225915513932705
1772566803634035700,0.36803564453125,0.059012070298194885,-0.09038472920656204,0.00410560704767704
1772566803644064800,0.378064697265625,0.06614774465560913,-0.1043546050786972,0.005977543070912361
1772566803654093600,0.388093505859375,0.06737326085567474,-0.1207263171672821,-0.0011314526200294495
1772566803664122600,0.39812255859375,0.06271352618932724,-0.12070074677467346,0.004028954543173313
1772566803674152700,0.408152587890625,0.059244267642498016,-0.11361704021692276,0.0060126278549432755
1772566803684181500,0.418181396484375,0.0477716326713562,-0.0945701152086258,0.007129291072487831
1772566803694210600,0.42821044921875,0.040517885237932205,-0.07611669600009918,-0.00483657605946064
1772566803704239600,0.438239501953125,0.02627929300069809,-0.052668094635009766,-0.014128611423075199
1772566803714268400,0.448268310546875,0.008267367258667946,-0.035507865250110626,-0.025454483926296234
1772566803724297500,0.45829736328125,0.004870506003499031,-0.020699355751276016,-0.026602307334542274
1772566803734326500,0.468326416015625,-0.006094756536185741,-0.007058420218527317,-0.019713357090950012
1772566803744355300,0.478355224609375,-0.012921236455440521,-0.0075013041496276855,-0.015323400497436523
1772566803754385400,0.488385498046875,-0.013562379404902458,-0.0072170100174844265,-0.010424255393445492
1772566803764414500,0.49841455078125,-0.011440105736255646,-0.011390715837478638,0.0021024560555815697
1772566803774443500,0.508443603515625,-0.004212051164358854,-0.009553098119795322,0.004923742264509201
1772566803784472600,0.51847265625,0.005046960897743702,-0.008901955559849739,0.008295570500195026
1772566803794501600,0.528501708984375,0.015292009338736534,-0.011494164355099201,0.0035798149183392525
1772566803804530700,0.53853076171875,0.020767735317349434,-0.005108703393489122,-0.00005646515637636185
1772566803814559500,0.5485595703125,0.02132388949394226,-0.0032549304887652397,-0.004410602152347565
1772566803824588500,0.558588623046875,0.02738257870078087,0.0036120302975177765,-0.010207504965364933
1772566803834617600,0.56861767578125,0.02919716387987137,0.006906155496835709,-0.015535373240709305
1772566803844647700,0.578647705078125,0.032367926090955734,0.008972236886620522,-0.013929754495620728
1772566803854676500,0.588676513671875,0.040184471756219864,0.005951788276433945,-0.013506331481039524
1772566803864705500,0.59870556640625,0.044772565364837646,0.00923626497387886,-0.006039893254637718
1772566803874734600,0.608734619140625,0.0381898395717144,0.018504247069358826,0.00035306066274642944
1772566803884763400,0.618763427734375,0.039359766989946365,0.020829452201724052,-0.00016998453065752983
1772566803894792400,0.62879248046875,0.04218139126896858,0.025943778455257416,0.004589966498315334
1772566803904821800,0.63882177734375,0.04198645055294037,0.03359423950314522,0.008322121575474739
1772566803914850600,0.6488505859375,0.03427066281437874,0.04127568006515503,0.01119137555360794
1772566803924880400,0.65888037109375,0.02789878472685814,0.04175505042076111,-0.0026653180830180645
1772566803934909700,0.66890966796875,0.02146770805120468,0.04638531804084778,-0.00926226656883955
1772566803944938800,0.678938720703125,0.01935022696852684,0.04824047535657883,-0.003885344136506319
1772566803954967600,0.688967529296875,0.00755715649574995,0.037720270454883575,-0.007379807997494936
1772566803964996600,0.69899658203125,0.005942747928202152,0.018927406519651413,-0.01262304000556469
1772566803975025700,0.709025634765625,0.008740795776247978,0.0015671607106924057,-0.000017420388758182526
1772566803985054500,0.719054443359375,0.004353504627943039,-0.00911797396838665,0.015684310346841812
1772566803995083500,0.72908349609375,-0.0017934148199856281,-0.014489209279417992,0.019541069865226746
1772566804005112600,0.739112548828125,-0.006014524959027767,-0.009709900245070457,0.023071622475981712
1772566804015142400,0.749142333984375,-0.014868667349219322,0.004189051687717438,0.014725756831467152
1772566804025171500,0.75917138671875,-0.01901227980852127,0.01930355653166771,0.002060028724372387
1772566804035200500,0.769200439453125,-0.02061174437403679,0.03425557166337967,-0.009719067253172398
1772566804045229600,0.7792294921875,-0.015636160969734192,0.04439049959182739,-0.013357743620872498
1772566804055258600,0.789258544921875,-0.006307465489953756,0.053583309054374695,-0.014777673408389091
1772566804065287700,0.79928759765625,0.0036578169092535973,0.053468793630599976,-0.005606545135378838
1772566804075316700,0.809316650390625,0.01116932462900877,0.06207099184393883,0.00433729775249958
1772566804085345500,0.819345458984375,0.012321407906711102,0.06971585750579834,0.003076024353504181
1772566804095375600,0.829375732421875,0.013075890019536018,0.06332799792289734,-0.004187398124486208
1772566804105404700,0.83940478515625,0.013551263138651848,0.057112179696559906,-0.013018174096941948
1772566804115433500,0.84943359375,0.010405750945210457,0.03748927265405655,-0.010430429130792618
1772566804125462500,0.859462646484375,0.01667935959994793,0.01945141702890396,-0.0033829063177108765
1772566804135491600,0.86949169921875,0.018535252660512924,0.008225697092711926,0.01495680958032608
1772566804145520400,0.879520263671875,0.020807994529604912,0.005143088288605213,0.02934666909277439
1772566804155549400,0.889549560546875,0.023399006575345993,0.0017161453142762184,0.023453887552022934
1772566804165578500,0.89957861328125,0.016178112477064133,-0.0018202662467956543,0.0034945588558912277
1772566804175607600,0.909607666015625,0.005911742337048054,0.0024635549634695053,-0.017002280801534653
1772566804185637400,0.919637451171875,-0.0008516213856637478,0.012576643377542496,-0.013930057175457478
1772566804195666400,0.92966650390625,-0.0021794280037283897,0.009231926873326302,-0.011098881252110004
1772566804205695700,0.93969580078125,0.004271280951797962,0.00040354765951633453,-0.005531809758394957
1772566804215724500,0.949724609375,0.006798582151532173,-0.009475139901041985,0.00693802535533905
1772566804225753600,0.959753662109375,0.003681086003780365,-0.014420895837247372,0.005642130970954895
1772566804235782700,0.96978271484375,0.0004114704206585884,-0.021661434322595596,0.006753950379788876
1772566804245811500,0.9798115234375,-0.001192552037537098,-0.02759309485554695,0.003489447757601738
1772566804255840500,0.989840576171875,-0.0027140695601701736,-0.026610054075717926,0.0029615601524710655
1772566804265869600,0.99986962890625,-0.0035702758468687534,-0.025277674198150635,0.006812756881117821
1772566804275899600,1.009899658203125,-0.0027302769012749195,-0.02044328674674034,0.004539632238447666
1772566804285928400,1.019928466796875,-0.001794974785298109,-0.010704904794692993,0.0008034827187657356
1772566804295957500,1.02995751953125,0.0009817136451601982,-0.002253986895084381,-0.00137308519333601
1772566804305986600,1.039986572265625,0.00020620133727788925,0.003958369605243206,-0.005088195204734802
1772566804316015400,1.050015380859375,0.004201376810669899,0.0029182564467191696,-0.00865897722542286
1772566804326044700,1.060044677734375,0.006439230404794216,0.0028407592326402664,-0.006824858486652374
1772566804336073700,1.07007373046875,0.007118701934814453,-0.0025477334856987,0.002815800718963146
1772566804346102500,1.0801025390625,0.010315826162695885,-0.009278073906898499,0.01568419486284256
1772566804356132600,1.090132568359375,0.012835443019866943,-0.01808088645339012,0.024154379963874817
1772566804366161700,1.10016162109375,0.013700438663363457,-0.015023311600089073,0.028941944241523743
1772566804376190700,1.110190673828125,0.0135958818718791,-0.011758076027035713,0.020162418484687805
1772566804386219500,1.120219482421875,0.009963861666619778,0.004307708702981472,0.008202695287764072
1772566804396248600,1.13024853515625,0.004671908915042877,0.01704741269350052,-0.0006154091097414494
1772566804406277600,1.140277587890625,-0.006646526046097279,0.029965337365865707,-0.008341505192220211
1772566804416302800,1.150302734375,-0.01000543124973774,0.02642880007624626,-0.00243630213662982
1772566804426331600,1.16033154296875,-0.012829447165131569,0.01613248512148857,0.006214710883796215
1772566804436361000,1.17036083984375,-0.012455207295715809,0.00995979830622673,0.009369997307658195
1772566804446390800,1.180390869140625,-0.009655691683292389,-0.004957099910825491,0.006701776757836342
1772566804456419600,1.190419677734375,-0.007710778154432774,-0.019088909029960632,0.002105508930981159
1772566804466449000,1.200448974609375,-0.0018560849130153656,-0.028233138844370842,-0.00020238664001226425
1772566804476478000,1.21047802734375,-0.0026831082068383694,-0.023507025092840195,0.00972034502774477
1772566804486506800,1.2205068359375,-0.005540680140256882,-0.02280661277472973,0.008310734294354916
1772566804496535800,1.230535888671875,-0.009478865191340446,-0.019674846902489662,0.00037719588726758957
1772566804506564900,1.24056494140625,-0.013129259459674358,-0.007292213384062052,0.0016552470624446869
1772566804516593700,1.25059375,-0.01546914130449295,0.00536156352609396,-0.002816268242895603
1772566804526622700,1.260622802734375,-0.017072631046175957,0.0069597261026501656,-0.004362499341368675
1772566804536652800,1.27065283203125,-0.005347289144992828,0.011796851642429829,-0.003453013952821493
1772566804546681900,1.280681884765625,0.0016970383003354073,0.017218515276908875,-0.003807214554399252
1772566804556710700,1.290710693359375,0.0033653872087597847,0.023885885253548622,-0.002422102726995945
1772566804566739700,1.30073974609375,0.008254683576524258,0.023371363058686256,-0.001435668207705021
1772566804576768800,1.310768798828125,0.009501393884420395,0.02823685295879841,-0.008833815343677998
1772566804586797800,1.3207978515625,0.008319750428199768,0.027260540053248405,-0.010029574856162071
1772566804596827000,1.330826904296875,0.005758298560976982,0.01747717894613743,-0.014633096754550934
1772566804606856000,1.34085595703125,0.0038370946422219276,0.02103835716843605,-0.0020326166413724422
1772566804616886000,1.350885986328125,0.0019068587571382523,0.019736045971512794,0.009266359731554985
1772566804626914800,1.360914794921875,0.0060294317081570625,0.011734044179320335,-0.00206432631239295
1772566804636944000,1.37094384765625,0.008386008441448212,0.0032386258244514465,-0.012723145075142384
1772566804646973000,1.380972900390625,0.004924432374536991,0.0030410196632146835,-0.012295974418520927
1772566804657001700,1.391001708984375,0.005133459344506264,0.0029214825481176376,-0.00981956534087658
1772566804667030800,1.40103076171875,0.006584616377949715,0.009879257529973984,-0.0005895816721022129
1772566804677059800,1.411059814453125,0.007163146510720253,0.02371959015727043,-0.0009909886866807938
1772566804687088600,1.421088623046875,0.0054946765303611755,0.02839690074324608,-0.006986563093960285
1772566804697117700,1.43111767578125,0.01087372936308384,0.030416909605264664,-0.013829022645950317
1772566804707147800,1.441147705078125,0.016254380345344543,0.0406290665268898,-0.011549623683094978
1772566804717176800,1.4511767578125,0.011355243623256683,0.04407917708158493,-0.014287985861301422
1772566804727205600,1.46120556640625,0.005324249155819416,0.03738505393266678,-0.01914479210972786
1772566804737235000,1.47123486328125,0.0034174639731645584,0.027011729776859283,-0.022162001579999924
1772566804747264000,1.481263916015625,0.0006565647199749947,0.018423568457365036,-0.01049868855625391
1772566804757292800,1.491292724609375,0.003246488980948925,0.011366724036633968,-0.0005070413462817669
1772566804767321900,1.50132177734375,0.006864126771688461,0.003057928755879402,0.004355357959866524
1772566804777351000,1.511350830078125,0.011052975431084633,-0.00205023679882288,0.0007508844137191772
1772566804787379700,1.521379638671875,0.012979771941900253,0.003979692235589027,-0.00047789793461561203
1772566804797409800,1.531409912109375,0.014311064034700394,0.013475218787789345,-0.0072774640284478664
1772566804807438800,1.54143896484375,0.012849254533648491,0.02452174387872219,-0.005328828934580088
1772566804817467600,1.551467529296875,0.014389761723577976,0.042599715292453766,0.002113029360771179
1772566804827496700,1.56149658203125,0.010096746496856213,0.05393332615494728,0.01261813472956419
1772566804837525800,1.57152587890625,0.0013997387140989304,0.06383007019758224,0.00841702800244093
1772566804847554800,1.581554931640625,-0.002740677911788225,0.06585939973592758,0.002301344648003578
1772566804857583900,1.591583984375,-0.008475933223962784,0.062070101499557495,-0.005163677968084812
1772566804867613000,1.601613037109375,-0.014958865940570831,0.05271761119365692,-0.00834002997726202
1772566804877642800,1.611642822265625,-0.016974741593003273,0.035664208233356476,-0.01592213287949562
1772566804887671800,1.621671875,-0.014978435821831226,0.012540249153971672,-0.01128317415714264
1772566804897700900,1.631700927734375,-0.011346250772476196,-0.005291613284498453,-0.00045237457379698753
1772566804907730000,1.64172998046875,-0.008450862020254135,-0.018278785049915314,0.00845137145370245
1772566804917758700,1.6517587890625,-0.004043974913656712,-0.026641840115189552,0.010502863675355911
1772566804927787800,1.661787841796875,-0.004069541580975056,-0.029194213449954987,0.007816800847649574
1772566804937816800,1.67181689453125,-0.006949294824153185,-0.026120565831661224,0.0013492824509739876
1772566804947845600,1.681845703125,-0.008593264035880566,-0.026176489889621735,-0.0047834450379014015
1772566804957874700,1.691874755859375,-0.008460029028356075,-0.020169027149677277,-0.001819848082959652
1772566804967904800,1.70190478515625,-0.007996904663741589,-0.02031629905104637,-0.0027037509717047215
1772566804977933800,1.711933837890625,-0.006408322136849165,-0.014539645984768867,0.0027725910767912865
1772566804987962600,1.721962646484375,-0.00021460838615894318,-0.007647384889423847,0.007021930068731308
1772566804997991700,1.73199169921875,0.004632351920008659,-0.0031234826892614365,0.006965287961065769
1772566805008021000,1.74202099609375,0.008116032928228378,-0.0024017663672566414,-0.000973062589764595
1772566805018049800,1.7520498046875,0.012021520175039768,-0.00426619965583086,-0.011709212325513363
1772566805028078800,1.762078857421875,0.013151765801012516,-0.0062902020290493965,-0.019160471856594086
1772566805038108000,1.77210791015625,0.015113535337150097,-0.013495747931301594,-0.016338735818862915
1772566805048138000,1.782137939453125,0.02122415602207184,-0.020999737083911896,-0.014012996107339859
1772566805058166800,1.792166748046875,0.028406880795955658,-0.027786165475845337,-0.005398936104029417
1772566805068195800,1.80219580078125,0.025270208716392517,-0.04069530591368675,0.007863872684538364
1772566805078225000,1.812224853515625,0.029408736154437065,-0.0433078370988369,0.020086999982595444
1772566805088253700,1.822253662109375,0.02624516747891903,-0.032748401165008545,0.03006932884454727
1772566805098282800,1.83228271484375,0.01961902529001236,-0.018346909433603287,0.026050299406051636
1772566805108311800,1.842311767578125,0.01715986244380474,-0.01006501168012619,0.01039943378418684
1772566805118340600,1.852340576171875,0.016416100785136223,0.005459817126393318,-0.0023934580385684967
1772566805128370000,1.862369873046875,0.011431461200118065,0.017653632909059525,-0.0066947294399142265
1772566805138399700,1.872399658203125,0.01699587143957615,0.03136305510997772,-0.006952256895601749
1772566805148428800,1.8824287109375,0.0201924629509449,0.037999384105205536,-0.0027191624976694584
1772566805158457900,1.892457763671875,0.024605661630630493,0.034006960690021515,-0.0007313401438295841
1772566805168487000,1.90248681640625,0.03170192241668701,0.029412738978862762,0.004247971810400486
1772566805178516000,1.912515869140625,0.03541897237300873,0.01850118301808834,0.007125294767320156
1772566805188544800,1.922544677734375,0.03699503093957901,0.010759374126791954,0.006371886469423771
1772566805198573800,1.93257373046875,0.03952600061893463,0.000040228478610515594,0.016528621315956116
1772566805208603000,1.942602783203125,0.03223825991153717,-0.0009233029559254646,0.020599262788891792
1772566805218631700,1.952631591796875,0.02223217859864235,-0.01038199570029974,0.016445210203528404
1772566805228661800,1.962661865234375,0.014498358592391014,-0.0100520309060812,0.006223199889063835
1772566805238690800,1.97269091796875,0.008196688257157803,-0.011191217228770256,-0.002159915864467621
1772566805248719600,1.9827197265625,0.003940158523619175,-0.005049168597906828,-0.000009412877261638641
1772566805258748700,1.992748779296875,0.0005126232281327248,-0.002177957445383072,0.004674588330090046
1772566805268777700,2.00277783203125,0.0006505753844976425,0.003166208043694496,0.01420843880623579
1772566805278806800,2.012806884765625,-0.0028909211978316307,0.003136906772851944,0.014987687580287457
1772566805288835800,2.0228359375,0.0018617557361721992,0.010086958296597004,0.01611926406621933
1772566805298865000,2.032864990234375,0.0012166276574134827,0.01801983267068863,0.013064694590866566
1772566805308895000,2.04289501953125,0.0038081491366028786,0.03392742946743965,0.011012195609509945
1772566805318923800,2.052923828125,0.0010011615231633186,0.049743957817554474,-0.0016819280572235584
1772566805328952800,2.062952880859375,-0.005401077214628458,0.06167944520711899,-0.017422009259462357
1772566805338982000,2.07298193359375,-0.0032196971587836742,0.06608858704566956,-0.03167914226651192
1772566805349010700,2.0830107421875,0.001082640141248703,0.059952933341264725,-0.03842279687523842
1772566805359039700,2.093039794921875,-0.0016449475660920143,0.04531537741422653,-0.03151537477970123
1772566805369068800,2.10306884765625,0.0021444642916321754,0.023511547595262527,-0.01586264558136463
1772566805379097600,2.11309765625,0.005525599233806133,-0.0034465501084923744,-0.003966737538576126
1772566805389126700,2.123126708984375,0.01342000812292099,-0.025439200922846794,0.016986215487122536
1772566805399156700,2.13315673828125,0.022454142570495605,-0.043424464762210846,0.02994239330291748
1772566805409185500,2.143185546875,0.022919662296772003,-0.05145149677991867,0.026654988527297974
1772566805419214600,2.153214599609375,0.023010272532701492,-0.052574627101421356,0.013669812120497227
1772566805429243600,2.16324365234375,0.021770570427179337,-0.03654026985168457,0.007350398227572441
1772566805439272400,2.1732724609375,0.017192337661981583,-0.015933269634842873,-0.001302395947277546
1772566805449301500,2.183301513671875,0.005348728038370609,0.001220949925482273,-0.015091711655259132
1772566805459330600,2.19333056640625,-0.0033343597315251827,0.011354378424584866,-0.02638530358672142
1772566805469359400,2.203359375,-0.01178829837590456,0.013161866925656796,-0.029063113033771515
1772566805479389400,2.213389404296875,-0.01689157448709011,0.002805504947900772,-0.024610664695501328
1772566805489418500,2.22341845703125,-0.01875259168446064,-0.00831345934420824,-0.009876193478703499
1772566805499447600,2.233447509765625,-0.020085792988538742,-0.016739141196012497,0.0008230730891227722
1772566805509476400,2.243476318359375,-0.024748720228672028,-0.026355285197496414,0.012517811730504036
1772566805519505400,2.25350537109375,-0.0282901544123888,-0.03183824568986893,0.006430509500205517
1772566805529534500,2.263534423828125,-0.031130416318774223,-0.03442976623773575,0.006524252705276012
1772566805539563500,2.2735634765625,-0.03285493701696396,-0.021594278514385223,0.0017675738781690598
1772566805549592600,2.283592529296875,-0.0350525788962841,-0.01651030406355858,-0.008422746323049068
1772566805559621600,2.29362158203125,-0.029125794768333435,-0.012353025376796722,-0.011556876823306084
1772566805569651700,2.303651611328125,-0.01891336962580681,-0.02058805152773857,-0.009433805011212826
1772566805579680500,2.313680419921875,-0.008750999346375465,-0.021440014243125916,0.005924546159803867
1772566805589709600,2.32370947265625,-0.008446600288152695,-0.015269204042851925,0.022746669128537178
1772566805599738600,2.333738525390625,-0.005835431627929211,-0.015310417860746384,0.012568197213113308
1772566805609767400,2.343767333984375,0.0002645393833518028,-0.014486702159047127,0.004118519835174084
1772566805619796500,2.35379638671875,0.0024527255445718765,-0.009403666481375694,-0.0029844865202903748
1772566805629825500,2.363825439453125,0.0029715094715356827,-0.0021177902817726135,-0.0018044398166239262
1772566805639854300,2.373854248046875,0.00034955423325300217,-0.003432251513004303,-0.0029488406144082546
1772566805649884400,2.383884521484375,0.005807969719171524,-0.007495170459151268,-0.0011277711018919945
1772566805659913500,2.39391357421875,0.009703366085886955,-0.004164346493780613,0.018597379326820374
1772566805669942500,2.403942626953125,0.000995894894003868,0.00043280236423015594,0.030174141749739647
1772566805679971600,2.4139716796875,-0.004433321766555309,0.002379949204623699,0.023198770359158516
1772566805690000600,2.424000732421875,-0.0030327653512358665,0.0071608563885092735,-0.000923610758036375
1772566805700029700,2.43402978515625,-0.008562462404370308,0.01631004363298416,-0.007876388728618622
1772566805710058500,2.44405859375,-0.016132764518260956,0.01515982486307621,-0.021255576983094215
1772566805720087600,2.454087646484375,-0.015006070956587791,-0.0029991036280989647,-0.026569850742816925
1772566805730116600,2.46411669921875,-0.004216007888317108,-0.021572254598140717,-0.013748329132795334
1772566805740146400,2.474146484375,-0.000038040801882743835,-0.036242809146642685,0.005189942196011543
1772566805750175500,2.484175537109375,0.006987910717725754,-0.04669997841119766,0.021930305287241936
1772566805760204500,2.49420458984375,0.012043425813317299,-0.05065561830997467,0.01841907948255539
1772566805770233600,2.504233642578125,0.015583034604787827,-0.04770722985267639,0.013083968311548233
1772566805780262400,2.514262451171875,0.017774365842342377,-0.030682263895869255,0.008693335577845573
1772566805790291500,2.52429150390625,0.0026073968037962914,-0.00557531276717782,0.013724047690629959
1772566805800320500,2.534320556640625,-0.011809190735220909,0.019775956869125366,-0.0013159099034965038
1772566805810349600,2.544349609375,-0.022238396108150482,0.03902821242809296,-0.019766822457313538
1772566805820379400,2.55437939453125,-0.02536645531654358,0.04842987284064293,-0.02096797153353691
1772566805830408400,2.564408447265625,-0.03079530969262123,0.04819311574101448,-0.014509539119899273
1772566805840437500,2.5744375,-0.02875388041138649,0.03795396536588669,-0.01244086679071188
1772566805850466600,2.584466552734375,-0.01954386942088604,0.021992042660713196,-0.001452131662517786
1772566805860495600,2.59449560546875,-0.013409020379185677,0.014247316867113113,0.015752073377370834
1772566805870524400,2.6045244140625,-0.014016753062605858,0.0070037841796875,0.019424039870500565
1772566805880553500,2.614553466796875,-0.013895007781684399,0.006935294717550278,0.01284218579530716
1772566805890582500,2.62458251953125,-0.008737264201045036,0.002700601704418659,-0.0022190557792782784
1772566805900611300,2.634611328125,-0.0009295768104493618,0.02051277831196785,0.003861227072775364
1772566805910641400,2.644641357421875,-0.0061123548075556755,0.04152911528944969,-0.00021314295008778572
1772566805920670500,2.65467041015625,-0.0036414521746337414,0.053591080009937286,-0.01157606765627861
1772566805930699500,2.664699462890625,-0.0004792148247361183,0.0603584349155426,-0.023335520178079605
1772566805940728300,2.674728271484375,0.000036055222153663635,0.059620000422000885,-0.02217736467719078
1772566805950757400,2.68475732421875,0.0015343502163887024,0.05277567356824875,-0.009067421779036522
1772566805960786700,2.69478662109375,0.004083520732820034,0.0415792241692543,-0.0022032083943486214
1772566805970815500,2.7048154296875,0.008799712173640728,0.025716371834278107,0.001365959644317627
1772566805980844500,2.714844482421875,0.015214917249977589,0.009206200018525124,-0.0008325963281095028
1772566805990874600,2.72487451171875,0.019546017050743103,-0.0018778769299387932,0.0065313102677464485
1772566806000903700,2.734903564453125,0.01266503892838955,-0.0003184434026479721,0.017793569713830948
1772566806010932500,2.744932373046875,0.005099796690046787,-0.0012185918167233467,0.012629434466362
1772566806020961500,2.75496142578125,0.002512422390282154,0.001942446455359459,0.00714873056858778
1772566806030990600,2.764990478515625,-0.0015496974810957909,0.005388310179114342,0.005534322001039982
1772566806041019400,2.775019287109375,-0.012592624872922897,0.01900649443268776,0.007668748497962952
1772566806051048400,2.78504833984375,-0.016293618828058243,0.018030179664492607,-0.0005609518848359585
1772566806061077500,2.795077392578125,-0.014610067009925842,0.011310335248708725,-0.00836323481053114
1772566806071107600,2.805107666015625,-0.01004753913730383,0.008136646822094917,-0.001841419842094183
1772566806081136400,2.815136474609375,-0.014851776883006096,0.006484302692115307,0.008876575157046318
1772566806091165400,2.82516552734375,-0.013328982517123222,0.003304488956928253,0.007188664749264717
1772566806101194500,2.835194580078125,-0.011955862864851952,0.008378883823752403,-0.001166021917015314
1772566806111223600,2.8452236328125,-0.015268567949533463,0.014433581382036209,-0.008574402891099453
1772566806121252600,2.855252685546875,-0.017715977504849434,0.025810567662119865,-0.015524035319685936
1772566806131281700,2.86528173828125,-0.021138139069080353,0.03226553648710251,-0.019779499620199203
1772566806141310500,2.875310546875,-0.02185068465769291,0.030182579532265663,-0.02559192292392254
1772566806151340500,2.885340576171875,-0.0234251469373703,0.02920626290142536,-0.020466135814785957
1772566806161369600,2.89536962890625,-0.021504946053028107,0.016711173579096794,-0.00929270964115858
1772566806171398400,2.9053984375,-0.021127576008439064,0.004678746685385704,-0.0018193470314145088
1772566806181427500,2.915427490234375,-0.01917315647006035,-0.012135565280914307,0.0021037207916378975
1772566806191456500,2.92545654296875,-0.01834864169359207,-0.017368942499160767,0.00675226841121912
1772566806201485300,2.9354853515625,-0.019703034311532974,-0.013910668902099133,0.009690201841294765
1772566806211514400,2.945514404296875,-0.018626851961016655,-0.012555385939776897,0.006777503527700901
1772566806221543400,2.95554345703125,-0.018649015575647354,-0.0095406174659729,0.0003658086061477661
1772566806231573500,2.965573486328125,-0.008817158639431,-0.001992153935134411,-0.0034813941456377506
1772566806241602300,2.975602294921875,-0.008605562150478363,0.007437407970428467,-0.0016225175932049751
1772566806251631600,2.985631591796875,-0.00819703284651041,0.014590924605727196,0.00511767715215683
1772566806261660700,2.99566064453125,-0.005758747458457947,0.008704123087227345,-0.0030812365002930164
1772566806271689500,3.005689453125,-0.007733214646577835,0.009128895588219166,-0.002179756760597229
1772566806281718500,3.015718505859375,-0.007503042463213205,0.011391967535018921,0.0023870691657066345
1772566806291747600,3.02574755859375,-0.00871478021144867,0.009198855608701706,0.0016102250665426254
1772566806301776400,3.0357763671875,-0.00809645839035511,0.0014177057892084122,-0.007264533080160618
1772566806311806500,3.045806396484375,-0.002127249725162983,-0.007602154277265072,-0.005600856617093086
1772566806321835500,3.05583544921875,-0.005251022055745125,-0.011652951128780842,0.009612811729311943
1772566806331864600,3.065864501953125,-0.015057314187288284,-0.013945400714874268,0.01422034576535225
1772566806341893400,3.075893310546875,-0.022192832082509995,-0.02064366452395916,0.007236815057694912
1772566806351922400,3.08592236328125,-0.022426392883062363,-0.018403945490717888,0.0007416317239403725
1772566806361951500,3.095951416015625,-0.020396888256072998,-0.015457849018275738,-0.0008319639600813389
1772566806371980500,3.10598046875,-0.023401999846100807,-0.008785032667219639,0.009182853624224663
1772566806382009600,3.116009521484375,-0.02458665892481804,0.0035694334656000137,0.007412789389491081
1772566806392038700,3.12603857421875,-0.025421826168894768,0.012807939201593399,-0.005626580212265253
1772566806402068700,3.13606884765625,-0.02497386746108532,0.017209865152835846,-0.017728082835674286
1772566806412097800,3.146097900390625,-0.02371419221162796,0.019827216863632202,-0.018669776618480682
1772566806422126800,3.156126953125,-0.019913069903850555,0.01427160482853651,-0.0171156395226717
1772566806432156000,3.166156005859375,-0.009573879651725292,0.0026559624820947647,-0.014182699844241142
1772566806442184700,3.176184814453125,0.0014406656846404076,-0.0014111939817667007,-0.001350244041532278
1772566806452213800,3.1862138671875,0.006952343508601189,-0.007509832736104727,0.011812163516879082
1772566806462242800,3.196242919921875,0.0038107968866825104,-0.01240995991975069,0.017262201756238937
1772566806472272000,3.20627197265625,-0.004099324345588684,-0.01038835383951664,0.01703157275915146
1772566806482301700,3.2163017578125,-0.014323591254651546,-0.0026368405669927597,0.012056780979037285
1772566806492330800,3.226330810546875,-0.021398812532424927,0.005275677889585495,0.005604474805295467
1772566806502359800,3.23635986328125,-0.02354239672422409,0.014054262079298496,0.0012573115527629852
1772566806512388600,3.246388671875,-0.02576933242380619,0.02252178266644478,-0.00016588112339377403
1772566806522417700,3.256417724609375,-0.02519766241312027,0.030902335420250893,0.001257120631635189
1772566806532447000,3.266447021484375,-0.022938236594200134,0.02925117500126362,-0.0009375903755426407
1772566806542475800,3.276475830078125,-0.016894131898880005,0.03048894740641117,0.001381094567477703
1772566806552504800,3.2865048828125,-0.014536170288920403,0.025836138054728508,0.005072235129773617
1772566806562535000,3.296534912109375,-0.014306309632956982,0.013512331061065197,0.0008413400501012802
1772566806572564000,3.30656396484375,-0.014181140810251236,0.009283763356506824,-0.00038637686520814896
1772566806582592800,3.3165927734375,-0.015920646488666534,0.007293245755136013,0.00043551623821258545
1772566806592621800,3.326621826171875,-0.014121413230895996,0.003562956117093563,-0.0025791823863983154
1772566806602651000,3.33665087890625,-0.010360009036958218,-0.0004898002371191978,0.004370631650090218
1772566806612679700,3.3466796875,-0.006683781277388334,-0.006770865060389042,0.0080559141933918
1772566806622708700,3.356708740234375,-0.0012134406715631485,-0.009324244223535061,0.016278550028800964
1772566806632737800,3.36673779296875,-0.0010824133642017841,-0.007949520833790302,0.014564273878932
1772566806642768000,3.376767822265625,0.0016589928418397903,-0.009322591125965118,0.008739087730646133
1772566806652796700,3.386796630859375,0.003587387502193451,-0.0028130263090133667,0.012339947745203972
1772566806662825700,3.39682568359375,0.0023099509999156,0.002363540232181549,0.011812765151262283
1772566806672854800,3.406854736328125,0.00008408073335886002,0.006420866586267948,0.009452937170863152
1772566806682883800,3.4168837890625,-0.0010290839709341526,0.013671020045876503,0.0015538902953267097
1772566806692913000,3.426912841796875,-0.0021976791322231293,0.009468551725149155,-0.0010845032520592213
1772566806702942000,3.43694189453125,-0.003596658818423748,0.010380971245467663,-0.001150535885244608
1772566806712970800,3.446970703125,-0.00657167611643672,0.007221664302051067,0.00450601801276207
1772566806723000800,3.457000732421875,-0.005454472731798887,0.006867722608149052,0.015990450978279114
1772566806733030000,3.46702978515625,-0.006435847375541925,0.01712195575237274,0.022924523800611496
1772566806743059000,3.477058837890625,-0.007829805836081505,0.017338532954454422,0.017359444871544838
1772566806753087700,3.487087646484375,-0.00972304679453373,0.03038216009736061,0.003103010356426239
1772566806763116800,3.49711669921875,-0.01653381437063217,0.03968724608421326,-0.00958295725286007
1772566806773145900,3.507145751953125,-0.01960538886487484,0.0455666109919548,-0.013927442952990532
1772566806783174700,3.517174560546875,-0.01565548963844776,0.041984207928180695,-0.021486852318048477
1772566806793203700,3.52720361328125,-0.007222856394946575,0.025884335860610008,-0.019267374649643898
1772566806803233800,3.53723388671875,0.007875928655266762,0.007106659933924675,-0.0014141597785055637
1772566806813262600,3.5472626953125,0.023365937173366547,-0.009739963337779045,0.02107037603855133
1772566806823292000,3.5572919921875,0.03234364464879036,-0.018678518012166023,0.02555696666240692
1772566806833321000,3.567321044921875,0.03984736651182175,-0.0179461482912302,0.01657332479953766
1772566806843349800,3.577349853515625,0.04314403235912323,-0.01592501625418663,0.0010310709476470947
1772566806853378800,3.58737890625,0.04164334386587143,-0.012984886765480042,-0.01145862229168415
1772566806863407900,3.597407958984375,0.04415324330329895,-0.01404043659567833,-0.0206373892724514
1772566806873436700,3.607436767578125,0.04325282573699951,-0.012192469090223312,-0.015862073749303818
1772566806883466800,3.617466796875,0.039219003170728683,-0.00852456409484148,-0.0005305660888552666
1772566806893495800,3.627495849609375,0.032133132219314575,-0.00033907219767570496,0.005278054624795914
1772566806903524900,3.63752490234375,0.022879257798194885,0.004627650603652,0.004065912216901779
1772566806913553700,3.6475537109375,0.012116357684135437,0.01659989170730114,-0.008761202916502953
1772566806923582700,3.657582763671875,0.001053069718182087,0.02643120475113392,-0.02132929116487503
1772566806933611800,3.66761181640625,-0.008845367468893528,0.025373397395014763,-0.025071296840906143
1772566806943640800,3.677640869140625,-0.012145636603236198,0.01975526288151741,-0.01737143099308014
1772566806953670700,3.687670654296875,-0.010944284498691559,0.0065142931416630745,-0.005632748827338219
1772566806963699700,3.69769970703125,-0.01535126194357872,-0.00873099360615015,0.008571206592023373
1772566806973728800,3.707728759765625,-0.0232230331748724,-0.016741516068577766,0.022211652249097824
1772566806983757800,3.7177578125,-0.0282880999147892,-0.02175465039908886,0.02193654701113701
1772566806993787000,3.727786865234375,-0.02762310765683651,-0.02452300488948822,0.020360752940177917
1772566807003816000,3.73781591796875,-0.028560806065797806,-0.019743697717785835,0.016679733991622925
1772566807013844700,3.7478447265625,-0.025116806849837303,-0.02445429563522339,0.013419491238892078
1772566807023873800,3.757873779296875,-0.010328251868486404,-0.02594568580389023,0.012623460032045841
1772566807033903900,3.76790380859375,-0.0031126835383474827,-0.023684661835432053,0.01979748159646988
1772566807043933000,3.777932861328125,0.002577635459601879,-0.02227579616010189,0.019502529874444008
1772566807053961700,3.787961669921875,0.005242394283413887,-0.021116256713867188,0.02157234027981758
1772566807063990800,3.79799072265625,0.0025440575554966927,-0.01728660985827446,0.018265508115291595
1772566807074019800,3.808019775390625,0.0022859973832964897,-0.010382363572716713,0.01775098219513893
1772566807084048600,3.818048583984375,0.0021734312176704407,-0.0035192137584090233,0.019200487062335014
1772566807094078000,3.828077880859375,0.0016913991421461105,0.0068468740209937096,0.011019255965948105
1772566807104107000,3.83810693359375,-0.0006232182495296001,0.018917713314294815,0.0025765439495444298
1772566807114136600,3.848136474609375,-0.005552196875214577,0.021739332005381584,-0.003887480590492487
1772566807124166000,3.858165771484375,-0.008764163590967655,0.017357032746076584,-0.0140154380351305
1772566807134195000,3.86819482421875,-0.0004039681516587734,0.011511395685374737,-0.012987458147108555
1772566807144223700,3.8782236328125,0.00298501830548048,0.005091195926070213,0.00359188299626112
1772566807154252800,3.888252685546875,0.007610929198563099,-0.007996909320354462,0.014064498245716095
1772566807164281900,3.89828173828125,0.017447039484977722,-0.026605207473039627,0.01984906569123268
1772566807174311000,3.908310791015625,0.029242713004350662,-0.031412214040756226,0.030158428475260735
1772566807184339700,3.918339599609375,0.034263163805007935,-0.020172201097011566,0.035029444843530655
1772566807194369800,3.928369873046875,0.03325435519218445,-0.008712884038686752,0.024624209851026535
1772566807204398800,3.93839892578125,0.027945738285779953,0.0015689227730035782,0.006411653012037277
1772566807214427600,3.948427734375,0.023930758237838745,0.01066042110323906,-0.0069840471260249615
1772566807224456700,3.958456787109375,0.024181686341762543,0.012856402434408665,-0.009978634305298328
1772566807234485800,3.96848583984375,0.020992284640669823,0.01131869200617075,0.0036010900512337685
1772566807244514800,3.978514892578125,0.018753781914711,0.0005505932494997978,0.011703929863870144
1772566807254544000,3.9885439453125,0.019076025113463402,-0.013861102983355522,0.00469928327947855
1772566807264572000,3.998572021484375,0.021378859877586365,-0.01752934232354164,0.011949739418923855
1772566807274600700,4.0086005859375,0.018266726285219193,-0.017497945576906204,0.018332425504922867
1772566807284629800,4.018629638671875,0.013644170016050339,-0.015840834006667137,0.013868766836822033
1772566807294659800,4.028659912109375,0.01438160054385662,-0.012112675234675407,0.0038571450859308243
1772566807304688600,4.038688720703125,0.016535960137844086,-0.011496528051793575,-0.0024687359109520912
1772566807314717700,4.0487177734375,0.013809680007398129,-0.009363602846860886,-0.0021888376213610172
1772566807324746800,4.058746826171875,0.010457972064614296,-0.00910197850316763,0.0003027096390724182
1772566807334775800,4.06877587890625,0.007284816354513168,-0.007953356951475143,0.0026742545887827873
1772566807344804900,4.078804931640625,0.005481107160449028,-0.011286081746220589,0.00819025095552206
1772566807354834000,4.088833984375,0.006859825924038887,-0.011702333576977253,0.0029779132455587387
1772566807364864000,4.098864013671875,0.008980788290500641,-0.01627473160624504,-0.002027510665357113
1772566807374892800,4.108892822265625,0.015702074393630028,-0.0224016010761261,-0.0035172831267118454
1772566807384921900,4.118921875,0.020847437903285027,-0.025079291313886642,0.003205147571861744
1772566807394951000,4.128950927734375,0.01871264912188053,-0.02398499846458435,0.009603924117982388
1772566807404979700,4.138979736328125,0.017403431236743927,-0.018691426143050194,0.012519204057753086
1772566807415008300,4.14900830078125,0.008018717169761658,-0.003221389837563038,0.011128767393529415
1772566807425037300,4.159037353515625,-0.010355941951274872,0.000129050575196743,-0.0000017033889889717102
1772566807435066400,4.16906640625,-0.027589257806539536,0.008754496462643147,-0.007114207837730646
1772566807445096400,4.179096435546875,-0.04203397035598755,0.01550320815294981,-0.011877719312906265
1772566807455125200,4.189125244140625,-0.0553005076944828,0.014936487190425396,-0.018753468990325928
1772566807465154300,4.199154296875,-0.06794846057891846,0.013922421261668205,-0.017507418990135193
1772566807475183400,4.209183349609375,-0.0828310027718544,0.013379136100411415,-0.0074348109774291515
1772566807485212400,4.21921240234375,-0.08191246539354324,0.008243483491241932,-0.006958470214158297
1772566807495241500,4.229241455078125,-0.07308728247880936,0.0019941087812185287,-0.01846066303551197
1772566807505270500,4.2392705078125,-0.059352826327085495,-0.00672401487827301,-0.020291853696107864
1772566807515299300,4.24929931640625,-0.05251143500208855,-0.011078283190727234,-0.016932807862758636
1772566807525329400,4.259329345703125,-0.045060887932777405,-0.011070902459323406,-0.007509530521929264
1772566807535358500,4.2693583984375,-0.038088466972112656,-0.008208537474274635,0.0014418866485357285
1772566807545387500,4.279387451171875,-0.03357143700122833,0.007975189946591854,-0.0025867028161883354
1772566807555416300,4.289416259765625,-0.029122095555067062,0.023477986454963684,-0.012042522430419922
1772566807565445400,4.2994453125,-0.024565475061535835,0.03570646047592163,-0.01994311437010765
1772566807575474400,4.309474365234375,-0.018475092947483063,0.047527700662612915,-0.031167272478342056
1772566807585503200,4.319503173828125,-0.010796098969876766,0.04586133360862732,-0.0427263006567955
1772566807595533300,4.329533203125,0.000595838762819767,0.03852858394384384,-0.041312430053949356
1772566807605562400,4.339562255859375,0.01382329873740673,0.04534539580345154,-0.04094745218753815
1772566807615591200,4.349591064453125,0.02470790594816208,0.011295812204480171,-0.04345295578241348
1772566807625620500,4.359620361328125,0.029599454253911972,0.0047344621270895,-0.01942501962184906
1772566807635649500,4.3696494140625,0.02603534609079361,-0.005537084303796291,0.0009220624342560768
1772566807645678300,4.37967822265625,0.03060811012983322,-0.010573768056929111,0.004161098971962929
1772566807655707400,4.389707275390625,0.03394877910614014,-0.011663533747196198,0.004443394020199776
1772566807665736400,4.399736328125,0.028695644810795784,-0.009466366842389107,-0.0035957624204456806
1772566807675766500,4.4097666015625,0.026544610038399696,-0.004490516614168882,0.00022560730576515198
1772566807685795300,4.41979541015625,0.026660334318876266,-0.00419133435934782,-0.0007185852155089378
1772566807695824400,4.429824462890625,0.03460800647735596,-0.00383074302226305,-0.004817189648747444
1772566807705853400,4.439853515625,0.03840631991624832,-0.005321950186043978,0.00014775898307561874
1772566807715882200,4.44988232421875,0.03862816095352173,-0.003939502872526646,0.009125541895627975
1772566807725911300,4.459911376953125,0.03590690717101097,-0.008300664834678173,0.005809216760098934
1772566807735940400,4.4699404296875,0.03383869677782059,-0.009808813221752644,-0.0011544162407517433
1772566807745970400,4.479970458984375,0.03165430948138237,-0.014337992295622826,-0.003196755424141884
1772566807755999200,4.489999267578125,0.028247326612472534,-0.009957624599337578,0.0037666121497750282
1772566807766028300,4.5000283203125,0.020535632967948914,-0.007152271922677755,0.008029519580304623
1772566807776057600,4.5100576171875,0.019737483933568,-0.00753949536010623,0.0028368886560201645
1772566807786086400,4.52008642578125,0.022030571475625038,-0.008127346634864807,0.004275464452803135
1772566807796115500,4.530115478515625,0.01680065505206585,-0.01105921994894743,0.005201444961130619
1772566807806144500,4.54014453125,0.009431484155356884,-0.0166764073073864,0.012441214174032211
1772566807816173300,4.55017333984375,0.0009149620309472084,-0.016370676457881927,0.018167009577155113
1772566807826203400,4.560203369140625,-0.005081263370811939,-0.014486662112176418,0.011696483939886093
1772566807836232400,4.570232421875,-0.006968645378947258,-0.00974517036229372,0.006623429246246815
1772566807846261500,4.580261474609375,-0.0038162125274538994,-0.006880182307213545,0.0008830446749925613
1772566807856290300,4.590290283203125,-0.0003056335262954235,-0.005078287795186043,0.0006681280210614204
1772566807866319400,4.6003193359375,0.00893067754805088,0.00587721262127161,0.002765672281384468
1772566807876348400,4.610348388671875,0.01644478738307953,0.02311425656080246,0.01044516358524561
1772566807886377200,4.620377197265625,0.019542604684829712,0.03683510422706604,0.005545550957322121
1772566807896407300,4.6304072265625,0.022253703325986862,0.04111959785223007,-0.0029715043492615223
1772566807906438400,4.6404384765625,0.03377093747258186,0.046436991542577744,-0.0032860268838703632
1772566807916467500,4.650467529296875,0.03585059940814972,0.047470830380916595,0.001116977073252201
1772566807926496500,4.66049658203125,0.03061390481889248,0.04356011003255844,0.0019090892747044563
1772566807936525300,4.670525390625,0.029733197763562202,0.03194873034954071,-0.004275036975741386
1772566807946554400,4.680554443359375,0.025243034586310387,0.007782469503581524,-0.001288347877562046
1772566807956583400,4.69058349609375,0.013912085443735123,-0.008567742072045803,0.007015388458967209
1772566807966612200,4.7006123046875,0.0009411443024873734,-0.028956089168787003,0.017943769693374634
1772566807976642300,4.710642333984375,-0.007957275956869125,-0.04433291405439377,0.018527265638113022
1772566807986671400,4.72067138671875,-0.009891408495604992,-0.04733440279960632,0.02840236946940422
1772566807996700200,4.7307001953125,-0.012833669781684875,-0.04245629161596298,0.03189084678888321
1772566808006729500,4.7407294921875,-0.014900604262948036,-0.02625091001391411,0.020184244960546494
1772566808016758500,4.750758544921875,-0.021674886345863342,-0.00025952327996492386,0.006760049611330032
1772566808026787300,4.760787353515625,-0.02316916733980179,0.01978154666721821,-0.01236066035926342
1772566808036816400,4.77081640625,-0.020982444286346436,0.033973000943660736,-0.018879812210798264
1772566808046845400,4.780845458984375,-0.015309449285268784,0.038674335926771164,-0.020912649109959602
1772566808056875500,4.79087548828125,-0.008551944978535175,0.03689055144786835,-0.008642400614917278
1772566808066904300,4.800904296875,-0.007979883812367916,0.025419507175683975,-0.005881865043193102
1772566808076933400,4.810933349609375,-0.004029617179185152,0.010118847712874413,0.00031850673258304596
1772566808086962400,4.82096240234375,-0.004705421626567841,-0.0049893539398908615,0.010854974389076233
1772566808096991200,4.8309912109375,-0.006580553017556667,-0.01677330955862999,0.016412192955613136
1772566808107020300,4.841020263671875,-0.0011977097019553185,-0.02499959245324135,0.017749864608049393
1772566808117050400,4.85105029296875,0.0025280527770519257,-0.029142674058675766,0.01342808548361063
1772566808127079400,4.861079345703125,-0.0006500370800495148,-0.021708615124225616,0.011671900749206543
1772566808137108200,4.871108154296875,-0.005935879424214363,-0.010878604836761951,0.008476106449961662
1772566808147137300,4.88113720703125,-0.007077771704643965,0.003244612365961075,0.0029349150136113167
1772566808157166600,4.89116650390625,-0.0031176512129604816,0.018285080790519714,0.007295841351151466
1772566808167195400,4.9011953125,-0.0026669641956686974,0.03852846845984459,0.007657168433070183
1772566808177224400,4.911224365234375,0.0031211497262120247,0.04324306175112724,0.00011429749429225922
1772566808187253500,4.92125341796875,0.009797872975468636,0.044784605503082275,-0.003451431170105934
1772566808197283600,4.93128369140625,0.019051559269428253,0.03915548324584961,-0.004954253323376179
1772566808207312400,4.9413125,0.025313660502433777,0.027157984673976898,-0.003995658829808235
1772566808217341400,4.951341552734375,0.03213401511311531,0.010769159533083439,0.002261437475681305
1772566808227370500,4.96137060546875,0.03245610371232033,-0.001617024652659893,0.013890688307583332
1772566808237399300,4.9713994140625,0.024736665189266205,-0.013367690145969391,0.018435638397932053
1772566808247428400,4.981428466796875,0.019535651430487633,-0.0239400714635849,0.014584247954189777
1772566808257457400,4.99145751953125,0.012668689712882042,-0.026975542306900024,0.01429822389036417
1772566808267486200,5.001486328125,0.004477137699723244,-0.033840425312519073,0.00563066266477108
1772566808277516300,5.011516357421875,-0.0053541879169642925,-0.03767271712422371,0.008799292147159576
1772566808287545300,5.02154541015625,-0.004421248100697994,-0.037772610783576965,0.01739666610956192
1772566808297574400,5.031574462890625,-0.014795592054724693,-0.022534003481268883,0.029201125726103783
1772566808307603500,5.041603515625,-0.02941911481320858,-0.0032422449439764023,0.02223382703959942
1772566808317632500,5.051632568359375,-0.03966110199689865,0.011352145113050938,0.0031690560281276703
1772566808327661300,5.061661376953125,-0.046953484416007996,0.031143002212047577,-0.019662771373987198
1772566808337690400,5.0716904296875,-0.04581098631024361,0.04482153058052063,-0.026698309928178787
1772566808347720400,5.081720458984375,-0.04042350500822067,0.05081507936120033,-0.02084266021847725
1772566808357749500,5.09174951171875,-0.023602712899446487,0.03792618215084076,-0.005392597056925297
1772566808367778300,5.1017783203125,-0.007151619531214237,0.020874004811048508,0.0038559697568416595
1772566808377807400,5.111807373046875,-0.0020732376724481583,0.0015919199213385582,0.014352020807564259
1772566808387836400,5.12183642578125,0.004769437946379185,-0.012409337796270847,0.018186114728450775
1772566808397865200,5.131865234375,0.004975300282239914,-0.021644912660121918,0.011968699283897877
1772566808407894300,5.141894287109375,0.0005090832710266113,-0.02387545257806778,0.01035179290920496
1772566808417924400,5.15192431640625,-0.0053629204630851746,-0.01767588034272194,0.008785589598119259
1772566808427953400,5.161953369140625,-0.0142571572214365,-0.00962402019649744,0.009684804826974869
1772566808437982200,5.171982177734375,-0.02503283880650997,-0.003152805380523205,-0.003037913702428341
1772566808448011500,5.182011474609375,-0.03524922952055931,0.0021295519545674324,-0.007183318957686424
1772566808458040600,5.19204052734375,-0.043508224189281464,0.009990138001739979,-0.005205921828746796
1772566808468069400,5.2020693359375,-0.04632958397269249,0.013242929242551327,0.0009384388104081154
1772566808478098400,5.212098388671875,-0.04529228433966637,0.02183721587061882,0.007927106693387032
1772566808488128500,5.22212841796875,-0.04196063429117203,0.028910543769598007,0.005339204333722591
1772566808498157600,5.232157470703125,-0.03242705017328262,0.035935964435338974,-0.002582368440926075
1772566808508186400,5.242186279296875,-0.02769167721271515,0.04791778326034546,-0.014719108119606972
1772566808518215400,5.25221533203125,-0.021652692928910255,0.052413471043109894,-0.025693461298942566
1772566808528244500,5.262244384765625,-0.011034739203751087,0.0506686195731163,-0.027797941118478775
1772566808538273300,5.272273193359375,0.004355934448540211,0.04270550608634949,-0.021279053762555122
1772566808548302300,5.28230224609375,0.02075887657701969,0.03633043169975281,-0.0023378534242510796
1772566808558331400,5.292331298828125,0.035944484174251556,0.02669803984463215,0.016534369438886642
1772566808568361200,5.302361328125,0.04623213782906532,0.019783582538366318,0.015788346529006958
1772566808578390300,5.312390380859375,0.05263357609510422,0.021982286125421524,0.012427438981831074
1772566808588419300,5.32241943359375,0.049939535558223724,0.033770982176065445,0.003976048901677132
1772566808598448400,5.332448486328125,0.040518868714571,0.04548542946577072,-0.005831840448081493
1772566808608477400,5.3424775390625,0.036046236753463745,0.04972265288233757,-0.016478803008794785
1772566808618506500,5.352506591796875,0.03149622678756714,0.04081038385629654,-0.019493501633405685
1772566808628535300,5.362535400390625,0.028870858252048492,0.02576327696442604,-0.009049104526638985
1772566808638565400,5.3725654296875,0.027024757117033005,0.011298851110041142,0.0031761368736624718
1772566808648594400,5.382594482421875,0.019391091540455818,-0.0008702157065272331,0.015579529106616974
1772566808658623500,5.39262353515625,0.01670263148844242,-0.00924639031291008,0.013177093118429184
1772566808668652300,5.40265234375,0.005748927593231201,-0.011500113643705845,0.003052450716495514
1772566808678681300,5.412681396484375,-0.00521131232380867,-0.0027745328843593597,0.0030862735584378242
1772566808688710400,5.42271044921875,-0.010472566820681095,0.00818669144064188,0.002219625748693943
1772566808698739200,5.4327392578125,-0.013517891056835651,0.007512114010751247,-0.004147992003709078
1772566808708769300,5.442769287109375,-0.010831553488969803,0.009725727140903473,-0.006331166718155146
1772566808718798300,5.45279833984375,-0.012778590433299541,0.007054310292005539,-0.010966665111482143
1772566808728827400,5.462827392578125,-0.019731853157281876,-0.006009547505527735,-0.0149732930585742
1772566808738856200,5.472856201171875,-0.025478420779109,-0.01183308195322752,-0.00212726928293705
1772566808748885500,5.482885498046875,-0.015084313228726387,-0.022557411342859268,0.008017387241125107
1772566808758914600,5.49291455078125,-0.0061906869523227215,-0.028605718165636063,0.013847047463059425
1772566808768943400,5.502943359375,0.0019601983949542046,-0.02037576213479042,0.020719237625598907
1772566808778973400,5.512973388671875,0.0054135192185640335,-0.013444619253277779,0.019704308360815048
1772566808789002500,5.52300244140625,0.005853199400007725,-0.004268159158527851,0.01098396722227335
1772566808799031600,5.533031494140625,0.004464094527065754,0.006419639103114605,0.0010788720101118088
1772566808809060400,5.543060302734375,0.00028982013463974,0.02274777553975582,-0.0047743795439600945
1772566808819089400,5.55308935546875,-0.009087435901165009,0.03270453214645386,-0.014818491414189339
1772566808829118500,5.563118408203125,-0.012599829584360123,0.030454125255346298,-0.022869698703289032
1772566808839147300,5.573147216796875,-0.015543155372142792,0.031041882932186127,-0.017361748963594437
1772566808849176300,5.58317626953125,-0.012327481061220169,0.02607676014304161,-0.0064148614183068275
1772566808859206400,5.593206298828125,-0.00607437826693058,0.014438481070101261,-0.00029944488778710365
1772566808869235200,5.603235107421875,-0.0021235006861388683,0.0026685763150453568,0.0010724803432822227
1772566808879264300,5.61326416015625,-0.0047238110564649105,-0.0037238094955682755,-0.001930766273289919
1772566808889293300,5.623293212890625,-0.011434738524258137,-0.01928543671965599,-0.0008429363369941711
1772566808899322400,5.633322265625,-0.019835414364933968,-0.03509049862623215,-0.005231826100498438
1772566808909351400,5.643351318359375,-0.028034789487719536,-0.049566347151994705,-0.006051436997950077
1772566808919380500,5.65338037109375,-0.03312542289495468,-0.05921098217368126,-0.003607720136642456
1772566808929410600,5.66341064453125,-0.03149399161338806,-0.06603372097015381,0.001994783990085125
1772566808939439400,5.673439453125,-0.028151456266641617,-0.06911686062812805,0.006769032217562199
1772566808949468400,5.683468505859375,-0.030595090240240097,-0.06066618859767914,0.011257474310696125
1772566808959497500,5.69349755859375,-0.03102518990635872,-0.04472983255982399,0.004921547137200832
1772566808969526300,5.7035263671875,-0.032282181084156036,-0.03334243968129158,-0.004356384743005037
1772566808979555300,5.713555419921875,-0.031677909195423126,-0.023221362382173538,-0.016359783709049225
1772566808989584400,5.72358447265625,-0.03280770033597946,-0.01567097008228302,-0.023805050179362297
1772566808999614500,5.733614501953125,-0.030298203229904175,-0.010152101516723633,-0.017652349546551704
1772566809009643300,5.743643310546875,-0.02772081084549427,-0.002983391284942627,-0.010031882673501968
1772566809019672300,5.75367236328125,-0.021792080253362656,-0.0010901503264904022,-0.007527179084718227
1772566809029701400,5.763701416015625,-0.01556530874222517,-0.0013058967888355255,-0.0077025252394378185
1772566809039730400,5.77373046875,-0.004152598325163126,0.0011295638978481293,-0.006421810947358608
1772566809049759500,5.783759521484375,0.0036696670576930046,0.004384989850223064,0.00008596107363700867
1772566809059788500,5.79378857421875,0.010596015490591526,0.0054840752854943275,-0.0010125930421054363
1772566809069818600,5.803818603515625,0.010258915834128857,0.006122659891843796,-0.001201797742396593
1772566809079847400,5.813847412109375,0.007575781084597111,0.0058001503348350525,-0.0035919849760830402
1772566809089876500,5.82387646484375,0.0039991941303014755,0.006711683236062527,-0.002819973509758711
1772566809099905500,5.833905517578125,0.002292906865477562,0.013757874257862568,0.0007185684517025948
1772566809109934300,5.843934326171875,0.0037945276126265526,0.02499123103916645,0.004860235378146172
1772566809119963400,5.85396337890625,-0.00007371418178081512,0.036574117839336395,0.0003805318847298622
1772566809129992400,5.863992431640625,-0.0035511180758476257,0.04878886044025421,-0.009472629055380821
1772566809140022300,5.874022216796875,-0.002139110118150711,0.054237689822912216,-0.02048186957836151
1772566809150051300,5.88405126953125,0.0008778749033808708,0.04988802596926689,-0.02801065519452095
1772566809160080400,5.894080322265625,0.0073938313871622086,0.03400786221027374,-0.032193414866924286
1772566809170109200,5.904109130859375,0.023500442504882812,0.022027041763067245,-0.01322544738650322
1772566809180138200,5.91413818359375,0.03327291086316109,0.011336581781506538,0.0008043507114052773
1772566809190167600,5.92416748046875,0.035386648029088974,0.005318911746144295,0.001957063563168049
1772566809200196600,5.934196533203125,0.0371139720082283,0.006564738228917122,-0.0006541660986840725
1772566809210225400,5.944225341796875,0.03589656203985214,0.004304039292037487,-0.020284460857510567
1772566809220255500,5.95425537109375,0.03355298191308975,0.006775719113647938,-0.030193284153938293
1772566809230284500,5.964284423828125,0.029255814850330353,0.008555693551898003,-0.0312982052564621
1772566809240313300,5.974313232421875,0.03214401379227638,0.0009907186031341553,-0.03016742691397667
1772566809250342400,5.98434228515625,0.02712210640311241,-0.015533138997852802,-0.026927519589662552
1772566809260371500,5.994371337890625,0.012732514180243015,-0.025311201810836792,-0.0016453326679766178
1772566809270400300,6.004400146484375,0.00825532153248787,-0.03223663568496704,0.013497664593160152
1772566809280429300,6.01442919921875,0.00287493783980608,-0.035394877195358276,0.017217569053173065
1772566809290459400,6.02445947265625,-0.003239169716835022,-0.020970914512872696,0.015086519531905651
1772566809300488400,6.034488525390625,-0.009250190109014511,-0.005270780064165592,0.007976413704454899
1772566809310517200,6.044517333984375,-0.017899606376886368,0.01388267520815134,-0.01154828630387783
1772566809320546300,6.05454638671875,-0.018260464072227478,0.03256235271692276,-0.02603934332728386
1772566809330575400,6.064575439453125,-0.018230173736810684,0.04264514893293381,-0.034740202128887177
1772566809340604400,6.0746044921875,-0.020719697698950768,0.045878224074840546,-0.033634722232818604
1772566809350633500,6.084633544921875,-0.023062467575073242,0.030926216393709183,-0.02507646009325981
1772566809360663300,6.094663330078125,-0.0210078377276659,0.021084770560264587,-0.008889236487448215
1772566809370692600,6.104692626953125,-0.017206376418471336,0.0026822108775377274,-0.00005852570757269859
1772566809380721400,6.114721435546875,-0.012668617069721222,-0.010184851475059986,0.007751193828880787
1772566809390750500,6.12475048828125,-0.009658164344727993,-0.0178502406924963,0.01125608291476965
1772566809400779500,6.134779541015625,-0.01039186492562294,-0.016428912058472633,0.009169495664536953
1772566809410808300,6.144808349609375,-0.012630918994545937,-0.015956303104758263,0.00013952888548374176
1772566809420838000,6.154837890625,-0.008174384944140911,-0.005508188623934984,-0.00582568533718586
1772566809430868000,6.164867919921875,-0.007605968974530697,0.004032451659440994,-0.0166606605052948
1772566809440896800,6.174896728515625,-0.011227069422602654,0.017213767394423485,-0.012055521830916405
1772566809450925800,6.18492578125,-0.008356845937669277,0.026884663850069046,-0.013628373853862286
1772566809460955000,6.194954833984375,-0.008178148418664932,0.03111908957362175,-0.017193280160427094
1772566809470983700,6.204983642578125,-0.009936941787600517,0.03621001914143562,-0.01350264810025692
1772566809481012700,6.2150126953125,-0.012403294444084167,0.03511093184351921,-0.009924424812197685
1772566809491041800,6.225041748046875,-0.012135523371398449,0.0329618863761425,-0.011479269713163376
1772566809501071600,6.235071533203125,-0.013055911287665367,0.032381583005189896,-0.010986052453517914
1772566809511100700,6.2451005859375,-0.010701382532715797,0.02938763052225113,-0.011868820525705814
1772566809521129700,6.255129638671875,-0.007699733600020409,0.022553425282239914,-0.0067763240076601505
1772566809531159000,6.265158935546875,-0.001184217631816864,0.015457619912922382,-0.0010582166723906994
1772566809541187800,6.275187744140625,0.004990321584045887,0.01992187649011612,0.004690215922892094
1772566809551217000,6.285216796875,0.00909483339637518,0.019657118245959282,0.004336342215538025
1772566809561246000,6.295245849609375,0.010697524063289165,0.019755123183131218,-0.01007029414176941
1772566809571275800,6.30527587890625,0.015206585638225079,0.017304174602031708,-0.017726916819810867
1772566809581304800,6.315304931640625,0.015695542097091675,0.007802281528711319,-0.017767395824193954
1772566809591334000,6.325333984375,0.018070828169584274,-0.00039387214928865433,-0.009976147674024105
1772566809601362700,6.33536279296875,0.019699349999427795,-0.007022480014711618,0.0008951425552368164
1772566809611391700,6.345391845703125,0.01600409671664238,-0.013181221671402454,0.014763174578547478
1772566809621420800,6.3554208984375,0.009580287151038647,-0.01981302537024021,0.015363983809947968
1772566809631449600,6.36544970703125,0.003810322843492031,-0.021351300179958344,0.01221903320401907
1772566809641479700,6.375479736328125,-0.00012769363820552826,-0.02253933623433113,0.0011275000870227814
1772566809651508700,6.3855087890625,-0.0012824400328099728,-0.013347967527806759,-0.002590539399534464
1772566809661537800,6.395537841796875,-0.0020728660747408867,-0.005149692762643099,-0.009455902501940727
1772566809671566800,6.40556689453125,-0.005558663047850132,-0.0013206088915467262,-0.013180962763726711
1772566809681596000,6.415595947265625,-0.008050848729908466,0.007059825584292412,-0.010274921543896198
1772566809691625000,6.425625,-0.012233342975378036,0.00698738731443882,-0.012112235650420189
1772566809701653800,6.43565380859375,-0.013677309267222881,0.006519470363855362,-0.010391567833721638
1772566809711683800,6.445683837890625,-0.013896467164158821,0.0028339074924588203,-0.011882415041327477
1772566809721713000,6.455712890625,-0.014440817758440971,-0.00015309453010559082,-0.012001192197203636
1772566809731742000,6.465741943359375,-0.010906762443482876,0.002958201803267002,-0.0057273609563708305
1772566809741770800,6.475770751953125,-0.010528593324124813,0.0030727172270417213,-0.0024439492262899876
1772566809751799800,6.4857998046875,-0.006405942142009735,0.00637416448444128,-0.004425746388733387
1772566809761828900,6.495828857421875,-0.0022351653315126896,0.006488679908216,-0.0037402487359941006
1772566809771857700,6.505857666015625,-0.007516270503401756,0.013742118142545223,-0.013983972370624542
1772566809781886700,6.51588671875,-0.010432431474328041,0.010348719544708729,-0.018626661971211433
1772566809791916800,6.525916748046875,-0.012608371675014496,0.011290033347904682,-0.016367048025131226
1772566809801945600,6.535945556640625,-0.01900288835167885,0.014653871767222881,-0.009685177356004715
1772566809811974700,6.545974609375,-0.023581158369779587,0.002022787928581238,-0.0074340784922242165
1772566809822004000,6.55600390625,-0.017247628420591354,-0.009089783765375614,-0.000351667869836092
1772566809832033000,6.566032958984375,-0.015670664608478546,-0.016909437254071236,0.016845103353261948
1772566809842061800,6.576061767578125,-0.015030707232654095,-0.022085558623075485,0.02455868385732174
1772566809852091000,6.5860908203125,-0.009892134927213192,-0.019485551863908768,0.01474713534116745
1772566809862121000,6.596120849609375,-0.0020390059798955917,-0.012248411774635315,-0.0034324019216001034
1772566809872149800,6.606149658203125,0.00456232950091362,-0.0035440167412161827,-0.023504391312599182
1772566809882178800,6.6161787109375,0.010058827698230743,0.003907507285475731,-0.02492412179708481
1772566809892207900,6.626207763671875,0.01623721420764923,0.009930954314768314,-0.014293472282588482
1772566809902236700,6.636236572265625,0.021330242976546288,0.005690670572221279,-0.007615862414240837
1772566809912265700,6.646265625,0.02784680761396885,-0.003414524719119072,-0.006681781727820635
1772566809922294800,6.656294677734375,0.026449980214238167,-0.011819727718830109,-0.0029954342171549797
1772566809932324900,6.666324951171875,0.019396623596549034,-0.023539448156952858,-0.002813967876136303
1772566809942353700,6.676353759765625,0.018480762839317322,-0.0372624509036541,-0.005172197241336107
1772566809952382700,6.6863828125,0.01745445653796196,-0.04952191933989525,-0.0028898552991449833
1772566809962411800,6.696411865234375,0.013864514417946339,-0.04091697931289673,0.001735788770020008
1772566809972440800,6.70644091796875,0.004202739335596561,-0.03691256791353226,-0.00043711625039577484
1772566809982470000,6.716469970703125,0.0034834202378988266,-0.033004116266965866,-0.003919465467333794
1772566809992499000,6.7264990234375,0.003190668299794197,-0.018139038234949112,-0.0032744728960096836
1772566810002529000,6.736529052734375,0.0029469896107912064,0.00020801182836294174,-0.0003876062110066414
1772566810012557800,6.746557861328125,0.0002053854987025261,0.019464639946818352,-0.0021630534902215004
1772566810022587000,6.7565869140625,0.0006045931950211525,0.0312587171792984,-0.01344473659992218
1772566810032616000,6.766615966796875,0.0034616095945239067,0.033857449889183044,-0.02123100683093071
1772566810042644700,6.776644775390625,0.00576817337423563,0.03381510451436043,-0.01762908138334751
1772566810052673800,6.786673828125,0.006961732171475887,0.02857651747763157,-0.011605831794440746
1772566810062702800,6.796702880859375,0.011987116187810898,0.013294236734509468,-0.005244605243206024
1772566810072732700,6.806732666015625,0.016317255795001984,0.009635699912905693,0.0008811093866825104
1772566810082761700,6.81676171875,0.01767946407198906,0.002874201163649559,0.010787270031869411
1772566810092790800,6.826790771484375,0.01813492737710476,0.004212388768792152,0.003950898535549641
1772566810102819800,6.83681982421875,0.022060425952076912,-0.0005022045224905014,-0.0056090508587658405
1772566810112848600,6.8468486328125,0.024462375789880753,0.005419304594397545,-0.013859013095498085
1772566810122878000,6.8568779296875,0.02558223530650139,0.0017547942698001862,-0.00895826518535614
1772566810132907000,6.866906982421875,0.02883145771920681,0.0020768437534570694,-0.004788942635059357
1772566810142936800,6.876936767578125,0.03004186414182186,0.0028845807537436485,-0.002866672817617655
1772566810152966000,6.8869658203125,0.02944990061223507,0.009225523099303246,-0.00276346318423748
1772566810162995000,6.896994873046875,0.02512252889573574,0.013243434950709343,-0.002000733744353056
1772566810173023700,6.907023681640625,0.01984931342303753,0.011798596940934658,-0.007271898444741964
1772566810183052800,6.917052734375,0.022339636459946632,0.017048750072717667,-0.0069387368857860565
1772566810193081900,6.927081787109375,0.021030105650424957,0.01538537535816431,-0.0034813047386705875
1772566810203110700,6.937110595703125,0.018054289743304253,0.012940593995153904,-0.009111227467656136
1772566810213140700,6.947140625,0.02118562161922455,0.010556275025010109,-0.011041389778256416
1772566810223169800,6.957169677734375,0.019817553460597992,0.006899222731590271,-0.013554347679018974
1772566810233198800,6.96719873046875,0.01595274731516838,0.0026845233514904976,-0.00812077522277832
1772566810243227600,6.9772275390625,0.010707651264965534,0.00020645186305046082,-0.009706953540444374
1772566810253256700,6.987256591796875,0.0048840828239917755,-0.005757937673479319,-0.012687720358371735
1772566810263285800,6.99728564453125,0.00023313798010349274,-0.015369285829365253,-0.015174048021435738
1772566810273314800,7.007314697265625,-0.0006518098525702953,-0.028022246435284615,-0.018249744549393654
1772566810283344600,7.0173447265625,-0.0006640604697167873,-0.0319615937769413,-0.008810969069600105
1772566810293373700,7.027373779296875,0.0038014650344848633,-0.03484255075454712,0.002230532467365265
1772566810303403000,7.037403076171875,0.007097925059497356,-0.025556374341249466,0.008635436184704304
1772566810313431800,7.047431884765625,0.008543388918042183,-0.015583757311105728,0.005833165720105171
1772566810323460900,7.0574609375,0.012334665283560753,-0.004132164642214775,0.00017048604786396027
1772566810333490000,7.067489990234375,0.022069986909627914,0.004890718497335911,-0.003483655396848917
1772566810343518700,7.077518798828125,0.031216878443956375,0.00783617328852415,-0.006732445675879717
1772566810353548800,7.087548828125,0.03877823054790497,0.006567369215190411,-0.009498195722699165
1772566810363577900,7.097577880859375,0.049950189888477325,0.008986053057014942,-0.0033873063512146473
1772566810373607000,7.10760693359375,0.0534350648522377,0.011565692722797394,0.001245163381099701
1772566810383635700,7.1176357421875,0.06045409291982651,0.01448877900838852,0.0013389065861701965
1772566810393664800,7.127664794921875,0.05524767190217972,0.016116458922624588,-0.004143864382058382
1772566810403693800,7.13769384765625,0.047996148467063904,0.014329477213323116,-0.011984743177890778
1772566810413726000,7.147725830078125,0.04237791895866394,0.011006933636963367,-0.014553084969520569
1772566810423755800,7.157755859375,0.03407684713602066,0.001767895184457302,-0.00920439139008522
1772566810433785000,7.16778515625,0.02616889774799347,-0.012264066375792027,-0.0029278770089149475
1772566810443814000,7.17781396484375,0.02135683223605156,-0.018649261444807053,0.012502212077379227
1772566810453843000,7.187843017578125,0.016402168199419975,-0.024060174822807312,0.020694786682724953
1772566810463872000,7.1978720703125,0.010420441627502441,-0.016550060361623764,0.020694786682724953
1772566810473900800,7.20790087890625,0.004222868010401726,-0.005305502563714981,0.019845515489578247
1772566810483929900,7.217929931640625,0.0004648817703127861,0.007281128317117691,0.0068104080855846405
1772566810493960000,7.2279599609375,-0.001235827337950468,0.02258259803056717,0.0005193185061216354
1772566810503989000,7.237989013671875,-0.0005532591603696346,0.0337391123175621,-0.008172973059117794
1772566810514017800,7.248017822265625,0.0044546788558363914,0.03827838599681854,-0.005724708084017038
1772566810524046800,7.258046875,0.010687541216611862,0.03874444216489792,-0.008167092688381672
1772566810534076000,7.268075927734375,0.016956793144345284,0.03522779420018196,-0.002218252047896385
1772566810544104700,7.278104736328125,0.014320796355605125,0.03180563449859619,0.0027368254959583282
1772566810554134800,7.288134765625,0.012723672203719616,0.024119235575199127,-0.004127546679228544
1772566810564163800,7.298163818359375,0.010262378491461277,0.018279191106557846,0.0017923945561051369
1772566810574193000,7.30819287109375,0.005734744481742382,0.013733968138694763,-0.0008403211832046509
1772566810584222000,7.318221923828125,0.008439984172582626,0.004421692341566086,-0.002458990551531315
1772566810594251000,7.3282509765625,0.008722237311303616,-0.007090055383741856,-0.007002852391451597
1772566810604280000,7.338280029296875,0.007700116373598576,-0.022174999117851257,-0.0027471212670207024
1772566810614308900,7.348308837890625,0.006946448236703873,-0.03020630031824112,0.005429134704172611
1772566810624339000,7.3583388671875,0.005038026720285416,-0.043054454028606415,0.011545349843800068
1772566810634368000,7.368367919921875,0.007198928855359554,-0.04670245945453644,0.020414911210536957
1772566810644396800,7.378396728515625,0.005308883264660835,-0.045308031141757965,0.016491010785102844
1772566810654425900,7.38842578125,0.0036265719681978226,-0.04162168875336647,0.016241023316979408
1772566810664455000,7.398454833984375,0.0042838407680392265,-0.03367401659488678,0.011356519535183907
1772566810674483700,7.408483642578125,0.005183272995054722,-0.024091752246022224,0.007466396316885948
1772566810684512800,7.4185126953125,0.004235720261931419,-0.01563142240047455,0.002542744390666485
1772566810694542800,7.42854296875,0.009791516698896885,-0.0057726064696908,-0.005686730146408081
1772566810704572000,7.438572021484375,0.018653184175491333,0.001995301805436611,-0.003390819299966097
1772566810714600700,7.4486005859375,0.03194309026002884,0.00025444943457841873,-0.006072404328733683
1772566810724629800,7.458629638671875,0.039559997618198395,-0.004712612368166447,-0.002532796934247017
1772566810734659000,7.4686591796875,0.047372005879879,-0.015238605439662933,0.001376279629766941
1772566810744687900,7.47868798828125,0.04824152588844299,-0.0249711275100708,0.010542613454163074
1772566810754717000,7.488717041015625,0.052033066749572754,-0.037983596324920654,0.021030940115451813
1772566810764747000,7.4987470703125,0.05334387719631195,-0.051303401589393616,0.027406815439462662
1772566810774776000,7.508776123046875,0.04963594675064087,-0.06005480885505676,0.030676206573843956
1772566810784804900,7.518804931640625,0.047500889748334885,-0.05105997622013092,0.039043061435222626
1772566810794834000,7.528833984375,0.04282215237617493,-0.041526857763528824,0.03328811004757881
1772566810804863000,7.538863037109375,0.036311786621809006,-0.024974513798952103,0.02581261843442917
1772566810814891800,7.548891845703125,0.033834539353847504,-0.013506697490811348,0.009703496471047401
1772566810824920800,7.5589208984375,0.026679426431655884,-0.00021965336054563522,-0.0012839077971875668
1772566810834951000,7.568950927734375,0.02857881411910057,0.007158352993428707,-0.009314415045082569
1772566810844980000,7.57897998046875,0.027346570044755936,0.011830070056021214,-0.0036647850647568703
1772566810855008800,7.5890087890625,0.02494248002767563,0.012406152673065662,-0.0022108452394604683
1772566810865037800,7.599037841796875,0.021364521235227585,0.010113704018294811,0.0007263552397489548
1772566810875067000,7.60906689453125,0.018633048981428146,0.0034434618428349495,-0.0016523622907698154
1772566810885096000,7.619095947265625,0.011325335130095482,-0.006860042922198772,-0.0005940222181379795
1772566810895125000,7.629125,0.009388423524796963,-0.011563456617295742,0.006470896303653717
1772566810905154800,7.63915478515625,0.010725862346589565,-0.007327698636800051,0.016733653843402863
1772566810915183900,7.649183837890625,0.009222733788192272,-0.004638679791241884,0.017110778018832207
1772566810925213000,7.659212890625,0.004703083075582981,-0.0019347723573446274,0.01098923571407795
1772566810935242000,7.669241943359375,-0.0008036382496356964,0.009236996062099934,0.007213464006781578
1772566810945270800,7.679270751953125,-0.003931520506739616,0.01912425085902214,0.0032978178933262825
1772566810955299800,7.6892998046875,-0.008339767344295979,0.024162087589502335,-0.003380903508514166
1772566810965329000,7.699328857421875,-0.013086052611470222,0.022902946919202805,-0.008393239229917526
1772566810975359000,7.70935888671875,-0.012939313426613808,0.020411290228366852,-0.002808856312185526
1772566810985387800,7.7193876953125,-0.012672996148467064,0.015851426869630814,0.008123952895402908
1772566810995416800,7.729416748046875,-0.007068471983075142,0.011376057751476765,0.015361502766609192
1772566811005446000,7.73944580078125,-0.0024329740554094315,0.007358946837484837,0.013052541762590408
1772566811015474700,7.749474609375,-0.002053281757980585,0.00958122406154871,0.0047341445460915565
1772566811025504000,7.75950390625,0.00022025872021913528,0.009747405536472797,-0.00284148333594203
1772566811035533800,7.769533935546875,0.00029248371720314026,0.016642477363348007,-0.012761732563376427
1772566811045563000,7.77956298828125,-0.0005621248856186867,0.020882761105895042,-0.013661348260939121
1772566811055592000,7.789592041015625,-0.0003550993278622627,0.017965462058782578,-0.010476885363459587
1772566811065621000,7.79962109375,-0.0009319400414824486,0.01488098781555891,-0.001636255532503128
1772566811075650000,7.809650146484375,0.00780110526829958,0.007096296176314354,0.00650644488632679
1772566811085678800,7.819678955078125,0.004921695217490196,-0.000014076940715312958,0.01638038083910942
1772566811095708000,7.8297080078125,0.006103046238422394,-0.0015254020690917969,0.013294767588376999
1772566811105738000,7.839738037109375,-0.000973772257566452,0.00026184599846601486,0.007100788876414299
1772566811115767000,7.84976708984375,-0.011211208999156952,0.0069666048511862755,-0.0049963658675551414
1772566811125795800,7.8597958984375,-0.009852464310824871,0.008086730726063251,-0.0100110974162817
1772566811135825000,7.869824951171875,-0.012002434581518173,0.008571160025894642,-0.002346520312130451
1772566811145854000,7.87985400390625,-0.015377191826701164,0.00879752915352583,0.007612902671098709
1772566811155882800,7.8898828125,-0.015153364278376102,0.004304433241486549,0.00385245680809021
1772566811165911800,7.899911865234375,-0.015025266446173191,0.0048469193279743195,0.0033677611500024796
1772566811175942000,7.90994189453125,-0.015788335353136063,0.001407490111887455,-0.005069805774837732
1772566811185970700,7.919970703125,-0.020012907683849335,0.007863258942961693,-0.003279895056039095
1772566811195999700,7.929999755859375,-0.025180350989103317,0.004535718820989132,-0.007171334698796272
1772566811206029000,7.940029052734375,-0.03125475347042084,-0.00045930687338113785,-0.00781661830842495
1772566811216057900,7.950057861328125,-0.04004817456007004,0.0013710325583815575,-0.014119470492005348
1772566811226087000,7.9600869140625,-0.0550239272415638,-0.0008103623986244202,-0.02218911424279213
1772566811236116000,7.970115966796875,-0.05882052332162857,0.0012269513681530952,-0.03607768192887306
1772566811246146000,7.98014599609375,-0.05615576356649399,0.003379584290087223,-0.03930995985865593
1772566811256174800,7.9901748046875,-0.04847446084022522,0.012930778786540031,-0.02917882613837719
1772566811266201900,8.000201904296874,-0.04442698508501053,0.02157486602663994,-0.019591977819800377
1772566811276231000,8.01023095703125,-0.0347202904522419,0.03979834169149399,-0.0069442749954760075
1772566811286260000,8.020260009765625,-0.022024471312761307,0.04570123553276062,-0.015409931540489197
1772566811296289000,8.0302890625,-0.020453205332159996,0.04382610321044922,-0.03848409280180931
1772566811306319000,8.040319091796874,-0.0213746577501297,0.03855757415294647,-0.05398262292146683
1772566811316348000,8.050347900390625,-0.01567792519927025,0.023117125034332275,-0.06628205627202988
1772566811326377000,8.060376953125,-0.01033216156065464,-0.0014494694769382477,-0.054657626897096634
1772566811336406000,8.070406005859375,-0.005078747868537903,-0.01601461134850979,-0.023353800177574158
1772566811346434800,8.080434814453126,-0.0017745643854141235,-0.02300274558365345,0.01159512810409069
1772566811356463900,8.0904638671875,-0.003801420796662569,-0.016890039667487144,0.025015201419591904
1772566811366493000,8.100492919921875,-0.013503583148121834,-0.006843531504273415,0.01729762554168701
1772566811376522800,8.110522705078125,-0.022510839626193047,0.007996532134711742,-0.0019057071767747402
1772566811386551800,8.1205517578125,-0.027931705117225647,0.022822346538305283,-0.010961254127323627
1772566811396580900,8.130580810546874,-0.028085824102163315,0.027547800913453102,-0.009128334000706673
1772566811406609700,8.140609619140625,-0.016060054302215576,0.032927386462688446,-0.0008650775998830795
1772566811416639000,8.150638916015625,-0.011590177193284035,0.035148974508047104,0.004494074732065201
1772566811426664700,8.160664794921875,-0.005299258045852184,0.03212948143482208,0.005950557999312878
1772566811436693800,8.17069384765625,-0.007013092283159494,0.0228969044983387,-0.0037399232387542725
1772566811446723600,8.1807236328125,-0.007344922050833702,0.015157758258283138,-0.003037115093320608
1772566811456752600,8.190752685546874,-0.00728045217692852,0.008179194293916225,0.0018295329064130783
1772566811466781700,8.20078173828125,-0.003103284165263176,0.003206806257367134,0.014768766239285469
1772566811476810800,8.210810791015625,0.003583359532058239,0.0016984092071652412,0.026170572265982628
1772566811486839600,8.220839599609375,0.014556914567947388,0.007049764506518841,0.024707162752747536
1772566811496868600,8.23086865234375,0.01804785430431366,0.01527541596442461,0.022360168397426605
1772566811506897700,8.240897705078124,0.011552139185369015,0.025373589247465134,0.01167530007660389
1772566811516927700,8.250927734375,0.003370368853211403,0.03175932168960571,-0.00009542377665638924
1772566811526956500,8.26095654296875,-0.006128594279289246,0.03261207044124603,-0.010899867862462997
1772566811536985600,8.270985595703126,-0.00957388337701559,0.025686223059892654,-0.012401647865772247
1772566811547014700,8.2810146484375,-0.013132132589817047,0.016009625047445297,-0.008064157329499722
1772566811557043500,8.29104345703125,-0.025185326114296913,0.006872047670185566,0.004702855832874775
1772566811567072500,8.301072509765625,-0.03630349040031433,0.005126080475747585,0.0074009038507938385
1772566811577102600,8.3111025390625,-0.03879748284816742,0.016116907820105553,-0.005167916417121887
1772566811587131600,8.321131591796876,-0.032928407192230225,0.028184223920106888,-0.01661604642868042
1772566811597160700,8.33116064453125,-0.03154759854078293,0.045438338071107864,-0.014412526972591877
1772566811607189800,8.341189697265625,-0.02860400825738907,0.06080025061964989,-0.013054048642516136
1772566811617218800,8.35121875,-0.035139136016368866,0.07135462015867233,-0.021654194220900536
1772566811627247600,8.36124755859375,-0.04114136844873428,0.07894915342330933,-0.036389730870723724
1772566811637276700,8.371276611328126,-0.033321257680654526,0.08113428205251694,-0.04716958850622177
1772566811647306800,8.381306640625,-0.021878451108932495,0.08099473267793655,-0.05238698422908783
1772566811657335600,8.39133544921875,-0.012081502936780453,0.07404175400733948,-0.04107466712594032
1772566811667364600,8.401364501953125,-0.00003575906157493591,0.06674762070178986,-0.021047430112957954
1772566811677393700,8.4113935546875,0.012099427171051502,0.050236593931913376,-0.005087615922093391
1772566811687422700,8.421422607421874,0.019969068467617035,0.0352959930896759,0.0006296578794717789
1772566811697451500,8.431451416015625,0.02295088954269886,0.01685502752661705,-0.0022083139047026634
1772566811707480600,8.44148046875,0.018120180815458298,0.0003671320155262947,0.003215479664504528
1772566811717510700,8.4515107421875,0.012270529754459858,-0.010593020357191563,0.010629318654537201
1772566811727539500,8.46153955078125,0.0025803521275520325,-0.02642604522407055,0.018735714256763458
1772566811737568500,8.471568603515625,0.0007168306037783623,-0.0287258829921484,0.02226889692246914
1772566811747597600,8.48159765625,-0.0027772369794547558,-0.03233633190393448,0.020740509033203125
1772566811757626600,8.491626708984375,-0.003691023215651512,-0.029265131801366806,0.016510462388396263
1772566811767655700,8.50165576171875,-0.005399441346526146,-0.026203297078609467,0.011344462633132935
1772566811777684700,8.511684814453124,-0.005789832677692175,-0.024188369512557983,0.010092318058013916
1772566811787714800,8.52171484375,-0.005544289015233517,-0.022084472700953484,0.012569855898618698
1772566811797743600,8.53174365234375,-0.005319217685610056,-0.01772436872124672,0.010224035941064358
1772566811807772700,8.541772705078126,0.0018396256491541862,-0.01568039320409298,0.007387503981590271
1772566811817801700,8.5518017578125,0.006168961524963379,-0.01178212184458971,0.00785403698682785
1772566811827830500,8.56183056640625,0.010269164107739925,-0.0036754589527845383,0.010450087487697601
1772566811837859600,8.571859619140625,0.007185116410255432,0.0013076495379209518,0.004095751792192459
1772566811847889700,8.5818896484375,0.004603713750839233,0.013582158833742142,-0.0016252505593001842
1772566811857918700,8.591918701171876,0.002440829761326313,0.014522706158459187,-0.0030912114307284355
1772566811867947500,8.601947509765624,-0.0015469877980649471,0.018172569572925568,-0.0018107639625668526
1772566811877977600,8.6119775390625,-0.010313642211258411,0.009379642084240913,-0.0025300555862486362
1772566811888006700,8.622006591796875,-0.012092100456357002,0.0006535286083817482,-0.0011156504042446613
1772566811898036700,8.63203662109375,-0.018399711698293686,-0.01169319823384285,0.005380646325647831
1772566811908065500,8.6420654296875,-0.01969613879919052,-0.02012050524353981,0.006584927439689636
1772566811918094600,8.652094482421875,-0.019959386438131332,-0.026213746517896652,0.01021132618188858
1772566811928123600,8.66212353515625,-0.029949702322483063,-0.024953272193670273,0.006128700450062752
1772566811938152400,8.67215234375,-0.04106456786394119,-0.014259940013289452,-0.004176716320216656
1772566811948181500,8.682181396484374,-0.052570223808288574,-0.0011931397020816803,-0.013881009072065353
1772566811958210800,8.6922109375,-0.05577065423130989,0.011497151106595993,-0.020373299717903137
1772566811968240600,8.70224072265625,-0.059454336762428284,0.022331688553094864,-0.01900283619761467
1772566811978269700,8.712269775390626,-0.05416207015514374,0.015888681635260582,-0.01661435328423977
1772566811988298800,8.722298828125,-0.048010166734457016,0.01767752692103386,-0.010005186311900616
1772566811998327800,8.732327880859375,-0.04549302160739899,0.009211387485265732,-0.006646811030805111
1772566812008356600,8.742356689453125,-0.03914564475417137,0.0045412685722112656,-0.0022680419497191906
1772566812018385700,8.7523857421875,-0.033880528062582016,0.002016560174524784,0.0006055710837244987
1772566812028414700,8.762414794921876,-0.030993394553661346,0.003443215973675251,0.0027997493743896484
1772566812038444800,8.77244482421875,-0.02734040468931198,0.008420711383223534,-0.0019231513142585754
1772566812048473600,8.7824736328125,-0.022074004635214806,0.012826111167669296,-0.0009990343824028969
1772566812058502700,8.792502685546875,-0.023423098027706146,0.01828608103096485,-0.0023407689295709133
1772566812068531700,8.80253173828125,-0.020485099405050278,0.021855250000953674,-0.0016691195778548717
1772566812078560500,8.812560546875,-0.013234132900834084,0.01824348419904709,0.0020284242928028107
1772566812088589600,8.822589599609374,-0.012836522422730923,0.02054205909371376,0.0011847354471683502
1772566812098619600,8.83261962890625,-0.012217508628964424,0.022455483675003052,-0.0012679081410169601
1772566812108648400,8.8426484375,-0.01755448430776596,0.019407227635383606,-0.007597709074616432
1772566812118677500,8.852677490234376,-0.017791014164686203,0.01160072535276413,-0.005141987465322018
1772566812128706800,8.862706787109374,-0.020395051687955856,0.0034850090742111206,-0.00038877781480550766
1772566812138735600,8.872735595703125,-0.02699115499854088,-0.004293825477361679,0.006141996011137962
1772566812148764700,8.8827646484375,-0.030688423663377762,-0.0031361496075987816,0.007037617266178131
1772566812158793700,8.892793701171875,-0.024269193410873413,-0.00012780912220478058,0.005027580074965954
1772566812168823800,8.90282373046875,-0.018080540001392365,0.004975073039531708,0.0037497952580451965
1772566812178852600,8.9128525390625,-0.015357090160250664,0.012746118009090424,0.002560376189649105
1772566812188881700,8.922881591796875,-0.014407406561076641,0.022018179297447205,0.002085801213979721
1772566812198910700,8.93291064453125,-0.012865236029028893,0.02725319378077984,-0.013262318447232246
1772566812208939500,8.942939453125,-0.006388428620994091,0.031806401908397675,-0.01556781679391861
1772566812218968600,8.952968505859374,-0.003191809169948101,0.027024678885936737,-0.008478672243654728
1772566812228997600,8.96299755859375,-0.0002575386315584183,0.019438397139310837,0.001279681921005249
1772566812239027700,8.97302783203125,0.006244145333766937,0.008429531939327717,0.00906454212963581
1772566812249056500,8.983056396484375,0.015300757251679897,0.0027093281969428062,0.014040924608707428
1772566812259085600,8.99308544921875,0.01918672025203705,0.0023819245398044586,0.011077548377215862
1772566812269114600,9.003114501953124,0.020894071087241173,0.00404426921159029,0.00676162913441658
1772566812279143700,9.013143798828125,0.01624387875199318,0.015731047838926315,-0.0005482807755470276
1772566812289172700,9.0231728515625,0.007954256609082222,0.029505718499422073,-0.005001884885132313
1772566812299202600,9.03320263671875,0.002639167942106724,0.036767859011888504,-0.013980401679873466
1772566812309231600,9.043231689453124,-0.001089523546397686,0.04016498848795891,-0.013193969614803791
1772566812319260700,9.0532607421875,-0.003651847131550312,0.03828752413392067,-0.0011195908300578594
1772566812329289700,9.063289794921875,-0.007482804358005524,0.027057241648435593,0.002839464694261551
1772566812339318800,9.07331884765625,-0.01009158045053482,0.011710470542311668,0.0004318486899137497
1772566812349347600,9.08334765625,-0.0185130275785923,0.0038296449929475784,0.0023088445886969566
1772566812359376600,9.093376708984374,-0.025359701365232468,-0.008179111406207085,0.00254806037992239
1772566812369406700,9.10340673828125,-0.027218323200941086,-0.01491797436028719,0.0035488763824105263
1772566812379435500,9.113435546875,-0.024505367502570152,-0.017795514315366745,0.004717652685940266
1772566812389464600,9.123464599609376,-0.021393463015556335,-0.015507061034440994,0.003936547785997391
1772566812399493600,9.13349365234375,-0.0173865407705307,-0.01628013327717781,0.0026957280933856964
1772566812409522400,9.1435224609375,-0.01341310329735279,-0.01500740833580494,0.0027367407456040382
1772566812419551500,9.153551513671875,-0.004575335420668125,-0.013563485816121101,0.0037072496488690376
1772566812429580800,9.163580810546875,-0.0020221625454723835,-0.008907481096684933,0.00016950629651546478
1772566812439610600,9.173610595703124,-0.002672356553375721,-0.0034513846039772034,-0.003361960407346487
1772566812449639700,9.1836396484375,-0.00009255297482013702,0.005300029180943966,-0.007663498166948557
1772566812459668700,9.193668701171875,0.0011154776439070702,0.006903237663209438,-0.00832717027515173
1772566812469697800,9.20369775390625,0.007606134749948978,0.00095320213586092,-0.00823795422911644
1772566812479726600,9.2137265625,0.016606967896223068,-0.0018820930272340775,-0.00033048493787646294
1772566812489755600,9.223755615234374,0.019542302936315536,-0.009500863961875439,0.011851879768073559
1772566812499785700,9.23378564453125,0.022577591240406036,-0.01742657832801342,0.019907508045434952
1772566812509814800,9.243814697265625,0.018888847902417183,-0.016565311700105667,0.01929125189781189
1772566812519843600,9.253843505859376,0.010686155408620834,-0.006816355045884848,0.009397102519869804
1772566812529872600,9.26387255859375,-0.0007079131901264191,0.005196632817387581,0.0007522162050008774
1772566812539901700,9.273901611328125,-0.0006117927841842175,0.01009606197476387,-0.012548131868243217
1772566812549930500,9.283930419921875,-0.004158590454608202,0.017286330461502075,-0.014715146273374557
1772566812559959600,9.29395947265625,-0.005809245631098747,0.019392911344766617,-0.010252028703689575
1772566812569989600,9.30398974609375,-0.011083370074629784,0.015990721061825752,-0.011835809797048569
1772566812580018400,9.314018310546874,-0.007469399832189083,0.009459011256694794,-0.01800372451543808
1772566812590047500,9.324047607421875,-0.0014988589100539684,-0.0006263786926865578,-0.01444920338690281
1772566812600076800,9.334076904296875,0.006147377192974091,-0.00980285182595253,-0.005521593615412712
1772566812610105900,9.34410595703125,0.01387933362275362,-0.01290357019752264,0.00733588170260191
1772566812620134700,9.354134765625,0.023686150088906288,-0.008685652166604996,0.010033311322331429
1772566812630164700,9.364164794921875,0.029439909383654594,-0.007295748218894005,0.0026949718594551086
1772566812640193800,9.37419384765625,0.031201843172311783,-0.0016008373349905014,-0.005490957759320736
1772566812650222600,9.38422265625,0.03258189558982849,0.0036828741431236267,-0.016242671757936478
1772566812660251600,9.394251708984376,0.029805082827806473,-0.003776143305003643,-0.019209109246730804
1772566812670280700,9.40428076171875,0.027970433235168457,-0.015420548617839813,-0.014117412269115448
1772566812680309500,9.4143095703125,0.025154415518045425,-0.026085449382662773,-0.0031410222873091698
1772566812690338600,9.424338623046875,0.022740794345736504,-0.03904705494642258,0.006214396096765995
1772566812700368600,9.43436865234375,0.021241620182991028,-0.040618009865283966,0.014806857332587242
1772566812710397700,9.444397705078124,0.016711052507162094,-0.038565512746572495,0.010913049802184105
1772566812720426500,9.454426513671875,0.014591707848012447,-0.02993607148528099,0.004501755349338055
1772566812730455600,9.46445556640625,0.014449228532612324,-0.01724131591618061,-0.0024914396926760674
1772566812740484600,9.474484619140625,0.01562028843909502,-0.007202033884823322,-0.004263449460268021
1772566812750513700,9.484513671875,0.01501628290861845,-0.004506115801632404,-0.0072200908325612545
1772566812760542700,9.494542724609374,0.01682525873184204,-0.004432816989719868,-0.003142561763525009
1772566812770572500,9.504572509765625,0.017817821353673935,-0.005601146258413792,0.0008681584149599075
1772566812780601900,9.514601806640625,0.01645135134458542,-0.0037659620866179466,-0.0035846466198563576
1772566812790630700,9.524630615234376,0.02031932771205902,-0.007254170253872871,-0.008614558726549149
1772566812800659700,9.53465966796875,0.02758605405688286,-0.008624650537967682,-0.011433972045779228
1772566812810688800,9.544688720703125,0.030111532658338547,-0.015237811952829361,-0.006438680924475193
1772566812820717600,9.554717529296875,0.034634850919246674,-0.0221092589199543,-0.00016424059867858887
1772566812830746600,9.56474658203125,0.03569558635354042,-0.024892263114452362,0.0012789266183972359
1772566812840776700,9.574776611328126,0.026892628520727158,-0.02661886438727379,-0.0022711302153766155
1772566812850805500,9.584805419921874,0.021638479083776474,-0.030644232407212257,-0.011688866652548313
1772566812860834600,9.59483447265625,0.014270350337028503,-0.030663426965475082,-0.010660371743142605
1772566812870863600,9.604863525390625,0.011655924841761589,-0.04268813133239746,-0.002029599156230688
1772566812880892700,9.614892578125,0.015092934481799603,-0.05218839272856712,0.00775692705065012
1772566812890921500,9.62492138671875,0.006978283636271954,-0.052611302584409714,0.016110997647047043
1772566812900951600,9.63495166015625,0.0026309052482247353,-0.05951100215315819,0.008884348906576633
1772566812910980600,9.644980712890625,0.003175254911184311,-0.059496086090803146,0.0034991707652807236
1772566812921009700,9.655009765625,-0.0022249873727560043,-0.05216855928301811,0.00619934406131506
1772566812931038700,9.665038818359376,-0.006658618338406086,-0.04686460644006729,0.0031042182818055153
1772566812941067800,9.67506787109375,-0.00787582527846098,-0.03372545912861824,0.0003200806677341461
1772566812951096600,9.6850966796875,-0.012685760855674744,-0.01956969127058983,-0.009211373515427113
1772566812961125600,9.695125732421875,-0.015052717179059982,-0.0072392928414046764,-0.017508748918771744
1772566812971155700,9.70515576171875,-0.010005760006606579,0.003519345074892044,-0.019550327211618423
1772566812981184800,9.715184814453124,-0.004882643464952707,0.005781970918178558,-0.020010340958833694
1772566812991213600,9.725213623046875,0.0014540823176503181,0.01240764930844307,-0.019730709493160248
1772566813001242600,9.73524267578125,0.006186317652463913,0.009242181666195393,-0.019254479557275772
1772566813011271700,9.745271728515625,0.004153260961174965,0.0058687543496489525,-0.014340680092573166
1772566813021300500,9.755300537109376,0.0010201642289757729,0.0012498591095209122,-0.011530078947544098
1772566813031330600,9.76533056640625,0.0043283430859446526,-0.008858967572450638,-0.015831351280212402
1772566813041359600,9.775359619140625,0.009379047900438309,-0.018190698698163033,-0.01596585288643837
1772566813051388700,9.785388671875,0.008718583732843399,-0.02160567045211792,-0.009821407496929169
1772566813061417500,9.79541748046875,0.007526068016886711,-0.019677836447954178,-0.007689748425036669
1772566813071446800,9.80544677734375,0.015197571367025375,-0.00693514384329319,-0.006353640463203192
1772566813081475800,9.815475830078125,0.015029825270175934,0.0033462364226579666,-0.007422739639878273
1772566813091504600,9.825504638671875,0.016102014109492302,0.019419744610786438,-0.012294726446270943
1772566813101534700,9.83553466796875,0.01857372745871544,0.023381710052490234,-0.010355249978601933
1772566813111563800,9.845563720703124,0.02850651741027832,0.02840230241417885,-0.0028174384497106075
1772566813121592600,9.855592529296874,0.03098616562783718,0.02699749544262886,0.0031805410981178284
1772566813131621600,9.86562158203125,0.02762552537024021,0.022565729916095734,0.00827543530613184
1772566813141650700,9.875650634765625,0.020486392080783844,0.014885625801980495,0.008773412555456161
1772566813151679700,9.8856796875,0.012650839984416962,0.007521186955273151,0.006110250949859619
1772566813161709600,9.89570947265625,0.007589678280055523,0.001454903744161129,0.00669214129447937
1772566813171738600,9.905738525390625,0.004107062704861164,-0.006579320412129164,0.002398592419922352
1772566813181767700,9.915767578125,0.0057866545394063,-0.0038953442126512527,0.006523330695927143
1772566813191796500,9.92579638671875,0.0023631611838936806,-0.0037006670609116554,0.003290252760052681
1772566813201825500,9.935825439453126,-0.005698896013200283,-0.0006338544189929962,0.007103653624653816
1772566813211854600,9.9458544921875,-0.03037361428141594,0.04381164163351059,0.0751599371433258
1772566813221883600,9.955883544921875,-0.04201004281640053,0.030920084565877914,0.045969922095537186
1772566813231913500,9.96591357421875,-0.035792361944913864,0.032793350517749786,0.008855309337377548
1772566813241942500,9.975942626953126,-0.05304674804210663,-0.0026061637327075005,-0.02354113943874836
1772566813251971800,9.985971923828124,-0.05524305999279022,-0.028493154793977737,-0.024951815605163574
1772566813262000600,9.996000732421875,-0.04643113166093826,-0.044824760407209396,0.003035314381122589
1772566813272029700,10.00602978515625,-0.03595558926463127,-0.0576673187315464,0.011475138366222382
1772566813282058800,10.016058837890625,-0.028132285922765732,-0.03399421647191048,0.021052664145827293
1772566813292087600,10.026087646484376,-0.03301092982292175,-0.013667372986674309,0.021300870925188065
1772566813302117600,10.03611767578125,-0.05878323316574097,0.016507897526025772,0.003880738280713558
1772566813312146700,10.046146728515625,-0.07042098045349121,0.06016722321510315,-0.018074627965688705
1772566813322175700,10.05617578125,-0.08745165169239044,0.07373764365911484,-0.0636514276266098
