time,seconds_elapsed,z,y,x
1772608921192052500,0.080052490234375,0.5980465571701526,-0.39801644451767204,-0.05801007122434675
1772608921202049500,0.090049560546875,0.2591319977015257,-0.2696586524128914,-0.0524375317890197
1772608921212047400,0.10004736328125,0.0651075552046299,-0.08670987681224941,-0.06681874303668738
1772608921222045400,0.11004541015625,0.057195466905832285,-0.04553703168556094,0.027867519482225177
1772608921232043300,0.120043212890625,0.07467500949501991,-0.14462459790334103,0.2454055971007794
1772608921242041300,0.130041259765625,0.06888356661200523,-0.16815613400787113,0.39286220355965196
1772608921252039400,0.140039306640625,0.045748774740099904,-0.05451426499783992,0.4254996408574283
1772608921262037200,0.150037353515625,0.06974632092118263,0.08742752356231212,0.3645683484241366
1772608921272035300,0.160035400390625,0.08302139755785465,0.0786133718572557,0.2628039642125368
1772608921282033400,0.170033447265625,0.07604162167310714,-0.0006967500925064087,0.15040193919576703
1772608921292031200,0.18003125,0.21049568482637404,-0.05781695980504155,0.07265650927945971
1772608921302029300,0.190029296875,0.3376134137421846,-0.11180559349358081,0.031307357737794514
1772608921312026400,0.2000263671875,0.3427548682838678,-0.17610022488012908,-0.030763898510858416
1772608921322024400,0.2100244140625,0.36127193722724915,-0.19748773469328879,-0.12298106750249863
1772608921332022500,0.2200224609375,0.362549702078104,-0.19669760722890495,-0.22069223080053924
1772608921342020400,0.230020263671875,0.33088848940134047,-0.2043900614276528,-0.23892178803943095
1772608921352018400,0.240018310546875,0.22477789267897605,-0.22226342564001678,-0.24782003783136605
1772608921362016500,0.2500166015625,0.13340952253639698,-0.1954537446476519,-0.2407218231987208
1772608921372014300,0.260014404296875,0.1501999138176441,-0.13374109257832167,-0.2059852216646075
1772608921382012400,0.270012451171875,0.24928631099164483,-0.07806172932386397,-0.1268242258619517
1772608921392010500,0.280010498046875,0.15973931105732916,-0.08904708758816123,-0.09867175195850432
1772608921402008300,0.29000830078125,-0.016271920365095137,-0.12127718619406222,-0.08472060269117355
1772608921412005400,0.30000537109375,-0.23861235676407813,-0.14616715117022394,-0.07704283460490405
1772608921422003200,0.310003173828125,-0.33567338559031484,-0.15626827394589782,-0.07497713424675166
1772608921432001300,0.320001220703125,-0.17511223675608634,-0.007949351569265127,0.03135324270613491
1772608921441999400,0.329999267578125,0.09642799161970615,0.0031247078917920586,-0.027593305650725958
1772608921451997200,0.3399970703125,0.34058395398557184,-0.18637158965617417,-0.044817777500301595
1772608921461995300,0.349995361328125,0.4506324746787548,-0.2981947188064456,-0.04431238526143133
1772608921471993300,0.359993408203125,0.49758185738027094,-0.3069134473130107,-0.15836151989810168
1772608921481991200,0.3699912109375,0.5135767143696546,-0.2727520883835852,-0.23655571649521587
1772608921491989200,0.3799892578125,0.4540969359189272,-0.2802643637098372,-0.19912140030972658
1772608921501987600,0.389987548828125,0.1483697757810354,-0.39183877879604695,-0.09163396227620542
1772608921511985400,0.3999853515625,-0.08484218324422836,-0.4264410133607685,-0.0708296591784805
1772608921521982500,0.409982421875,-0.17684592868089674,-0.3852108850888908,-0.27291495079509914
1772608921531980300,0.419980224609375,-0.2982084550708532,-0.355785322509706,-0.39463768879957495
1772608921541978400,0.429978271484375,-0.3652496086865663,-0.315901202019304,-0.4336485335867852
1772608921551976400,0.4399765625,-0.2858978395521641,-0.25975232155695555,-0.3872946325603872
1772608921561974300,0.449974365234375,-0.10742167932093143,-0.2362885899916291,-0.3132172236323356
1772608921571972400,0.459972412109375,0.18836042538583278,-0.15538433071821928,-0.18462898377254605
1772608921581970200,0.46997021484375,0.4423550601989031,-0.10071282933205365,-0.0753561236269772
1772608921591968300,0.47996826171875,0.5571610045522452,-0.12545973257571458,0.0665374418772757
1772608921601966000,0.489966064453125,0.615050883463025,-0.06029796296581626,0.12314940980672835
1772608921611964200,0.499964111328125,0.7951239574968815,0.052234337367117405,0.11256240321025252
1772608921621962200,0.509962158203125,1.0063193150252103,0.09989990551397204,0.08248108013607561
1772608921631959300,0.519959228515625,1.1739625310748816,0.11131357219293712,0.09793686181269586
1772608921641957400,0.529957275390625,1.3627128325611353,0.1277254855506122,0.1195993891749531
1772608921651955500,0.53995556640625,1.546938350099325,0.09544701775833964,0.05685162190422415
1772608921661953300,0.549953369140625,1.7547358818829057,0.05458601505979895,-0.044607934141904115
1772608921671951400,0.559951416015625,1.9249848965167997,0.0758509214065969,-0.12257752820290624
1772608921681949200,0.56994921875,1.8992004669189453,0.15827347628846763,-0.11678301657997071
1772608921691947300,0.579947265625,1.7657026815772054,0.2433405543297529,-0.021673048756271598
1772608921701945300,0.5899453125,1.6886796476513146,0.2700762933030724,0.2060297183934599
1772608921711943200,0.599943115234375,1.638335361814499,0.2932112313054502,0.5064047038484365
1772608921721941200,0.609941162109375,1.5850626213103531,0.2861158662170172,0.728240040269494
1772608921731939300,0.619939208984375,1.61130940772295,0.3056554100759327,0.7956996384929865
1772608921741936000,0.62993603515625,1.7921394376039503,0.3320068259067833,0.6851325007531791
1772608921751934200,0.639934326171875,2.1836785028010604,0.36241087812930345,0.42121582605838775
1772608921761932000,0.64993212890625,2.6708798359423875,0.39781712255328894,0.061721931354328984
1772608921771930000,0.65993017578125,3.1479356226444244,0.40947745746970177,-0.19712781533971427
1772608921781928200,0.66992822265625,3.671448624616861,0.387283453579247,-0.33596126262098547
1772608921791926300,0.67992626953125,4.077959048974514,0.20667057358026503,-0.2943492223594337
1772608921801924400,0.68992431640625,4.041649133709073,-0.16597557509839533,-0.14890585541911422
1772608921811922400,0.69992236328125,3.4855800160467623,-0.48697716899663207,-0.06957023370191455
1772608921821920300,0.709920166015625,2.389137947025895,-0.6883309314683079,0.06465951917618512
1772608921831918300,0.71991845703125,0.8548679398417472,-0.8802668772533535,0.2554895495459437
1772608921841916400,0.72991650390625,-1.1679863792747258,-1.1302695198208093,0.413681119704619
1772608921851913200,0.739913330078125,-3.694589261707663,-1.3088266363337635,0.3445662285547703
1772608921861911300,0.749911376953125,-5.927681491497158,-1.3392390179932117,-0.06663951401226222
1772608921871909000,0.7599091796875,-7.455103824743628,-1.2983958432123064,-0.8025918091595172
1772608921881907200,0.7699072265625,-8.117063174375891,-1.3220163727745413,-1.4641595291256904
1772608921891905300,0.7799052734375,-8.043367823567985,-1.49158500392884,-1.7784065341971813
1772608921901903000,0.789903076171875,-7.44239924147129,-1.6085133472636342,-1.8165457107163965
1772608921911901200,0.799901123046875,-6.671802406987547,-1.6023101087093352,-1.6831874799758195
1772608921921899300,0.809899169921875,-6.217067173165082,-1.6334195327222347,-1.4212135368466376
1772608921931897000,0.81989697265625,-6.121994687807559,-1.6598314465686679,-1.0317330116145311
1772608921941895200,0.829895263671875,-6.250142344292998,-1.6258464671194552,-0.7344121530331671
1772608921951893200,0.839893310546875,-6.612887861204147,-1.6190733197227118,-0.7481520707026124
1772608921961890300,0.849890380859375,-7.163594575050473,-1.499641761395335,-0.9559478489205241
1772608921971888400,0.859888427734375,-7.630333550399541,-1.2671733142137527,-1.333214350876212
1772608921981886200,0.86988623046875,-7.893979226133227,-1.0939011523663997,-1.7072094299457967
1772608921991884300,0.87988427734375,-7.734298367264866,-0.8209846672013401,-1.7639761500455438
1772608922001882400,0.88988232421875,-7.241299161499739,-0.46027036385685205,-1.5251086494766175
1772608922011880200,0.899880126953125,-6.3574775143742555,-0.25666502306610345,-1.096103776977211
1772608922021878300,0.909878173828125,-5.157280471846461,-0.2046647867158055,-0.7647052922271191
1772608922031876400,0.91987646484375,-3.844223358336091,-0.20318448503017425,-0.7913195967778563
1772608922041874200,0.929874267578125,-2.766320570090413,-0.2325350826770067,-0.9093944797992706
1772608922051872300,0.939872314453125,-2.060616771277785,-0.06770663178712129,-0.7028440254673362
1772608922061870300,0.949870361328125,-1.441765326488018,0.24202187294661998,-0.24936807099096475
1772608922071867100,0.9598671875,-0.8103320480227469,0.6607803689807653,0.35026166371740397
1772608922081865200,0.969865234375,-0.22169687779843805,1.0339917503267526,0.963711030267924
1772608922091863000,0.979863037109375,0.43575989971756934,1.4360837737202643,1.517552535008639
1772608922101861000,0.989861083984375,1.3740478810459376,1.8280989319965242,1.8561352321743965
1772608922111859200,0.999859130859375,2.5108880114287135,2.002792651079595,1.9842796737894415
1772608922121857300,1.009857177734375,3.751706987202167,1.9435984115719793,2.0558958802357314
1772608922131855400,1.01985546875,4.888653500568866,1.7542983672484755,2.074339299421012
1772608922141853400,1.029853515625,5.795366778460145,1.5604472354918717,1.955834646680206
1772608922151851300,1.039851318359375,6.661022654297947,1.3853306148216127,1.8278754985041916
1772608922161849300,1.049849365234375,7.358468327853084,1.161609829980135,1.9189152212142944
1772608922171847400,1.059847412109375,7.728796847239137,0.8830705364972352,2.1662011521689593
1772608922181845200,1.06984521484375,7.7040721558272836,0.6486953789114952,2.3053405966594815
1772608922191842300,1.07984228515625,7.371130241027474,0.566618568727374,2.2611022264823317
1772608922201840000,1.089840087890625,6.8704702913761135,0.5906129000380634,1.9878192460924387
1772608922211838200,1.099838134765625,6.352834072482586,0.6630261020809411,1.5648551150619983
1772608922221836300,1.109836181640625,6.00821048771739,0.6933417453676461,1.1358279576655477
1772608922231834000,1.119834228515625,5.675398336777091,0.6759387751460075,0.8587939541790633
1772608922241832200,1.129832275390625,5.503559422603249,0.7714405918315053,0.6666903967421501
1772608922251830300,1.139830322265625,5.745578372940421,0.9567615033909678,0.6126510557796806
1772608922261828000,1.149828125,6.124620944657922,1.1238631599098443,0.6911392668873071
1772608922271826200,1.159826171875,6.535521128407121,1.1966542553544044,0.7998183258581906
1772608922281824300,1.16982421875,6.9516054367959494,1.2694620096728204,0.8867840040624141
1772608922291821300,1.1798212890625,7.347594467139244,1.3429095231994985,0.8433652066398412
1772608922301819400,1.1898193359375,7.516412572187185,1.3578843894913792,0.7585970384798943
1772608922311817200,1.199817138671875,7.451378666740656,1.3788681408092378,0.7197905571583658
1772608922321815300,1.209815185546875,7.242734747260808,1.5333032079786062,0.7503202085219324
1772608922331813400,1.2198134765625,6.948394073534011,1.6175392420232295,0.7110419449701905
1772608922341811200,1.229811279296875,6.44122722620666,1.48445179104805,0.583187791538611
1772608922351809300,1.239809326171875,5.802623033198714,1.442528127554059,0.31866599055752154
1772608922361807400,1.249807373046875,5.345214780774712,1.5824544846385717,-0.11139116747379302
1772608922371805200,1.25980517578125,5.149949398306012,1.8095675422668456,-0.5796511418450624
1772608922381803300,1.26980322265625,5.081887669470906,1.8202414964944122,-0.8206359998941422
1772608922391801300,1.27980126953125,4.699893846732378,1.3255226273298262,-0.6354791197899728
1772608922401798100,1.289798095703125,3.7863784876108166,0.47227819703668356,0.07941409378089011
1772608922411796200,1.299796142578125,1.9325258134156464,-0.5254650128230453,0.9670813104186207
1772608922421794300,1.309794189453125,-0.8720289180010556,-1.3436235166877508,1.3901815619841218
1772608922431792400,1.31979248046875,-3.7427000894039866,-1.6389757055446506,0.8616531430024653
1772608922441790500,1.32979052734375,-6.177369369027018,-1.5142618229001759,-0.3601600304625928
1772608922451788300,1.339788330078125,-8.250150040829181,-1.365411862386763,-1.6732172901034355
1772608922461786400,1.349786376953125,-9.49407633496821,-1.5185148041695355,-2.48495277518332
1772608922471784400,1.359784423828125,-9.880500833630562,-1.9638427426993845,-2.443518064250052
1772608922481782300,1.3697822265625,-10.093410593861341,-2.4301316361933947,-1.9474710152216255
1772608922491780400,1.3797802734375,-10.388349818003178,-2.7262875426486133,-1.6919605690181254
1772608922501778400,1.3897783203125,-11.018251649117468,-2.750486164359748,-1.846115650202334
1772608922511776300,1.3997763671875,-12.047518709009886,-2.5879730046749114,-2.013440009561181
1772608922521773300,1.409773193359375,-12.805545400255918,-2.3820324989348647,-1.9190020227149127
1772608922531771100,1.419771240234375,-13.117379645097255,-2.0780761478617786,-1.5957051574863492
1772608922541769200,1.429769287109375,-12.810524357712268,-1.8911147756189106,-1.215897519680485
1772608922551767300,1.439767333984375,-11.960154898333549,-1.7539239809781313,-0.8334389289744197
1772608922561765000,1.44976513671875,-10.773996318030356,-1.7070502938613294,-0.6117953522657975
1772608922571762700,1.4597626953125,-9.397565925762057,-1.7358602087602018,-0.4669521431757137
1772608922581760800,1.4697607421875,-8.001943926289677,-1.8758520322963594,-0.49871429547630247
1772608922591758800,1.4797587890625,-6.494705133894086,-1.986084092862904,-0.7232709466200321
1772608922601757000,1.4897568359375,-4.976648010364174,-1.862531070691347,-0.980895097041875
1772608922611755000,1.499755126953125,-3.6369396212935445,-1.6101029545426369,-1.0457003813643009
1772608922621751800,1.509751708984375,-2.628309691238403,-1.3134595568314194,-0.8553685828402638
1772608922631750000,1.51975,-1.726765924939513,-0.9375245957404374,-0.5661622032620013
1772608922641747700,1.529747802734375,-0.9963245752334594,-0.5422346535772085,-0.27165947084128855
1772608922651745800,1.539745849609375,-0.6293266615748405,-0.20476473995894193,0.04330350047983229
1772608922661743900,1.549743896484375,-0.27742870189249513,0.09648001406788825,0.22700039103403685
1772608922671741700,1.55974169921875,0.27417642209827897,0.3609998422876,0.3904633257243782
1772608922681739800,1.56973974609375,1.0771703823179006,0.5894000171169639,0.4477531929153949
1772608922691737900,1.57973779296875,2.1606226213842628,0.7696604304164648,0.36821116190589964
1772608922701735700,1.589735595703125,3.1912159614443776,0.8593392400369048,0.20484196991361678
1772608922711733800,1.599733642578125,3.971951912626624,0.8594877085968852,0.05018997205793857
1772608922721731800,1.60973193359375,4.689637241134047,0.9056851038873195,0.04332571231164038
1772608922731729000,1.61972900390625,5.402374007323384,0.9727873400405048,0.20463329559899865
1772608922741727000,1.62972705078125,6.083356621855497,1.0848238196805118,0.5521726947456598
1772608922751724800,1.639724853515625,6.62252312003374,1.2564184037044643,1.0342988435145466
1772608922761723000,1.649722900390625,6.848087194654345,1.423911397628486,1.556047246967256
1772608922771721000,1.659720947265625,6.775281486162543,1.5518588553667068,2.007525817081332
1772608922781718800,1.66971875,6.644563102406263,1.5984773986786602,2.295178975868225
1772608922791716900,1.679716796875,6.38223552353382,1.557873293350637,2.3811402262702583
1772608922801715000,1.68971484375,6.094923141008615,1.5292539325878023,2.2424299669772387
1772608922811712800,1.699712646484375,6.004148645105958,1.554480436041951,1.9682611436635256
1772608922821710800,1.7097109375,6.0181847692430015,1.5955623880147933,1.6307663878649472
1772608922831709000,1.719708984375,6.171123168113827,1.5384952236637472,1.3026732282705604
1772608922841705700,1.729705810546875,6.47179304486215,1.49795424669981,1.048588138695061
1772608922851703800,1.739703857421875,6.978756478571891,1.5426821539595723,0.8389184563640505
1772608922861701600,1.74970166015625,7.618114704817533,1.653159713719785,0.7172229716926812
1772608922871699700,1.75969970703125,8.160753847542404,1.734149605450034,0.6843783213850111
1772608922881697800,1.76969775390625,8.508292442971467,1.8033818393692373,0.7776986293129623
1772608922891695600,1.779695556640625,8.674750248628854,1.885028441442549,0.9626531187128275
1772608922901693700,1.789693603515625,8.583946526631712,1.9462427886009215,1.1515222973383963
1772608922911692000,1.799692138671875,8.089430486562847,1.8696520086124537,1.189216725764796
1772608922921689900,1.80968994140625,7.372574010095,1.6160840747788547,0.9302511706713587
1772608922931688000,1.81968798828125,6.557037963688373,1.411354113872349,0.4419241214357316
1772608922941685800,1.829685791015625,5.550353322482109,1.2819082342699168,-0.15616466744095087
1772608922951682800,1.839682861328125,4.545214157152175,1.1770233799502252,-0.7860744626659899
1772608922961681000,1.849680908203125,3.9109243202120063,1.1335086478725076,-1.2107296155232936
1772608922971678700,1.8596787109375,3.658732935428619,0.9540189266845583,-1.1074065306276082
1772608922981676800,1.8696767578125,3.176623372468352,0.3258297447070479,-0.4390833085192367
1772608922991675000,1.8796748046875,2.2243267395317554,-0.5396253478616476,0.3054195189608261
1772608923001672700,1.889672607421875,0.5878022265315056,-1.3188991175368427,0.8155421838864684
1772608923011670800,1.8996708984375,-1.9296832834661006,-1.9762568185925482,0.8537214732203632
1772608923021668900,1.9096689453125,-4.474095963355898,-2.185925404945016,0.2860710772272199
1772608923031666700,1.919666748046875,-6.706971335524321,-2.142408627040684,-0.6334888958208262
1772608923041664800,1.929664794921875,-8.899331157431005,-2.480957275806367,-1.58152509483397
1772608923051662600,1.93966259765625,-10.744592528891562,-3.3354777173846957,-2.5773475657641884
1772608923061660000,1.949659912109375,-12.177415839511156,-3.9350104214593764,-3.2716169473707675
1772608923071658000,1.959657958984375,-13.59063428595066,-3.8593899478077884,-3.241249573896825
1772608923081655800,1.96965576171875,-14.850601614308356,-3.3228517523065206,-2.647060568937659
1772608923091654000,1.97965380859375,-15.722731654596327,-2.5443282164767385,-1.723383296763897
1772608923101652000,1.98965185546875,-15.898685602873563,-1.5494871577993035,-0.8030643220420927
1772608923111649800,1.99964990234375,-14.991976416635513,-0.7026195690616965,-0.005878682775050401
1772608923121647900,2.00964794921875,-13.212752574706077,-0.5340265049412847,0.7047321773014962
1772608923131645700,2.019645751953125,-11.033657308042049,-0.7971791364610195,1.1280587119035421
1772608923141643800,2.029643798828125,-8.809868328648806,-1.0771630757942796,0.9733788031276315
1772608923151641900,2.039641845703125,-6.628837125486135,-1.1229475063696504,0.2821600777959451
1772608923161639700,2.0496396484375,-4.664480588045716,-1.1068863061457872,-0.5466157547382637
1772608923171636700,2.05963671875,-3.109173638051748,-1.1711971580147742,-1.1664590235769747
1772608923181634800,2.069634765625,-1.7653128054767846,-1.1452008392319082,-1.4764235290236771
1772608923191632600,2.079632568359375,-0.5288321511685848,-0.9489251106768846,-1.5512557749070226
1772608923201630700,2.089630615234375,0.5965004967719316,-0.6546326600059866,-1.46855674117133
1772608923211628800,2.09962890625,1.6372715319752693,-0.24140286426544189,-1.2494637622609734
1772608923221627000,2.109626953125,2.4725123958051203,0.22375848650336264,-0.8989152444262057
1772608923231625000,2.119625,2.970801524671912,0.655665217924118,-0.561695871502906
1772608923241622800,2.129622802734375,3.1001649866878984,0.9515849775359034,-0.2071449130937457
1772608923251620900,2.139620849609375,2.949486349442601,1.0873948392122983,0.25379385154396294
1772608923261619000,2.149618896484375,2.673968449607491,1.1918924477800725,0.748761215576902
1772608923271616800,2.15961669921875,2.4873072293549776,1.260856093890965,1.2456190695315599
1772608923281613800,2.16961376953125,2.4251041634202,1.2371914329260587,1.693252070133388
1772608923291612000,2.17961181640625,2.5206664781212806,1.1560580410718917,1.951900375971198
1772608923301609700,2.189609619140625,2.668901813867688,1.0189914573326706,1.9754744360432028
1772608923311607800,2.19960791015625,2.8098265343397855,0.8691372882127761,1.7507463738553224
1772608923321605600,2.209605712890625,3.1036008063554763,0.7636243651226162,1.3854729459017514
1772608923331603700,2.219603759765625,3.578383387428522,0.6541855007603764,1.0865239015966652
1772608923341601800,2.229601806640625,4.174302284920215,0.5168097049415111,0.8355281563386321
1772608923351599600,2.239599609375,4.730874091407657,0.3921265096962452,0.6552974075250327
1772608923361597700,2.24959765625,5.181183910003305,0.3728615449950099,0.6263675195083022
1772608923371595800,2.259595703125,5.697394480007887,0.3846455062910914,0.6891096607558429
1772608923381593600,2.269593505859375,6.232538883063197,0.4291767219349742,0.8053302211474627
1772608923391591000,2.2795908203125,6.672287560155987,0.5072217923849821,0.979290803650394
1772608923401588700,2.289588623046875,6.995051195290684,0.6273480549782514,1.175493101643026
1772608923411586800,2.2995869140625,7.2621046336412425,0.7636208579912781,1.3043155886501072
1772608923421585000,2.3095849609375,7.443159119927882,0.8186877884358167,1.37455612282902
1772608923431582700,2.319582763671875,7.486499079960584,0.8179211879774928,1.4010603911340236
1772608923441580800,2.329580810546875,7.413465407931804,0.8178539679601788,1.410834473912418
1772608923451579000,2.339578857421875,7.0271385244250295,0.890702638810873,1.4153046050637959
1772608923461576700,2.34957666015625,6.358354881730675,1.050156703186035,1.3910178666777908
1772608923471574800,2.35957470703125,5.69955195030272,1.2449629437103866,1.3290684832431374
1772608923481572900,2.36957275390625,5.166534622403979,1.4718009837895631,1.1532801007911562
1772608923491570700,2.37957080078125,4.836901686021685,1.7203864530354738,0.9903254809491335
1772608923501567700,2.389567626953125,4.772722936099767,1.7502306794181466,0.7300912941593677
1772608923511565600,2.399565673828125,4.717192772057652,1.5788181739628313,0.3220252378575504
1772608923521563600,2.409563720703125,4.648347783890366,1.4985823154702782,0.03484108482189476
1772608923531561700,2.419561767578125,4.713835862845182,1.4898834607079625,-0.0774273038778454
1772608923541559800,2.429559814453125,4.7393093267977235,1.40342624348253,0.08439772741235792
1772608923551558000,2.439557861328125,4.476951352787018,1.0744678453609346,0.5584902073293924
1772608923561556000,2.449555908203125,3.6864632383972404,0.39835342138707636,1.0549437182668595
1772608923571554000,2.459553955078125,2.022341693419218,-0.41689679381549355,1.212955767140165
1772608923581551900,2.4695517578125,-0.3877946179717779,-1.0412012433141469,0.6104056880056857
1772608923591550000,2.479550048828125,-3.085275460591912,-1.5695309979185461,-0.7095087440535426
1772608923601548000,2.489548095703125,-5.387869681152701,-2.142961000226438,-2.2321859285995362
1772608923611544800,2.499544921875,-7.056543482607602,-2.4626088414281604,-3.5278833265081047
1772608923621543000,2.50954296875,-8.441589727529882,-2.3643171017631888,-4.276709350949526
1772608923631540700,2.519540771484375,-9.486274721306561,-2.417044191083312,-4.4690039009138935
1772608923641538800,2.529538818359375,-10.450327843010426,-2.648920517590642,-3.96893753324151
1772608923651537000,2.539536865234375,-11.499958476495742,-2.746568406394124,-3.010828122372925
1772608923661534700,2.54953466796875,-12.17589725164175,-2.4860718423411248,-2.219467024540901
1772608923671532800,2.55953271484375,-12.387448583000898,-2.0844097347974775,-1.6669509231850503
1772608923681531000,2.56953076171875,-12.251712078821658,-1.8159052208557724,-1.2298019071966408
1772608923691528700,2.57952880859375,-11.774057157182693,-1.7024004222288727,-0.908325827654451
1772608923701526800,2.58952685546875,-11.075924085885285,-1.6412983032733202,-0.7523652314182371
1772608923711524900,2.59952490234375,-10.15240288105607,-1.585639252154529,-0.6896896526008844
1772608923721522000,2.60952197265625,-9.458912082606554,-1.6634914303809403,-0.6671602792762219
1772608923731520000,2.61952001953125,-8.96590644710064,-1.8430235294058919,-0.7538132382694631
1772608923741517800,2.629517822265625,-8.31829944794774,-1.9682795561030506,-0.9945736399129033
1772608923751516000,2.639515869140625,-7.472099967730045,-2.0282693299025296,-1.286876670332253
1772608923761514000,2.649513916015625,-6.538744766628742,-1.9763596944451332,-1.639975384106487
1772608923771511800,2.65951171875,-5.446228931140899,-1.675558592532575,-1.934882313413918
1772608923781510000,2.669510009765625,-4.150836069136858,-1.34136843123734,-1.8769260912686585
1772608923791508000,2.679508056640625,-2.83391409689188,-1.1123591845989227,-1.3414967337921262
1772608923801505800,2.689505859375,-1.5440098954319954,-0.998891503112018,-0.5709678499780595
1772608923811503900,2.69950390625,-0.3514116374701261,-0.8276800731867552,0.22669643965139985
1772608923821502000,2.709501953125,0.6563572918415069,-0.5652475726351142,0.981196271945536
1772608923831498800,2.719498779296875,1.5341636242002248,-0.27986411234587427,1.6105764172732828
1772608923841496800,2.729496826171875,2.3981524436086414,0.04045388320237398,2.067377643714845
1772608923851495000,2.739494873046875,3.315195392334461,0.32072686861008404,2.3702405004628
1772608923861493000,2.749492919921875,4.07958928052485,0.484515455058217,2.5143033728301525
1772608923871491000,2.759490966796875,4.671548042213916,0.6255486043408512,2.4887623965993524
1772608923881489000,2.769489013671875,5.102438290068507,0.8476935181677341,2.3143019017502664
1772608923891487000,2.779487060546875,5.372436549699306,1.0328566088169813,2.0232944640994073
1772608923901485000,2.789485107421875,5.577883134442567,1.0777338614195584,1.6687839838311076
1772608923911483000,2.79948291015625,5.827298624771833,1.0577502270549535,1.3185514731429517
1772608923921481000,2.80948095703125,6.0650201701760285,1.1263564380303024,1.0296615391027182
1772608923931479000,2.81947900390625,6.325867739623785,1.279696403439343,0.7940932262096554
1772608923941475800,2.829475830078125,6.6850137707382435,1.426630593459308,0.6125416040558368
1772608923951474000,2.839473876953125,7.194606383907795,1.5752166423395275,0.5157788275238127
1772608923961471700,2.8494716796875,7.651568646129966,1.7846379759326576,0.609442980453372
1772608923971469800,2.8594697265625,8.006230809828638,1.947306618440151,0.8732492535762488
1772608923981468000,2.869468017578125,8.187758174324035,2.106087605859339,1.1773530502960086
1772608923991465700,2.8794658203125,8.26111976313293,2.264887590239942,1.4396562253795564
1772608924001463800,2.8894638671875,8.332219836750626,2.3358131840735674,1.6552448494307697
1772608924011462000,2.8994619140625,8.303150978654623,2.23133954090327,1.7783559730537235
1772608924021459700,2.909459716796875,8.146201006054877,1.9656071220234035,1.7060940160498022
1772608924031457800,2.919457763671875,7.916220284035801,1.7134987393483518,1.3498219329364598
1772608924041455900,2.929455810546875,7.5559168995797625,1.6620529220104217,0.8240693353436886
1772608924051453000,2.939452880859375,6.978673476463556,1.641863535940647,0.31377679374385625
1772608924061451000,2.949450927734375,6.538087179502845,1.5692060037478803,-0.130086953984946
1772608924071448800,2.95944873046875,6.323612069651484,1.60771898201555,-0.3718809364598244
1772608924081447000,2.969447021484375,6.2137739768385885,1.718962849973142,-0.478432774143666
1772608924091445000,2.979445068359375,6.213312789067626,1.694844892282784,-0.5819906907085329
1772608924101442800,2.98944287109375,6.226430044794082,1.541248321764171,-0.7504925694141537
1772608924111441000,2.99944091796875,6.224910287880897,1.3783409020647406,-0.8473301647480577
1772608924121439000,3.00943896484375,6.183356626743078,1.2523781884029508,-0.7056489268202334
1772608924131436800,3.019436767578125,5.702622443789243,1.1733286170855164,-0.2456095221750438
1772608924141435000,3.029434814453125,5.058782103693485,1.1012301800802349,0.39698023333773014
1772608924151433000,3.039432861328125,4.169342032164335,0.5719964623734355,1.0926453070864082
1772608924161429800,3.0494296875,2.0676883170992135,-0.7791992431342601,1.4840461328566072
1772608924171427800,3.059427734375,-1.250014674142003,-2.1773566063031553,1.1460850747205316
1772608924181426000,3.069426025390625,-5.190107805693149,-2.5778514236330983,0.08696710297632962
1772608924191424000,3.079424072265625,-8.673625043991208,-2.1517697451040148,-1.3763130494989453
1772608924201422000,3.089422119140625,-11.231335596871375,-1.7326818709850311,-2.6260803247511384
1772608924211420000,3.099419921875,-12.813641028428076,-1.8336057127192615,-3.12205708502233
1772608924221418000,3.10941796875,-13.385788589709996,-2.354710192245245,-2.86986190084666
1772608924231416000,3.119416015625,-12.932060487103461,-2.7781267432183028,-1.967404234573245
1772608924241414000,3.129413818359375,-12.259063026106357,-3.020253537844121,-0.8588065213996916
1772608924251412000,3.139411865234375,-12.20187574250698,-3.1130799978405235,-0.10563326153419911
1772608924261409800,3.149409912109375,-12.8533242195189,-3.066114540787041,-0.2793111546382308
1772608924271406800,3.15940673828125,-13.64013159956932,-2.866032697947323,-0.9832299697302281
1772608924281405000,3.169405029296875,-13.8884014269948,-2.6442244687288996,-1.543113238853216
1772608924291402800,3.17940283203125,-13.586219976639747,-2.374370586004853,-1.576010861457139
1772608924301400800,3.18940087890625,-12.816890970134734,-2.116489172886312,-1.3582824488982557
1772608924311399000,3.19939892578125,-11.36683712325096,-1.8083645962178707,-1.1211804966971277
1772608924321396700,3.209396728515625,-9.441156061163545,-1.6317828714311122,-0.9118890730939805
1772608924331394800,3.219394775390625,-7.499220029845834,-1.6359510970264672,-0.8012098532818257
1772608924341393000,3.229392822265625,-5.755690017110109,-1.6252727588847278,-0.9047653586938976
1772608924351390700,3.239390625,-4.105204198774695,-1.4407663785785436,-1.1690180604100227
1772608924361388800,3.249388916015625,-2.671869431501627,-1.1498922119185329,-1.308204997304082
1772608924371387000,3.259386962890625,-1.4101187268584965,-0.8402434944227337,-0.9731537622001022
1772608924381384000,3.269384033203125,-0.3877028480350971,-0.4232759734585881,-0.20130462610032407
1772608924391382000,3.279382080078125,0.561372484767437,0.06361205594986677,0.586694411420077
1772608924401379800,3.2893798828125,1.4171107777029275,0.5842798976242541,1.216781243712455
1772608924411378000,3.2993779296875,2.3215794915378094,0.9851976165413856,1.6370713332280515
1772608924421376000,3.3093759765625,3.0664550247877833,1.0814593116834759,1.7483046797916293
1772608924431373800,3.319373779296875,3.3993922634124756,0.9372779275029897,1.5763981072090565
1772608924441372000,3.329371826171875,3.5041736573576925,0.7695365117758513,1.1922028289034963
1772608924451369700,3.33936962890625,3.5962884619534012,0.6855024300441146,0.7231979544490575
1772608924461367800,3.349367919921875,3.8519571674585342,0.5861819318532944,0.275470188235864
1772608924471366000,3.359365966796875,4.110251545292138,0.5175263287782669,0.00558649489544332
1772608924481363700,3.36936376953125,4.351519385001063,0.5558484606489539,0.005884235733002424
1772608924491361000,3.379361083984375,4.568583926823735,0.7483154445707798,0.2613504774685949
1772608924501359000,3.389359130859375,4.6866327986210585,1.0378092627882958,0.7605318789999932
1772608924511357000,3.39935693359375,4.778434884005785,1.291850659352541,1.3895745360016822
1772608924521355000,3.40935498046875,5.0150861698299645,1.4550938868775962,1.9553953784801066
1772608924531353000,3.41935302734375,5.393773352238536,1.5658336047053336,2.298517911032587
1772608924541351000,3.429350830078125,5.888423247820138,1.6598799618855118,2.3059907311312853
1772608924551349000,3.439348876953125,6.489630314847827,1.7300556141346692,2.0193585859552026
1772608924561346800,3.449346923828125,6.977798447194695,1.8015759589910507,1.596402345970273
1772608924571345200,3.45934521484375,7.2651073225885625,1.759269433659315,1.1227113595262168
1772608924581343200,3.46934326171875,7.54797792327404,1.5770865278646349,0.6986493502564728
1772608924591341000,3.479341064453125,7.847587477314471,1.368809688131511,0.3890616787655279
1772608924601338000,3.489338134765625,8.039625129908323,1.2241408126950264,0.1830065336698666
1772608924611336200,3.499336181640625,8.123674116948246,1.2185536602124571,0.05665350551623851
1772608924621334000,3.509333984375,8.12256761701107,1.33733990637362,-0.05515512018464505
1772608924631332000,3.51933203125,8.004365600478648,1.4357368599787355,-0.13600293656308204
1772608924641330200,3.529330078125,7.685035446923971,1.6058625404939055,-0.15551734598074107
1772608924651328000,3.539327880859375,7.479694660642743,1.8021020286917686,-0.09485310698579996
1772608924661326000,3.549326171875,7.440036019471287,1.8008093585327267,0.019093115265667437
1772608924671324000,3.559323974609375,7.355857853093743,1.6310738463789223,0.24269600934851912
1772608924681322000,3.569322021484375,7.1313441643089055,1.4601362649589775,0.5291769825508817
1772608924691320000,3.579320068359375,6.835193226289749,1.2784119165867567,0.6551987694561481
1772608924701318100,3.589318115234375,6.332860374990105,1.033155591763556,0.4355200996123254
1772608924711315200,3.599315185546875,5.7599137722849845,0.8277540152058005,-0.08547343035247176
1772608924721313300,3.609313232421875,5.366776039719581,0.7920251146987081,-0.5586142721004784
1772608924731311000,3.61931103515625,4.822296237564086,0.6589443857252597,-0.49773730367030944
1772608924741309200,3.62930908203125,3.717999363389611,0.09621347208619117,0.20832400334309786
1772608924751307000,3.63930712890625,1.7019436183720826,-0.799444158783555,1.214518559477478
1772608924761305000,3.64930517578125,-1.0453437499463558,-1.7303516744717955,1.8613040131144225
1772608924771303200,3.65930322265625,-4.382855603507161,-2.463206515060365,1.6154688654899596
1772608924781301000,3.669301025390625,-7.558250310963392,-2.8406267462730406,0.4724608601272106
1772608924791299000,3.679299072265625,-10.01734091513753,-3.041597354646027,-1.1297299330513924
1772608924801297200,3.689297119140625,-11.686304054927826,-3.448683533065021,-2.8168293988391757
1772608924811295000,3.699294921875,-12.322238151943683,-4.000580041217804,-4.196130670368671
1772608924821292300,3.709292236328125,-12.380507970082759,-4.599460418863594,-5.075189048615098
1772608924831290400,3.719290283203125,-12.468006220793724,-4.817231355389953,-5.127830505478382
1772608924841288200,3.7292880859375,-12.888754429340361,-4.492942702645063,-4.343040894991159
1772608924851286300,3.739286376953125,-13.726658374899625,-3.834279179687798,-3.1565514752984045
1772608924861284000,3.7492841796875,-14.663484466981886,-2.8534938266307113,-2.0673317587465045
1772608924871282200,3.7592822265625,-15.446907465291023,-1.872976769120991,-1.204556625976786
1772608924881280300,3.7692802734375,-15.812107389616965,-1.2448241197615861,-0.4757856937009841
1772608924891278000,3.779278076171875,-14.744529596030711,-1.037974682483077,-0.04943893449492752
1772608924901276200,3.789276123046875,-12.402291931867598,-1.1064368088126182,0.08682100903652608
1772608924911274200,3.799274169921875,-9.53141325519383,-1.269808046631515,0.02884242892898619
1772608924921272000,3.80927197265625,-6.924081470054388,-1.4568316704556346,-0.020355572949536143
1772608924931269000,3.81926904296875,-4.8585313340276475,-1.5291355669051407,-0.20869239826407282
1772608924941267000,3.829266845703125,-3.1010698265731333,-1.443238613910973,-0.5174504870630801
1772608924951265000,3.83926513671875,-1.8037620708584785,-1.2401499904707074,-0.6125646196052432
1772608924961263000,3.84926318359375,-0.8258914362043142,-0.9524088611394166,-0.6159720899611711
1772608924971261000,3.859260986328125,0.10865911216139792,-0.566971035426855,-0.44519163533169775
1772608924981259000,3.869259033203125,1.0731056170970201,-0.17192250080406665,-0.11446377985216677
1772608924991257000,3.879257080078125,1.9428595759034155,0.16864508656859398,0.33092535081300883
1772608925001255000,3.8892548828125,2.588565125349164,0.4799272504851222,0.7614411758646369
1772608925011253000,3.8992529296875,2.9821693063825365,0.7228738370612263,1.1188380252242087
1772608925021251300,3.909251220703125,3.2431963240504262,0.8630223124638199,1.405470316530764
1772608925031249200,3.919249267578125,3.3333237542212006,0.9553127658873796,1.613300435409695
1772608925041246200,3.92924609375,3.293232566851377,1.1127785790547728,1.7261533459991216
1772608925051244000,3.939244140625,3.577450490492582,1.2998802365511655,1.6271742085918783
1772608925061242000,3.9492421875,4.340505239033699,1.4226812713116406,1.2930524363577365
1772608925071240200,3.959240234375,5.381986468333006,1.3902517046108842,0.9354898019772022
1772608925081238000,3.969238037109375,6.395746747013926,1.3222288464814425,0.6446909655757248
1772608925091236000,3.979236083984375,7.292581020447612,1.3795797962099312,0.5238849770899862
1772608925101234200,3.989234130859375,8.02112851923108,1.4635072026968001,0.5280615321222693
1772608925111232000,3.99923193359375,8.384943126678467,1.4684312150955199,0.5606964852020144
1772608925121230000,4.00922998046875,8.471666885885595,1.4766791112199424,0.6286538768798112
1772608925131228200,4.019228271484375,8.278827269259095,1.5544661152556538,0.7651014519378543
1772608925141226000,4.02922607421875,7.967944626054167,1.5957167017936706,0.8901358717735857
1772608925151223300,4.039223388671875,7.442256618130207,1.7014850609496235,0.9263709682371467
1772608925161221000,4.04922119140625,6.4857940976858135,1.887557667659223,0.9523348460551351
1772608925171219200,4.05921923828125,5.744271966516971,2.0296049624204633,0.9394969187267124
1772608925181217300,4.06921728515625,5.656327725604176,2.0986419660285116,0.7121867310911416
1772608925191215000,4.079215087890625,6.120160458117723,2.0908868218570946,0.49988808849602934
1772608925201213200,4.089213134765625,6.7776949770450585,1.9679595303684472,0.43180802028663456
1772608925211211300,4.099211181640625,7.373385326477885,1.834705490654707,0.4630863345930353
1772608925221209000,4.109208984375,7.889427554178237,1.8263877441644667,0.5282267326213419
1772608925231207200,4.119207275390625,8.19666628792286,1.9709712794050573,0.6212875858955085
1772608925241205200,4.129205322265625,8.29211462085545,2.12602330942899,0.7312523007627576
1772608925251203000,4.139203125,8.192622565490007,2.0784826828360554,0.6666682579755783
1772608925261200100,4.1492001953125,7.9739593562990425,1.9299027714356778,0.49304706349484617
1772608925271198000,4.159197998046875,7.554606401503086,1.805955781510472,0.24617617961447685
1772608925281196000,4.169196044921875,6.554204201567172,1.728963142722845,0.0020202355149202046
1772608925291194000,4.179194091796875,5.241358100458979,1.7402701341569422,-0.06097659287974238
1772608925301192000,4.18919189453125,4.2949774135679,1.9885019676595925,-0.045954151985934
1772608925311190000,4.19918994140625,3.9121792887091633,1.993296216198802,0.12387702082837931
1772608925321188000,4.20918798828125,3.2959961863458154,1.2107795190796256,0.7559104297444224
1772608925331186200,4.219186279296875,1.7317992429316043,-0.1985714382767677,1.7355141718015075
1772608925341184300,4.229184326171875,-0.8735077583819627,-1.7509268449887632,2.2938499192215502
1772608925351182300,4.239182373046875,-4.087009201392531,-2.812006216466427,1.935362644276768
1772608925361180200,4.24918017578125,-7.335738025128841,-3.22427827309072,0.7759818154577165
1772608925371177200,4.25917724609375,-10.209007980853318,-3.431495374637842,-1.033993284696713
1772608925381175000,4.269175048828125,-12.470795559251307,-3.8985388858914374,-2.837020830735564
1772608925391173000,4.279173095703125,-13.669177661311625,-4.322719114713371,-4.035355294261873
1772608925401171200,4.289171142578125,-14.499723645323513,-4.630959718976914,-4.458747003054619
1772608925411169000,4.2991689453125,-15.576512334847449,-4.707287464115024,-4.202400544418395
1772608925421167000,4.3091669921875,-16.377314337980746,-4.223972909279167,-3.445607486620545
1772608925431165200,4.319165283203125,-16.811043608653545,-3.395814112664759,-2.4899723569110033
1772608925441163000,4.3291630859375,-16.910918525856733,-2.5987770150229332,-1.5091213912717998
1772608925451161000,4.3391611328125,-16.174706191533804,-1.8854513430297373,-0.5722510581890121
1772608925461159200,4.3491591796875,-14.508212072205543,-1.3481445012435316,0.07197842735480517
1772608925471157000,4.359156982421875,-12.07856266657114,-1.1494196259707212,0.39130050720088183
1772608925481154300,4.369154296875,-9.423212992715834,-1.2378557420536875,0.481052856981568
1772608925491152100,4.379152099609375,-7.071759171918034,-1.4615215818375349,0.20631817994602022
1772608925501150200,4.389150146484375,-5.064942379888892,-1.7602613673061132,-0.5559044651525095
1772608925511148300,4.399148193359375,-3.4643332298785445,-1.8698031075209378,-1.385541773354262
1772608925521146000,4.40914599609375,-2.114707842427492,-1.8742773303255438,-1.9583488214582203
1772608925531144200,4.419144287109375,-0.8754162223517894,-1.8504799828916787,-2.289893436680734
1772608925541142300,4.429142333984375,0.22068974658250806,-1.722797313569486,-2.3499141901403666
1772608925551140000,4.43914013671875,1.096017121607065,-1.5491162786602972,-2.17862531106472
1772608925561138200,4.44913818359375,1.4918676202625036,-1.3123220772340893,-1.8187398597598075
1772608925571136500,4.459136474609375,1.293562723967433,-0.9904738033786415,-1.2835377351678907
1772608925581134300,4.46913427734375,0.6692968529134988,-0.5209998501077294,-0.5129877355005592
1772608925591131400,4.47913134765625,-0.09938976403474807,-0.02643763280957937,0.3731339687282219
1772608925601129500,4.48912939453125,-0.8232534889161587,0.19847849929630756,1.2454150713920593
1772608925611127300,4.499127197265625,-1.349814772543311,0.14645955824553966,2.108994579347223
1772608925621125400,4.50912548828125,-1.3433137200862169,0.0006935352221131325,2.435672173055261
1772608925631123200,4.519123291015625,-0.6934767699241637,0.060872401852905746,2.1220272255301476
1772608925641121300,4.529121337890625,0.5612643482178449,0.28835779992491006,1.3265700905561446
1772608925651119400,4.539119384765625,2.2050176434278486,0.6223661749124526,0.4962019107965752
1772608925661117400,4.549117431640625,4.035286612939834,1.0160583264902234,-0.03942581879626959
1772608925671115500,4.559115478515625,5.8463066921025515,1.384224114884436,-0.30656821407191454
1772608925681113600,4.569113525390625,7.5417475044518705,1.8353680462166666,-0.4019540396949276
1772608925691111400,4.579111328125,8.791366457274556,2.269361228522658,-0.3350526964087039
1772608925701108500,4.5891083984375,9.473344512584806,2.573564540094137,0.015914850555732846
1772608925711106300,4.599106201171875,9.637011810740828,2.5446841903075574,0.12083645668923854
1772608925721104400,4.6091044921875,9.78357658292651,3.024241438436508,0.2837952777823433
1772608925731102500,4.6191025390625,9.688602297246456,2.9554741916805503,1.1512776749275624
1772608925741100300,4.629100341796875,9.103976947185396,2.2862632634848357,2.3634919029854236
1772608925751098400,4.639098388671875,8.272188269636034,1.6910329327791929,3.2411466980442403
1772608925761096400,4.649096435546875,7.462339036694169,1.5419073701947927,3.38682241243571
1772608925771094300,4.65909423828125,6.415991078141332,1.5984546023249626,3.0395445137694477
1772608925781092400,4.66909228515625,5.477887805730104,1.9746306786954402,2.402955021584779
1772608925791090400,4.67909033203125,5.0811476647585625,2.531286948595941,1.52281454719007
1772608925801088300,4.689088134765625,5.290689994382858,3.1302345462590453,0.8446636489525436
1772608925811085600,4.69908544921875,5.874096031782031,3.4997649010047316,0.6192283883433789
1772608925821083400,4.70908349609375,6.415476698878407,3.728200731669366,0.5182939521498978
1772608925831081500,4.71908154296875,6.932026876100897,3.806801682436466,0.24602635934762654
1772608925841079600,4.72907958984375,7.587432566305995,3.854898189346492,-0.1555208896446973
1772608925851077400,4.739077392578125,8.149709306436776,3.9912259374171493,-0.4750020325100049
1772608925861075500,4.749075439453125,8.425856736347079,4.050697532561421,-0.6082331297395751
1772608925871073500,4.759073486328125,8.298366082465648,4.036788249674439,-0.4840507236232981
1772608925881071400,4.7690712890625,7.663668249246478,3.7837042999655006,-0.3056531450536102
1772608925891069400,4.7790693359375,6.486627625900507,3.345270797124505,-0.16883143945354967
1772608925901067500,4.789067626953125,5.719143370479345,2.76554257145524,-0.14350319265797734
1772608925911064300,4.799064208984375,6.185138833984732,2.141371977469325,-0.3016530060341582
1772608925921062400,4.8090625,6.604901538625359,1.2491291234791277,0.11874010546449572
1772608925931060200,4.819060302734375,6.732424341210723,0.03291851926147937,0.9205213654261082
1772608925941058300,4.829058349609375,6.282167714107036,-1.1211123998969792,1.809956541584432
1772608925951056400,4.839056396484375,3.9337387940883635,-1.9738988572895526,2.207908834824711
1772608925961054200,4.84905419921875,0.4368471104323864,-2.357477318871021,1.3347728323645889
1772608925971052300,4.85905224609375,-2.9968185939818617,-2.683409647169709,-0.3824863554958254
1772608925981050400,4.86905029296875,-6.375190865719318,-3.340250338613987,-1.9985753256455063
1772608925991048400,4.87904833984375,-9.901443083894252,-4.161368276806176,-3.2552728385522958
1772608926001046500,4.889046630859375,-13.570207583993673,-4.6544031384065745,-3.5815211009323593
1772608926011044600,4.899044677734375,-17.45589750970602,-4.636175115537643,-3.4716122809708114
1772608926021042400,4.90904248046875,-20.699528718042373,-4.280151015836,-3.1945272779494522
1772608926031039500,4.91903955078125,-22.26315750617981,-3.6850527870774266,-2.3924846271052953
1772608926041037300,4.929037353515625,-21.449199084353445,-3.3898820922672748,-1.1794733303856104
1772608926051035400,4.939035400390625,-18.590440469062326,-3.474317448276281,-0.06968570874116849
1772608926061033500,4.949033447265625,-14.891239914166926,-3.6645281777039167,0.6488190783564001
1772608926071031300,4.95903125,-11.387736118894814,-3.85923855663836,0.9750898448292166
1772608926081029400,4.969029296875,-8.300686634367704,-3.924895562419295,0.8664844356164336
1772608926091027500,4.97902734375,-5.953597438520193,-3.774561208567023,0.5091831921184435
1772608926101025300,4.989025390625,-4.27697998458445,-3.38617914609611,0.06993814456569962
1772608926111023400,4.9990234375,-2.957472672021389,-2.8001117805331943,-0.3116451520100236
1772608926121021400,5.009021484375,-1.7244319290339947,-2.1499691254228352,-0.4114194583829492
1772608926131019300,5.019019287109375,-0.5398351912200451,-1.611943321712315,-0.3748754786333069
1772608926141016600,5.0290166015625,0.5966238308906555,-1.153452242487669,-0.38714667545706033
1772608926151014400,5.039014404296875,1.449232593628764,-0.7820899961397051,-0.4425256309928372
1772608926161012500,5.049012451171875,2.0208090770244596,-0.4676069903552532,-0.5021537684056908
1772608926171010600,5.059010498046875,2.3625462926983833,-0.08843290121257305,-0.567164402574487
1772608926181008400,5.06900830078125,2.3215099334329365,0.3848594413027167,-0.43587494093198326
1772608926191006500,5.07900634765625,2.0511048465669153,0.8144809843957423,-0.12990235466565936
1772608926201004500,5.089004638671875,1.972120741701126,1.1102619200587271,0.28683157673832027
1772608926211002400,5.09900244140625,2.389188215908408,1.2234721196532248,0.676133713196218
1772608926221000400,5.10900048828125,3.052929188260436,1.2454057190418242,0.9316236280683428
1772608926230998500,5.11899853515625,3.74826999849081,1.3736857697352767,0.9790089179690926
1772608926240995300,5.128995361328125,4.371370917418599,1.646765044246614,1.0874621322948486
1772608926250993400,5.138993408203125,4.861408350768685,1.8785592454284428,1.1818321684714406
1772608926260991200,5.1489912109375,5.292213258427381,1.9848320469751952,1.178243569394946
1772608926270989300,5.1589892578125,5.594838945418596,1.9447119257718324,1.1227405856207013
1772608926280987400,5.1689873046875,5.590998052081465,1.8873162601187825,1.0204602877762168
1772608926290985500,5.1789853515625,5.3384314042449,1.8875778336644171,0.9184968007959425
1772608926300983600,5.188983642578125,5.291397850391268,1.7996514206692575,0.7017653633851557
1772608926310981600,5.198981689453125,5.526630501589179,1.719466415581107,0.48524734952934084
1772608926320979500,5.2089794921875,5.77543925819695,1.6778864509582518,0.4923499480761587
1772608926330977500,5.2189775390625,5.902962645304203,1.503424202543497,0.5919111962202936
1772608926340975600,5.2289755859375,5.8676645374298095,1.308419224576652,0.6705103203564882
1772608926350973400,5.238973388671875,5.973587502625584,1.4169637704476714,0.8307240439925342
1772608926360970500,5.248970458984375,6.3727265214324,1.6480346257910132,1.0332597827903927
1772608926370968300,5.25896826171875,6.842626006639003,1.7442559889227152,1.2444000491306184
1772608926380966400,5.26896630859375,7.346360541430116,1.6907818806275725,1.4146449721112846
1772608926390964500,5.278964599609375,7.653774631741642,1.5566881752192974,1.3637658487454056
1772608926400962300,5.28896240234375,7.572879724818468,1.3187173312291502,1.0837802289117127
1772608926410960400,5.29896044921875,7.299248077121376,1.064006657101214,0.6833141262196004
1772608926420958500,5.30895849609375,6.90462507443428,0.9013038200631737,0.41610483972020446
1772608926430956300,5.318956298828125,6.395092667019367,0.9398135834604501,0.3446956270880997
1772608926440953600,5.32895361328125,5.684861746171117,0.9498775890961288,0.2923175704013556
1772608926450951400,5.338951416015625,5.030573077297211,0.9261085909739136,0.20880444380380211
1772608926460949500,5.348949462890625,4.5329941425263875,0.925235023009777,0.13469393632374704
1772608926470947600,5.358947509765625,4.149972145783901,0.7783528554379939,0.07894581868201493
1772608926480945400,5.3689453125,4.048844598171114,0.5566597770318389,0.1606846290834248
1772608926490943500,5.378943603515625,4.041359210851788,0.3947153571456671,0.13182744097672403
1772608926500940300,5.388940185546875,3.617390286692977,0.04681815753728151,0.1740513295263052
1772608926510938400,5.3989384765625,2.2384522955179214,-0.7055047691091895,0.7712778024852276
1772608926520936400,5.4089365234375,-0.4099690403789282,-1.7826842115163801,1.7896762623608111
1772608926530934300,5.418934326171875,-4.248854544818401,-2.522426473531127,2.5694226179838178
1772608926540932400,5.428932373046875,-8.408180209881067,-2.3280185846745964,2.3304399666026234
1772608926550930400,5.438930419921875,-11.8189157050848,-1.7735408278569578,0.7320121061541139
1772608926560928300,5.44892822265625,-13.86939628227353,-1.6516057622760534,-1.6562939200922846
1772608926570926300,5.45892626953125,-14.153299733138084,-1.8352584483623504,-3.8663524802967904
1772608926580924200,5.468924072265625,-13.144351823174953,-1.8983903195798395,-4.698068384870886
1772608926590922200,5.478922119140625,-11.125799000644683,-2.2417285407096146,-3.8938165335446593
1772608926600919300,5.488919189453125,-9.191389273178578,-2.7595740184396504,-2.3075170639157294
1772608926610917400,5.49891748046875,-8.399433424323798,-3.1006735207319256,-0.8898868654485791
1772608926620915500,5.50891552734375,-9.255809430640936,-3.433587670741975,-0.32373291855826974
1772608926630913300,5.518913330078125,-11.36047752509117,-3.352245896834135,-0.6942846522409468
1772608926640911400,5.528911376953125,-13.485053266060351,-2.499445410916209,-1.5685840724572537
1772608926650909200,5.5389091796875,-14.82907016597986,-1.42466893799752,-2.4078927702479063
1772608926660907300,5.5489072265625,-14.973302111303806,-0.9528039979368448,-2.902984710508585
1772608926670905300,5.5589052734375,-13.70967801400423,-1.2084051911637186,-2.9912130290597676
1772608926680903200,5.568903076171875,-11.372550240200757,-1.427119253759086,-2.866815957279503
1772608926690901200,5.5789013671875,-8.40144184153676,-1.2135899003252386,-2.439071313974261
1772608926700899300,5.5888994140625,-5.480752547511458,-0.919157164400816,-1.8192963245987892
1772608926710896000,5.598896240234375,-2.982814034026861,-0.6792398625180125,-1.1833169271364807
1772608926720894500,5.60889453125,-0.9906611426442861,-0.5632473387286067,-0.6358438614491373
1772608926730892300,5.618892333984375,0.48690147341191764,-0.5266238274693489,-0.1530507001388818
1772608926740890400,5.628890380859375,1.4152905765384436,-0.31737054391950364,0.2452178194437176
1772608926750888400,5.638888427734375,1.713576773020625,0.043565000960230825,0.5240257007349283
1772608926760886300,5.64888623046875,1.8149737852245569,0.4335466075822711,0.7103556432064623
1772608926770884400,5.65888427734375,2.000121678304672,0.811574157038331,1.0446006764940916
1772608926780882400,5.66888232421875,2.2460335444271564,1.0506409795716405,1.4523799517437814
1772608926790880300,5.67888037109375,2.454603229627013,0.9757587570667267,1.6739812602132558
1772608926800878300,5.68887841796875,2.5523224301010368,0.7145037758618593,1.4788278136864303
1772608926810877400,5.69887744140625,2.954607930240035,0.597391308131814,1.001914284999296
1772608926820875500,5.70887548828125,3.6940398111313577,0.6679834322273731,0.4778152267672121
1772608926830873300,5.718873291015625,4.747377482441068,0.6984680023401976,0.037035087734833355
1772608926840871400,5.728871337890625,6.044626785966754,0.6985363914012909,-0.14179602341391145
1772608926850869200,5.738869140625,7.146150688296556,0.7073565344557166,0.012851006005704402
1772608926860867300,5.748867431640625,7.9194059283345934,0.7552753467112779,0.32700229561775923
1772608926870864400,5.758864501953125,8.278286001989246,0.8783075598791241,0.6323784503608941
1772608926880862200,5.7688623046875,8.198036407232284,1.0384197959020733,0.9088535047903656
1772608926890860300,5.7788603515625,7.815284459602832,1.2376017672926187,1.19728700029999
1772608926900858400,5.7888583984375,7.227987844505906,1.3652680700019002,1.5010323389708995
1772608926910856200,5.798856201171875,6.576283346906304,1.4229256014615297,1.5217399036958812
1772608926920854300,5.808854248046875,5.925220654341578,1.484755450169742,1.2734646694429217
1772608926930852400,5.818852294921875,5.626548673412204,1.6411574334979055,1.0916249510627238
1772608926940850200,5.82885009765625,5.85822626247704,1.865427376654744,0.9265667830701917
1772608926950848300,5.83884814453125,6.398190633034706,2.065598651343584,0.8039544758148491
1772608926960846000,5.84884619140625,7.119744911929964,2.139977015979588,0.7536456996828317
1772608926970844200,5.85884423828125,7.79210699763298,2.1643109545081853,0.7909964292380959
1772608926980841500,5.868841552734375,8.235178097146749,2.1780410814359783,0.8857852753486484
1772608926990839300,5.87883935546875,8.444932608217,2.2207079645127057,0.9670442663438618
1772608927000837400,5.88883740234375,8.460573829463124,2.36558317617625,1.1151766531724483
1772608927010835500,5.89883544921875,8.30843213392794,2.5620266625136137,1.413583918751031
1772608927020833300,5.908833251953125,7.879148152226209,2.5819541827768084,1.4693088747128844
1772608927030831400,5.918831298828125,7.2238330629140135,2.5949127408102153,1.3036058329455553
1772608927040829200,5.9288291015625,6.441252360647916,2.684733881510794,1.0606497478887438
1772608927050827300,5.9388271484375,5.471340576043724,2.7185718537047503,0.7475118731029331
1772608927060825300,5.948825439453125,4.449390561166405,2.4995807277336715,0.3111291287792846
1772608927070823200,5.9588232421875,3.7491140480995178,2.3416265465274453,0.038186157466098665
1772608927080821200,5.9688212890625,3.2657892641305923,2.1620295655727384,-0.020996282005868852
1772608927090818300,5.978818359375,2.666869431257248,1.677990788115561,0.1854260524343699
1772608927100816100,5.988816162109375,1.5644494568705558,0.648275984455645,0.5763122066807002
1772608927110814200,5.998814208984375,-0.22637772909104822,-0.9652744801923632,0.828662216091901
1772608927120812300,6.008812255859375,-2.4026491705060002,-2.489607615251839,0.9426027757875621
1772608927130810400,6.018810302734375,-4.765870585986971,-3.0318048594281075,0.4318370271854102
1772608927140808400,6.028808349609375,-7.086751573866605,-2.7062814041912553,-0.9031961366157978
1772608927150806300,6.03880615234375,-9.213858294618129,-2.6345132220536467,-2.672126328872144
1772608927160804400,6.048804443359375,-11.238930874305963,-3.2543951789349315,-4.559901438674331
1772608927170802400,6.058802490234375,-13.532247563433646,-3.854458336624503,-5.870076274746656
1772608927180800300,6.06880029296875,-15.99188528009653,-3.845702490977943,-5.935933187013864
1772608927190798300,6.07879833984375,-18.00693097128868,-3.289289089922607,-5.10894109609127
1772608927200795400,6.08879541015625,-18.693688077569007,-2.5228841541707516,-3.724014678156376
1772608927210793200,6.098793212890625,-18.280035964763165,-1.8578166093900799,-2.223821566488594
1772608927220791300,6.108791259765625,-16.86905273002982,-1.591928123165667,-0.9570376169186084
1772608927230789000,6.1187890625,-14.744115754532814,-1.418911397384107,-0.270937732437998
1772608927240787200,6.128787109375,-12.319089917045831,-1.1901397588938474,-0.10139723139964044
1772608927250785300,6.138785400390625,-9.817847101318836,-1.0745935175672172,-0.0913259923055768
1772608927260783000,6.148783203125,-7.362849319416284,-1.1437009560629725,-0.2543742817804217
1772608927270781200,6.15878125,-5.163934084516764,-1.183629938608408,-0.6602351561881601
1772608927280779300,6.168779296875,-3.307586086374521,-1.1185489791497587,-1.3143123742684721
1772608927290777000,6.178777099609375,-1.8084744863331317,-0.8868152759835124,-1.8982006422266362
1772608927300775200,6.188775146484375,-0.8177513843685388,-0.47890316813439127,-2.1952377154305576
1772608927310772200,6.198772216796875,-0.004223755174875259,0.0963581412538886,-2.1529095627889037
1772608927320770300,6.208770263671875,0.957818611228466,0.6532452973008156,-1.673967523948848
1772608927330768400,6.218768310546875,1.8399714483588934,0.9376642964720725,-0.8000826758828014
1772608927340766200,6.22876611328125,2.484380528253317,0.9005725831791758,0.2661025673665106
1772608927350764300,6.238764404296875,2.8355969354122874,0.882388399451971,1.2885966259926558
1772608927360762400,6.248762451171875,2.797367450261116,0.9555126723736524,2.0457795598909256
1772608927370760200,6.25876025390625,2.7245769393384456,1.0168325257331132,2.4963576740339395
1772608927380758300,6.26875830078125,2.777415380078554,1.0787485914200543,2.6459280577763913
1772608927390756400,6.27875634765625,3.010807371845841,1.131731993588805,2.4158047124162314
1772608927400754200,6.288754150390625,2.966431639024615,1.0496069603487848,1.9237527243733406
1772608927410752300,6.298752197265625,3.0186411342114208,0.9012322161316871,1.3813782239340244
1772608927420749300,6.308749267578125,3.5376854663372037,0.8346201015830039,1.1213411671515554
1772608927430747400,6.318747314453125,4.414029909449815,0.7916039666771888,1.222250176642835
1772608927440745500,6.328745361328125,5.436825142979622,0.8107099414244293,1.5371967082858085
1772608927450743300,6.338743408203125,6.344494698682427,0.8368898000806569,1.9361250069513916
1772608927460741400,6.348741455078125,7.000456269204616,0.9121136756300926,2.3393157853670417
1772608927470739500,6.358739501953125,7.434929636242985,1.047168919546902,2.6239655245542526
1772608927480737300,6.3687373046875,7.668271943649649,1.1943149987518786,2.771906261268258
1772608927490735400,6.3787353515625,7.774350391668081,1.3113804124698043,2.8978862183257936
1772608927500733400,6.3887333984375,7.755325373202562,1.2613926849856971,2.9025226459547877
1772608927510731300,6.398731201171875,7.589245753207802,1.0312538497954606,2.600930101403594
1772608927520729300,6.408729248046875,7.22083621918559,1.033394076694548,2.0454215402334928
1772608927530726100,6.41872607421875,6.747186441534757,1.078566512851417,1.3094397997960447
1772608927540724200,6.42872412109375,6.302988383817673,1.0125924039453267,0.5505642366357147
1772608927550722300,6.438722412109375,5.98700578712523,0.9054679540053009,0.03674333824664354
1772608927560720100,6.44872021484375,5.673993730676174,0.8865563327863812,-0.1597625458024442
1772608927570718200,6.45871826171875,5.360535099503398,1.125809033280611,-0.1134216503880918
1772608927580716300,6.46871630859375,5.215785852307081,1.4720909066468477,0.05157280471846461
1772608927590714400,6.47871435546875,5.2540749586910005,1.7451856709882616,0.30374840741083026
1772608927600712200,6.488712158203125,5.398469401100278,1.883670889353752,0.5681710588663816
1772608927610710300,6.498710205078125,5.562511962309479,1.8538909603789449,0.7246373396024107
1772608927620708400,6.508708251953125,5.598017575454712,1.6982395031571387,0.7281473935499787
1772608927630706400,6.51870654296875,5.481259327989816,1.5534370644688604,0.5457859163179993
1772608927640703500,6.528703369140625,5.217338342446088,1.4392024902626872,0.20510091311074793
1772608927650701300,6.538701416015625,4.872731708815693,1.1344815845578908,-0.15059037443995474
1772608927660699400,6.548699462890625,4.3791479811608784,0.4821726913243532,-0.2866615904662758
1772608927670697500,6.558697509765625,3.311871800869703,-0.5229685198321938,-0.31154023033082484
1772608927680695300,6.5686953125,1.3664999498844146,-1.602858974763751,-0.29690643256157634
1772608927690693400,6.578693359375,-1.1165537136793136,-2.1632047468319535,-0.2971689559552818
1772608927700691500,6.58869140625,-3.8691684145003555,-2.0370894729569553,-0.49263212601840495
1772608927710689300,6.598689208984375,-6.046768474170565,-1.7714979238525033,-0.9093011024273931
1772608927720687400,6.608687255859375,-7.388937115874886,-1.4956687661111354,-1.5108270261459051
1772608927730685400,6.618685546875,-8.497906073513626,-1.8350173330828545,-2.049896493690461
1772608927740683300,6.628683349609375,-10.102025277471542,-2.8219506873756646,-2.5518793625086547
1772608927750680300,6.638680419921875,-12.190416775381564,-3.729028414665162,-2.9426079881057143
1772608927760678400,6.648678466796875,-14.483241297078132,-4.178627746903896,-3.110005412700772
1772608927770676500,6.658676513671875,-16.387773772674798,-3.9709924199447033,-2.901581857973337
1772608927780674600,6.668674560546875,-17.17606817641258,-3.1104975801318884,-2.4201693373665214
1772608927790672400,6.67867236328125,-16.686629293477534,-2.3087740782395003,-1.8538000672250985
1772608927800670500,6.68867041015625,-14.75176597702503,-1.875725775568187,-1.1752869115464388
1772608927810668500,6.69866845703125,-11.942441546988487,-1.7343506809800862,-0.406525110470131
1772608927820666400,6.708666259765625,-8.861866811433433,-1.940417443448305,0.1731925938051194
1772608927830664400,6.71866455078125,-6.132611943411827,-2.4261013577640056,0.366647565850988
1772608927840662500,6.72866259765625,-4.224344372940063,-3.039954263614118,0.023569603092595932
1772608927850660400,6.738660400390625,-3.1323475928902624,-3.373362919142842,-0.8303789568819105
1772608927860657400,6.748657470703125,-2.4937919151991603,-3.1856565737515687,-1.8141557468399405
1772608927870655200,6.7586552734375,-2.0164766007781028,-2.865402583350241,-2.4272065425269305
1772608927880653300,6.7686533203125,-1.5699568221151827,-2.3852973459497093,-2.49798878236711
1772608927890651400,6.7786513671875,-1.210885025280714,-1.739519023528695,-2.070977714033425
1772608927900649200,6.788649169921875,-0.9222253197997808,-1.105279163210094,-1.3184601415976882
1772608927910647300,6.798647216796875,-0.7915443454444407,-0.712531014484167,-0.5369464840412139
1772608927920645400,6.808645263671875,-0.6258347278058528,-0.5395306553155184,0.20923735532835125
1772608927930643200,6.818643310546875,-0.49589784981608387,-0.2482929160401225,0.9608601708814501
1772608927940641300,6.828641357421875,-0.16089958700835705,0.13663023814857006,1.580297891126573
1772608927950639400,6.838639404296875,0.566236291411519,0.5428206367716193,2.01962395889312
1772608927960637400,6.848637451171875,1.5551777706563472,0.9039917439728975,2.220888581776619
1772608927970634500,6.858634521484375,2.6943887218236924,1.2006295887261629,2.2223788203343746
1772608927980632300,6.86863232421875,3.9515304713666435,1.3313304368257521,2.0546026255548
1772608927990630400,6.87863037109375,5.171225995090603,1.3424714240431785,1.8698522073596715
1772608928000628500,6.88862841796875,6.307948052051663,1.252657297605276,1.698593431161344
1772608928010626300,6.898626220703125,7.212103462153673,1.045518521991372,1.4141305928483605
1772608928020624400,6.908624267578125,7.753066780620813,0.807804867632687,1.1074909940406679
1772608928030622500,6.91862255859375,7.867109923908114,0.686286858420074,0.7320775726057589
1772608928040620300,6.928620361328125,7.736650483348965,0.7793117635980248,0.28747809448093176
1772608928050618400,6.938618408203125,7.507448344486951,1.0167050999611615,-0.16734262566789984
1772608928060616400,6.948616455078125,7.4553189287990325,1.286210607638955,-0.550238877138868
1772608928070613500,6.958613525390625,7.573722605383396,1.6034426198706029,-0.6185682439342141
1772608928080611600,6.968611572265625,7.6960139370560645,1.750212851500511,-0.4409720448752865
1772608928090609400,6.978609375,7.568124054723977,1.7817434235349296,0.004608808969706297
1772608928100607500,6.988607421875,7.282131522625685,1.9366122059464455,0.5472133187726139
1772608928110605600,6.99860546875,7.08370212316811,1.9836682638928294,0.8810807509195059
1772608928120603400,7.008603271484375,7.054977548465132,2.157640390703082,1.164859990882501
1772608928130601500,7.0186015625,7.108399342051148,2.333380403968692,1.3064775889895857
1772608928140599600,7.028599609375,7.111362283509969,2.3996274845972656,1.3105498068645596
1772608928150597400,7.038597412109375,7.092360061398148,2.464645023430884,1.1812693469569087
1772608928160595500,7.048595458984375,7.001457555201649,2.603794550924003,0.8347424858536571
1772608928170593300,7.05859326171875,6.7430603015154595,2.754722194494307,0.23885995658328754
1772608928180591400,7.06859130859375,6.762127990078926,2.6200822533801196,-0.3841572113174945
1772608928190588400,7.07858837890625,7.286538817673921,2.3755171256914736,-0.847127189521864
1772608928200586200,7.088586181640625,7.7850722766906015,2.186771208119392,-0.9609991409607231
1772608928210584300,7.098584228515625,7.990618814676999,1.992876529482007,-0.7683958903733641
1772608928220582400,7.10858251953125,7.918146283662319,1.853911126384139,-0.3352936290251091
1772608928230580200,7.118580322265625,7.6154750039637085,1.6911834471657872,0.2580816849309951
1772608928240578300,7.128578369140625,7.141181083190441,1.2947227076575158,0.7177513794809579
1772608928250576400,7.138576416015625,6.122636492842435,0.6543874530732632,0.8769027345824986
1772608928260574500,7.148574462890625,4.24027785513103,-0.26178572708070275,0.827529997191578
1772608928270572500,7.158572509765625,1.2240297535359859,-1.1964914660081267,0.5109566315317526
1772608928280570400,7.1685703125,-2.654291104713082,-1.7095339273706078,-0.1399216443767771
1772608928290568400,7.178568359375,-6.624153351584076,-1.7910124794006346,-1.3910621442109345
1772608928300565500,7.1885654296875,-9.880264686787127,-1.5656600017040967,-2.942966300024092
1772608928310563300,7.198563232421875,-12.089720020401478,-1.651710683955252,-4.297987701299786
1772608928320561400,7.2085615234375,-13.307443951791525,-2.6112106723994013,-4.654243856191635
1772608928330559500,7.2185595703125,-14.155661201572418,-3.920087577615678,-3.8105192416548728
1772608928340557300,7.228557373046875,-14.744094711744784,-4.342710347862542,-2.469750529876351
1772608928350555400,7.238555419921875,-15.09425839498043,-3.840862941992283,-1.4513545542187989
1772608928360553200,7.24855322265625,-15.099369454383849,-3.2346839317709204,-0.6198045077309012
1772608928370551300,7.25855126953125,-14.575771112215518,-2.567897600373626,-0.006699936030060053
1772608928380549400,7.26854931640625,-13.322825060796736,-1.879174746978283,0.3325942704059183
1772608928390547200,7.278547119140625,-11.628250509887932,-1.5204539555385708,0.5405911606865004
1772608928400545300,7.288545166015625,-9.910108036386966,-1.5571446868151426,0.4044598485033959
1772608928410542600,7.29854248046875,-7.680525860545039,-1.708140427185595,-0.03899809490349144
1772608928420540400,7.30854052734375,-5.309619735780358,-2.030825151865184,-0.5832390102691948
1772608928430538500,7.31853857421875,-3.3887831911146638,-2.5342919756308198,-1.1256663368742912
1772608928440536300,7.328536376953125,-2.101852452507615,-2.7842285672247407,-1.6454847951777278
1772608928450534400,7.338534423828125,-1.2619038493782282,-2.5802216598957775,-2.0459534551531076
1772608928460532500,7.348532470703125,-0.7920943805426359,-2.0170441715329885,-2.1546742343738674
1772608928470530300,7.3585302734375,-0.5613228004068136,-1.1593535754859448,-1.7936071720689535
1772608928480528400,7.3685283203125,-0.14755027609169483,-0.11791881567686796,-1.073774821595475
1772608928490526500,7.3785263671875,0.5873357780635357,0.7063856435969471,-0.2950955837473273
1772608928500524300,7.388524169921875,1.6052093372821807,1.1149772581428288,0.2428475831810385
1772608928510522400,7.3985224609375,2.4170284089922904,1.2190642400830984,0.6914074163042009
1772608928520519400,7.40851953125,2.5512714597433805,1.14030225353539,1.1183318292677402
1772608928530517200,7.418517333984375,2.1507249122261998,0.8464125384464859,1.219764862633124
1772608928540515300,7.428515380859375,1.3499299233555793,0.6590057605236769,1.0747089606404303
1772608928550513200,7.43851318359375,0.47523850814700125,0.6587427256733178,0.940412791462615
1772608928560511200,7.44851123046875,-0.09021861558556556,0.7965596893884241,0.7486256795637309
1772608928570509300,7.45850927734375,-0.07223053895235061,0.9024421764433384,0.5045076380554586
1772608928580507100,7.468507080078125,0.4559966320604086,0.9495794829323887,0.40008426376767453
1772608928590505200,7.478505126953125,1.3888514824241398,0.9960210622422396,0.42018122231364247
1772608928600503300,7.48850341796875,2.599156077468395,1.06705859201774,0.5728090939305722
1772608928610501000,7.498501220703125,3.877839796733856,1.23718427253291,0.8543081140018999
1772608928620499200,7.508499267578125,5.081942614528536,1.3542299586370588,1.2414195720151067
1772608928630496000,7.51849609375,6.0904147236734625,1.2562624824903905,1.732816018758714
1772608928640494000,7.528494140625,6.86710110720396,1.018519163645804,2.069165988436341
1772608928650492200,7.5384921875,7.3389710157006975,0.9969868385344743,2.3797495025642217
1772608928660490000,7.548489990234375,7.615135981267691,1.0973472011670469,2.5143065877005455
1772608928670488000,7.558488037109375,7.856357643747329,1.0400959124207496,2.26817377230376
1772608928680486100,7.568486083984375,7.899163350772858,0.9243222920790314,1.834506314820796
1772608928690484000,7.57848388671875,7.726545853441953,0.8257309849455953,1.431199070418626
1772608928700482000,7.58848193359375,7.238350248566269,0.741175801949203,1.1855732546959072
1772608928710480100,7.598480224609375,6.636983022540807,0.5940674244061112,1.0380413179785013
1772608928720478000,7.60847802734375,6.256428292694688,0.5621487298369408,0.9767718065667896
1772608928730476000,7.61847607421875,6.213709679430723,0.6912187618643045,0.9380243619561195
1772608928740473000,7.62847314453125,6.357272347190976,0.827822112005949,0.9714701199620962
1772608928750471200,7.63847119140625,6.410595941099524,0.7845721683442592,1.1029816268574446
1772608928760469200,7.64846923828125,6.157220314967632,0.6791413705796003,1.306083036714047
1772608928770467000,7.658467041015625,5.573337307706475,0.6560130084484815,1.4869805788733064
1772608928780465200,7.668465087890625,4.689622043564915,0.7808546091258526,1.5037898209854959
1772608928790463200,7.678463134765625,3.84360961035192,0.9482564176350832,1.1292218373987823
1772608928800461000,7.6884609375,3.4224913994491097,1.2042238138258456,0.5541274820752442
1772608928810459100,7.698459228515625,3.404504491859674,1.4154460593611,0.13438779298402367
1772608928820457200,7.708457275390625,3.1539509374111887,1.3170958675071596,-0.011092106574401258
1772608928830455000,7.718455078125,2.39778185673058,0.5771662662267685,-0.01680368915423751
1772608928840453000,7.728453125,1.308482645201683,-0.6700055857047438,0.08334251927100121
1772608928850450000,7.738449951171875,-0.4815414076834917,-1.6001020772710441,0.38831411180123687
1772608928860448000,7.748447998046875,-2.931429883748293,-2.1929013814374803,0.5693651640217751
1772608928870446000,7.758446044921875,-5.830491283333301,-2.6431281979247925,0.26307781271785496
1772608928880444200,7.768444091796875,-8.791663978916405,-2.5709768616884947,-0.6704007955674082
1772608928890442200,7.778442138671875,-11.301498097378015,-2.217684232777357,-2.0072624899700284
1772608928900440300,7.7884404296875,-12.78000997698307,-2.170962521351874,-3.1404005509644746
1772608928910438100,7.798438232421875,-12.901798619830608,-2.4147619253650308,-3.7244098149538036
1772608928920436200,7.808436279296875,-12.005741760510206,-2.8388717192992567,-3.67543301807791
1772608928930434300,7.818434326171875,-10.853631580281258,-3.2597067293465134,-3.0497371142208576
1772608928940432100,7.82843212890625,-10.38746835899353,-3.4360832869499918,-2.1808444484189153
1772608928950430200,7.83843017578125,-10.485576851046085,-3.0237571620509027,-1.3809595601305364
1772608928960427000,7.848427001953125,-10.62689553927183,-2.3792805698782202,-0.8778108624033629
1772608928970425000,7.858425048828125,-10.467264949285983,-2.1303338661044835,-0.6564831832434982
1772608928980423200,7.868423095703125,-9.858003755140304,-2.1394746194154024,-0.6273779386598617
1772608928990421000,7.8784208984375,-9.020037850260733,-2.171685574929416,-0.6601112375475466
1772608929000419000,7.888419189453125,-8.295351703080534,-2.0935843903779983,-0.6466727870427071
1772608929010417200,7.898417236328125,-7.793302929419279,-1.9682129206076264,-0.6827680366441607
1772608929020415000,7.9084150390625,-7.189651976370811,-1.7690405938282607,-0.8164527228601276
1772608929030413000,7.9184130859375,-6.154062727719545,-1.498907309640944,-1.0275656628020107
1772608929040411100,7.9284111328125,-4.633109882748126,-1.217923545615375,-1.1543177732758223
1772608929050409000,7.938408935546875,-2.987946136218309,-1.1338874180570244,-1.0311838532991706
1772608929060407000,7.948406982421875,-1.3061480647742747,-1.1655951002240181,-0.8146658394433558
1772608929070404000,7.958404052734375,0.2504033323228359,-0.9912290056601166,-0.6441376425419002
1772608929080402200,7.968402099609375,1.4299439557909965,-0.5507780255168676,-0.3391823435593396
1772608929090400300,7.978400146484375,2.183457553526759,-0.0000716039314866066,0.06462791846152395
1772608929100398000,7.988398193359375,2.894724247163534,0.5090171513691544,0.4403497117258608
1772608929110396200,7.998396240234375,3.5931548401027915,0.7436199802309275,0.9545493802994489
1772608929120394200,8.008394287109375,4.0947067701578135,0.5749947674065828,1.4947253477811813
1772608929130392000,8.01839208984375,4.3289772983253,0.2353697215810418,1.943613170749694
1772608929140390100,8.02839013671875,4.228423751208186,0.032710429468750954,2.0458082014635206
1772608929150388200,8.03838818359375,4.397917563560605,0.18405249905884266,1.732826686283201
1772608929160386000,8.048385986328125,4.619224565258622,0.40711803486198184,1.192331642914936
1772608929170383000,8.058383056640626,4.762521275559068,0.528050353141129,0.6613911212902516
1772608929180381200,8.068381103515625,5.044927181342244,0.5916141860350966,0.1985078715212643
1772608929190379300,8.078379150390624,5.512931646582484,0.705235304518044,-0.013460954597592353
1772608929200377300,8.08837744140625,6.052339552301168,0.7928925451830029,0.016297493197768926
1772608929210375200,8.098375244140625,6.536619445037841,0.7777677490264177,0.26090755600668486
1772608929220373200,8.108373291015624,6.8983291891604654,0.7330342888087034,0.6015942397143691
1772608929230371300,8.118371337890625,7.193312252444028,0.7924082687973976,0.8255829547770321
1772608929240369200,8.128369140625,7.478782221972942,0.9933590034261345,0.8133840560045092
1772608929250367200,8.1383671875,7.59428608546257,1.330114923556149,0.7252342825822532
1772608929260365000,8.148364990234375,7.323071435779332,1.6820730889931321,0.47335444796606896
1772608929270363100,8.158363037109375,7.095866023692488,1.979276750935614,0.17064466288797556
1772608929280361200,8.168361328125,7.231305006229877,2.264021621060371,-0.02248962583616376
1772608929290358000,8.17835791015625,7.53805507967472,2.374147006382048,-0.14786496806405483
1772608929300356000,8.188356201171874,7.888176677334308,2.179203695474565,-0.14264730648100377
1772608929310354200,8.198354248046876,8.128755365735293,1.9352640062078832,0.003586991641297936
1772608929320352000,8.20835205078125,8.121956207114458,1.8447423160225151,0.2355830355381593
1772608929330350000,8.21835009765625,7.908560709193348,1.8863333865612744,0.6214207838211209
1772608929340348200,8.22834814453125,7.519377267211675,1.958494951930642,0.974846026135981
1772608929350346000,8.238345947265625,7.183192424967885,2.0600404326945543,1.0702908519372343
1772608929360344000,8.248343994140624,6.762451230683922,2.126363793429732,0.7747657907314598
1772608929370342100,8.258342041015625,6.350621072608232,2.03926272534281,0.22415840907376258
1772608929380340200,8.26834033203125,6.041956689974666,1.7486399030953645,-0.2840976217297837
1772608929390338300,8.27833837890625,5.537204502573609,1.507221256738901,-0.5493606329996138
1772608929400335000,8.288335205078125,4.872874332156777,1.390886203122139,-0.48737537453398105
1772608929410333200,8.298333251953125,3.9387855560839173,1.1086220438972114,-0.2702651304060593
1772608929420331300,8.308331298828126,2.5687930879086256,0.5336319526657461,-0.1720929620001465
1772608929430329000,8.3183291015625,1.2284785496383905,-0.3275596372395754,-0.0676445628689602
1772608929440327200,8.3283271484375,-0.7045698263466358,-1.5591837914273141,0.029006241188570855
1772608929450325000,8.338324951171876,-3.7529561104804277,-2.8064108806774017,0.07989756644889712
1772608929460323000,8.348322998046875,-7.384469615072011,-3.05295899887681,-0.5445272214937955
1772608929470321200,8.358321044921874,-10.39679382122159,-2.2767779345199464,-1.8124409057460724
1772608929480319000,8.368319091796875,-12.183057644790411,-1.7671406054258345,-2.7531305413886904
1772608929490317000,8.378317138671875,-12.872716317731141,-2.139781493407488,-2.9034143340975045
1772608929500315100,8.388315185546874,-12.841203573614358,-2.7977669709727166,-2.151776320975274
1772608929510312200,8.398312255859375,-13.104288692855834,-3.1035426464274525,-0.7423698340393602
1772608929520310300,8.408310302734375,-13.607794679588078,-2.7925802159845827,0.7625029598772526
1772608929530308400,8.418308349609376,-14.260606261646746,-2.286596440961957,1.7794459602475166
1772608929540306200,8.42830615234375,-14.668971958482265,-1.7657348302811384,2.0359715748429297
1772608929550304300,8.43830419921875,-14.353779050862789,-1.373411044447124,1.5782336520731448
1772608929560302000,8.448302001953126,-13.082635663974285,-1.2844795460626481,0.7343981245078146
1772608929570300200,8.458300048828125,-11.136925959336757,-1.6190090223148463,-0.3979571155458688
1772608929580298200,8.46829833984375,-9.235997645711898,-2.2123031242609024,-1.468624984101951
1772608929590296300,8.47829638671875,-7.536126741960644,-2.567806999480724,-2.2642723809510468
1772608929600294400,8.48829443359375,-5.958326805129647,-2.56865397169888,-2.9096161113470793
1772608929610292200,8.498292236328124,-4.308186439231038,-2.5047467321947217,-3.521906590186059
1772608929620289300,8.508289306640625,-2.5396482419669626,-2.298151561938226,-3.880897722999751
1772608929630287000,8.518287109375,-1.0157990910321473,-1.9575246455937623,-3.5863550969600677
1772608929640285200,8.52828515625,0.120820674598217,-1.6514762906774878,-2.4875153191477057
1772608929650283300,8.538283203125,0.8118833691179752,-1.2282377266198397,-1.079300891540572
1772608929660281000,8.548281005859375,1.148929212105274,-0.6102434831812977,0.419817503567785
1772608929670279200,8.558279052734376,1.3004255954742432,-0.01769873829782009,1.6572832233905792
1772608929680277200,8.56827734375,1.3630161994218826,0.4736933245316148,2.600361069343984
1772608929690275000,8.578275146484375,1.5333698434740304,0.9964324195221066,3.2120150038450954
1772608929700273200,8.588273193359376,1.7649661839962005,1.2621958180621267,3.311847835472226
1772608929710271200,8.598271240234375,1.7314613892793655,1.3704086477607489,2.747100321313739
1772608929720269300,8.608269287109374,1.9081442363530396,1.4740776965498923,1.6778367665976286
1772608929730266400,8.618266357421875,2.5241876379847525,1.597627796112001,0.5636251590650528
1772608929740264200,8.62826416015625,3.4751223349183795,1.5519623157411813,-0.24935696507506072
1772608929750262300,8.63826220703125,4.478414411076903,1.3535416841119527,-0.6365419267158955
1772608929760260400,8.64826025390625,5.193002942612767,1.1960428454577923,-0.5763817647855729
1772608929770258200,8.658258056640625,5.783475265136361,1.2179147777870296,-0.20214900450259446
1772608929780256300,8.66825634765625,6.412006976941227,1.2899682066068052,0.23261085132695733
1772608929790254300,8.67825439453125,7.0284870164245365,1.4299471706613898,0.727123384264484
1772608929800252200,8.688252197265625,7.524290173694491,1.5091358581885694,1.3272770697817207
1772608929810250200,8.698250244140626,7.767480505898594,1.5050389442637562,1.8501207941904663
1772608929820248300,8.708248291015625,7.684823849999904,1.435540168362856,2.125826325552165
1772608929830246100,8.71824609375,7.343075528410076,1.42530314424783,2.2779025546357032
1772608929840243500,8.728243408203125,6.913031668251753,1.3380939396113156,2.194724212950468
1772608929850241300,8.7382412109375,6.602380495715141,1.1968883563712238,1.7867741111785171
1772608929860239400,8.7482392578125,6.486317829298972,1.1463885877117515,1.1481669224958866
1772608929870237400,8.758237548828125,6.5178960398674,1.1243258089855312,0.47538785348981616
1772608929880235300,8.7682353515625,6.498899662974477,1.0443088539406657,-0.030343188880756496
1772608929890233300,8.7782333984375,6.342072439971566,1.050441949868202,-0.24927615492381153
1772608929900231400,8.7882314453125,6.155197869229316,1.1658718713387846,-0.22592202121280133
1772608929910229200,8.798229248046875,6.133496325030922,1.3844205142393708,-0.1330985568910837
1772608929920227300,8.808227294921876,6.328401057493687,1.6327674985542893,-0.03180434747450053
1772608929930225200,8.81822509765625,6.663690996724367,1.718819642110169,0.0312903335377574
1772608929940223200,8.82822314453125,6.950635130459069,1.643012121453881,0.07727426874060184
1772608929950220300,8.83822021484375,6.910141207507253,1.6679834811031817,0.12260474500339477
1772608929960218000,8.848218017578125,6.520203147765994,1.6339789201706647,0.020655030820146202
1772608929970216200,8.85821630859375,6.1030801439791915,1.3647934382274747,-0.06276486453600227
1772608929980214300,8.86821435546875,5.626359872841834,0.9417097724705934,0.05541994513329118
1772608929990212000,8.878212158203125,4.936460376882553,0.4460860634207725,0.38418114018235355
1772608930000210200,8.888210205078124,3.654630760806799,-0.02754121013730764,0.9098909580793231
1772608930010208300,8.898208251953125,1.4455764092087744,-0.47913054714947934,1.3197615795850752
1772608930020206300,8.908206298828125,-1.7490590052902697,-1.0260340693205594,1.3521079980470239
1772608930030204400,8.918204345703124,-5.361472672614455,-1.4772335302323103,0.6398473980020731
1772608930040202200,8.9282021484375,-7.9107988435089585,-1.6737842763364315,-0.56694780068174
1772608930050199300,8.93819921875,-9.048985712325573,-1.5950690515398978,-1.8535383475489913
1772608930060197400,8.948197265625,-8.979989917510748,-1.425600958150625,-2.7233050197064874
1772608930070195200,8.9581953125,-8.3499098072201,-1.663674677993357,-2.914410944408178
1772608930080193300,8.968193359375,-8.188919034796953,-2.395936228863895,-2.686608735471964
1772608930090191400,8.97819140625,-8.84105958572626,-3.2091262966662644,-2.3554098649471995
1772608930100189200,8.988189208984375,-10.4421281699419,-3.3932053914710876,-1.720324493715167
1772608930110187300,8.998187255859374,-12.053950787883997,-2.826429586355388,-0.9850575504835695
1772608930120185000,9.00818505859375,-12.829533009564877,-2.0606761002495886,-0.17642182151731103
1772608930130183200,9.01818310546875,-12.635878569424152,-1.3775725480407475,0.7382236010801047
1772608930140181200,9.02818115234375,-11.76538752851486,-1.0383002611756325,1.4231947737917303
1772608930150179000,9.038178955078125,-10.583975265955925,-1.0924416012078524,1.7601820184595882
1772608930160176400,9.04817626953125,-9.508817392504215,-1.2733224844932556,1.7059873408049344
1772608930170174500,9.058174560546876,-8.288630870392918,-1.5383122683122754,1.084483116484061
1772608930180172300,9.06817236328125,-6.950519979646802,-1.879463500791788,0.1789573678769171
1772608930190170400,9.07817041015625,-5.457329586347937,-2.0947963965162635,-0.6107191744016484
1772608930200168400,9.08816845703125,-3.9266052889466283,-2.2490616600766775,-1.1155088808014988
1772608930210166300,9.098166259765625,-2.6512293790549037,-2.36603091994375,-1.5181886409550904
1772608930220164400,9.108164306640624,-1.7073749957710505,-2.222314522926509,-1.6855258597955107
1772608930230162200,9.118162109375,-1.0064198527902364,-1.899456487506628,-1.5743091721057891
1772608930240160300,9.12816015625,-0.5055506443023682,-1.5649834176167845,-1.2422357107035815
1772608930250158300,9.138158447265624,-0.028396073400974272,-1.1589598999932407,-0.7225812838554382
1772608930260156200,9.14815625,0.4718476966649294,-0.741086077839136,-0.1937119424816221
1772608930270153200,9.1581533203125,0.9453682949781417,-0.3145306443184614,0.24880364204123614
1772608930280151300,9.1681513671875,1.4835118798494338,0.13913842157721518,0.799746721926704
1772608930290149000,9.178149169921875,1.7713783891260624,0.4803600889444351,1.2006431057948619
1772608930300147200,9.188147216796875,1.896278441992402,0.6582046732738613,1.2611004240408539
1772608930310145000,9.19814501953125,2.108312588432431,0.9052928896993399,1.1919400132488458
1772608930320143000,9.20814306640625,2.503366968274116,1.150218082872033,1.1108902810901402
1772608930330141200,9.21814111328125,3.137410136976838,1.2338026672706006,1.0602735349874943
1772608930340139300,9.22813916015625,4.002333022364974,1.2411898549124598,0.9473306080270558
1772608930350137300,9.238137451171875,4.84213432597816,1.157253096075356,0.7997226103987545
1772608930360135400,9.248135498046874,5.5555251721620555,1.0783207213968038,0.7033071129344404
1772608930370133200,9.25813330078125,6.163905491819977,1.077188502496481,0.6665352792456746
1772608930380130300,9.26813037109375,6.6469830230295655,1.1366215191960334,0.7522763840910047
1772608930390128000,9.278128173828126,6.912050840520858,1.1429153586432337,0.9330734615504741
1772608930400126200,9.288126220703125,6.94002313555181,1.1549866124480963,1.171344019139558
1772608930410124300,9.298124267578125,6.745690065497159,1.14798579377532,1.4040649797774851
1772608930420122000,9.3081220703125,6.357216233089566,1.0638318850561976,1.4743335710071026
1772608930430120200,9.3181201171875,6.05334376090765,1.0783894027188419,1.4250950544551013
1772608930440116200,9.3281162109375,6.122979022669792,1.1728230056509374,1.263188920752704
1772608930450114300,9.3381142578125,6.325352191317081,1.2671806207373737,1.1727859615761786
1772608930460112400,9.3481123046875,6.488591034927964,1.242711365391314,1.2157140528723598
1772608930470110200,9.358110107421876,6.661649846285581,1.1885615497916937,1.2413222491204738
1772608930480108300,9.3681083984375,6.84723905339241,1.1598857826665043,1.1577886642567812
1772608930490106400,9.3781064453125,6.923081353101134,1.0932172617554663,1.0131198618855326
1772608930500104200,9.388104248046876,6.906718247321248,1.1502359107896685,0.8246858598068356
1772608930510102300,9.398102294921875,7.061654542011022,1.2189748082339762,0.5385529693897814
1772608930520100400,9.408100341796874,7.250488430127501,1.1716343803882598,0.1853922232300043
1772608930530098200,9.41809814453125,7.172835281604528,1.054095796200633,-0.01985693924501538
1772608930540096300,9.42809619140625,6.769814452928304,0.9214914525672793,0.06821523889638482
1772608930550093000,9.438093017578124,6.015213644477725,0.8630480314269662,0.2600909789267927
1772608930560091100,9.448091064453125,5.309234535855055,0.9265335383877158,0.34680955050215123
1772608930570089200,9.458089111328125,4.8090217454493045,1.0093521068498492,0.3269270384244621
1772608930580086800,9.468086669921876,4.602304994639754,0.9465718255490064,0.21278481867685914
1772608930590084600,9.478084716796875,4.407852097597718,0.6927256592959166,0.22350655756890772
1772608930600082700,9.488082763671875,3.9877755047023293,0.30374329284429546,0.5197760804664343
1772608930610080800,9.498080810546876,2.3878011454641817,-0.34528760163187977,0.9181762636046856
1772608930620078600,9.50807861328125,-0.7844839055389166,-1.0755497953787445,1.1367994330462068
1772608930630076700,9.51807666015625,-4.134833028841018,-1.6356106130257249,0.9081175917312503
1772608930640074800,9.52807470703125,-6.697448889419436,-2.15320503860414,0.09723616619743407
1772608930650072600,9.538072509765625,-8.146130278906226,-2.551547938597202,-1.043118182851374
1772608930660069600,9.548069580078124,-8.691142580503225,-2.4959122683539987,-2.0361749884605405
1772608930670067700,9.558067626953125,-9.143536804157495,-2.252212525323033,-2.711110724043846
1772608930680065500,9.5680654296875,-10.033538016700744,-2.1711814247995616,-3.0121330674916504
1772608930690063600,9.578063720703126,-11.547918497544526,-2.4561709173351525,-3.1965321880310773
1772608930700061400,9.5880615234375,-12.877108415210246,-2.8182307900696992,-3.018536504793167
1772608930710059500,9.5980595703125,-14.079245485889912,-3.0868881564855575,-2.5957807558164
1772608930720057600,9.6080576171875,-15.134148506820202,-3.2070196797758337,-2.180118910623342
1772608930730055700,9.6180556640625,-15.557852058041094,-2.856167137493193,-1.9163205285459757
1772608930740053800,9.6280537109375,-14.98009893183708,-2.2124945551797746,-1.669405184469372
1772608930750051800,9.6380517578125,-13.103800032556057,-1.7417220865309238,-1.2925915408477187
1772608930760049700,9.648049560546875,-10.647049854028225,-1.6491878874793648,-0.87175521562621
1772608930770046700,9.658046630859374,-8.15285403420329,-1.881011607016623,-0.6969840473927557
1772608930780044500,9.66804443359375,-5.785327030482888,-2.210147699792683,-0.7395140792820603
1772608930790042600,9.678042724609375,-3.6791157982438802,-2.4077754274785517,-0.773402101162821
1772608930800040700,9.688040771484374,-2.0872294683933257,-2.5837653238520026,-0.7702364767387508
1772608930810038500,9.69803857421875,-1.0718675997346638,-2.4988573818951845,-0.8477101770415901
1772608930820036600,9.70803662109375,-0.40671091536581516,-2.1692393508210777,-1.011042251893878
1772608930830034700,9.71803466796875,-0.040243163061141965,-1.835063218051195,-1.00025840755105
1772608930840032500,9.728032470703125,-0.2304144372612238,-1.4439596216619013,-0.7788488222613931
1772608930850030600,9.738030517578125,-0.6164315241664647,-0.8911302165731787,-0.19857856213729827
1772608930860028700,9.748028564453126,-0.96383509503901,-0.37981414061188695,0.4202386881219223
1772608930870026500,9.758026611328125,-1.1949930441439152,0.0122454413279891,0.9407812594488263
1772608930880023800,9.76802392578125,-1.1534475663125514,0.40366380275487895,1.3017520217724143
1772608930890021600,9.778021728515625,-0.5008569335281848,0.8037108763173222,1.4950478577338158
1772608930900019700,9.788019775390625,0.5456956076860427,1.1053785319313407,1.5835416953533887
1772608930910017800,9.798017822265624,1.6698375845372675,1.2783379745677113,1.497128025008738
1772608930920015600,9.808015625,2.738775560560822,1.3569175902858375,1.3066148055031894
1772608930930013700,9.818013671875,3.703599666637182,1.3654843431010841,1.0233251756880433
1772608930940011800,9.82801171875,4.753488074275851,1.3452949570313095,0.7582354386258869
1772608930950009600,9.838009521484375,5.663734202468395,1.2286775793418288,0.6642072016242891
1772608930960007700,9.848007568359375,6.2060226320594545,1.027995140260458,0.6341245633758604
1772608930970005800,9.858005859375,6.447016915524006,0.9273436857268214,0.5810658309485763
1772608930980003600,9.868003662109375,6.535038313326239,1.169295123785734,0.4940979607872665
1772608930990000600,9.878000732421874,6.657335490217805,1.4768547600477933,0.4593568292085081
1772608930999998500,9.88799853515625,6.666582626512646,1.4250871634095907,0.4373254685338586
1772608931009996500,9.89799658203125,6.602815964522957,1.169502336795628,0.5761554086837917
1772608931019994600,9.90799462890625,6.192282860520482,0.9438283720597624,1.007209176537022
1772608931029992700,9.91799267578125,5.63323326574266,1.0056886159062386,1.6281871850267051
1772608931039990800,9.92799072265625,5.393809008073807,1.215372107566893,2.2461630160257218
1772608931049988900,9.93798876953125,5.408937019100785,1.2475859856903553,2.6947107933849095
1772608931059986700,9.947986572265625,5.601182761487364,1.064944522473216,2.865914916786551
1772608931069984800,9.95798486328125,5.797839306053519,0.8336328441113233,2.6320538462027905
1772608931079982800,9.96798291015625,5.902413194727897,0.7390382053986191,1.9026859709471462
1772608931089980700,9.977980712890625,6.091243575713038,0.7371464003026486,0.9569457739166914
1772608931099977700,9.987977783203124,6.2807636925280095,0.7251637015640735,0.24760325327552854
1772608931109975600,9.9979755859375,6.339128787735104,0.554645222339034,-0.057842459572479125
1772608931119973600,10.0079736328125,6.136527655550837,0.34662206510603427,-0.08961224719025195
1772608931129971700,10.0179716796875,5.84360444740653,0.17911971883177757,-0.054030792329832905
1772608931139969500,10.027969482421875,5.203074839293956,0.20517273623794316,0.17570888747498392
1772608931149967600,10.037967529296875,4.1330800476938485,0.46328941941708324,0.6259874341495335
1772608931159965700,10.047965576171874,3.04255217115283,0.7984507638320326,1.1247916729316114
1772608931169963500,10.057963623046875,2.0417191785842177,1.2564698416307567,1.681418716737628
1772608931179961600,10.067961669921875,1.2972522261351347,1.3987272720113395,1.8796634072780607
1772608931189959700,10.077959716796874,1.0408405933082103,1.2362351551145314,1.5424147351950406
1772608931199957500,10.08795751953125,1.094596148893237,0.9699237673029303,1.0445695507034658
1772608931209954800,10.097954833984375,1.095153782775998,0.7109501750335097,0.49748197720237075
1772608931219952600,10.10795263671875,0.46742111239433287,0.0552972320690751,-0.1797376680670306
1772608931229950700,10.11795068359375,-0.5039262579709292,-0.8247001805931329,-0.714548053395003
1772608931239948800,10.12794873046875,-1.271577686652541,-1.3701830223113298,-0.8386850859995931
1772608931249946600,10.137946533203126,-2.0865882478803397,-1.344527479790151,-0.47974897130876776
1772608931259944700,10.14794482421875,-3.4871354287952183,-0.807857182341814,-0.03734152333550155
1772608931269942800,10.15794287109375,-5.086457461604476,-0.08786766854524612,-0.3771001324128359
1772608931279940600,10.167940673828125,-6.124931910303235,0.3158738756209612,-1.338002608066052
1772608931289938700,10.177938720703125,-5.928351938104629,0.23167057480216025,-2.2859292092248795
1772608931299936800,10.187936767578124,-5.138001770880818,-0.27700053960829973,-2.545103000241518
1772608931309933600,10.19793359375,-4.577831647640466,-1.0458253959834576,-2.0742219566516575
1772608931319931600,10.207931640625,-4.668320312339067,-1.5587389702692627,-1.2291828985154627
1772608931329929500,10.217929443359376,-5.438320934495329,-1.5936054087281226,-0.6815947550810874
1772608931339927600,10.227927490234375,-6.456553974676132,-1.449301567211747,-0.5567272162448614
1772608931349925600,10.237925537109374,-7.0785875566333525,-1.1954358194753527,-0.6838597774036228
1772608931359923700,10.247923828125,-6.913460122796892,-0.81140815282166,-0.7410083364278077
1772608931369921800,10.257921875,-6.4548600302398205,-0.3540823179841041,-0.4427286062190309
1772608931379920000,10.267919921875,-5.858622568318247,-0.04574439082592725,-0.019763196546956897
1772608931389917700,10.277917724609376,-5.277011597642302,0.005963292318582535,0.45258054000660775
1772608931399915800,10.287915771484375,-4.831840895500779,-0.23902093756496906,0.8010986479923129
1772608931409913900,10.297913818359374,-4.257104486769437,-0.5196522348910569,0.785483584100753
1772608931419910700,10.30791064453125,-3.025502252152562,-0.5143737099662423,0.3780330293487757
1772608931429908700,10.31790869140625,-1.5864239727914333,-0.3369885598421097,-0.18523948035370558
1772608931439906600,10.327906494140626,-0.2624187642872333,-0.18323504519611597,-0.5481363519016653
1772608931449904600,10.337904541015625,1.1193640949249266,-0.0998462756305933,-0.8073596811484545
1772608931459902700,10.34790283203125,2.181806863710284,-0.12824702520668507,-0.9829926538430154
1772608931469900500,10.357900634765626,2.6664117506176233,-0.24141017078906296,-1.0696778346054254
1772608931479898600,10.367898681640625,2.6382944941580293,-0.5622893073514104,-1.2190834562402217
1772608931489896700,10.377896728515625,2.1027835958778858,-0.6863599236562847,-1.1215261683296411
1772608931499894500,10.38789453125,1.8606518328160047,-0.4907368137910962,-0.7036515424579382
1772608931509892600,10.397892578125,1.8692583331197499,-0.29272827009409663,0.1695552967486903
1772608931519890700,10.407890625,1.6320470753252505,0.014456395375728607,0.9525332181714474
1772608931529888500,10.417888427734376,1.6182640491664408,0.14814210450500248,0.8941391891308128
1772608931539885800,10.4278857421875,1.381557233762741,-0.2291319962352514,0.27684237163821235
1772608931549883600,10.437883544921876,0.7168851180404424,-0.2924772179424763,-0.36984124732576307
1772608931559881700,10.4478818359375,-0.40863983760178085,0.2908464018702507,-0.8381117430910467
