time,seconds_elapsed,z,y,x
1772567292908712000,0.0777119140625,7.931084675690531,2.245036350083351,0.8260016916457563
1772567292918741000,0.087740966796875,8.036897750771045,2.4248200857818127,0.7742631019063293
1772567292928770000,0.09777001953125,7.970674927800894,2.469009940642118,0.6381076416626572
1772567292938798800,0.107798828125,7.7480065746217965,2.4060101713716984,0.4101549183398485
1772567292948828000,0.117827880859375,7.323904963994026,2.356495906618237,0.3301380728928372
1772567292958857000,0.12785693359375,6.650761957046389,2.2770146658852695,0.3352514338511973
1772567292968886000,0.137885986328125,5.787757472500204,2.1392487017050383,0.1924300859775394
1772567292978915000,0.1479150390625,4.738454755795002,2.023492324759066,-0.006702054921910166
1772567292988944100,0.157944091796875,3.67988035287559,1.6518658745169639,-0.11034505595434456
1772567292998973000,0.167972900390625,2.858599040815234,0.9982280707672238,-0.15841522284671664
1772567293009002000,0.178001953125,1.515017025181651,0.3274377644255757,-0.12861067088730632
1772567293019031000,0.188031005859375,0.03906242884397507,-0.051313423129916186,0.11586049490757286
1772567293029059800,0.198059814453125,-1.7347814736127853,-0.5949412846311927,0.9298429551966488
1772567293039089000,0.2080888671875,-3.832106219562888,-1.7825176227778194,1.9838073801025746
1772567293049118000,0.218117919921875,-6.08101970334053,-2.9826933302566405,3.1365023744821547
1772567293059147000,0.22814697265625,-8.422019350141287,-3.6590266576781865,3.289213978859782
1772567293069176300,0.23817626953125,-10.016660531657934,-3.6864392729997633,2.896310055050254
1772567293079205400,0.248205322265625,-10.790220307600498,-3.178145759730041,1.9232324998915193
1772567293089234200,0.258234130859375,-11.669221987223624,-2.3578099118262528,0.41723095767330376
1772567293099263200,0.26826318359375,-12.660042704343795,-2.0689213660255072,-1.158884058278054
1772567293109292300,0.278292236328125,-13.202778293180465,-2.70253315757364,-2.3919814998887476
1772567293119321000,0.288321044921875,-13.2083078702569,-3.1959114257842303,-3.076693217946589
1772567293129350100,0.29835009765625,-12.615593321764468,-3.3023373720660802,-3.178233730274439
1772567293139379200,0.308379150390625,-10.848604692029951,-3.248820009151101,-2.4601763535842296
1772567293149408000,0.318407958984375,-9.072364249825476,-3.0802444806873797,-1.6422274008169768
1772567293159437000,0.32843701171875,-7.369490072605013,-3.2462557116210458,-1.0653986229162662
1772567293169466400,0.33846630859375,-5.503019324377179,-3.3922996748030183,-0.4951231025839224
1772567293179495200,0.3484951171875,-3.6416157964110374,-3.1581989502444863,-0.25275146635156126
1772567293189524200,0.358524169921875,-2.0325982990175486,-2.715079919935763,-0.21641144820880143
1772567293199554300,0.36855419921875,-0.48135552972257134,-2.4297619260981675,-0.22602219365164636
1772567293209582300,0.378582275390625,1.0389718768268823,-2.2539088078469036,-0.3144762472501024
1772567293219612200,0.388612060546875,2.392774842223525,-1.9799735010281203,-0.4897172249523922
1772567293229641200,0.39864111328125,3.31793913808465,-1.6518869173049926,-0.7123814499456435
1772567293239670300,0.408670166015625,3.8349417352497577,-1.3543296196192502,-0.7921113316774367
1772567293249699000,0.418698974609375,4.115664802512526,-1.1071546016931533,-0.8703708485957234
1772567293259728100,0.42872802734375,4.15935372211337,-0.9825585002094507,-0.9621316521219908
1772567293269757200,0.438757080078125,4.024960449236631,-0.9441092348277568,-0.845107008805871
1772567293279786000,0.448785888671875,3.991543917325139,-0.8801765686213969,-0.6126351640908048
1772567293289815300,0.458815185546875,4.08234880836606,-0.8308291848674416,-0.4634607573959976
1772567293299844400,0.46884423828125,4.275703973299264,-0.7736948004990816,-0.3369098685827106
1772567293309873200,0.478873046875,4.6406303413808345,-0.6644914984583854,-0.18304412573389708
1772567293319902200,0.488902099609375,5.119002471378446,-0.40955023044496774,0.07103983133044094
1772567293329931300,0.49893115234375,5.654946500378847,-0.10287176093161106,0.311478928597644
1772567293339960000,0.5089599609375,6.215200794771313,0.07585048301517963,0.3594016498433426
1772567293349989000,0.518989013671875,6.739526282170415,0.2844958637997508,0.44294995735213155
1772567293360018200,0.52901806640625,7.148533199518918,0.5114975700080394,0.5662418809020892
1772567293370047200,0.539047119140625,7.441955004835128,0.6905772490903734,0.6568401799876242
1772567293380076300,0.549076171875,7.539648486346006,0.8406716567069291,0.6699626233458519
1772567293390105300,0.559105224609375,7.612275331139564,0.8795058297529816,0.49825193866156037
1772567293400134400,0.569134521484375,7.932960406434535,0.9364970062583684,0.3803997584801167
1772567293410163200,0.5791630859375,7.960480866044759,1.0272221100613474,0.45102045108303424
1772567293420192300,0.589192138671875,7.954223559215665,1.0261959818840025,0.3821393686890602
1772567293430221300,0.59922119140625,7.982028096464276,1.241681730082631,0.2624333773344755
1772567293440250000,0.60925,7.943149792015552,1.567606751857698,0.24918601068863644
1772567293450279200,0.619279052734375,7.736797198343276,1.7455644411727784,0.30608218412064014
1772567293460308200,0.62930810546875,7.5548331959962844,1.915086895097792,0.198576041386649
1772567293470337300,0.639337158203125,7.468765270349383,2.1823083834916353,-0.06794407097192015
1772567293480366300,0.649366455078125,6.907282895466685,2.6502602417618033,-0.12633830550853162
1772567293490395400,0.6593955078125,5.695472572034597,2.902484652031958,0.20180819170828906
1772567293500424200,0.669424072265625,4.813956863763928,2.5029674475625154,0.26950262160096317
1772567293510453200,0.679453369140625,4.116457414194941,2.408302081701159,-0.4431035039460286
1772567293520482300,0.689482421875,2.346263266417384,2.3510455322578547,-1.1461639851756393
1772567293530511000,0.699510986328125,0.031878070297837256,0.2908782583132386,-1.148536194199696
1772567293540540200,0.7095400390625,-2.0468898592203852,-0.6459934264764189,-0.6119253718536347
1772567293550569200,0.7195693359375,-4.078757505875826,-0.5604834269732236,0.09834858441874385
1772567293560598000,0.729597900390625,-5.428660541224479,-0.632796675772965,0.9423068615809083
1772567293570627300,0.73962744140625,-6.906965500080585,-0.3812938577756285,2.0142729532539843
1772567293580656400,0.749656494140625,-9.04856310299933,-0.4503773308739066,2.309063416574895
1772567293590686200,0.759686279296875,-10.379158795809746,-0.8260665005102753,1.5329975030303
1772567293600715300,0.76971533203125,-10.929750358843803,-0.7255290277451276,0.9078411128774285
1772567293610744300,0.779744384765625,-11.274702444911002,-0.5822963225916028,0.6176223413862287
1772567293620773400,0.7897734375,-11.738340531635284,-0.7671709516882896,0.7728357725169509
1772567293630802200,0.79980224609375,-11.858168688064813,-1.140990235799551,1.0420187702421098
1772567293640831200,0.809831298828125,-11.795759285902976,-1.4284630695834755,1.1545789084300397
1772567293650860300,0.8198603515625,-11.310526622486114,-1.6545973453074694,1.0694067625790833
1772567293660889000,0.82988916015625,-10.591057333171367,-1.7107433031603694,1.0233997752942143
1772567293670918100,0.839918212890625,-9.918015448510646,-1.6809680503606794,1.1862404864329843
1772567293680947200,0.849947265625,-9.163999746471642,-1.6116051757991312,1.368721279195696
1772567293690976300,0.859976318359375,-8.280895892226695,-1.4455992055624722,1.4656881999976932
1772567293701005300,0.87000537109375,-7.128225740027427,-1.3451906198740005,1.2970327381655573
1772567293711034400,0.880034423828125,-5.813628411337733,-1.30840461152941,0.8637738614834845
1772567293721063200,0.890063232421875,-4.410951232656836,-1.17837596360296,0.5092838029487058
1772567293731092200,0.90009228515625,-2.8223890787929293,-0.9929928004622459,0.46257849466875195
1772567293741121300,0.910121337890625,-1.205579320088029,-0.8966872661784291,0.6469741080768406
1772567293751150000,0.920150146484375,0.15831073955893515,-0.9051870912373066,0.8191958840884268
1772567293761179100,0.93017919921875,1.3297317694574593,-0.8882944086253642,0.8950643411517143
1772567293771208200,0.940208251953125,2.251353278145194,-0.7477639481678605,0.8010814776618033
1772567293781237200,0.9502373046875,3.1590134814977646,-0.5451593088522553,0.6236202666267753
1772567293791266300,0.960266357421875,3.9371594161868093,-0.3237462164312601,0.35140908018685874
1772567293801295400,0.97029541015625,4.613546519622206,-0.04538067208006978,0.06247837574481964
1772567293811324200,0.98032421875,5.212461676320434,0.2541932261250913,-0.03669657649546861
1772567293821353200,0.990353271484375,5.879080249935388,0.331709012003988,-0.10267178138010204
1772567293831382300,1.00038232421875,6.498683389875293,0.32412469435483215,-0.1486661283791065
1772567293841411000,1.0104111328125,6.939578314393758,0.2928191632479429,-0.11778415644653141
1772567293851440000,1.020440185546875,7.137524898770451,0.2631220902509987,-0.04162683597188443
1772567293861469200,1.03046923828125,7.27199474401474,0.1393742761597037,0.05006185216624289
1772567293871498000,1.040498046875,7.477620192456245,-0.016354191821068523,0.1087284145379439
1772567293881527300,1.05052734375,7.685792987293005,-0.07644318821132183,0.0963175900477916
1772567293891556400,1.060556396484375,7.86430012718439,-0.08815013874843716,0.07039112163074314
1772567293901585200,1.070585205078125,8.084264482101798,-0.11880275890454649,-0.05343870818819851
1772567293911614200,1.0806142578125,8.146677975916862,-0.13637217173427343,-0.2243077178839594
1772567293921643300,1.090643310546875,8.001599642896652,-0.18139803902730345,-0.4963246969260275
1772567293931672000,1.100672119140625,8.072869812384248,-0.2184884371459484,-0.8755803268723189
1772567293941701000,1.110701171875,8.27921013109684,-0.09770619486197829,-1.0108740557201206
1772567293951730200,1.120730224609375,7.924742613187432,-0.0748322458833456,-1.0635597901165486
1772567293961759200,1.13075927734375,7.572291695797443,-0.18020839085131882,-0.8880166145972908
1772567293971788300,1.140788330078125,7.1357298320472236,-0.15669570557773113,-0.8595859813395887
1772567293981817300,1.1508173828125,6.148918935090303,0.025870062054693697,-0.8255994675204157
1772567293991846400,1.160846435546875,4.711503620505333,0.3202379160493612,-0.4266365359328687
1772567294001875200,1.170875244140625,3.17401582031846,0.36999943356215953,-0.09955123820677399
1772567294011905300,1.1809052734375,1.7931980067461728,0.1275952832996845,-0.18197993056848644
1772567294021934300,1.190934326171875,-0.019015081593394278,-0.10226005877405404,-0.3754403825070709
1772567294031963100,1.200963134765625,-2.186654303741455,-0.36304011594355107,-0.3487691601373255
1772567294041992200,1.2109921875,-4.334379449629783,-0.6320853126332163,0.08469685648940503
1772567294052021200,1.221021240234375,-6.24161533896625,-0.48411739565134043,0.3508194437306374
1772567294062050000,1.231050048828125,-8.116473976311086,0.14973375761061905,0.3801133427541703
1772567294072079000,1.2410791015625,-10.175319646263121,0.5821715271681547,0.7759631107572466
1772567294082108200,1.251108154296875,-12.026841831684111,0.5639236305549741,1.4109309200242162
1772567294092137200,1.26113720703125,-13.19239835346341,0.3940358504489064,2.0910382130265233
1772567294102166300,1.271166259765625,-13.156839548826216,0.34734102703034875,2.305392765238136
1772567294112195300,1.2811953125,-12.504464020097254,0.24746874017566442,2.108647081083804
1772567294122224400,1.291224365234375,-11.429414867717027,-0.02558539989441633,1.8105895787909625
1772567294132253200,1.301253173828125,-10.070895979714393,-0.41965895200520753,1.7925830897182224
1772567294142282200,1.3112822265625,-8.648424551761149,-0.8269824463114142,2.0518826990716157
1772567294152311300,1.321311279296875,-7.30662708145678,-1.2685524936124681,2.106422390771657
1772567294162340000,1.331340087890625,-6.033317456445098,-1.5685136375695465,1.8961969011887907
1772567294172369200,1.341369140625,-4.860609309345484,-1.639356813816726,1.6073820051461458
1772567294182398200,1.351398193359375,-4.0223710172653195,-1.5265531491965054,1.4076102511689066
1772567294192427300,1.36142724609375,-3.3440777879476546,-1.3152715746894479,1.154280875331536
1772567294202456300,1.371456298828125,-2.8275135821998116,-1.0580483332186936,0.8527456869907677
1772567294212485400,1.3814853515625,-2.2684821076005695,-0.8182520273670554,0.5148291986487805
1772567294222514200,1.39151416015625,-1.2490449523270128,-0.4512935689359903,0.02687469991943799
1772567294232543200,1.401543212890625,0.030613164928555488,0.010607318732142448,-0.4351922193648293
1772567294242572300,1.411572265625,1.2877169205486774,0.40519525010585783,-0.7062418512120843
1772567294252601000,1.42160107421875,2.4696119981884954,0.6238540753826498,-0.7070429384618997
1772567294262630100,1.431630126953125,3.4073037671893833,0.7058724333778024,-0.5722098128631711
1772567294272659200,1.4416591796875,4.197559826388955,0.7811711277291178,-0.42808881710041313
1772567294282688300,1.451688232421875,4.965033560416102,0.8419917993947863,-0.12164864985495805
1772567294292717300,1.46171728515625,5.5391433616817,0.8117781551778316,0.2342794421263039
1772567294302746400,1.471746337890625,6.171421858799457,0.6943526759758591,0.414768988006562
1772567294312775200,1.481775146484375,6.7348021762579675,0.714907095965743,0.5672664381768554
1772567294322804200,1.49180419921875,6.930701180455088,0.749706314407289,0.661581163969636
1772567294332833300,1.501833251953125,7.076699550929665,0.6697887280836701,0.7174293809849769
1772567294342862000,1.511862060546875,7.118536705183982,0.5872039683774113,0.6300964038383216
1772567294352891100,1.52189111328125,7.096125551411509,0.504892472654581,0.44160774896293875
1772567294362920200,1.531920166015625,7.1469614201575515,0.4167340044692158,0.34240050188824533
1772567294372949200,1.54194921875,7.333962832149862,0.4380617469191551,0.48457639146521686
1772567294382978300,1.551978271484375,7.4478972543656825,0.4187611263826489,0.6028402942527085
1772567294393007400,1.56200732421875,7.6739570035487406,0.38523265852928157,0.5398940087351948
1772567294403036200,1.5720361328125,7.612910121911764,0.40719665305614466,0.43798258073572066
1772567294413065200,1.582065185546875,7.173657703903317,0.3166366766870022,0.4223498715896159
1772567294423094300,1.59209423828125,6.959919091632962,0.22466478769332168,0.4794885302742943
1772567294433123000,1.602123046875,6.8217147360354655,0.26244536003321406,0.4344854958675802
1772567294443152100,1.612152099609375,6.271105052822828,0.4044748268768191,0.41719457118567077
1772567294453181200,1.62218115234375,5.457235478323698,0.4375239867806434,0.5814637076923623
1772567294463210000,1.6322099609375,5.001000361332297,0.3288344794809818,0.5382889116261154
1772567294473239300,1.6422392578125,4.772981879296899,0.3557303774520755,0.1068683014881797
1772567294483268400,1.652268310546875,3.7515947589993472,0.4094996693015098,-0.13753107771212233
1772567294493297200,1.662297119140625,2.353750991824269,0.3846948983907699,0.035697299792431296
1772567294503326200,1.672326171875,1.0237807374358177,0.1726654281258583,-0.12103826287165284
1772567294513355300,1.682355224609375,-0.5682084682673215,0.05843377652913331,-0.31508509986344724
1772567294523384300,1.69238427734375,-2.4027532154023645,-0.02540799750089645,-0.26066476022675633
1772567294533413000,1.7024130859375,-4.5523909169137475,-0.34105946254283187,0.2585657421208918
1772567294543443200,1.712443115234375,-6.410117802193761,-0.6439870550900697,0.9129816175710409
1772567294553472300,1.72247216796875,-7.7966604231536385,-0.6879831409439444,1.308454588150978
1772567294563501000,1.7325009765625,-9.24121684166491,-0.5045981658831239,1.527180925706029
1772567294573530000,1.742530029296875,-10.531270096206665,-0.513740088237822,1.4651719210386276
1772567294583559200,1.75255908203125,-11.56999121314287,-0.85008830434978,1.1284108132768422
1772567294593588200,1.762588134765625,-12.061279523336887,-1.1482178489655255,0.8336325518503784
1772567294603617300,1.7726171875,-12.11222528219819,-1.2309209743544458,0.809978558409959
1772567294613646300,1.782646240234375,-11.7637134578228,-1.1672796923100948,0.9187476337518542
1772567294623675100,1.792675048828125,-11.157589977180956,-1.1834323702096938,0.9825354846600443
1772567294633704200,1.8027041015625,-10.326182407903671,-1.488757671548426,0.8878377508990466
1772567294643733200,1.812733154296875,-9.427132796508074,-1.8725062289997934,0.8011010591451078
1772567294653762000,1.822761962890625,-8.57013018272519,-2.3063570802256463,0.9453191951394081
1772567294663791000,1.832791015625,-7.678087235221266,-2.720359613904357,1.2211571207091212
1772567294673820200,1.842820068359375,-6.664519848763942,-2.881616343787312,1.348777830711007
1772567294683849200,1.85284912109375,-5.692600815990567,-2.7941744994387028,1.2241681390933692
1772567294693878300,1.862878173828125,-4.814443185976147,-2.5753090456739067,1.0845051821853966
1772567294703907300,1.8729072265625,-3.7966497062563893,-2.386584463150799,0.8292882390357553
1772567294713936400,1.882936279296875,-2.6567875977039335,-2.032507405863702,0.636401714527607
1772567294723965200,1.892965087890625,-1.4662304901808498,-1.6515104852080345,0.43200390818491574
1772567294733994200,1.902994140625,-0.17158230906426905,-1.2341557184919714,0.2271578831506893
1772567294744023300,1.913023193359375,0.9910276378691196,-0.8071805982545017,0.020097305605839937
1772567294754052000,1.923052001953125,1.9442530760884285,-0.49859746416360134,-0.18567991759758443
1772567294764081200,1.9330810546875,2.829192329066992,-0.2913853310525417,-0.33308888552244753
1772567294774110200,1.943110107421875,3.7790211105853317,-0.1475324481740594,-0.4063690796582028
1772567294784139300,1.95313916015625,4.571790029388666,-0.03841623989492655,-0.3890264978542924
1772567294794168300,1.963168212890625,5.231497216179966,0.05813567036539316,-0.2683126811640337
1772567294804197400,1.973197265625,5.806437623050808,0.12833031957596538,-0.1450807076403871
1772567294814226200,1.98322607421875,6.346954366794228,0.2079422009512782,-0.20790015190783886
1772567294824255200,1.993255126953125,6.767296917149424,0.369938935546577,-0.4465704494042322
1772567294834284300,2.0032841796875,7.170702361229061,0.5760004373177886,-0.6019206951897591
1772567294844313000,2.01331298828125,7.584543274605274,0.7603682859361172,-0.6926446299489587
1772567294854342100,2.023342041015625,7.903577075561881,1.0712450839221477,-0.798667183061689
1772567294864371200,2.03337109375,8.075221343946456,1.4133373966440557,-0.8775279538087546
1772567294874400300,2.043400146484375,8.239526940006018,1.6314570004776119,-0.9874666574519128
1772567294884429300,2.05342919921875,8.305722290447354,1.8242066007331013,-1.0985803962238132
1772567294894458400,2.063458251953125,8.122739466446637,1.9504533920332787,-1.094262021568045
1772567294904487200,2.073487060546875,7.921699592229723,1.9738594020619988,-1.0964461606740952
1772567294914516200,2.08351611328125,7.6764733702838415,2.0935113251417876,-1.0652119412377477
1772567294924545300,2.093545166015625,7.384281399023532,2.2796537822172045,-1.1300350534778087
1772567294934574000,2.103573974609375,6.886245952656865,2.3875457093983887,-1.211400354391709
1772567294944603100,2.11360302734375,6.205151109921932,2.335684296996891,-1.2311563905455172
1772567294954632200,2.123632080078125,5.540470226371288,2.175825743474066,-1.2915154360488057
1772567294964661200,2.1336611328125,4.807206220459938,1.9048671143785119,-1.3575538423627613
1772567294974690300,2.143690185546875,4.074520891219377,1.508469210973382,-1.475124575254321
1772567294984719400,2.15371923828125,3.2400422439336776,0.9590843933805823,-1.6061024867296219
1772567294994748200,2.163748046875,1.829774463993311,0.026961072161793706,-1.9121882510468362
1772567295004777200,2.173777099609375,0.2530781044900417,-1.1620564047038555,-1.8583821343183515
1772567295014806300,2.18380615234375,-2.0865549301326274,-1.9073364271014928,-0.789594964942336
1772567295024835000,2.1938349609375,-4.576085680755972,-2.0097221580818294,1.006129637672007
1772567295034864000,2.203864013671875,-5.200342199459672,-1.6525833751365542,2.3381265755824745
1772567295044893200,2.21389306640625,-5.460708707392215,-1.0497983912676572,2.0383583238489926
1772567295054922000,2.223921875,-6.906432416117191,-0.493064672216773,1.450009277089685
1772567295064951300,2.233951416015625,-8.136254197058081,-0.4829430911749601,1.367701288498193
1772567295074980400,2.24398046875,-9.053716832500696,-0.7865747403383254,1.5065310825176537
1772567295085009200,2.254009033203125,-9.670917002952098,-1.0762941840052604,1.5783318517506122
1772567295095038200,2.2640380859375,-9.937627326953411,-1.313743926730752,1.7133517320930958
1772567295105068300,2.274068359375,-9.676146720299124,-1.4776660764306784,1.9253011228591204
1772567295115097300,2.284097412109375,-8.925161764258146,-1.4017501269638537,1.9586798069782554
1772567295125126100,2.294126220703125,-7.75064861356318,-1.097498300075531,1.8100789989203214
1772567295135155200,2.3041552734375,-6.2799845248490564,-0.7541933966934681,1.4047167216844856
1772567295145184300,2.314184326171875,-4.653613157072663,-0.4605059261783957,0.899241480705887
1772567295155213000,2.324213134765625,-2.8396926802933216,-0.10500964974313974,0.4089430948646739
1772567295165242000,2.3342421875,-1.287352178889513,0.20350392624288796,0.003232332984730601
1772567295175271200,2.344271240234375,-0.43120530515313144,0.21313070950508117,-0.6855591286674142
1772567295185300200,2.35430029296875,0.3189537214577198,0.17551117294579743,-0.9240453017685561
1772567295195329300,2.364329345703125,1.2441028197497128,0.22595979593992233,-0.7531798357367515
1772567295205358300,2.3743583984375,1.7775994555979966,0.265011703389883,-0.6763157917648553
1772567295215387100,2.38438720703125,1.9530489614844322,0.18963994380235671,-0.5398983561167493
1772567295225416200,2.394416259765625,2.1975877856880426,0.12668079880326985,-0.16931940563358366
1772567295235445200,2.4044453125,2.5601591150760648,0.2607137139350176,0.3854108646403998
1772567295245474000,2.41447412109375,2.9736130749613046,0.45891748794317244,0.7544912105962633
1772567295255503000,2.424503173828125,3.4983535729020834,0.514653988212347,0.6898285496149211
1772567295265532200,2.4345322265625,3.912928061249852,0.4324368927747011,0.24124020278332753
1772567295275561200,2.444561279296875,4.199560644817352,0.25889000563919545,-0.3803161718498915
1772567295285590300,2.45459033203125,4.685019518205523,0.25363398480713367,-0.9037754708737135
1772567295295619300,2.464619384765625,5.0327995211750265,0.3953948638424277,-1.2071886549808084
1772567295305648400,2.4746484375,5.355132948198914,0.4343193455204367,-1.2736118228286504
1772567295315677200,2.48467724609375,5.529929543134569,0.42885260454714297,-1.0374858760528265
1772567295325706200,2.494706298828125,5.413015812847018,0.39446635082066056,-0.6293260770529508
1772567295335735300,2.5047353515625,5.390659604132175,0.3609510347098112,-0.3671942034156993
1772567295345764000,2.51476416015625,5.256440518778562,0.3858414380773902,-0.1104465801000595
1772567295355793200,2.524793212890625,5.052717104566097,0.4578136183544993,0.2889962804915383
1772567295365822200,2.534822265625,5.017829331058263,0.45851855175346135,0.4979503253664821
1772567295375851300,2.544851318359375,5.253223894819617,0.47503129513710735,0.45410241581164296
1772567295385880300,2.55488037109375,5.305170355156064,0.5863233861505985,0.16914255122933536
1772567295395909400,2.564909423828125,4.9817695911616084,0.6373226287648082,-0.054398310467973346
1772567295405938200,2.574938232421875,4.532518926230073,0.5260960042029619,-0.23439663876518604
1772567295415967200,2.58496728515625,4.156629850107431,0.36869361166059966,-0.2983346387337893
1772567295425996300,2.594996337890625,3.3328748414099216,0.3150701580226421,-0.22677754206359385
1772567295436025000,2.605025146484375,1.99449331702888,0.27097353440374133,-0.2308357314132154
1772567295446054100,2.61505419921875,0.14093173473477363,0.06921206791400909,-0.22142675562016664
1772567295456083200,2.625083251953125,-1.4376163901150225,-0.24926468368172644,0.13483020298928022
1772567295466112300,2.6351123046875,-2.876163923600316,-0.546062687432766,0.9460473632834852
1772567295476141300,2.645141357421875,-4.242916386941075,-0.6335436947479843,1.915437608231604
1772567295486170400,2.65517041015625,-5.130324660381675,-0.671458122600615,2.538222885338962
1772567295496199200,2.66519921875,-5.743858709540963,-0.6515022530257701,2.7215812646538016
1772567295506228200,2.675228271484375,-6.598081337216496,-0.5897799563452601,2.3062901524692774
1772567295516257300,2.68525732421875,-7.74054047652483,-0.7875134824931621,1.6074293514192104
1772567295526286000,2.6952861328125,-8.355110298472642,-1.0315917034476996,1.1775250458620488
1772567295536315100,2.705315185546875,-8.567116387861967,-1.1288792345061898,1.0786232114747165
1772567295546344200,2.71534423828125,-8.725463952299952,-1.4432996964484452,1.1863996955826879
1772567295556373000,2.725373046875,-8.586627144017815,-1.9256994745269416,1.4250043074317276
1772567295566402300,2.73540234375,-8.236680902925134,-2.2933906311467287,1.7316738629862665
1772567295576431400,2.745431396484375,-7.723187190663814,-2.5026620348751543,1.9272128016993402
1772567295586460200,2.755460205078125,-6.993859355157613,-2.5769173576533793,1.928257634577155
1772567295596489200,2.7654892578125,-6.116394968104363,-2.425031974966824,1.6009101787835358
1772567295606518300,2.775518310546875,-5.209990902292728,-2.1767405202314256,1.179159515196085
1772567295616547000,2.785547119140625,-4.253621905350685,-2.022619925838709,0.7690149721197783
1772567295626576100,2.795576171875,-3.358292191261053,-1.8228546016022562,0.3249083190131932
1772567295636605200,2.805605224609375,-2.49179752651155,-1.5753373461097477,-0.16392616828791795
1772567295646634000,2.815634033203125,-1.7076812852412462,-1.3710691574960947,-0.5041999603457749
1772567295656663300,2.825663330078125,-1.0193377865523099,-1.1678636296778917,-0.8864009230289608
1772567295666692400,2.8356923828125,0.020631284618377686,-0.9480512504518032,-1.1623512959972024
1772567295676721200,2.84572119140625,1.2020751113593577,-0.5464595777958631,-1.2190269768126307
1772567295686750200,2.855750244140625,2.148245954892039,0.09788900408297777,-1.2216754454948007
1772567295696779300,2.865779296875,2.9727953288376328,0.6921455213204026,-1.1104755628094076
1772567295706808300,2.875808349609375,3.6132787597209215,1.0385103967949747,-0.9742330088041722
1772567295716837000,2.885837158203125,4.041451565310359,1.261079965774715,-0.6049040218494832
1772567295726866200,2.8958662109375,4.548686217176914,1.4885662406295537,-0.21739238553754983
1772567295736896300,2.905896240234375,4.99959575523138,1.6609879231274127,-0.1766794860728085
1772567295746925000,2.915925048828125,5.183055549094081,1.6955942493453622,-0.12303038653694093
1772567295756954000,2.9259541015625,5.442197483667731,1.635352838872373,-0.003666906743403524
1772567295766983200,2.935983154296875,5.954449671435356,1.5789128665089607,-0.03298734671398997
1772567295777012200,2.94601220703125,6.371099797013402,1.5027084554895758,-0.1597914796359837
1772567295787041300,2.956041259765625,6.538620263466239,1.2604819998815655,-0.31417978505417704
1772567295797070300,2.9660703125,6.567578062403202,0.9194771901354193,-0.3457982545677572
1772567295807099100,2.97609912109375,6.707599112033844,0.6953752970218658,-0.17498050013519822
1772567295817128200,2.986128173828125,6.955844389539957,0.7128168456882238,0.11021193109396844
1772567295827157200,2.9961572265625,6.846650439849496,0.8394359774321317,0.5707019655834883
1772567295837186000,3.00618603515625,6.678295276138186,0.9357271909296512,0.8571742440227419
1772567295847215000,3.016215087890625,6.692469931963085,0.9058695205435157,0.7004420058269053
1772567295857244200,3.026244140625,6.603553631147742,0.8668369023159146,0.38647929758951066
1772567295867273200,3.036273193359375,6.452115699967742,0.8003829009383916,-0.0471002624142915
1772567295877302300,3.04630224609375,5.9398652657657856,0.6946350000485777,-0.3801011408597231
1772567295887331300,3.056331298828125,5.072659237876534,0.4667953817114234,-0.43375053265653546
1772567295897360400,3.0663603515625,4.388381673452258,-0.09308364962786436,-0.5147367711249738
1772567295907389200,3.07638916015625,3.5636230406701563,-0.7239025955870747,-0.42249454075731335
1772567295917418200,3.086418212890625,2.535335639464855,-1.0738514670282602,-0.20561828804835677
1772567295927447300,3.096447265625,1.3704302750706672,-1.194521042717993,0.0339866599496454
1772567295937476000,3.10647607421875,0.015535422784090041,-1.337106682139635,0.3534690083913505
1772567295947505200,3.116505126953125,-1.4019500334501265,-1.3942735074728727,0.49623665331639344
1772567295957534200,3.1265341796875,-2.7157214327096937,-1.4001035288006067,0.4142625728543848
1772567295967563300,3.136563232421875,-3.8238773203998804,-1.326196581068635,0.522140617640689
1772567295977592300,3.14659228515625,-4.435920838740468,-1.1532499979138373,0.9025927638951688
1772567295987621400,3.156621337890625,-5.110110139870644,-1.109290736939013,0.882537744794786
1772567295997650200,3.166650146484375,-6.235901637494564,-1.1596709708720445,0.28443887291550635
1772567296007679200,3.17667919921875,-7.298009475237131,-1.2757982269570232,-0.1970605222571641
1772567296017708300,3.186708251953125,-8.518149820119142,-1.5939602135151625,-0.16945501471199095
1772567296027737000,3.196737060546875,-9.444403080260754,-2.233872274251282,0.5662446939136833
1772567296037766100,3.20676611328125,-9.582418050765991,-2.825806778281927,1.288116733521223
1772567296047795200,3.216795166015625,-9.284922127878666,-3.004519085356593,1.545215471829474
1772567296057824300,3.22682421875,-8.500298521608114,-2.5613141303300857,1.4068040493525564
1772567296067853600,3.236853515625,-7.82875418202877,-2.073086376750469,0.9857390299417078
1772567296077882400,3.24688232421875,-7.162936987924575,-2.076114200139046,0.4119652922300622
1772567296087911400,3.256911376953125,-6.237551742789149,-2.0719798768132924,-0.43972726897858083
1772567296097940500,3.2669404296875,-5.621934457615017,-2.047198194517195,-1.0958571087397635
1772567296107969300,3.27696923828125,-4.988018130162358,-2.2332173174738883,-1.3393338566698134
1772567296117998300,3.286998291015625,-4.1150954781919715,-2.4125977330684663,-1.0297202104873955
1772567296128027400,3.29702734375,-2.9387556965917345,-2.2663751984491944,-0.5443250499852001
1772567296138056200,3.30705615234375,-1.571823200508952,-1.5727224874362349,0.16910806443784385
1772567296148085200,3.317085205078125,-0.08895020308494567,-0.8950392067104578,0.5071349908843636
1772567296158114600,3.327114501953125,1.3442939632952213,-0.4853443070977926,0.4599987073086202
1772567296168143400,3.337143310546875,2.620809690871835,-0.29067338339090343,-0.1887804774288088
1772567296178172400,3.34717236328125,3.5261142710089683,-0.5056625802442432,-1.196986117657274
1772567296188201500,3.357201416015625,4.014624348661303,-0.9194012022897601,-1.8347689112797378
1772567296198230300,3.367230224609375,4.160834900581836,-1.2138546887412667,-1.6506579600319264
1772567296208259300,3.37725927734375,4.063147848811745,-1.1382099574312567,-0.42155097629688676
1772567296218288400,3.387288330078125,3.8998815326720475,-0.8910983601301908,1.1180069812275468
1772567296228317200,3.397317138671875,3.5230981380581854,-0.6335922100648284,1.8383751190781592
1772567296238346200,3.40734619140625,3.14374693878293,-0.4373962687477469,1.6744295885026454
1772567296248375300,3.417375244140625,3.425883379974961,-0.08244535123556852,0.91905392322205
1772567296258404400,3.427404296875,3.5153374409288167,0.41683921840935945,0.1473461318217218
1772567296268433400,3.437433349609375,3.857533506286144,0.6394701621875166,-0.6841480928257108
1772567296278462500,3.44746240234375,4.425308843833208,0.7383803260117768,-1.1384708733897655
1772567296288491300,3.4574912109375,5.089866977787017,1.0770131459295749,-1.007066772391647
1772567296298520300,3.467520263671875,5.739063876479864,1.4588397954076529,-0.8307927253145724
1772567296308549400,3.47754931640625,6.216635796010494,1.4874439586013555,-0.842663707306981
1772567296318578200,3.487578125,6.571662701368331,1.3708660361394285,-0.8484642102792859
1772567296328607200,3.497607177734375,6.483195313364267,1.479227918919921,-0.5048600316897034
1772567296338636300,3.50763623046875,6.38881957809925,1.5954820162549614,-0.3676587156549096
1772567296348665300,3.517665283203125,6.600016689193248,1.5512319556400178,-0.8233677629455923
1772567296358694400,3.5276943359375,6.399535033380985,1.6639318676248191,-1.4328877541579306
1772567296368723500,3.537723388671875,6.234018307965994,1.9320754392996429,-1.7499498166501521
1772567296378752300,3.547752197265625,6.360591262480616,2.3690187035828827,-1.9037021622523664
1772567296388781300,3.55778125,6.503810231369734,2.887654454907775,-2.0226108657494186
1772567296398810400,3.567810302734375,6.243686884543299,3.207718767955899,-2.2292488522343334
1772567296408839200,3.577839111328125,6.153267777949571,3.0866569780781865,-2.51061562422812
1772567296418868200,3.5878681640625,6.332559930738807,2.9434730805024505,-2.526028005154431
1772567296428898300,3.597898193359375,6.101224871501326,2.826537430644035,-2.579989604705572
1772567296438927400,3.60792724609375,4.555712170290946,2.3974229602903128,-2.341737313425541
1772567296448956200,3.6179560546875,1.914710170739889,1.5740882228314876,-1.2369004871554672
1772567296458985200,3.627985107421875,-1.998573864340782,0.5519190122455359,0.16623473749123513
1772567296469014500,3.6380146484375,-6.178342597973346,-0.640150253406167,0.5760669997479766
1772567296479043300,3.648043212890625,-9.37672772039473,-1.227981706032157,-0.05469148472826928
1772567296489072400,3.658072265625,-11.733488999950884,-1.3236919047713278,-1.2607815673500298
1772567296499101400,3.668101318359375,-12.887201939201354,-1.150387594220042,-2.347082619976252
1772567296509130200,3.678130126953125,-13.006231638729572,-1.688820517426729,-2.6089023954570294
1772567296519159300,3.6881591796875,-12.057712770766019,-2.2139941460877655,-2.1215843040682376
1772567296529188400,3.698188232421875,-10.69049502800107,-1.797576660221815,-1.2858717310734094
1772567296539217200,3.708217041015625,-9.988719216287135,-1.506236921876669,-0.4037083725489676
1772567296549246200,3.71824609375,-9.550019755986332,-2.0146271735191346,0.5967657235793768
1772567296559275300,3.728275146484375,-8.5525091858387,-2.315458670569956,1.4596888134524226
1772567296569304300,3.73830419921875,-7.01147041517198,-1.933475953747332,1.3954193165071307
1772567296579333400,3.74833349609375,-5.756645125877857,-1.2547186140492557,0.9334897872664034
1772567296589362400,3.758362548828125,-4.3999148748576635,-0.8453276658192277,0.6280865983858704
1772567296599391200,3.76839111328125,-3.2420062374830243,-0.6661822280243038,-0.18148323309272527
1772567296609420300,3.778420166015625,-2.534539520651102,-0.46955052563846106,-0.7034872918069363
1772567296619449300,3.788449462890625,-1.8854449132889508,-0.2826113652274012,-0.6551418516371399
1772567296629478400,3.798478515625,-0.8299661382973194,-0.14618746330589055,-0.08445530281849205
1772567296639507200,3.808507080078125,-0.03546761922240257,-0.1354053725287318,0.29370259501896795
1772567296649536300,3.818536376953125,0.83597034714818,-0.18234160348773001,0.512698981687054
1772567296659565600,3.828565673828125,1.4626689983069896,-0.32018092516511676,0.9021656975895166
1772567296669594400,3.838594482421875,2.096741977626085,-0.3799105867236852,1.6522383610911666
1772567296679623400,3.84862353515625,3.0510850216984746,-0.29804332763701674,1.956475428801775
1772567296689652500,3.858652587890625,3.5593519392222164,-0.178384098033607,2.087865574339777
1772567296699681300,3.868681396484375,4.054974479228258,-0.19149726210683582,2.0634550634436306
1772567296709710300,3.87871044921875,4.610681777840853,-0.2591103703916073,1.520775588708371
1772567296719739400,3.888739501953125,4.847694298192859,-0.20387509764283895,0.8763611019864678
1772567296729768200,3.898768310546875,5.438152592191099,-0.10729834520220756,0.7139861817285418
1772567296739797200,3.90879736328125,5.967717733809351,-0.0818733965665102,0.8983796031795441
1772567296749826300,3.918826416015625,6.2678346528500315,-0.047369069418311115,0.986661332418397
1772567296759855400,3.92885546875,6.628917789506912,-0.046907589386403555,1.085124994584173
1772567296769884400,3.938884521484375,6.901580299910902,-0.014785773460566996,1.2832348066985606
1772567296779913500,3.94891357421875,6.9343708088785405,-0.05005085584819317,1.505057941225171
1772567296789942300,3.9589423828125,7.031778459185362,-0.15010697483718394,1.6655863568335771
1772567296799971300,3.968971435546875,7.2397571927547455,-0.16907821728885172,1.6467632906809448
1772567296810000400,3.97900048828125,7.178908464038372,-0.17725158687233925,1.4795495520897208
1772567296820029200,3.989029296875,6.825534586584568,-0.21074936732649802,1.3645824258252977
1772567296830058200,3.999058349609375,6.4991282110333435,-0.20030337663590908,1.2636550769597292
1772567296840085200,4.009085205078125,6.498289422121644,-0.1917597124353051,1.2347218279421328
1772567296850114300,4.0191142578125,6.267251884526014,-0.13683949698507786,1.0561819548249245
1772567296860143400,4.029143310546875,5.905638586515188,-0.05762888988703489,0.7519443025924265
1772567296870172200,4.039172119140625,5.260890483924746,0.11343933217525481,0.6045049760619178
1772567296880201200,4.049201171875,4.333109283563495,0.12516834841370583,0.36114425572697073
1772567296890230500,4.05923046875,3.1721745763659475,0.062246320554614064,0.05199663788741454
1772567296900259300,4.06925927734375,1.6075906794607637,-0.0024041385322809217,-0.06450456607649102
1772567296910288400,4.079288330078125,-0.21773381938636302,-0.2471270871311426,-0.03745692987609654
1772567296920317400,4.0893173828125,-2.2056004117518664,-0.6038815469339489,-0.027616786991013213
1772567296930346200,4.09934619140625,-4.336350457441807,-0.8498883978635072,-0.2043257640197873
1772567296940375300,4.109375244140625,-6.218349029669165,-1.0570341877400875,-0.33869832290206103
1772567296950404400,4.119404296875,-8.008506938067079,-0.8981064853265881,-0.3930979850769043
1772567296960433200,4.12943310546875,-9.592020576369762,-0.6640376172110438,-0.6200903389349579
1772567296970462200,4.139462158203125,-10.438437498730421,-0.5452510787889361,-0.9245699101645499
1772567296980491500,4.149491455078125,-11.052897430562972,-0.4050684088557958,-1.4227607662886381
1772567296990520300,4.159520263671875,-10.980788472163676,-0.39112317787259815,-1.8048139179989695
1772567297000549400,4.16954931640625,-10.64198555637598,-0.657289604255557,-1.804120967298746
1772567297010578400,4.179578369140625,-10.41538746253252,-1.143157350705564,-1.5273726488858461
1772567297020607200,4.189607177734375,-9.803413502296804,-1.5298185807332396,-1.0284151192381978
1772567297030636300,4.19963623046875,-8.841866810455917,-1.621093135112524,-0.39521220075190067
1772567297040665300,4.209665283203125,-7.638474771279096,-1.5488672723352908,0.09902717780005187
1772567297050694100,4.219694091796875,-6.351868442320823,-1.3814531888663768,0.25409283449053766
1772567297060723200,4.22972314453125,-5.273309235993027,-1.1724942120879889,0.09501436196211725
1772567297070752300,4.239752197265625,-4.507446444293857,-1.2135048523902892,-0.2676340512501076
1772567297080781600,4.249781494140625,-4.001448640745878,-1.5324109353139996,-0.44455527365691955
1772567297090810400,4.259810302734375,-3.5281893237173554,-1.7235542694166301,-0.12520279867257922
1772567297100839400,4.26983935546875,-2.8421844971090553,-1.4493106273010372,0.32362828914001585
1772567297110868500,4.279868408203125,-2.0408342124432326,-0.831861742785573,0.4388354347053915
1772567297120897300,4.289897216796875,-1.0790542963683605,-0.3058279901638627,0.2823518375083804
1772567297130926300,4.29992626953125,-0.1484399184077978,0.002882277438044548,0.04468903655409813
1772567297140956400,4.309956298828125,0.691311116322875,0.28408699073791505,-0.2867399163994938
1772567297150985500,4.3199853515625,1.3582353948861359,0.3641241117879748,-0.53559002793096
1772567297161014300,4.33001416015625,1.9770336481839417,0.2740238618850708,-0.4070000345055014
1772567297171043300,4.340043212890625,2.786138200238347,0.14711509954482316,-0.08077588365338742
1772567297181072400,4.350072265625,3.5022874052196737,0.1285971538186073,0.34409766119495033
1772567297191101400,4.360101318359375,3.8997915163010357,0.10825228492617607,1.097073060400784
1772567297201130500,4.370130615234375,4.43729738779068,-0.004565700480341911,1.7815223281301558
1772567297211159600,4.38015966796875,5.1302597784519195,-0.0830737122669816,2.035591197223216
1772567297221188400,4.390188232421875,5.733226256367564,0.014581775321066378,1.777876518973708
1772567297231217400,4.400217529296875,6.367075948324799,0.11837269692420958,1.288017949321866
1772567297241246500,4.41024658203125,6.937333165815472,0.08806728277057409,1.0679428275063634
1772567297251275300,4.420275146484375,7.234813306611776,-0.021743629774451254,0.8631665432401001
1772567297261304300,4.43030419921875,7.7078645338475695,0.11245236696451902,0.7301106564469635
1772567297271333400,4.44033349609375,8.011754541686177,0.49499739384502167,0.6447900420360266
1772567297281362200,4.450362060546875,7.79238756814003,0.9716592127934097,0.14545922209657727
1772567297291391500,4.4603916015625,7.648895043006539,1.0204328883126377,1.0135120030082763
1772567297301420500,4.470420654296875,7.952994309681653,0.49758419546782967,1.1037090643491596
1772567297311449300,4.480449462890625,7.9290125455915925,0.7696241900593042,0.6262937236197292
1772567297321478400,4.490478515625,7.56021313546896,1.1405001141950488,0.6839562235154211
1772567297331507500,4.500507568359375,7.411673263818025,0.8964481967255472,0.5978491349019109
1772567297341536300,4.510536376953125,7.3224419057041406,0.6319380131170154,0.43422410498503594
1772567297351565300,4.5205654296875,7.025905183237791,0.6281026727378368,0.17556911367811262
1772567297361594400,4.530594482421875,6.584315846714377,0.6233952256992459,-0.14683403584742918
1772567297371623200,4.540623046875,5.74420007032454,0.5115808643773198,-0.3483203934565186
1772567297381652500,4.550652587890625,4.348674516963959,0.34594694232344625,-0.2974061074457131
1772567297391681500,4.560681640625,3.039084787303209,0.15347294413894413,-0.2534170541208237
1772567297401710300,4.57071044921875,1.7483634242415427,0.08834639197289944,-0.46376061712540684
1772567297411739400,4.580739501953125,-0.2983808890283108,0.24251257907301185,-0.7285277711696923
1772567297421768400,4.5907685546875,-1.6486065804600714,0.06354892758578062,-0.7722969163998961
1772567297431797200,4.60079736328125,-3.0974662491232157,-0.015009060822427272,-0.8748044471289962
1772567297441826300,4.610826416015625,-5.710752558752894,-0.08268091355711221,-0.8814645626053214
1772567297451855400,4.62085546875,-7.949016053700446,-0.8483449678137898,-0.8120121100641786
1772567297461884400,4.630884521484375,-9.578135843402146,-1.6647046055629848,-0.22723973448155446
1772567297471913200,4.640913330078125,-10.978553260457515,-2.0448869949653745,0.3757472199665382
1772567297481944300,4.6509443359375,-13.35474813928008,-2.0443384211719033,0.44468065360225734
1772567297491973400,4.660973388671875,-13.9240221909523,-1.665818119762838,0.1108077415626496
1772567297502002400,4.67100244140625,-14.040851750087738,-0.9099597124665975,-0.42350525216981766
1772567297512031200,4.68103125,-13.363711197936533,-0.35571605666577816,-0.9785100285362451
1772567297522060300,4.691060302734375,-12.443162871438265,-0.014244798451662063,-1.31471715567708
1772567297532089300,4.70108935546875,-11.20251399153471,-0.055091188102960584,-1.3213783671319483
1772567297542118400,4.711118408203125,-9.443369061037897,-0.3228770323812961,-1.0218717620093374
1772567297552147500,4.7211474609375,-7.514813904818892,-0.5283250784292817,-0.5623336214171722
1772567297562176500,4.731176513671875,-5.946618831679225,-0.8872770482763648,-0.21322167572416365
1772567297572205300,4.741205322265625,-4.6109927434861655,-1.3004264722570775,-0.0362975307079032
1772567297582234400,4.751234375,-3.0938480586260555,-1.4933967295259236,0.1750808552371338
1772567297592263400,4.761263427734375,-1.7582184633016584,-1.4214537753432988,0.30302403865903615
1772567297602292200,4.771292236328125,-0.7888163817852735,-1.327555886723101,0.33838081791810687
1772567297612321300,4.7813212890625,-0.1046387706041336,-1.3724848695129155,0.5546115392651408
1772567297622350300,4.791350341796875,0.40593993099331854,-1.3600044503852724,1.0317621646437793
1772567297632379400,4.80137939453125,1.0309680185914039,-1.1999021512344479,1.4387418870136142
1772567297642408400,4.811408447265625,1.7870909220427273,-0.9296674524992704,1.671615261734277
1772567297652437500,4.8214375,2.580453715085983,-0.5749798620983958,1.7864476557031272
1772567297662466300,4.83146630859375,3.350018283912539,-0.33427140983790155,1.8303214303515851
1772567297672495400,4.841495361328125,4.194744184446335,-0.2668222599431872,1.7313314792893826
1772567297682524400,4.8515244140625,5.02072680606544,-0.2964092966943979,1.6312170542418956
1772567297692553200,4.86155322265625,5.835993387880921,-0.3649041562497616,1.4818936309978366
1772567297702582300,4.871582275390625,6.679479517486691,-0.3929334421649575,1.4962205547749996
1772567297712611300,4.881611328125,7.415142985755205,-0.25220453652590513,1.7457393593482673
1772567297722640400,4.891640380859375,8.12018159865737,-0.06223609142154455,2.0957953444257376
1772567297732669400,4.90166943359375,8.746069517955183,0.06472966180294752,2.2214817253641783
1772567297742698500,4.911698486328125,8.947728400853276,0.23663842634260654,2.157927829342335
1772567297752727300,4.921727294921875,8.850894166520238,0.4370911483213305,2.052109785825759
1772567297762756400,4.93175634765625,8.660607156985998,0.5829316978856921,1.8749669200249015
1772567297772785400,4.941785400390625,8.378314063927531,0.7674971149027348,1.6250103085562586
1772567297782814200,4.951814208984375,8.071960880845785,1.0510805400326848,1.4419544193193317
1772567297792843300,4.96184326171875,7.985612969213724,1.3866647860348225,1.2587787030950188
1772567297802872300,4.971872314453125,7.779328180080652,1.5876520532816647,1.0198963702831416
1772567297812901400,4.9819013671875,7.441917595434188,1.6613108714714646,0.7769283755928278
1772567297822930400,4.991930419921875,7.021722929117083,1.6762474515795707,0.5882781734801829
1772567297832959500,5.00195947265625,6.3557327165335415,1.6011530476287006,0.478048414468579
1772567297842988500,5.011988525390625,5.5897536049783225,1.4393243630766868,0.20975200858591123
1772567297853017300,5.022017333984375,4.466156987050176,1.0891022276520728,-0.09990878294017165
1772567297863046400,5.03204638671875,3.162055917933583,0.5414607465952634,-0.38736945136226714
1772567297873075500,5.042075439453125,1.709457062742114,-0.2624646492555737,-0.7710521039705723
1772567297883104300,5.052104248046875,0.45813481313288207,-0.5001788881361484,-0.8965361672699451
1772567297893133300,5.06213330078125,-0.1093009171962738,-0.13088175762444734,-0.7418927911121398
1772567297903162400,5.072162353515625,-0.3281026580750942,0.01447889946848154,-0.9856870074935257
1772567297913191400,5.08219140625,-0.8553454942256212,0.01360182437300682,-0.9362510686732828
1772567297923220500,5.092220458984375,-1.1223527553468942,0.3095382428586483,-0.7661945078715682
1772567297933249500,5.10224951171875,-2.97515095205307,0.4174009439453482,-0.7494310045972467
1772567297943278300,5.1122783203125,-5.295026562282443,0.23573592454493045,-0.5295690871410071
1772567297953307400,5.122307373046875,-6.816768511804938,0.17412527154535054,0.06424567767828702
1772567297963336400,5.13233642578125,-8.05270263814628,0.0965957494020462,0.4081184440761804
1772567297973365200,5.142365234375,-9.17157631920576,-0.22894407244771717,0.6419374290838837
1772567297983394300,5.152394287109375,-9.808042331141232,-0.5407420769318938,0.9235735195383429
1772567297993423400,5.16242333984375,-10.026167195671796,-0.3897840382233262,0.9763788617264478
1772567298003452400,5.172452392578125,-9.553406475815176,0.1303036654755473,0.652804640861228
1772567298013481500,5.1824814453125,-8.69473212942779,0.3115563046827912,0.25103417757228014
1772567298023510500,5.192510498046875,-8.04386408265233,-0.11743044763803481,-0.1918203565813601
1772567298033539300,5.202539306640625,-7.201001637902856,-0.5636342922195792,-0.42234720470849424
1772567298043568400,5.212568359375,-6.0844105148226015,-0.7172095276892185,-0.49814095256775615
1772567298053597400,5.222597412109375,-5.461954908061027,-0.8785340621113776,-0.3590225143326446
1772567298063626200,5.232626220703125,-4.974987383675575,-1.3493348800718783,0.04471815305072814
1772567298073655300,5.2426552734375,-4.630597607666254,-1.8749644358068704,0.47493422797080126
1772567298083684400,5.252684326171875,-3.5152065080255266,-2.002193516142666,0.7118068649280815
1772567298093713400,5.26271337890625,-2.034526052209735,-1.6502438262730836,0.45013614252917467
1772567298103742500,5.272742431640625,-0.8703373116523027,-1.1844815870016812,0.08998880715137347
1772567298113771500,5.282771484375,0.29909108312427996,-0.8245891214340925,-0.08812309547788463
1772567298123800300,5.29280029296875,1.2266145093321799,-0.46518385486155744,-0.15070881318785248
1772567298133829400,5.302829345703125,1.831878158274293,-0.23562778799533843,0.014940836158115416
1772567298143858400,5.3128583984375,2.5022534540742636,0.013711422227323054,0.3295257131481543
1772567298153887200,5.32288720703125,2.9495412945002317,0.2735372474119067,0.44739407727941866
1772567298163916300,5.332916259765625,3.2568945945352312,0.346109731669724,0.36447336361706256
1772567298173945300,5.3429453125,3.5881437339425086,0.1930754712089896,0.29353235301859676
1772567298183974100,5.35297412109375,3.9983424914240833,0.02633358791321516,0.377061700098589
1772567298194003500,5.36300341796875,4.34475529769361,-0.044443975751847026,0.5189672848341986
1772567298204032500,5.373032470703125,4.647510748544335,-0.06860606484487652,0.7846522478431462
1772567298214061300,5.383061279296875,5.015575414651632,-0.17342939823567866,1.1414547845713794
1772567298224090400,5.39309033203125,5.465199589070678,-0.2669343420155346,1.2842518747866154
1772567298234119400,5.403119384765625,5.898721938994527,-0.3239994605399668,1.1196185080774128
1772567298244148200,5.413148193359375,6.1807449829399586,-0.300114873214066,0.8978414777148515
1772567298254177300,5.42317724609375,6.346383873429894,-0.24727730925679206,0.7063887854021043
1772567298264206300,5.433206298828125,6.416688412755727,-0.2021438899360597,0.6149311295408755
1772567298274235100,5.443235107421875,6.5488681012362235,-0.17460370271205902,0.6790163559604436
1772567298284264400,5.453264404296875,6.4618474049091335,-0.05004048058465123,0.7952487529203295
1772567298294293500,5.46329345703125,6.0615475256294005,0.19411840439066289,0.9664416242755949
1772567298304322300,5.473322265625,5.866302601426839,0.32798633821904655,1.0526081879913807
1772567298314351400,5.483351318359375,5.754441478353739,0.42728170196861026,0.8931644988797605
1772567298324380400,5.49338037109375,5.434051002091169,0.594075315451622,0.637224502152577
1772567298334409200,5.5034091796875,4.998446000674367,0.6666103903084993,0.3318979952374473
1772567298344438300,5.513438232421875,4.613354211920499,0.5595642663016915,0.07014054440315813
1772567298354467300,5.52346728515625,4.092023814684152,0.5601254073157906,0.1091341823272407
1772567298364496100,5.53349609375,3.677235975846648,0.46654666764736175,0.2310276372561231
1772567298374525200,5.543525146484375,2.7901281466573473,0.3346460883691907,0.3112736518165096
1772567298384554500,5.553554443359375,1.3354945707678794,0.00613601853698492,0.4384579066298902
1772567298394583300,5.563583251953125,-0.18245850786566734,-0.7224173254653811,0.20851744355596602
1772567298404612400,5.5736123046875,-2.098620630979538,-1.3829463500335812,-0.08994513240642846
1772567298414641400,5.583641357421875,-3.916831498429179,-1.5107289725989101,0.2921441135305911
1772567298424670500,5.59367041015625,-4.630998589682579,-1.4090411607548594,1.217240824048221
1772567298434699300,5.60369921875,-4.6981484643697735,-1.350984400844574,1.2921332756862043
1772567298444728300,5.613728271484375,-4.8088639245390885,-1.2035016370311378,0.7333030227474868
1772567298454757400,5.62375732421875,-7.061100999781489,-1.1534236009150742,-0.8990433277852833
1772567298464786200,5.6337861328125,-10.045583843803405,-1.7526947314441204,-2.133537046059966
1772567298474815500,5.6438154296875,-10.382443808829784,-2.4144448222398758,-2.056845728306472
1772567298484844500,5.653844482421875,-9.279249927461146,-2.1899100906670093,-1.4228677337944506
1772567298494873300,5.663873291015625,-9.275134893357754,-1.7110560223713516,-0.6769596426263451
1772567298504902400,5.67390234375,-9.443809206020832,-1.7060858327433466,-0.13522011562231928
1772567298514931500,5.683931396484375,-8.784898138043284,-1.725052399019897,-0.20659422040842473
1772567298524960300,5.693960205078125,-7.756044335126877,-1.3187956571623682,-0.4608520362023264
1772567298534989300,5.7039892578125,-6.398821332153678,-0.8785404918521642,-0.5928933756580576
1772567298545018400,5.714018310546875,-5.325605240419507,-0.7481260594785213,-0.679748104301095
1772567298555047200,5.724047119140625,-5.000390120479464,-0.9297600992187857,-0.6985491047523915
1772567298565076200,5.734076171875,-4.84866168192029,-1.1959449380412697,-0.4819803470900282
1772567298575105500,5.74410546875,-4.6556186516761775,-1.209458207347989,0.09450045762322842
1772567298585134300,5.75413427734375,-3.9851159301042554,-0.9333674760609865,0.24285837856968864
1772567298595163400,5.764163330078125,-3.039733606600761,-0.47064825774729246,-0.04111849372410215
1772567298605192400,5.7741923828125,-2.0350000994622706,0.043032209257781506,-0.26581686402661725
1772567298615221200,5.78422119140625,-0.7526601957768201,0.416552802683413,-0.4414837207244709
1772567298625250300,5.794250244140625,0.49480011770725246,0.6336757966950536,-0.4376645642951131
1772567298635279400,5.804279296875,1.5326011971890925,0.6834186095073819,-0.4631737936807796
1772567298645308200,5.81430810546875,2.4928087493807074,0.7082549446001648,-0.49114751348383723
1772567298655337200,5.824337158203125,3.2863948297858236,0.7748261426165699,-0.601041062811017
1772567298665366500,5.834366455078125,3.8730256744503975,0.7319073306053876,-0.5952965643422677
1772567298675395300,5.844395263671875,4.142715306523442,0.38443595519363877,-0.40897001940421757
1772567298685424400,5.85442431640625,4.036035970002413,0.01081613917723298,0.23251162873618303
1772567298695453400,5.864453369140625,3.789149705889821,-0.011236556546390056,1.0643629231929779
1772567298705482200,5.874482177734375,3.645084933826327,0.26682430576980115,1.6461749693989753
1772567298715511300,5.88451123046875,3.774054428088665,0.5135745224125683,1.529491979127377
1772567298725540400,5.894540283203125,3.8925972208827733,0.49356619199812407,1.1253825514968483
1772567298735569200,5.904569091796875,4.24117275814414,0.24006343235522506,0.8291769606810062
1772567298745598200,5.91459814453125,4.735336916035413,0.3828377262167632,0.6752559805136173
1772567298755627500,5.92462744140625,5.189755923515558,0.6774741680197417,0.644998789415881
1772567298765656300,5.93465625,5.7327580543339245,0.6759373138412833,0.7450495015773921
1772567298775685400,5.944685302734375,6.065974694421887,0.43684082682207226,0.9172207895107567
1772567298785714400,5.95471435546875,6.260812206867337,0.10954977739080786,1.103153695488721
1772567298795743200,5.9647431640625,6.373420933437347,-0.11643705268651246,1.2569101327441632
1772567298805772300,5.974772216796875,6.5134910829067225,-0.24827377294823527,1.3591358508571982
1772567298815801300,5.98480126953125,6.600911007684469,-0.2162336439564824,1.309366442298889
1772567298825830100,5.994830078125,6.494089632344245,-0.06394727925360202,0.949272170548886
1772567298835859200,6.004859130859375,6.257848680886626,-0.001655073730647564,0.5270820560982451
1772567298845888300,6.01488818359375,5.813270099419355,0.015526801086217163,0.041498337054275906
1772567298855917600,6.02491748046875,5.318861026856303,0.211470228946954,-0.537965086499229
1772567298865946400,6.0349462890625,4.750612226578593,0.48267289593145246,-0.6929120487134903
1772567298875975400,6.044975341796875,3.835768833723664,0.5406878625266254,-0.5737423561926931
1772567298886004500,6.05500439453125,2.828048419728875,0.511391333154589,-0.23823619866175574
1772567298896033300,6.065033203125,1.508103300270438,0.3790491475887596,0.07262410484720021
1772567298906062300,6.075062255859375,-0.001880406919121742,-0.06982844624668359,0.14907149430960415
1772567298916091400,6.08509130859375,-1.8592144934892654,-0.6810819832533598,0.08141122241485864
1772567298926120200,6.0951201171875,-3.759835348600149,-1.1019392051324248,0.21106519181001931
1772567298936149200,6.105149169921875,-5.389461334258318,-1.3207751405417918,0.3188322139699012
1772567298946178600,6.115178466796875,-6.331076414182782,-1.0794593700379134,0.2100525441687554
1772567298956207400,6.125207275390625,-7.0986121075302355,-0.4793319149404764,0.20758264692388473
1772567298966236400,6.135236328125,-7.518661227896809,-0.2773725877910852,-0.02410065949568525
1772567298976265500,6.145265380859375,-7.987827138131856,-0.41025720967054363,-0.4119952124442905
1772567298986294300,6.155294189453125,-8.743848919296264,-0.6594026508867741,-0.7924945588413626
1772567298996323300,6.1653232421875,-9.147205263537169,-0.9966098219156264,-0.8793208285748958
1772567299006352400,6.175352294921875,-9.008775867012142,-1.3015513846337794,-0.6627890053894371
1772567299016381200,6.185381103515625,-8.353264378345012,-1.4339178278580307,-0.2697944441543892
1772567299026410200,6.19541015625,-7.6325401205331085,-1.5192048322603107,0.012278430282138287
1772567299036439300,6.205439208984375,-7.088128122916817,-1.5181915635645389,0.16846658819653093
1772567299046468400,6.21546826171875,-6.37125235722661,-1.3778621786370873,0.2816180433411151
1772567299056497400,6.225497314453125,-5.718069603767991,-1.221595804387331,0.19941556095071136
1772567299066526000,6.23552587890625,-5.371303746277094,-1.0557716204583645,0.08396958339447155
1772567299076555000,6.245554931640625,-4.854322191900015,-0.8072431420966982,0.05156806461126543
1772567299086583800,6.255583740234375,-4.120145747318864,-0.4423854553371668,-0.16510401642825454
1772567299096612900,6.26561279296875,-2.9929192484557627,-0.06973696857094765,-0.5431335386456921
1772567299106642000,6.275641845703125,-1.757001488727331,0.2565039872854948,-0.8243211912129074
1772567299116670700,6.285670654296875,-0.5828676927387714,0.5597855078369379,-0.6632898675836623
1772567299126700000,6.295699951171875,0.5294681109845638,0.7124249237611889,-0.2004669696997851
1772567299136729000,6.30572900390625,1.6373106949418783,0.6082452951014041,0.182034181506373
1772567299146758100,6.315758056640625,2.685386500200629,0.596600450015068,0.31355003578327595
1772567299156787000,6.325786865234375,3.646463820964098,0.6703881552815437,0.5836451068520545
1772567299166816000,6.33581591796875,4.44401062169373,0.6587412643685937,0.8254246224101632
1772567299176845000,6.345844970703125,4.745138179081678,0.7375754393696785,0.8835081241969018
1772567299186873900,6.355873779296875,4.790377250733972,0.8135197381481528,0.7978658035509287
1772567299196903000,6.36590283203125,4.944567110970616,0.8478953243501484,0.7173057546053081
1772567299206932000,6.375931884765625,5.075577755671739,0.9476512913487851,0.920595453575626
1772567299216961000,6.3859609375,5.1983676845163105,0.8820064143970608,1.1934766482315957
1772567299226990000,6.395989990234375,5.53604656471014,0.6617353316180408,1.2607038259387016
1772567299237019100,6.40601904296875,5.9057145743608475,0.5285938123680651,1.2966276644960044
1772567299247048000,6.4160478515625,6.173940563622117,0.4553865373380482,1.4825442038610577
1772567299257077000,6.426076904296875,6.561451103955507,0.31273543146476146,1.6254546913228929
1772567299267106000,6.43610595703125,7.034325221058726,0.1628125810228288,1.502260419461131
1772567299277134800,6.446134765625,7.317222709751129,0.13918971337303518,1.3301827280953527
1772567299287164000,6.456163818359375,7.481295666098594,0.07217588615566492,1.166115616966784
1772567299297193000,6.46619287109375,7.490617621195316,0.1393241534076631,0.9773312670804559
1772567299307222000,6.476221923828125,7.414170341330766,0.3684058807604015,0.9444052220996468
1772567299317251000,6.4862509765625,7.4058946804165835,0.6228323311194777,0.8452642451941966
1772567299327280000,6.496280029296875,7.338946465781331,0.8166682653069496,0.6644872606746852
1772567299337309000,6.506308837890625,7.176815875673293,0.8782818409159779,0.5174351068308577
1772567299347338000,6.516337890625,6.584730857256054,0.9098740800097584,0.36686314483042803
1772567299357367000,6.526366943359375,5.764865841734409,1.0248083269178867,0.30315056938184426
1772567299367395800,6.536395751953125,4.960379597130418,0.9418801606014371,0.17986204336537048
1772567299377425000,6.5464248046875,3.6638498400509354,0.4777136660888791,-0.12278016550238244
1772567299387454000,6.556453857421875,1.8583248511731623,-0.1661442096635699,-0.26851883472800253
1772567299397482800,6.566482666015625,-0.43868543177545066,-0.643671413269639,-0.3542557017896324
1772567299407512000,6.576511962890625,-2.9539947667777535,-0.8442761109396815,-0.35932120501827447
1772567299417541000,6.586541015625,-5.267704255592823,-0.7519631534233688,-0.08097185375005937
1772567299427570000,6.59656982421875,-6.8162605622828005,-0.60511985655725,0.11206439056023955
1772567299437599000,6.606598876953125,-7.4665721442192785,-0.38355069679170845,-0.35412718003913757
1772567299447628000,6.6166279296875,-8.00861390557289,-0.19990590175092218,-1.3215877720989286
1772567299457656800,6.62665673828125,-8.395479718261956,0.005776537574827671,-1.8830179784029721
1772567299467686000,6.636685791015625,-8.460293843477963,-0.10978490132093428,-1.8738094205528497
1772567299477715000,6.64671484375,-8.364275017181038,-0.7994926741003989,-1.3317106683149933
1772567299487743700,6.65674365234375,-7.9047958037018775,-1.3989435451105237,-0.6705098819650709
1772567299497773000,6.66677294921875,-7.244248074433207,-1.6528659914702175,0.03841454112818465
1772567299507802000,6.676802001953125,-6.879817965435981,-1.8149077342510223,0.3020516864955425
1772567299517831000,6.686830810546875,-6.744934278693795,-1.9228145667403935,0.05587191755133681
1772567299527860000,6.69685986328125,-7.022277640390396,-1.7540759566694497,-0.3310241350123659
1772567299537889000,6.706888916015625,-7.4629633060723535,-1.4045669379502534,-0.36973822534270584
1772567299547918000,6.71691796875,-7.525642172825336,-1.1908525833383201,-0.47364802408516404
1772567299557947000,6.72694677734375,-7.293394090396165,-0.9774895263820886,-0.44679695163648575
1772567299567976000,6.736975830078125,-6.628687487882376,-0.8216495608508586,-0.27131058433838184
1772567299578005000,6.7470048828125,-5.649052766165137,-0.7546183441072702,-0.11005334299877285
1772567299588033800,6.75703369140625,-4.182095715275406,-0.5142991834253072,0.19569938997179268
1772567299598063000,6.76706298828125,-2.4707950704932213,-0.44028906757980585,0.6650535893205552
1772567299608092200,6.777092041015625,-0.561726705032587,-0.5379322802081704,0.8320197098262607
1772567299618121000,6.787120849609375,1.113550440210104,-0.49343642813861366,0.8911994093518704
1772567299628150000,6.79714990234375,2.480440850716829,-0.390638609226048,0.837030158399418
1772567299638179000,6.807178955078125,3.5334488516807556,-0.22680501459240912,0.598271232771501
1772567299648208000,6.817207763671875,4.070274339690804,0.025915654762089253,0.3600174071215093
1772567299658237000,6.82723681640625,4.088458815678954,0.31587767501324415,0.3571604833204299
1772567299668266000,6.837265869140625,4.0010833145648235,0.516627334111929,0.49023091009557246
1772567299678294800,6.847294677734375,4.032106813859939,0.6436307889983057,0.6092933428496122
1772567299688324000,6.857323974609375,4.33190399942696,0.6716273416876792,0.6554958527065813
1772567299698353200,6.867353271484375,4.640272613984346,0.6003221008867025,0.7159086011584848
1772567299708382000,6.8773818359375,4.892784316763281,0.3968875866182148,0.5202047542072832
1772567299718411000,6.887410888671875,5.348270661213994,0.2560401691660285,0.5534249598290771
1772567299728440000,6.897440185546875,6.158300511419773,0.02946209519729018,1.0905852327514438
1772567299738468900,6.90746875,6.859228766393661,-0.14249737661629913,1.486145881614834
1772567299748498000,6.917497802734375,7.009962348696589,-0.10509352863430976,1.5890160351112483
1772567299758527000,6.92752685546875,6.8943801592737435,0.0017725626304745674,1.5337854385375975
1772567299768555800,6.9375556640625,6.83664517866373,0.23715222108364103,1.4366589432597159
1772567299778584800,6.947584716796875,6.752211576220393,0.5320699640460312,1.250527592100203
1772567299788614100,6.9576142578125,6.486300293642282,0.771763540175557,0.8905896068904549
1772567299798643000,6.967642822265625,6.3820736109703775,0.9326311246104538,0.8056603298846632
1772567299808672000,6.977672119140625,6.223716694182158,0.9005680531345307,1.095717627203837
1772567299818701000,6.987701171875,6.414324606233835,0.5717554932244122,1.0788321049850433
1772567299828729900,6.997729736328125,6.834867647597194,0.3939534328624606,0.9117361475545912
1772567299838759000,7.007759033203125,6.997153720527887,0.4048845767214894,0.8359267272021621
1772567299848788000,7.0177880859375,6.945629869517684,0.42460546849668024,0.8516277888767421
1772567299858816800,7.027816650390625,6.709578303152322,0.3955015390872955,0.7783309358671308
1772567299868845800,7.037845703125,6.0900225094854825,0.4900909171029925,0.5839225720865652
1772567299878875100,7.047875244140625,5.192447062295675,0.6861454041227698,0.4302043844822794
1772567299888904000,7.057904052734375,3.713875561457872,0.6354845996826887,-0.017179746791860087
1772567299898933000,7.06793310546875,1.4232932657301425,0.32541268833875653,-0.28637915679570286
1772567299908962000,7.077962158203125,-0.7323901456862688,-0.3045905573233962,-0.4770006589813158
1772567299918990800,7.087990966796875,-2.934215130552649,-1.078400800895691,-0.724936176418513
1772567299929020000,7.09802001953125,-5.635346896895766,-1.6861764326587318,-0.5888937480952591
1772567299939049000,7.108049072265625,-8.32422883799672,-2.0642624343037603,0.26174926752783356
1772567299949078000,7.118078125,-9.968450335240364,-2.2261747054859993,1.2935896119743584
1772567299959106800,7.12810693359375,-10.696142678499221,-2.4498715249300003,0.8439783701021224
1772567299969135900,7.138135986328125,-11.722317617595195,-2.325867836381495,-0.7944345139279961
1772567299979165200,7.148165283203125,-12.824253607857226,-1.998098355783522,-1.862661419072747
1772567299989194000,7.158194091796875,-13.684195197701454,-1.7348428484112024,-2.4916414591670035
1772567299999223000,7.16822314453125,-14.549685069322585,-1.4772104416176677,-3.0124145147815344
1772567300009252000,7.178252197265625,-14.675513927471638,-1.2972361517831683,-3.4193159842833873
1772567300019281000,7.188281005859375,-13.615153810179233,-0.9099413000270724,-3.722182786554098
1772567300029310000,7.19831005859375,-12.026551908826827,-0.5390384878844022,-3.331733854681253
1772567300039339000,7.208339111328125,-10.176042115318774,-0.36156595173776146,-2.3233761656962333
1772567300049367800,7.218367919921875,-7.748772298297285,-0.2896379028633237,-1.5179834737718105
1772567300059396900,7.22839697265625,-5.092803615760803,-0.43219753106087444,-0.7854190674971788
1772567300069426400,7.238426513671875,-2.5483172861129044,-0.7114993333488703,-0.28683292844519015
1772567300079455500,7.24845556640625,-0.2779547715932131,-0.8314940785169601,-0.08095836408082395
1772567300089484500,7.258484619140625,1.4608260007888079,-0.6089338618874549,0.150911386555247
1772567300099513600,7.268513671875,2.5025784482449294,-0.22803572543114423,0.2891823045829311
1772567300109542400,7.27854248046875,3.0068489896088835,0.15707242993563414,0.27105942258890714
1772567300119571500,7.288571533203125,3.072487875211239,0.5139098918467759,0.17964030863977967
1772567300129600500,7.2986005859375,2.768084657153487,0.7338122874438763,-0.07386741943918168
1772567300139629300,7.30862939453125,2.5091040506213904,0.890050020121038,-0.14148081998489798
1772567300149658400,7.318658447265625,2.4564094022661447,0.9055608929857611,-0.037188378600403665
1772567300159687400,7.3286875,2.8124919541567563,0.7390873052373528,0.3339320948809385
1772567300169716500,7.338716552734375,3.4660768586754798,0.41500908037275075,0.6877524739932268
1772567300179745500,7.34874560546875,4.229623190125823,0.14287760810554026,0.9182587542563676
1772567300189774600,7.358774658203125,5.167886037012934,-0.09604673721715808,1.0263199735898525
1772567300199803400,7.368803466796875,6.137127375009656,-0.2094496829047799,1.0628550028480588
1772567300209832400,7.37883251953125,6.801954389032721,-0.11940262449383734,1.2959861517220734
1772567300219861500,7.388861572265625,7.075326509010791,0.04492898278981447,1.4299265662647782
1772567300229890300,7.398890380859375,7.008212290158867,0.25842852560728785,1.290361882099509
1772567300239919400,7.40891943359375,6.852381676977872,0.4482192760571837,1.0479335472438485
1772567300249948400,7.418948486328125,6.6495157563775775,0.5994578852728009,0.6623106472879647
1772567300259977500,7.4289775390625,6.332766851487755,0.6383668771207333,0.2918689863836393
1772567300270006500,7.439006591796875,6.0953287992000575,0.5762843688257038,0.19857388596218079
1772567300280035600,7.44903564453125,6.161036658385395,0.4876498075611889,0.262173630419746
1772567300290064600,7.459064697265625,6.482235528421402,0.4159378856554627,0.10594455597307532
1772567300300093400,7.469093505859375,6.833860516381264,0.4386889389067888,0.15939897318705915
1772567300310122500,7.47912255859375,7.01755002734661,0.41001872473955153,0.262138960965164
1772567300320151600,7.489151611328125,7.1210115708649155,0.44811640020459886,0.2447502019319683
1772567300330180400,7.499180419921875,7.112729480209946,0.6166387371763586,0.07610434817839414
1772567300340209400,7.50920947265625,6.498770483636855,0.9373778807461262,0.0024812588891014453
1772567300350238500,7.519238525390625,5.322126166132092,1.2180953950509428,-0.13370671538468448
1772567300360267500,7.529267578125,3.835860019138455,1.2920552420139313,-0.6863906841207296
1772567300370296600,7.539296630859375,2.1129051769196985,1.2011208793744443,-1.1490217857595533
1772567300380325600,7.54932568359375,0.3051192573726177,0.8304381397232413,-1.5250084039725362
1772567300390354400,7.5593544921875,-1.0936918935298918,0.4663572825551033,-1.1872338083192706
1772567300400383500,7.569383544921875,-2.657480840665102,-0.1508729907736182,-0.515639638248831
1772567300410412500,7.57941259765625,-4.360233437332511,-0.6772355369582772,0.23888571207905188
1772567300420441300,7.58944140625,-6.179070912247896,-1.3226985098198056,0.6827108265642077
1772567300430470400,7.599470458984375,-7.904539783114195,-1.9970748579546809,0.8988578882157802
1772567300440499500,7.60949951171875,-9.468944231799245,-1.9500398427963255,0.46468628060296174
1772567300450528300,7.6195283203125,-10.334809950995444,-1.2045876787021756,-0.7984993522141128
1772567300460557600,7.6295576171875,-10.149779546815155,-0.4931546885877847,-2.613020644430816
1772567300470586600,7.639586669921875,-10.09276060552001,-0.20164748472124336,-3.8803359974637623
1772567300480615400,7.649615478515625,-10.45354738957882,-0.2950628505215049,-3.7655043341472743
1772567300490644500,7.65964453125,-10.127480036723613,-0.5553124540761113,-2.766726812803745
1772567300500673500,7.669673583984375,-8.509871236595512,-1.116711242328584,-1.7498377345778047
1772567300510702300,7.679702392578125,-6.507537142938375,-1.6136086245760322,-0.9796996036469936
1772567300520731400,7.6897314453125,-4.631753791964054,-2.193157694286108,-0.2065940742779523
1772567300530760400,7.699760498046875,-3.513781443658471,-2.626252466447651,0.5124035058718175
1772567300540789200,7.709789306640625,-2.8359862269908187,-2.63756559536159,0.752582162104547
1772567300550818600,7.719818603515625,-2.5781951225042343,-2.029431067158282,0.5886964354248717
1772567300560847600,7.72984765625,-2.5370138018101454,-1.2101181325614452,0.41327597296983
1772567300570876400,7.73987646484375,-2.795067356625199,-0.5529232208520174,-0.019768822570145127
1772567300580905500,7.749905517578125,-3.3448131164848802,0.11282470740824938,-0.5224149045374245
1772567300590934500,7.7599345703125,-3.657507777547836,0.6609373131081462,-0.8029299550727009
1772567300600963300,7.76996337890625,-3.4448692354738712,1.1017065654203295,-0.8470920451432467
1772567300610992400,7.779992431640625,-2.636030640879273,1.3936226423487066,-0.6664804072532803
1772567300621021400,7.790021484375,-1.5462468607038258,1.5762316646009682,-0.40161885292381044
1772567300631050200,7.80005029296875,-0.4110591737031936,1.656264986258745,-0.0473000958353281
1772567300641079600,7.81007958984375,0.9190671480298042,1.5771610544055699,0.2097103796675801
1772567300651108600,7.820108642578125,2.144851636278629,1.4442749712213874,0.531029515082389
1772567300661137700,7.8301376953125,3.292714680457115,1.288086922904849,0.9359424411155283
1772567300671166500,7.84016650390625,4.175812689483165,1.2173337630286811,1.260673869191855
1772567300681195500,7.850195556640625,4.6849558053195475,1.1959358779519795,1.4846782932803033
1772567300691224600,7.860224609375,5.014257317790388,1.0916618490070105,1.4923185789003968
1772567300701252400,7.87025244140625,5.168778017416596,1.0293176210358739,1.486370776411891
1772567300711281700,7.88028173828125,5.324291235211491,1.234618952089548,1.912998106124997
1772567300721310500,7.890310546875,5.64106585906446,1.2349144279047846,2.5080536647856233
1772567300731339500,7.900339599609375,6.004680560025572,1.155813126400113,2.747839741504192
1772567300741368600,7.91036865234375,6.327402109584212,1.259136430491507,2.6211285475626585
1772567300751397400,7.9203974609375,6.714603437837958,1.4030597482576965,2.278487368786335
1772567300761426400,7.930426513671875,6.833776929751038,1.4594509130433202,1.9465246742822229
1772567300771455500,7.94045556640625,6.9127774012297385,1.4232751455515622,1.8486428305923939
1772567300781484300,7.950484375,7.145699437397718,1.7523767515361308,1.9476140769541261
1772567300791513300,7.960513427734375,6.6831099829435345,1.7493141490951178,1.1354821399025619
1772567300801542400,7.97054248046875,6.214065653261542,1.9590303739815949,0.7425820154853164
1772567300811571500,7.980571533203125,6.26541180961728,2.495342651772499,1.0093667198970913
1772567300821600500,7.9906005859375,5.822655767402052,2.2900486272424456,0.7809558044780045
1772567300831629600,8.000629638671874,4.979279527911544,1.8299749550014732,0.37285504218898713
1772567300841656300,8.01065625,4.95485528075099,1.8789175573468206,0.38420996441803873
1772567300851685600,8.020685546875,5.056295547574758,2.1268428091183305,0.005980462649092078
1772567300861714400,8.03071435546875,5.256084544947743,2.6990312869325277,-0.4007982572559267
1772567300871743500,8.040743408203125,4.5330438268870115,2.9324858225420116,-0.8149410031229257
1772567300881772500,8.0507724609375,3.1995810542076826,2.4882231751561164,-0.7309088941525668
1772567300891801300,8.06080126953125,1.8092782039314508,1.026799500735104,-0.6769716983903199
1772567300901830400,8.070830322265625,0.013648586124181747,-0.44683629726618523,-0.6983835389271378
1772567300911859500,8.080859375,-2.0505320151150226,-1.3379863875836133,-0.411066224498488
1772567300921888300,8.09088818359375,-3.688700788190961,-1.963683460484445,0.25002540238853543
1772567300931917300,8.100917236328126,-5.319188359114527,-2.2888073950096963,0.7641773958954959
1772567300941946600,8.110946533203125,-6.471608335945009,-2.3373870092615485,0.7734018819671123
1772567300951975400,8.120975341796875,-7.0102300597220655,-2.287145891538262,0.27759912655595687
1772567300962004500,8.13100439453125,-7.395676068741083,-2.1284370925724505,-0.49526134201083327
1772567300972033500,8.141033447265626,-7.4075348488390445,-1.9817630147933958,-1.01476375663504
1772567300982062600,8.1510625,-7.163331540200113,-1.9300936178326606,-0.9763952283393591
1772567300992091400,8.16109130859375,-6.820837368679046,-2.0673519247516987,-0.9238739637896418
1772567301002120400,8.171120361328125,-6.572745235908031,-2.256024777087569,-1.0095376925498247
1772567301012149500,8.1811494140625,-7.0716153795331715,-2.2858923843458294,-0.5165190514318645
1772567301022178300,8.19117822265625,-7.554833780518174,-2.36701876193732,0.2927402527928352
1772567301032207600,8.20120751953125,-7.880166389358044,-2.3898700606927274,0.2971796782786958
1772567301042236700,8.211236572265625,-8.261240174642206,-2.340292959836125,-0.450947239716351
1772567301052265500,8.221265380859375,-8.304883501535654,-2.158774070908129,0.06419566452410072
1772567301062294500,8.23129443359375,-8.037003549233079,-2.448963762435317,0.2248801840096712
1772567301072324000,8.241323974609376,-7.1226505702435965,-2.4625243780151007,0.08679711670428514
1772567301082353200,8.251353271484374,-5.628192933487892,-2.0643252704069015,0.8478774233672768
1772567301092382200,8.26138232421875,-4.060647848689556,-1.8093515614286064,0.9344758756943047
1772567301102411000,8.271410888671875,-2.517213122797012,-1.2701073218390344,1.1232466354466975
1772567301112440000,8.281440185546876,-0.7596580918401479,-0.7643123473867773,1.410981481167674
1772567301122469000,8.29146923828125,1.1899170560538768,-0.412835827986896,1.4035565918639301
1772567301132498000,8.301497802734374,2.8999048646718264,-0.0281464825540781,1.4418468672916291
1772567301142527000,8.31152685546875,4.416294347250461,0.20956687954366207,1.3275507721565663
1772567301152556300,8.321556396484375,5.075511120176315,0.5657587370276451,1.2046636665478347
1772567301162585000,8.331585205078126,4.663407405856251,1.0656520862206815,1.3713767621405422
1772567301172614100,8.3416142578125,4.16601259548068,1.354967917522788,0.982591525696218
1772567301182643200,8.351643310546875,3.5386949356406925,1.2959656934559345,0.04092814965061843
1772567301192672000,8.361672119140625,3.35453020837903,1.1467460228472948,-0.3714468558914959
1772567301202701000,8.371701171875,3.7596179064571857,0.9005410189971327,0.11953830663748084
1772567301212730000,8.381730224609376,4.312496703645587,0.5921294420808554,0.8242275946453214
1772567301222759200,8.39175927734375,5.196005631560087,0.4268474022045731,1.15701950651519
1772567301232788000,8.4017880859375,6.442925846818089,0.5275201917871832,1.3273428284943103
1772567301242817300,8.4118173828125,7.380712308365106,0.684399437238276,1.5492124325111507
1772567301252846300,8.421846435546875,7.886383948698639,0.7422521990090608,1.7526289727315305
1772567301262875100,8.431875244140626,7.924630384984612,0.6952616075143218,1.424397281449288
1772567301272904200,8.441904296875,7.399649064025282,1.0298664870902896,0.616130057001859
1772567301282933200,8.451933349609375,7.718352610114216,1.693005694156885,0.6680503599837422
1772567301292962000,8.461962158203125,7.518107101145386,1.6806094461813568,0.5717628728132694
1772567301302991000,8.4719912109375,7.2432719228774305,1.5991744410321116,0.2013681197905913
1772567301313020200,8.482020263671876,7.023495199486613,1.9447186477735638,-0.15656404202207921
1772567301323049000,8.492049072265624,6.662287559667229,2.283699258215725,-0.6897327610902488
1772567301333078300,8.502078369140625,6.281167597153782,2.3930776245623826,-1.1276255811832845
1772567301343107300,8.512107421875,5.940971181181073,2.3235993069276213,-1.2331167308330535
1772567301353136000,8.52213623046875,5.616330646258592,2.0163053358644247,-1.5196289028912782
1772567301363165200,8.532165283203126,5.446340574821829,1.7759803299635648,-1.5804675486050546
1772567301373194200,8.5421943359375,5.186855525898933,1.4953966711714863,-1.1541088067002594
1772567301383223000,8.55222314453125,4.261835022422671,0.6506994122102856,-0.5338908227976411
1772567301393252000,8.562252197265625,3.1551988916456697,-0.21816402749717234,0.16699505433924494
1772567301403281200,8.57228125,1.4799205773591995,-0.7654433972433209,0.7646223631840199
1772567301413310000,8.58231005859375,-1.0092466006487608,-1.6056161645174025,1.541106575205922
1772567301423339000,8.592339111328124,-3.5934283963471647,-2.4244164734169837,2.0780387384608385
1772567301433368300,8.602368408203125,-5.777725323307513,-2.4013003862455484,1.6793720133408903
1772567301443397000,8.612397216796875,-8.225462758818269,-2.004569889885187,0.4029103905716911
1772567301453428000,8.622427978515624,-12.439736404120922,-2.8289354316964745,-2.1022141254268587
1772567301463457000,8.63245703125,-13.579081795322894,-3.490027350844443,-2.1349819841712714
1772567301473486000,8.642486083984375,-13.431161516875028,-4.1414904409036035,-1.5617111179478464
1772567301483515100,8.65251513671875,-12.44449558134675,-4.399553055807948,-0.8774076884299516
1772567301493544200,8.662544189453126,-11.140412047886848,-3.9035757110148666,-0.3758097638087347
1772567301503573200,8.6725732421875,-9.64956032666862,-3.1752406859382987,-0.15712328334003686
1772567301513602000,8.68260205078125,-8.059457373103498,-2.428281039890647,0.18595367477135732
1772567301523631000,8.692631103515625,-6.152222652810812,-1.683199170413613,0.25690551729109135
1772567301533660200,8.70266015625,-4.3696378100156785,-1.1596379453852772,0.041233799799997355
1772567301543688000,8.71268798828125,-2.7860546136081217,-1.0440233149975537,-0.2168879431467503
1772567301553717200,8.72271728515625,-1.3906851275920866,-1.1647700475767253,-0.38361221772059795
1772567301563746300,8.732746337890624,-0.017972879064083097,-1.1986802082240582,-0.285200157877896
1772567301573775000,8.742775146484375,1.1513865421295166,-1.190966565106809,-0.14510688326125964
1772567301583804200,8.75280419921875,1.7047130830854176,-1.0625623035117984,-0.0037887978237122295
1772567301593833200,8.762833251953126,1.8835493088006972,-0.6774035870015621,0.04436400585081428
1772567301603862000,8.772862060546874,1.641740786343813,0.013726035274565219,0.046945765972323715
1772567301613891000,8.78289111328125,1.1581845317065715,0.7196466917082667,-0.1467345757946372
1772567301623920000,8.792920166015625,0.568045386660099,1.430938812047243,-0.27312391737066205
1772567301633949000,8.802948974609375,0.2660422154814005,1.9580229505047202,-0.2236224390335381
1772567301643978200,8.812978271484376,0.4619681076854467,2.1532883329734207,-0.18225326761715113
1772567301654007300,8.82300732421875,0.9583487725824117,1.9384186708465216,-0.24800043589957058
1772567301664036000,8.8330361328125,1.4568693721175192,1.4729600906968117,-0.4215408202290535
1772567301674065200,8.843065185546875,2.124308614465594,0.9165811764329671,-0.16305713036842642
1772567301684094200,8.85309423828125,2.884540706801414,0.45600335406214,0.1678467757977545
1772567301694123000,8.863123046875,3.6616532067894934,0.24877047042399644,0.559802166710794
1772567301704152000,8.873152099609374,4.458095261147618,0.26963644058108327,1.0093851323366165
1772567301714181000,8.88318115234375,4.9733992377012965,0.563379148414731,1.1355793166667223
1772567301724210000,8.8932099609375,5.554914346787333,0.9251441298559308,1.2007432782337069
1772567301734239000,8.903239013671875,5.97930237314105,1.279560209839046,1.1692099297203122
1772567301744268300,8.913268310546876,6.15485533940196,1.523805019532144,1.0106362283762544
1772567301754297000,8.923297119140624,6.330450391238927,1.625401353700459,0.7457232361204922
1772567301764326100,8.933326171875,6.358218103608489,1.672512941226363,0.4961061222719028
1772567301774355200,8.943355224609375,6.391634635519981,1.639011945901811,0.31988062704429027
1772567301784384000,8.953384033203125,6.50288434869647,1.5020318714022636,0.2098162511948496
1772567301794413000,8.9634130859375,6.490159891679883,1.3006956445872784,0.07331924750450998
1772567301804442000,8.973442138671874,6.282862710633873,1.167832942278683,-0.04588973584705963
1772567301814471200,8.98347119140625,5.907549388572574,1.1036650060117243,-0.02617319145342335
1772567301824500000,8.9935,5.402500848573446,1.0653796990200877,-0.09439646752579137
1772567301834529300,9.003529296875,4.489615019527077,1.107458845336735,-0.2311694203469902
1772567301844558300,9.013558349609376,3.209279441401362,1.1352595831930636,-0.42137726369779555
1772567301854587100,9.023587158203124,1.2155898419708013,0.8771537136688828,-0.6659606942281127
1772567301864616200,9.0336162109375,-1.1962860065639018,0.09751432555168867,-0.6682838764786719
1772567301874645200,9.043645263671875,-2.9902047288000584,-0.954418739657104,-0.3703466395646334
1772567301884674000,9.053674072265625,-4.141406562012434,-1.5843854527011514,-0.09808828951474279
1772567301894703000,9.063703125,-4.8085009364455935,-2.2485259457647797,0.03122683984749019
1772567301904732200,9.073732177734374,-5.666380333063006,-2.652807003635168,0.5667640416126698
1772567301914761000,9.083760986328125,-5.774876948139071,-2.761544149468839,1.242565819440782
1772567301924790000,9.0937900390625,-4.82840624487698,-2.902686019822955,1.8392600852191447
1772567301934819300,9.1038193359375,-3.996476697552204,-3.0994527467653152,2.152576677572727
1772567301944848100,9.11384814453125,-3.920462548407912,-2.8513731812149286,1.8424471908226607
1772567301954877200,9.123877197265625,-4.290910894781351,-2.3299635812625286,0.8899066661275923
1772567301964906200,9.13390625,-5.063884979790449,-2.050514479458332,0.18601035512834788
1772567301974935000,9.14393505859375,-5.71186081225574,-2.070255537238717,-0.43601255930438637
1772567301984964000,9.153964111328126,-6.384743706962466,-2.38957633844316,-1.425722246442735
1772567301994993200,9.1639931640625,-7.145479072645307,-2.487802903917432,-2.1305822879076004
1772567302005022000,9.17402197265625,-7.635787139630318,-2.3222081448301672,-2.141120779187232
1772567302015051000,9.184051025390625,-7.569845471689105,-2.1050740449026226,-1.8321442618645727
1772567302025080300,9.194080322265625,-6.833541367429494,-1.746126751230657,-1.47099098258093
1772567302035109000,9.204109130859376,-5.579159145727753,-1.3424848680466412,-1.2693874831318854
1772567302045138200,9.21413818359375,-4.033651120692491,-0.9277262553036212,-1.0644254670351743
1772567302055167200,9.224167236328125,-2.7411843752682206,-0.3748854520380497,-0.5945493627041578
1772567302065196000,9.234196044921875,-1.2221376561790704,0.07769844896942377,-0.14765207423204554
1772567302075224000,9.24422412109375,0.4938970313876867,0.4735264435321092,-0.07384833114622161
1772567302085253000,9.254253173828126,1.68033325958848,0.9030573857322335,0.0014648666544817388
1772567302095282200,9.2642822265625,2.3498574915170667,1.103382097417116,0.15389305098084732
1772567302105311200,9.274311279296874,2.5157629239887,1.211308511389792,0.17220698030125348
1772567302115340000,9.284340087890625,2.228030854746699,1.2735372962877154,0.06861823020670563
1772567302125369000,9.294369140625,1.8353309290766715,1.1719085211545228,0.05975691489167511
1772567302135398100,9.304398193359376,1.7129133406758308,0.8729828577250242,0.16105704259239137
1772567302145426000,9.314426025390626,1.79868608276844,0.6755585436567664,0.32487427061311897
1772567302155455200,9.324455322265624,2.1695254742860794,0.6009115912124514,0.6735860014747828
1772567302165484300,9.334484375,2.792439930731058,0.5553899032264947,1.0519243704456835
1772567302175513000,9.34451318359375,3.56590969030261,0.5356149431765079,1.373978469071537
1772567302185542100,9.354542236328125,4.2365585423469545,0.6288531988441943,1.5860229907751082
1772567302195571200,9.3645712890625,4.821104397431015,0.7540691857919096,1.62638802665025
1772567302205600000,9.37460009765625,5.313053801882266,0.863085733088851,1.6959223122559486
1772567302215629000,9.384629150390625,5.733926513591409,0.9743874687135219,1.8043559450984
1772567302225658000,9.394658203125,6.060383158025145,1.1227569522336125,1.7701470937654376
1772567302235687000,9.40468701171875,6.1316100728929035,1.2946411668539046,1.5279896117404101
1772567302245716000,9.414716064453126,6.103597445851564,1.4365651274964213,1.237088264812529
1772567302255745300,9.424745361328124,6.008730127677321,1.4904174214541912,0.9927497854866086
1772567302265774000,9.434774169921875,6.040856619778275,1.540715237800777,0.8701996567472815
1772567302275803100,9.44480322265625,6.29820056501925,1.636464307245612,0.812285300982371
1772567302285832200,9.454832275390626,6.471699521359801,1.7249708582162857,0.7474453106727451
1772567302295861000,9.464861083984376,6.492662814411521,1.711999148440361,0.6148601831965148
1772567302305890000,9.47489013671875,6.391381537541747,1.733003065763414,0.5907745203405619
1772567302315919000,9.484919189453125,5.990747311741114,1.8152108088508248,0.5403653891066089
1772567302325948000,9.494947998046875,5.359545503944158,1.7916411326929926,0.4359467275265604
1772567302335977000,9.50497705078125,4.767970773136615,1.6373834679171442,0.25782944546928627
1772567302346006300,9.51500634765625,3.9922231317609547,1.542953079855442,0.04167544262027368
1772567302356035000,9.52503515625,2.9004484700292346,1.4486878192275763,0.05308467058613896
1772567302366064000,9.535064208984375,1.7096540466189383,1.173338553957641,0.3070696242554113
1772567302376093200,9.54509326171875,0.19966274064481257,0.8059814515978098,0.39134354262501
1772567302386122000,9.5551220703125,-1.5027940879464148,0.5351546321883798,0.46893403770793224
1772567302396151000,9.565151123046874,-2.6335937691211697,-0.0013704115703701972,0.4860443085933104
1772567302406180000,9.57518017578125,-3.5008220088422295,-0.5997583295240998,0.4073861112136394
1772567302416209000,9.585208984375,-4.257897682973742,-1.067506774176657,0.466644830792211
1772567302426238000,9.595238037109375,-4.845139937534928,-1.3968258223041892,0.71547232863307
1772567302436267300,9.605267333984376,-5.347890137463808,-1.7458847591683269,0.5605404909227043
1772567302446296000,9.615296142578124,-6.337546486979723,-2.068029093360901,0.10948270350396633
1772567302456325000,9.6253251953125,-7.436808874118328,-2.6438059510558842,-0.19161380115859208
1772567302466354200,9.635354248046875,-8.406462884569168,-3.196978470493853,-0.2726668943181634
1772567302476383000,9.645383056640625,-9.145350575581192,-3.397698026715219,-0.524814768753387
1772567302486412000,9.655412109375,-9.614469139543175,-3.347734264628589,-1.1945558217704295
1772567302496441000,9.665441162109374,-10.145194557112454,-3.243297154076397,-1.8334011300578712
1772567302506470100,9.67547021484375,-10.529724620330333,-3.1626945080980655,-1.9003091588132082
1772567302516499000,9.6854990234375,-10.509544586610794,-2.8912653388813134,-1.4476768886193632
1772567302526528000,9.695528076171875,-10.028018961018324,-2.483592592746019,-0.925410379576683
1772567302536557300,9.705557373046876,-9.093446785342692,-2.0204127711832522,-0.5646912539266049
1772567302546586000,9.715586181640624,-7.757412116348743,-1.606993298089504,-0.4335805829171091
1772567302556615200,9.725615234375,-6.154570092719793,-1.3775807313472033,-0.32168442506324496
1772567302566644200,9.735644287109375,-4.402839237871766,-1.3398136030107737,-0.15601170536894352
1772567302576673000,9.745673095703125,-2.4994687917917964,-1.2024097501412034,-0.06550597080453299
1772567302586702000,9.7557021484375,-0.6136345869243145,-0.959178209143877,-0.09696396165993064
1772567302596731100,9.765731201171874,0.6516700108081102,-0.7592503878220915,-0.1693128662949428
1772567302606760000,9.775760009765625,1.279530106961727,-0.6390244642466306,-0.2795488906505518
1772567302616789000,9.7857890625,1.5683260060429571,-0.5227338342934846,-0.513490899249725
1772567302626818300,9.795818359375,1.6158587415903807,-0.4365332221776247,-0.6894257409676909
1772567302636847000,9.80584716796875,1.5684990245223045,-0.30048166069984433,-0.5185110289666801
1772567302646876200,9.815876220703124,1.6317466310739517,-0.017034136909246444,-0.16201814270950854
1772567302656904000,9.825904052734375,1.8495242896020412,0.44067689785361286,0.30375114735718817
1772567302666933000,9.83593310546875,2.359582766717672,0.7816957361251116,0.6253355461120605
1772567302676962000,9.845962158203125,2.952321280607581,0.8708692265719175,0.6523021712318062
1772567302686991000,9.8559912109375,3.504959839299321,0.933579072985053,0.6008933249033988
1772567302697020200,9.866020263671874,4.120361435896158,0.8436436582550406,0.5435830725114792
1772567302707049200,9.87604931640625,4.6944466872423884,0.6133490479812026,0.5787941596895456
1772567302717078000,9.886078125,5.296679590186477,0.440935841050744,0.7801550094891339
1772567302727107000,9.896107177734375,5.650387814161181,0.41330636810809374,0.8515027011923492
1772567302737136000,9.90613623046875,5.394825491639971,0.4106698821246624,0.6308290289618075
1772567302747165200,9.916165283203124,5.036727508273721,0.5705614611342549,0.3425028662841767
1772567302757194000,9.926194091796875,4.872987729403376,1.0139379733353853,0.1313418128842488
1772567302767223000,9.93622314453125,5.084038125503063,1.609082379323244,0.22031357021387665
1772567302777252000,9.946252197265625,6.4361050608873365,2.112453341498971,0.46041295066531746
1772567302787281200,9.95628125,6.236986510121822,2.4354297426015137,1.0196672377023845
1772567302797310200,9.966310302734374,4.933398066702485,2.133693113404512,1.0424340730447321
1772567302807339300,9.97633935546875,5.722128523769975,2.065477070790529,0.5734042833447456
1772567302817368000,9.9863681640625,5.829729651311039,2.437799978864193,0.29414259387142955
1772567302827397000,9.996397216796876,5.845870054250955,3.025757688218355,0.18598425257271153
1772567302837426200,10.00642626953125,6.117924661889672,2.6701336937502025,0.8080433525636792
