time,seconds_elapsed,z,y,x
1772567292908712000,0.0777119140625,-0.17780862748622894,0.956459641456604,0.7119306325912476
1772567292918741000,0.087740966796875,-0.17788240313529968,0.985824465751648,0.6321415901184082
1772567292928770000,0.09777001953125,-0.14207501709461212,0.885231077671051,0.5491578578948975
1772567292938798800,0.107798828125,-0.08864322304725647,0.690360426902771,0.4775574207305908
1772567292948828000,0.117827880859375,-0.0664522647857666,0.4976297616958618,0.4105472266674042
1772567292958857000,0.12785693359375,-0.09158531576395035,0.39655107259750366,0.35231083631515503
1772567292968886000,0.137885986328125,-0.13183605670928955,0.41672369837760925,0.29061663150787354
1772567292978915000,0.1479150390625,-0.16523714363574982,0.47281333804130554,0.24349839985370636
1772567292988944100,0.157944091796875,-0.15758603811264038,0.6146724224090576,0.2515486180782318
1772567292998973000,0.167972900390625,-0.10782459378242493,0.820115864276886,0.3236646354198456
1772567293009002000,0.178001953125,-0.008253625594079494,0.9975872039794922,0.4411579966545105
1772567293019031000,0.188031005859375,0.11281793564558029,1.1259218454360962,0.5251738429069519
1772567293029059800,0.198059814453125,0.2624155580997467,1.1640596389770508,0.47783347964286804
1772567293039089000,0.2080888671875,0.45956936478614807,1.0356206893920898,0.29256802797317505
1772567293049118000,0.218117919921875,0.6564485430717468,0.6400066614151001,0.04654291644692421
1772567293059147000,0.22814697265625,0.8240729570388794,-0.10825846344232559,-0.0730053186416626
1772567293069176300,0.23817626953125,0.8928667306900024,-0.9717422723770142,0.1286822408437729
1772567293079205400,0.248205322265625,0.8821213841438293,-1.6663844585418701,0.6430467367172241
1772567293089234200,0.258234130859375,0.842738926410675,-2.114424705505371,1.24406898021698
1772567293099263200,0.26826318359375,0.83123779296875,-2.231869697570801,1.7080025672912598
1772567293109292300,0.278292236328125,0.8380842208862305,-1.8374924659729004,1.858994483947754
1772567293119321000,0.288321044921875,0.8423556685447693,-1.0899183750152588,1.608862042427063
1772567293129350100,0.29835009765625,0.8364017009735107,-0.16233594715595245,1.036975622177124
1772567293139379200,0.308379150390625,0.7735287547111511,0.7665926814079285,0.3336464762687683
1772567293149408000,0.318407958984375,0.6707940101623535,1.4481480121612549,-0.38837936520576477
1772567293159437000,0.32843701171875,0.6047813892364502,1.7373504638671875,-1.0423678159713745
1772567293169466400,0.33846630859375,0.529762864112854,1.6898356676101685,-1.5732585191726685
1772567293179495200,0.3484951171875,0.4442749321460724,1.4055887460708618,-1.929627537727356
1772567293189524200,0.358524169921875,0.39161527156829834,0.9763697385787964,-2.0982203483581543
1772567293199554300,0.36855419921875,0.4074150323867798,0.4799541234970093,-2.092921018600464
1772567293209582300,0.378582275390625,0.4634447693824768,-0.02817547507584095,-1.9125113487243652
1772567293219612200,0.388612060546875,0.5204755663871765,-0.4710594415664673,-1.6161718368530273
1772567293229641200,0.39864111328125,0.5655818581581116,-0.8646740913391113,-1.2783746719360352
1772567293239670300,0.408670166015625,0.587143063545227,-1.1993324756622314,-0.9750915169715881
1772567293249699000,0.418698974609375,0.5856603980064392,-1.419114589691162,-0.7551925182342529
1772567293259728100,0.42872802734375,0.5433565974235535,-1.5092918872833252,-0.6452289819717407
1772567293269757200,0.438757080078125,0.4478021264076233,-1.4499976634979248,-0.644349992275238
1772567293279786000,0.448785888671875,0.32558009028434753,-1.1944202184677124,-0.7349355220794678
1772567293289815300,0.458815185546875,0.2184334546327591,-0.7734732031822205,-0.8510476350784302
1772567293299844400,0.46884423828125,0.15940555930137634,-0.28963354229927063,-0.9584949612617493
1772567293309873200,0.478873046875,0.15304286777973175,0.15898899734020233,-1.0208957195281982
1772567293319902200,0.488902099609375,0.1543603390455246,0.4739224314689636,-1.0091032981872559
1772567293329931300,0.49893115234375,0.1724172830581665,0.6471263766288757,-0.9185569882392883
1772567293339960000,0.5089599609375,0.2232823371887207,0.7197997570037842,-0.7659463882446289
1772567293349989000,0.518989013671875,0.2810609042644501,0.6928979158401489,-0.5746955871582031
1772567293360018200,0.52901806640625,0.3159043788909912,0.5874993205070496,-0.39216381311416626
1772567293370047200,0.539047119140625,0.3444768488407135,0.4598460793495178,-0.22703242301940918
1772567293380076300,0.549076171875,0.3705238997936249,0.31571075320243835,-0.07720164954662323
1772567293390105300,0.559105224609375,0.39347168803215027,0.20700082182884216,0.06930075585842133
1772567293400134400,0.569134521484375,0.379520982503891,0.1645769327878952,0.22083888947963715
1772567293410163200,0.5791630859375,0.30860966444015503,0.15242859721183777,0.37767520546913147
1772567293420192300,0.589192138671875,0.2192654311656952,0.24264317750930786,0.5479857325553894
1772567293430221300,0.59922119140625,0.11846879124641418,0.3573175370693207,0.7211408019065857
1772567293440250000,0.60925,0.011958062648773193,0.47064220905303955,0.8582097291946411
1772567293450279200,0.619279052734375,-0.09905348718166351,0.603708028793335,0.9408129453659058
1772567293460308200,0.62930810546875,-0.18260429799556732,0.8063298463821411,0.9660866260528564
1772567293470337300,0.639337158203125,-0.24031732976436615,1.0248355865478516,0.9248428344726562
1772567293480366300,0.649366455078125,-0.30555811524391174,1.1025564670562744,0.8007381558418274
1772567293490395400,0.6593955078125,-0.4042411744594574,1.0389842987060547,0.6078069806098938
1772567293500424200,0.669424072265625,-0.46060270071029663,1.0542042255401611,0.40638628602027893
1772567293510453200,0.679453369140625,-0.4091055691242218,1.1017389297485352,0.22940531373023987
1772567293520482300,0.689482421875,-0.274223655462265,0.9785877466201782,0.11211036890745163
1772567293530511000,0.699510986328125,-0.12271049618721008,0.8805785179138184,0.1848556250333786
1772567293540540200,0.7095400390625,-0.08670669049024582,0.8056206703186035,0.4136054217815399
1772567293550569200,0.7195693359375,-0.26653504371643066,0.8141934275627136,0.6848653554916382
1772567293560598000,0.729597900390625,-0.5140458345413208,0.9160851836204529,0.9065666198730469
1772567293570627300,0.73962744140625,-0.7610815763473511,0.8220710158348083,1.0080901384353638
1772567293580656400,0.749656494140625,-0.8113868236541748,0.3906239867210388,0.9398614168167114
1772567293590686200,0.759686279296875,-0.5924473404884338,-0.15790770947933197,0.7516916394233704
1772567293600715300,0.76971533203125,-0.2730647623538971,-0.6582520604133606,0.5059170126914978
1772567293610744300,0.779744384765625,-0.014040408656001091,-1.017091989517212,0.22828912734985352
1772567293620773400,0.7897734375,0.13510927557945251,-1.303896427154541,-0.05738411843776703
1772567293630802200,0.79980224609375,0.1944890320301056,-1.4744505882263184,-0.3137141168117523
1772567293640831200,0.809831298828125,0.1713661402463913,-1.512883186340332,-0.502140998840332
1772567293650860300,0.8198603515625,0.11751475185155869,-1.3530186414718628,-0.6077765226364136
1772567293660889000,0.82988916015625,0.0498608723282814,-1.0716514587402344,-0.6690449118614197
1772567293670918100,0.839918212890625,-0.009153692051768303,-0.7880468964576721,-0.740803062915802
1772567293680947200,0.849947265625,-0.04464191198348999,-0.5742683410644531,-0.8408553600311279
1772567293690976300,0.859976318359375,-0.056252703070640564,-0.4107109308242798,-0.9669846296310425
1772567293701005300,0.87000537109375,-0.0390649288892746,-0.19234023988246918,-1.080223798751831
1772567293711034400,0.880034423828125,-0.017637202516198158,0.1124967709183693,-1.1511534452438354
1772567293721063200,0.890063232421875,-0.0241377130150795,0.46377357840538025,-1.1790555715560913
1772567293731092200,0.90009228515625,-0.08328000456094742,0.7745306491851807,-1.1728428602218628
1772567293741121300,0.910121337890625,-0.20722830295562744,0.9707694053649902,-1.1710995435714722
1772567293751150000,0.920150146484375,-0.3697502017021179,0.9596503376960754,-1.1821428537368774
1772567293761179100,0.93017919921875,-0.5431845784187317,0.7618722915649414,-1.1750633716583252
1772567293771208200,0.940208251953125,-0.6883609294891357,0.4478272795677185,-1.1273022890090942
1772567293781237200,0.9502373046875,-0.7474104166030884,0.13482356071472168,-1.011273980140686
1772567293791266300,0.960266357421875,-0.6871961355209351,-0.10310161113739014,-0.8446176052093506
1772567293801295400,0.97029541015625,-0.5305580496788025,-0.21462494134902954,-0.6391454339027405
1772567293811324200,0.98032421875,-0.3114762604236603,-0.25182902812957764,-0.43005847930908203
1772567293821353200,0.990353271484375,-0.04648613929748535,-0.21440044045448303,-0.21503910422325134
1772567293831382300,1.00038232421875,0.21929563581943512,-0.15668818354606628,-0.02681378833949566
1772567293841411000,1.0104111328125,0.4261942207813263,-0.097591832280159,0.105635866522789
1772567293851440000,1.020440185546875,0.5400242209434509,-0.06438028812408447,0.1722179800271988
1772567293861469200,1.03046923828125,0.5631705522537231,-0.03547779843211174,0.17123261094093323
1772567293871498000,1.040498046875,0.5270658135414124,0.021567445248365402,0.12977254390716553
1772567293881527300,1.05052734375,0.45099228620529175,0.08762821555137634,0.06484602391719818
1772567293891556400,1.060556396484375,0.3430703580379486,0.1633346974849701,0.006161403842270374
1772567293901585200,1.070585205078125,0.23251456022262573,0.27281299233436584,-0.01699797809123993
1772567293911614200,1.0806142578125,0.1279444694519043,0.3720706105232239,-0.013177750632166862
1772567293921643300,1.090643310546875,0.07869809120893478,0.40814393758773804,0.04446610435843468
1772567293931672000,1.100672119140625,0.10265538841485977,0.43761447072029114,0.1905302107334137
1772567293941701000,1.110701171875,0.14719568192958832,0.45025062561035156,0.38718947768211365
1772567293951730200,1.120730224609375,0.18475669622421265,0.3781701624393463,0.6024795770645142
1772567293961759200,1.13075927734375,0.1922372430562973,0.3211268484592438,0.8212265968322754
1772567293971788300,1.140788330078125,0.18412372469902039,0.31731653213500977,1.016006350517273
1772567293981817300,1.1508173828125,0.10822682827711105,0.3078668415546417,1.1616238355636597
1772567293991846400,1.160846435546875,-0.08621291071176529,0.282423198223114,1.1984328031539917
1772567294001875200,1.170875244140625,-0.3060704469680786,0.3167864978313446,1.1299723386764526
1772567294011905300,1.1809052734375,-0.3957440257072449,0.3758429288864136,0.9820250272750854
1772567294021934300,1.190934326171875,-0.3204767107963562,0.32597070932388306,0.8040976524353027
1772567294031963100,1.200963134765625,-0.12960782647132874,0.2006554752588272,0.6940865516662598
1772567294041992200,1.2109921875,0.12174130976200104,0.20407550036907196,0.7097576856613159
1772567294052021200,1.221021240234375,0.4101179540157318,0.4862539768218994,0.8722056150436401
1772567294062050000,1.231050048828125,0.6827971339225769,0.8252964615821838,1.120290994644165
1772567294072079000,1.2410791015625,0.8869388103485107,1.0075321197509766,1.29595947265625
1772567294082108200,1.251108154296875,0.9877386689186096,0.9758594036102295,1.2735694646835327
1772567294092137200,1.26113720703125,0.9700055718421936,0.8607321977615356,1.0703904628753662
1772567294102166300,1.271166259765625,0.8986890316009521,0.7562941908836365,0.8000133633613586
1772567294112195300,1.2811953125,0.8182740807533264,0.6331650018692017,0.5290147662162781
1772567294122224400,1.291224365234375,0.7411981821060181,0.45086178183555603,0.2786464989185333
1772567294132253200,1.301253173828125,0.6468995213508606,0.19331547617912292,0.09521279484033585
1772567294142282200,1.3112822265625,0.5198107957839966,-0.17180202901363373,-0.005444575101137161
1772567294152311300,1.321311279296875,0.41220811009407043,-0.6208846569061279,-0.042364973574876785
1772567294162340000,1.331340087890625,0.36845290660858154,-1.071061611175537,-0.048802632838487625
1772567294172369200,1.341369140625,0.3511582612991333,-1.4504112005233765,-0.0686318576335907
1772567294182398200,1.351398193359375,0.2972542941570282,-1.737221121788025,-0.14491437375545502
1772567294192427300,1.36142724609375,0.21734972298145294,-1.9557816982269287,-0.2876777946949005
1772567294202456300,1.371456298828125,0.15534014999866486,-2.148806571960449,-0.490093469619751
1772567294212485400,1.3814853515625,0.12758642435073853,-2.2549102306365967,-0.7082227468490601
1772567294222514200,1.39151416015625,0.14455847442150116,-2.151583194732666,-0.877984881401062
1772567294232543200,1.401543212890625,0.17007598280906677,-1.8534796237945557,-0.9872653484344482
1772567294242572300,1.411572265625,0.19198846817016602,-1.4803589582443237,-1.0610772371292114
1772567294252601000,1.42160107421875,0.20720118284225464,-1.1331015825271606,-1.1082730293273926
1772567294262630100,1.431630126953125,0.21905358135700226,-0.8931654095649719,-1.142533779144287
1772567294272659200,1.4416591796875,0.21584364771842957,-0.7897977828979492,-1.1757514476776123
1772567294282688300,1.451688232421875,0.1716165393590927,-0.780328631401062,-1.1847673654556274
1772567294292717300,1.46171728515625,0.08777975291013718,-0.8089739084243774,-1.1347124576568604
1772567294302746400,1.471746337890625,-0.008911104872822762,-0.7684792280197144,-0.9933773875236511
1772567294312775200,1.481775146484375,-0.10554486513137817,-0.631320595741272,-0.7816255688667297
1772567294322804200,1.49180419921875,-0.19761593639850616,-0.4501955211162567,-0.5504347085952759
1772567294332833300,1.501833251953125,-0.24487927556037903,-0.213621124625206,-0.3520790934562683
1772567294342862000,1.511862060546875,-0.23968425393104553,0.049697067588567734,-0.2160368263721466
1772567294352891100,1.52189111328125,-0.19032546877861023,0.3147536814212799,-0.15832236409187317
1772567294362920200,1.531920166015625,-0.12786050140857697,0.5346223711967468,-0.1374455839395523
1772567294372949200,1.54194921875,-0.09015167504549026,0.6984027624130249,-0.10942515730857849
1772567294382978300,1.551978271484375,-0.07150369137525558,0.808379054069519,-0.049519479274749756
1772567294393007400,1.56200732421875,-0.05511718988418579,0.900781512260437,0.05158371105790138
1772567294403036200,1.5720361328125,-0.04293588921427727,0.9487040042877197,0.14253731071949005
1772567294413065200,1.582065185546875,-0.08263415843248367,0.9836194515228271,0.2082642763853073
1772567294423094300,1.59209423828125,-0.1632954329252243,1.0521305799484253,0.23606795072555542
1772567294433123000,1.602123046875,-0.2520696222782135,1.1053218841552734,0.2322072684764862
1772567294443152100,1.612152099609375,-0.3337021768093109,1.018770456314087,0.20383234322071075
1772567294453181200,1.62218115234375,-0.4117864668369293,0.810538113117218,0.20870259404182434
1772567294463210000,1.6322099609375,-0.46747395396232605,0.7026870250701904,0.29001209139823914
1772567294473239300,1.6422392578125,-0.47035378217697144,0.6575719714164734,0.43162474036216736
1772567294483268400,1.652268310546875,-0.4815065562725067,0.6182448267936707,0.5654951930046082
1772567294493297200,1.662297119140625,-0.5286096930503845,0.7346338033676147,0.6645097136497498
1772567294503326200,1.672326171875,-0.5057539343833923,1.033440113067627,0.7426034212112427
1772567294513355300,1.682355224609375,-0.3848384618759155,1.2843631505966187,0.775423526763916
1772567294523384300,1.69238427734375,-0.18210159242153168,1.2933928966522217,0.7645642161369324
1772567294533413000,1.7024130859375,0.05159373953938484,0.978895902633667,0.7430151700973511
1772567294543443200,1.712443115234375,0.23297151923179626,0.5895737409591675,0.7470024228096008
1772567294553472300,1.72247216796875,0.3386656641960144,0.2290702909231186,0.7689418196678162
1772567294563501000,1.7325009765625,0.3909991681575775,-0.13043461740016937,0.773968517780304
1772567294573530000,1.742530029296875,0.4597434103488922,-0.43981844186782837,0.7409095764160156
1772567294583559200,1.75255908203125,0.5763890743255615,-0.6475633978843689,0.6956062912940979
1772567294593588200,1.762588134765625,0.7123336791992188,-0.7051196694374084,0.6840919256210327
1772567294603617300,1.7726171875,0.8339839577674866,-0.6647090911865234,0.7107309699058533
1772567294613646300,1.782646240234375,0.9351701736450195,-0.5510167479515076,0.7009525895118713
1772567294623675100,1.792675048828125,1.0238672494888306,-0.4181023836135864,0.5867211222648621
1772567294633704200,1.8027041015625,1.127140998840332,-0.3528057038784027,0.36360082030296326
1772567294643733200,1.812733154296875,1.2075817584991455,-0.41667309403419495,0.07407606393098831
1772567294653762000,1.822761962890625,1.1978601217269897,-0.5880359411239624,-0.22525650262832642
1772567294663791000,1.832791015625,1.0650006532669067,-0.7747302055358887,-0.4876100718975067
1772567294673820200,1.842820068359375,0.8175582885742188,-0.8322989344596863,-0.6833099126815796
1772567294683849200,1.85284912109375,0.5006082653999329,-0.7711735367774963,-0.7996580600738525
1772567294693878300,1.862878173828125,0.17417126893997192,-0.6372537016868591,-0.8525831699371338
1772567294703907300,1.8729072265625,-0.10850834846496582,-0.43345367908477783,-0.8451854586601257
1772567294713936400,1.882936279296875,-0.3239879906177521,-0.1905229538679123,-0.7952825427055359
1772567294723965200,1.892965087890625,-0.47085386514663696,0.09957651793956757,-0.7217406630516052
1772567294733994200,1.902994140625,-0.5589417219161987,0.43868395686149597,-0.6451632976531982
1772567294744023300,1.913023193359375,-0.5790917277336121,0.7654762268066406,-0.6015862822532654
1772567294754052000,1.923052001953125,-0.5406792163848877,0.9997015595436096,-0.5807810425758362
1772567294764081200,1.9330810546875,-0.46998724341392517,1.126427412033081,-0.5665643215179443
1772567294774110200,1.943110107421875,-0.392730712890625,1.1533068418502808,-0.5110196471214294
1772567294784139300,1.95313916015625,-0.3131014108657837,1.0753289461135864,-0.40827465057373047
1772567294794168300,1.963168212890625,-0.2622886300086975,0.9238243103027344,-0.26469022035598755
1772567294804197400,1.973197265625,-0.2296992540359497,0.7783105373382568,-0.11366073042154312
1772567294814226200,1.98322607421875,-0.18683026731014252,0.6868531107902527,0.05934137478470802
1772567294824255200,1.993255126953125,-0.12961943447589874,0.6310926079750061,0.2295117825269699
1772567294834284300,2.0032841796875,-0.08871248364448547,0.6263349056243896,0.39353400468826294
1772567294844313000,2.01331298828125,-0.08078745007514954,0.6646252870559692,0.5554214119911194
1772567294854342100,2.023342041015625,-0.09693974256515503,0.7130009531974792,0.7000067234039307
1772567294864371200,2.03337109375,-0.12404139339923859,0.7284060120582581,0.8222639560699463
1772567294874400300,2.043400146484375,-0.14546175301074982,0.7052929997444153,0.934823751449585
1772567294884429300,2.05342919921875,-0.1566758006811142,0.612282395362854,1.0248618125915527
1772567294894458400,2.063458251953125,-0.1580825299024582,0.4463987350463867,1.0844147205352783
1772567294904487200,2.073487060546875,-0.16260643303394318,0.306317001581192,1.105560541152954
1772567294914516200,2.08351611328125,-0.1800546497106552,0.24092832207679749,1.0936475992202759
1772567294924545300,2.093545166015625,-0.1996731013059616,0.22280153632164001,1.0681380033493042
1772567294934574000,2.103573974609375,-0.21633149683475494,0.17051158845424652,1.034556269645691
1772567294944603100,2.11360302734375,-0.2293253242969513,0.0955667793750763,1.021905779838562
1772567294954632200,2.123632080078125,-0.2510966956615448,0.05844022333621979,1.035158395767212
1772567294964661200,2.1336611328125,-0.2949879765510559,0.10579203069210052,1.0676430463790894
1772567294974690300,2.143690185546875,-0.3306786119937897,0.25839677453041077,1.1198915243148804
1772567294984719400,2.15371923828125,-0.3242625296115875,0.4905357360839844,1.146984338760376
1772567294994748200,2.163748046875,-0.2546813189983368,0.7393844127655029,1.1067410707473755
1772567295004777200,2.173777099609375,-0.1425209641456604,0.96128249168396,0.9661809206008911
1772567295014806300,2.18380615234375,-0.09029331803321838,0.8445279002189636,0.682792603969574
1772567295024835000,2.1938349609375,-0.12457139790058136,0.412222295999527,0.38178321719169617
1772567295034864000,2.203864013671875,-0.12149003893136978,0.1442999392747879,0.27038413286209106
1772567295044893200,2.21389306640625,0.05456061661243439,-0.028184492141008377,0.31722062826156616
1772567295054922000,2.223921875,0.33445894718170166,-0.38106769323349,0.38241368532180786
1772567295064951300,2.233951416015625,0.6361615061759949,-0.8632095456123352,0.40160202980041504
1772567295074980400,2.24398046875,0.889448881149292,-1.4013988971710205,0.3468446731567383
1772567295085009200,2.254009033203125,1.0627211332321167,-1.913706660270691,0.22310355305671692
1772567295095038200,2.2640380859375,1.1271545886993408,-2.3097786903381348,0.0496060810983181
1772567295105068300,2.274068359375,1.078752875328064,-2.4836366176605225,-0.1545550525188446
1772567295115097300,2.284097412109375,0.9564741849899292,-2.4456183910369873,-0.3646396994590759
1772567295125126100,2.294126220703125,0.8323434591293335,-2.246594190597534,-0.5729798674583435
1772567295135155200,2.3041552734375,0.7654978036880493,-1.9603564739227295,-0.7748046517372131
1772567295145184300,2.314184326171875,0.7695910930633545,-1.6021504402160645,-0.9437206983566284
1772567295155213000,2.324213134765625,0.8132307529449463,-1.1724852323532104,-1.0777045488357544
1772567295165242000,2.3342421875,0.8682671189308167,-0.7015507221221924,-1.1776937246322632
1772567295175271200,2.344271240234375,0.9351534843444824,-0.2917470335960388,-1.2753504514694214
1772567295185300200,2.35430029296875,0.9220542311668396,0.1548163741827011,-1.3902602195739746
1772567295195329300,2.364329345703125,0.7867106795310974,0.6798814535140991,-1.5129680633544922
1772567295205358300,2.3743583984375,0.5510270595550537,1.1596304178237915,-1.6851035356521606
1772567295215387100,2.38438720703125,0.24916400015354156,1.4839650392532349,-1.8817675113677979
1772567295225416200,2.394416259765625,-0.09741153568029404,1.6319864988327026,-2.07558012008667
1772567295235445200,2.4044453125,-0.4700581431388855,1.6068475246429443,-2.2196640968322754
1772567295245474000,2.41447412109375,-0.8026286959648132,1.4325785636901855,-2.282860517501831
1772567295255503000,2.424503173828125,-1.0010966062545776,1.173614263534546,-2.2448737621307373
1772567295265532200,2.4345322265625,-1.0139133930206299,0.8573282361030579,-2.099212169647217
1772567295275561200,2.444561279296875,-0.8527538776397705,0.5394232273101807,-1.8222663402557373
1772567295285590300,2.45459033203125,-0.5946589112281799,0.28503066301345825,-1.4351247549057007
1772567295295619300,2.464619384765625,-0.2849607765674591,0.11067304015159607,-0.9765291213989258
1772567295305648400,2.4746484375,0.01587388664484024,0.03457401320338249,-0.4911286234855652
1772567295315677200,2.48467724609375,0.22721700370311737,0.01286367978900671,-0.05322008952498436
1772567295325706200,2.494706298828125,0.34310421347618103,0.047822196036577225,0.2924118936061859
1772567295335735300,2.5047353515625,0.3661893904209137,0.13943825662136078,0.5240797400474548
1772567295345764000,2.51476416015625,0.3034476935863495,0.23550300300121307,0.628511905670166
1772567295355793200,2.524793212890625,0.17244674265384674,0.30945879220962524,0.6259816288948059
1772567295365822200,2.534822265625,0.011569182388484478,0.4126269817352295,0.5815017819404602
1772567295375851300,2.544851318359375,-0.1513969451189041,0.5820830464363098,0.5223045349121094
1772567295385880300,2.55488037109375,-0.2864879071712494,0.7459731698036194,0.4570203423500061
1772567295395909400,2.564909423828125,-0.38739773631095886,0.858518123626709,0.39582204818725586
1772567295405938200,2.574938232421875,-0.4561634957790375,0.9200397729873657,0.4007507562637329
1772567295415967200,2.58496728515625,-0.5068197250366211,0.9528995156288147,0.4859367907047272
1772567295425996300,2.594996337890625,-0.539548933506012,0.9445928931236267,0.5929761528968811
1772567295436025000,2.605025146484375,-0.5187752842903137,0.9550191164016724,0.6864147186279297
1772567295446054100,2.61505419921875,-0.4275182783603668,0.9173348546028137,0.761637806892395
1772567295456083200,2.625083251953125,-0.29653400182724,0.8458092212677002,0.8546255230903625
1772567295466112300,2.6351123046875,-0.14506642520427704,0.6536024808883667,0.9747466444969177
1772567295476141300,2.645141357421875,-0.009264037013053894,0.3914337754249573,1.1355946063995361
1772567295486170400,2.65517041015625,0.10797950625419617,0.32068929076194763,1.3305739164352417
1772567295496199200,2.66519921875,0.2026022970676422,0.4446558952331543,1.546036720275879
1772567295506228200,2.675228271484375,0.3426387906074524,0.5901595950126648,1.7096515893936157
1772567295516257300,2.68525732421875,0.5678907036781311,0.630763053894043,1.7356144189834595
1772567295526286000,2.6952861328125,0.8199000358581543,0.6017045378684998,1.6324387788772583
1772567295536315100,2.705315185546875,1.0141565799713135,0.4728219509124756,1.4095062017440796
1772567295546344200,2.71534423828125,1.1365485191345215,0.22955657541751862,1.1103333234786987
1772567295556373000,2.725373046875,1.1626523733139038,-0.09057900309562683,0.7825251221656799
1772567295566402300,2.73540234375,1.1008169651031494,-0.44935765862464905,0.47264552116394043
1772567295576431400,2.745431396484375,0.9918717741966248,-0.7992889881134033,0.20297428965568542
1772567295586460200,2.755460205078125,0.8819987773895264,-1.0294172763824463,-0.024355536326766014
1772567295596489200,2.7654892578125,0.7962027192115784,-1.1078407764434814,-0.2217588871717453
1772567295606518300,2.775518310546875,0.7250060439109802,-1.0591596364974976,-0.3986489772796631
1772567295616547000,2.785547119140625,0.6361628770828247,-0.9034421443939209,-0.5774351358413696
1772567295626576100,2.795576171875,0.5291101932525635,-0.670850396156311,-0.7317181825637817
1772567295636605200,2.805605224609375,0.4091300666332245,-0.45005863904953003,-0.8659548163414001
1772567295646634000,2.815634033203125,0.29563066363334656,-0.33013036847114563,-1.0155221223831177
1772567295656663300,2.825663330078125,0.2069205790758133,-0.3108089864253998,-1.177380084991455
1772567295666692400,2.8356923828125,0.11467693746089935,-0.2778286635875702,-1.2942028045654297
1772567295676721200,2.84572119140625,-0.009315939620137215,-0.20593994855880737,-1.3449954986572266
1772567295686750200,2.855750244140625,-0.16565440595149994,-0.17492316663265228,-1.3447155952453613
1772567295696779300,2.865779296875,-0.3127482533454895,-0.21438904106616974,-1.3060325384140015
1772567295706808300,2.875808349609375,-0.4336557686328888,-0.34165486693382263,-1.234128713607788
1772567295716837000,2.885837158203125,-0.5122792720794678,-0.56804358959198,-1.1374249458312988
1772567295726866200,2.8958662109375,-0.5271471738815308,-0.7470959424972534,-1.010852336883545
1772567295736896300,2.905896240234375,-0.45731931924819946,-0.8496202826499939,-0.8758403062820435
1772567295746925000,2.915925048828125,-0.33924248814582825,-0.8582992553710938,-0.7509037256240845
1772567295756954000,2.9259541015625,-0.23452703654766083,-0.692138671875,-0.6268081068992615
1772567295766983200,2.935983154296875,-0.16341663897037506,-0.34002193808555603,-0.48886463046073914
1772567295777012200,2.94601220703125,-0.1155824288725853,0.06655019521713257,-0.34810927510261536
1772567295787041300,2.956041259765625,-0.07544460147619247,0.4114897549152374,-0.23402583599090576
1772567295797070300,2.9660703125,-0.05188959836959839,0.6357589960098267,-0.16782763600349426
1772567295807099100,2.97609912109375,-0.07437972724437714,0.7663976550102234,-0.12235922366380692
1772567295817128200,2.986128173828125,-0.1220066100358963,0.8277347087860107,-0.10207780450582504
1772567295827157200,2.9961572265625,-0.15594513714313507,0.727289080619812,-0.07993202656507492
1772567295837186000,3.00618603515625,-0.11101941019296646,0.5617026686668396,-0.0609031617641449
1772567295847215000,3.016215087890625,0.03526749834418297,0.3937256634235382,-0.016287222504615784
1772567295857244200,3.026244140625,0.24134431779384613,0.2722390592098236,0.0483311302959919
1772567295867273200,3.036273193359375,0.4594106078147888,0.25908252596855164,0.13028378784656525
1772567295877302300,3.04630224609375,0.6435633897781372,0.2704709768295288,0.18962904810905457
1772567295887331300,3.056331298828125,0.7435181736946106,0.24574273824691772,0.19949579238891602
1772567295897360400,3.0663603515625,0.7677037119865417,0.22252896428108215,0.1976710557937622
1772567295907389200,3.07638916015625,0.7087368369102478,0.13530856370925903,0.20229242742061615
1772567295917418200,3.086418212890625,0.5659477114677429,0.03384137898683548,0.22790522873401642
1772567295927447300,3.096447265625,0.3695257306098938,-0.04940051585435867,0.24808771908283234
1772567295937476000,3.10647607421875,0.1572389304637909,-0.043849244713783264,0.316695898771286
1772567295947505200,3.116505126953125,-0.0129085723310709,-0.01051711943000555,0.4505530297756195
1772567295957534200,3.1265341796875,-0.07627782225608826,0.09456885606050491,0.6757363677024841
1772567295967563300,3.136563232421875,-0.01061385776847601,0.24398018419742584,1.0110691785812378
1772567295977592300,3.14659228515625,0.16686026751995087,0.44232141971588135,1.4066797494888306
1772567295987621400,3.156621337890625,0.4451640546321869,0.6018809676170349,1.7526379823684692
1772567295997650200,3.166650146484375,0.7544419169425964,0.6419399380683899,1.91770339012146
1772567296007679200,3.17667919921875,1.0318559408187866,0.6045510172843933,1.825502872467041
1772567296017708300,3.186708251953125,1.2187445163726807,0.3846532702445984,1.457584023475647
1772567296027737000,3.196737060546875,1.291407585144043,0.029587050899863243,0.9245434999465942
1772567296037766100,3.20676611328125,1.2605977058410645,-0.3347689211368561,0.3887128531932831
1772567296047795200,3.216795166015625,1.171937108039856,-0.7035189270973206,0.01815185695886612
1772567296057824300,3.22682421875,1.051417350769043,-0.9520983695983887,-0.13862992823123932
1772567296067853600,3.236853515625,0.9170398116111755,-1.065046787261963,-0.1440606415271759
1772567296077882400,3.24688232421875,0.8120011687278748,-0.9389869570732117,-0.06618476659059525
1772567296087911400,3.256911376953125,0.7262316942214966,-0.5744537115097046,0.013860267587006092
1772567296097940500,3.2669404296875,0.629315197467804,-0.1542009562253952,-0.013234417885541916
1772567296107969300,3.27696923828125,0.4720347821712494,0.21314002573490143,-0.17260544002056122
1772567296117998300,3.286998291015625,0.23071236908435822,0.5420243740081787,-0.443812757730484
1772567296128027400,3.29702734375,-0.11071152985095978,0.8530813455581665,-0.7211298942565918
1772567296138056200,3.30705615234375,-0.5434330701828003,1.1148141622543335,-0.9498195052146912
1772567296148085200,3.317085205078125,-0.9611490964889526,1.3291631937026978,-1.1066999435424805
1772567296158114600,3.327114501953125,-1.268436074256897,1.4558037519454956,-1.1812524795532227
1772567296168143400,3.337143310546875,-1.3715137243270874,1.4215307235717773,-1.1894654035568237
1772567296178172400,3.34717236328125,-1.2631443738937378,1.1467087268829346,-1.1303040981292725
1772567296188201500,3.357201416015625,-1.0424712896347046,0.67143315076828,-1.007091999053955
1772567296198230300,3.367230224609375,-0.8943572044372559,0.09173363447189331,-0.8211874961853027
1772567296208259300,3.37725927734375,-0.9617623090744019,-0.4874751567840576,-0.5703153014183044
1772567296218288400,3.387288330078125,-1.2175548076629639,-0.9260532259941101,-0.2942936420440674
1772567296228317200,3.397317138671875,-1.4858567714691162,-1.1896278858184814,-0.06829565018415451
1772567296238346200,3.40734619140625,-1.6193400621414185,-1.2288730144500732,0.1012844443321228
1772567296248375300,3.417375244140625,-1.575167179107666,-1.0133635997772217,0.23532319068908691
1772567296258404400,3.427404296875,-1.3577646017074585,-0.6581798195838928,0.319855660200119
1772567296268433400,3.437433349609375,-0.9877573251724243,-0.14952005445957184,0.35385408997535706
1772567296278462500,3.44746240234375,-0.5649408102035522,0.4317034184932709,0.36562198400497437
1772567296288491300,3.4574912109375,-0.2035839706659317,0.9632972478866577,0.36358174681663513
1772567296298520300,3.467520263671875,0.06341461837291718,1.3300975561141968,0.38361385464668274
1772567296308549400,3.47754931640625,0.2371523082256317,1.498703122138977,0.4288593828678131
1772567296318578200,3.487578125,0.3338566720485687,1.4863096475601196,0.487199068069458
1772567296328607200,3.497607177734375,0.2970065176486969,1.2225430011749268,0.5297590494155884
1772567296338636300,3.50763623046875,0.16803491115570068,0.8572050333023071,0.5670548677444458
1772567296348665300,3.517665283203125,0.06742016226053238,0.5874177813529968,0.6176011562347412
1772567296358694400,3.5276943359375,0.03648849576711655,0.3544939458370209,0.7138091325759888
1772567296368723500,3.537723388671875,0.0563570111989975,0.19625131785869598,0.8883125185966492
1772567296378752300,3.547752197265625,0.10205613821744919,0.13286098837852478,1.130305528640747
1772567296388781300,3.55778125,0.16811370849609375,0.16848742961883545,1.4034206867218018
1772567296398810400,3.567810302734375,0.2748371660709381,0.19785428047180176,1.6444462537765503
1772567296408839200,3.577839111328125,0.4291015565395355,0.16317300498485565,1.8811019659042358
1772567296418868200,3.5878681640625,0.6243867874145508,0.03281177207827568,2.11991810798645
1772567296428898300,3.597898193359375,0.8637426495552063,-0.276764452457428,2.290778636932373
1772567296438927400,3.60792724609375,1.1568409204483032,-0.944135844707489,2.3123672008514404
1772567296448956200,3.6179560546875,1.441730260848999,-1.8205280303955078,2.078172206878662
1772567296458985200,3.627985107421875,1.6306462287902832,-2.6440093517303467,1.4552432298660278
1772567296469014500,3.6380146484375,1.6280360221862793,-2.8006627559661865,0.551447331905365
1772567296479043300,3.648043212890625,1.398473858833313,-2.2202649116516113,-0.4153650403022766
1772567296489072400,3.658072265625,1.0353076457977295,-1.1506165266036987,-1.132622480392456
1772567296499101400,3.668101318359375,0.6906895041465759,-0.15778721868991852,-1.4250051975250244
1772567296509130200,3.678130126953125,0.4921058714389801,0.5160462856292725,-1.2995516061782837
1772567296519159300,3.6881591796875,0.37694111466407776,0.9194506406784058,-0.9650182723999023
1772567296529188400,3.698188232421875,0.2721252143383026,1.0389752388000488,-0.7005506753921509
1772567296539217200,3.708217041015625,0.20479603111743927,0.7145400047302246,-0.6801134943962097
1772567296549246200,3.71824609375,0.1793798804283142,0.017030688002705574,-0.8930500149726868
1772567296559275300,3.728275146484375,0.12171059846878052,-0.7365331649780273,-1.1502323150634766
1772567296569304300,3.73830419921875,0.06100837141275406,-1.2813690900802612,-1.3080523014068604
1772567296579333400,3.74833349609375,0.030175965279340744,-1.704948902130127,-1.334107518196106
1772567296589362400,3.758362548828125,0.09234773367643356,-1.9604603052139282,-1.2464289665222168
1772567296599391200,3.76839111328125,0.2921614944934845,-2.0296120643615723,-1.1290037631988525
1772567296609420300,3.778420166015625,0.520800769329071,-1.8804816007614136,-1.0605865716934204
1772567296619449300,3.788449462890625,0.6608554720878601,-1.5665545463562012,-1.054680347442627
1772567296629478400,3.798478515625,0.7055379748344421,-1.1813026666641235,-1.0608311891555786
1772567296639507200,3.808507080078125,0.7086801528930664,-0.8897517323493958,-1.0956511497497559
1772567296649536300,3.818536376953125,0.6879895329475403,-0.7090839743614197,-1.1436717510223389
1772567296659565600,3.828565673828125,0.5756601095199585,-0.6555138230323792,-1.2032898664474487
1772567296669594400,3.838594482421875,0.35007327795028687,-0.6358527541160583,-1.23038649559021
1772567296679623400,3.84862353515625,0.08451167494058609,-0.5855810642242432,-1.1981629133224487
1772567296689652500,3.858652587890625,-0.17413027584552765,-0.5543067455291748,-1.1292182207107544
1772567296699681300,3.868681396484375,-0.3807244896888733,-0.4268403947353363,-1.0429909229278564
1772567296709710300,3.87871044921875,-0.48568475246429443,-0.16733264923095703,-0.9523691534996033
1772567296719739400,3.888739501953125,-0.5148379802703857,0.10781928151845932,-0.8589557409286499
1772567296729768200,3.898768310546875,-0.5293207764625549,0.4472825825214386,-0.7115409970283508
1772567296739797200,3.90879736328125,-0.5254566669464111,0.7099800705909729,-0.5097615718841553
1772567296749826300,3.918826416015625,-0.48069265484809875,0.8642916083335876,-0.2936322093009949
1772567296759855400,3.92885546875,-0.3953390419483185,0.9331295490264893,-0.11078466475009918
1772567296769884400,3.938884521484375,-0.30863478779792786,0.9095233082771301,0.014291494153439999
1772567296779913500,3.94891357421875,-0.2587352693080902,0.7800881266593933,0.08145993202924728
1772567296789942300,3.9589423828125,-0.2474277764558792,0.6102322340011597,0.12474934756755829
1772567296799971300,3.968971435546875,-0.2598000466823578,0.4589093327522278,0.1501825749874115
1772567296810000400,3.97900048828125,-0.2716526985168457,0.31699562072753906,0.1458786427974701
1772567296820029200,3.989029296875,-0.2788926064968109,0.22130770981311798,0.0974017009139061
1772567296830058200,3.999058349609375,-0.2900429964065552,0.19605614244937897,0.0715075209736824
1772567296840085200,4.009085205078125,-0.3169683516025543,0.2402205765247345,0.07726646959781647
1772567296850114300,4.0191142578125,-0.36371639370918274,0.36777108907699585,0.11985387653112411
1772567296860143400,4.029143310546875,-0.4182097613811493,0.5303150415420532,0.15062612295150757
1772567296870172200,4.039172119140625,-0.43087175488471985,0.6647341251373291,0.193447083234787
1772567296880201200,4.049201171875,-0.39371538162231445,0.6962601542472839,0.25399211049079895
1772567296890230500,4.05923046875,-0.31723925471305847,0.60345858335495,0.3382878005504608
1772567296900259300,4.06925927734375,-0.24264726042747498,0.48597845435142517,0.4442991614341736
1772567296910288400,4.079288330078125,-0.19384002685546875,0.3885379135608673,0.5401540994644165
1772567296920317400,4.0893173828125,-0.14666742086410522,0.2562054395675659,0.6255538463592529
1772567296930346200,4.09934619140625,-0.06528015434741974,0.11859965324401855,0.7258013486862183
1772567296940375300,4.109375244140625,0.08412875980138779,-0.10386881232261658,0.8310717344284058
1772567296950404400,4.119404296875,0.3051910996437073,-0.36804667115211487,0.9129743576049805
1772567296960433200,4.12943310546875,0.5277836918830872,-0.560884416103363,0.9801816344261169
1772567296970462200,4.139462158203125,0.6985453367233276,-0.6277505159378052,1.01156747341156
1772567296980491500,4.149491455078125,0.7683002352714539,-0.4615229070186615,1.0059832334518433
1772567296990520300,4.159520263671875,0.7419798970222473,-0.17609943449497223,0.9277397394180298
1772567297000549400,4.16954931640625,0.6482374668121338,0.0559912770986557,0.7441043257713318
1772567297010578400,4.179578369140625,0.5184544324874878,0.18984520435333252,0.491321325302124
1772567297020607200,4.189607177734375,0.3512350916862488,0.2399461418390274,0.21104000508785248
1772567297030636300,4.19963623046875,0.18002447485923767,0.2559647858142853,-0.05282599851489067
1772567297040665300,4.209665283203125,0.03581119701266289,0.2727779448032379,-0.3062150478363037
1772567297050694100,4.219694091796875,-0.04651723429560661,0.20222175121307373,-0.5598376989364624
1772567297060723200,4.22972314453125,-0.04499495029449463,-0.04048335552215576,-0.814253032207489
1772567297070752300,4.239752197265625,-0.0019699856638908386,-0.46031633019447327,-1.035334587097168
1772567297080781600,4.249781494140625,0.006572021171450615,-0.9435032606124878,-1.191526174545288
1772567297090810400,4.259810302734375,-0.06079290434718132,-1.3016116619110107,-1.2655774354934692
1772567297100839400,4.26983935546875,-0.16933618485927582,-1.4817909002304077,-1.2328282594680786
1772567297110868500,4.279868408203125,-0.2575960159301758,-1.4608659744262695,-1.1378202438354492
1772567297120897300,4.289897216796875,-0.28726571798324585,-1.2837128639221191,-1.029812216758728
1772567297130926300,4.29992626953125,-0.25143900513648987,-0.9972159266471863,-0.9317374229431152
1772567297140956400,4.309956298828125,-0.160862997174263,-0.6942144632339478,-0.864467203617096
1772567297150985500,4.3199853515625,-0.08901570737361908,-0.4389323890209198,-0.8192912340164185
1772567297161014300,4.33001416015625,-0.07410814613103867,-0.14340482652187347,-0.7747324705123901
1772567297171043300,4.340043212890625,-0.12857432663440704,0.10226059705018997,-0.7384737730026245
1772567297181072400,4.350072265625,-0.2344583123922348,0.21567855775356293,-0.6984100341796875
1772567297191101400,4.360101318359375,-0.34274590015411377,0.2539023756980896,-0.6180307865142822
1772567297201130500,4.370130615234375,-0.4077051877975464,0.27814775705337524,-0.4921606779098511
1772567297211159600,4.38015966796875,-0.4092428982257843,0.3232278823852539,-0.33784300088882446
1772567297221188400,4.390188232421875,-0.3811226487159729,0.3833233714103699,-0.174544095993042
1772567297231217400,4.400217529296875,-0.38337939977645874,0.3798098564147949,-0.007609171327203512
1772567297241246500,4.41024658203125,-0.39854955673217773,0.2886660397052765,0.18149645626544952
1772567297251275300,4.420275146484375,-0.43840160965919495,0.24829094111919403,0.3929053843021393
1772567297261304300,4.43030419921875,-0.47886598110198975,0.22351957857608795,0.5710747241973877
1772567297271333400,4.44033349609375,-0.40374618768692017,0.12474426627159119,0.6612802147865295
1772567297281362200,4.450362060546875,-0.46415063738822937,0.2982757091522217,0.5888229012489319
1772567297291391500,4.4603916015625,-0.4540199637413025,0.5606468915939331,0.5225602388381958
1772567297301420500,4.470420654296875,-0.4266901910305023,0.6697839498519897,0.45235857367515564
1772567297311449300,4.480449462890625,-0.43775561451911926,0.6338914632797241,0.3659403324127197
1772567297321478400,4.490478515625,-0.4403378367424011,0.5726867318153381,0.29131296277046204
1772567297331507500,4.500507568359375,-0.4427642226219177,0.5360525250434875,0.24536119401454926
1772567297341536300,4.510536376953125,-0.44946619868278503,0.5039049386978149,0.23119477927684784
1772567297351565300,4.5205654296875,-0.45497068762779236,0.4632036089897156,0.24991358816623688
1772567297361594400,4.530594482421875,-0.4698754847049713,0.38038527965545654,0.27453887462615967
1772567297371623200,4.540623046875,-0.49669429659843445,0.22273996472358704,0.33468103408813477
1772567297381652500,4.550652587890625,-0.5240188241004944,0.10456312447786331,0.48803430795669556
1772567297391681500,4.560681640625,-0.5154581069946289,0.3221796154975891,0.6499994993209839
1772567297401710300,4.57071044921875,-0.4837680160999298,0.6836953163146973,0.7772408723831177
1772567297411739400,4.580739501953125,-0.45362529158592224,0.9466353058815002,0.9391341209411621
1772567297421768400,4.5907685546875,-0.3633841574192047,1.4077317714691162,0.8911677598953247
1772567297431797200,4.60079736328125,-0.13460130989551544,1.3625491857528687,0.6452000737190247
1772567297441826300,4.610826416015625,0.25459617376327515,0.8782413601875305,0.244369775056839
1772567297451855400,4.62085546875,0.6441484689712524,0.026660986244678497,-0.10447714477777481
1772567297461884400,4.630884521484375,0.8842383623123169,-1.0278249979019165,-0.258932501077652
1772567297471913200,4.640913330078125,0.8637059926986694,-2.000694513320923,-0.17921504378318787
1772567297481944300,4.6509443359375,0.6502977013587952,-2.462078094482422,0.07130610942840576
1772567297491973400,4.660973388671875,0.30756670236587524,-2.4176628589630127,0.3359960913658142
1772567297502002400,4.67100244140625,-0.04109719768166542,-1.9113844633102417,0.4621591567993164
1772567297512031200,4.68103125,-0.26405465602874756,-1.0732874870300293,0.3844289481639862
1772567297522060300,4.691060302734375,-0.30206796526908875,-0.23032163083553314,0.11348066478967667
1772567297532089300,4.70108935546875,-0.1716311126947403,0.4181852638721466,-0.2646847367286682
1772567297542118400,4.711118408203125,0.017951596528291702,0.7646591067314148,-0.6272305846214294
1772567297552147500,4.7211474609375,0.18616589903831482,0.815821647644043,-0.8855228424072266
1772567297562176500,4.731176513671875,0.32902413606643677,0.5425474643707275,-1.0082570314407349
1772567297572205300,4.741205322265625,0.45613521337509155,0.05763187259435654,-0.9733707308769226
1772567297582234400,4.751234375,0.5426058173179626,-0.4922448992729187,-0.8096721172332764
1772567297592263400,4.761263427734375,0.6070215702056885,-1.0629944801330566,-0.5954311490058899
1772567297602292200,4.771292236328125,0.6808939576148987,-1.5914000272750854,-0.41639190912246704
1772567297612321300,4.7813212890625,0.7273898124694824,-1.9714370965957642,-0.31853458285331726
1772567297622350300,4.791350341796875,0.6891292333602905,-2.115145444869995,-0.3002375066280365
1772567297632379400,4.80137939453125,0.5754016041755676,-1.999738335609436,-0.32419583201408386
1772567297642408400,4.811408447265625,0.4214862585067749,-1.6949948072433472,-0.36233940720558167
1772567297652437500,4.8214375,0.27549469470977783,-1.295180320739746,-0.39736104011535645
1772567297662466300,4.83146630859375,0.16638801991939545,-0.8648592829704285,-0.43842002749443054
1772567297672495400,4.841495361328125,0.11890494078397751,-0.4312266409397125,-0.46686816215515137
1772567297682524400,4.8515244140625,0.12088499218225479,-0.0032939352095127106,-0.4710698425769806
1772567297692553200,4.86155322265625,0.16483913362026215,0.40118855237960815,-0.4362362325191498
1772567297702582300,4.871582275390625,0.19313064217567444,0.7827224731445312,-0.33593425154685974
1772567297712611300,4.881611328125,0.16397728025913239,1.0562738180160522,-0.15040726959705353
1772567297722640400,4.891640380859375,0.06695890426635742,1.2431496381759644,0.11524096131324768
1772567297732669400,4.90166943359375,-0.06763911992311478,1.393742561340332,0.40580007433891296
1772567297742698500,4.911698486328125,-0.22704944014549255,1.4703160524368286,0.670276403427124
1772567297752727300,4.921727294921875,-0.39208605885505676,1.4553264379501343,0.8804935216903687
1772567297762756400,4.93175634765625,-0.5337872505187988,1.4266260862350464,1.0289250612258911
1772567297772785400,4.941785400390625,-0.631805956363678,1.4209027290344238,1.127261757850647
1772567297782814200,4.951814208984375,-0.6878106594085693,1.4557479619979858,1.1973425149917603
1772567297792843300,4.96184326171875,-0.7060416340827942,1.5495558977127075,1.2346065044403076
1772567297802872300,4.971872314453125,-0.6816908717155457,1.6278188228607178,1.220950722694397
1772567297812901400,4.9819013671875,-0.6292614936828613,1.6863093376159668,1.14912748336792
1772567297822930400,4.991930419921875,-0.6040160059928894,1.7586060762405396,1.0073943138122559
1772567297832959500,5.00195947265625,-0.6387473940849304,1.839807391166687,0.7949196100234985
1772567297842988500,5.011988525390625,-0.7252958416938782,1.9152833223342896,0.5089967846870422
1772567297853017300,5.022017333984375,-0.8332577347755432,1.8988529443740845,0.15928591787815094
1772567297863046400,5.03204638671875,-0.8673146963119507,1.7755628824234009,-0.21152828633785248
1772567297873075500,5.042075439453125,-0.856671929359436,1.5325851440429688,-0.5062102675437927
1772567297883104300,5.052104248046875,-0.8546954989433289,1.1675108671188354,-0.5844711661338806
1772567297893133300,5.06213330078125,-0.8523674011230469,0.9265055060386658,-0.3087797164916992
1772567297903162400,5.072162353515625,-0.7429832816123962,0.7835355401039124,0.21504464745521545
1772567297913191400,5.08219140625,-0.6066874861717224,0.8455118536949158,0.9070268273353577
1772567297923220500,5.092220458984375,-0.43714696168899536,0.9654015898704529,1.602559208869934
1772567297933249500,5.10224951171875,-0.22742195427417755,0.8454989194869995,2.0284156799316406
1772567297943278300,5.1122783203125,-0.00417708046734333,0.47612014412879944,2.014059543609619
1772567297953307400,5.122307373046875,0.1592366099357605,-0.08347178995609283,1.5846441984176636
1772567297963336400,5.13233642578125,0.23933009803295135,-0.7999430298805237,0.8893989324569702
1772567297973365200,5.142365234375,0.2365947663784027,-1.603211760520935,0.13789376616477966
1772567297983394300,5.152394287109375,0.1870546191930771,-2.1972482204437256,-0.4700928032398224
1772567297993423400,5.16242333984375,0.06845792382955551,-2.395659923553467,-0.8224367499351501
1772567298003452400,5.172452392578125,-0.08989141881465912,-2.0762367248535156,-0.8903235793113708
1772567298013481500,5.1824814453125,-0.18440940976142883,-1.4327312707901,-0.817228376865387
1772567298023510500,5.192510498046875,-0.11432301998138428,-0.7492993474006653,-0.7348721623420715
1772567298033539300,5.202539306640625,0.07968772947788239,-0.1734919548034668,-0.7178362011909485
1772567298043568400,5.212568359375,0.29759860038757324,0.24379050731658936,-0.7733103036880493
1772567298053597400,5.222597412109375,0.4596008062362671,0.2933817505836487,-0.9545198082923889
1772567298063626200,5.232626220703125,0.5412439107894897,0.017742421478033066,-1.2284791469573975
1772567298073655300,5.2426552734375,0.510741651058197,-0.4720997214317322,-1.5369638204574585
1772567298083684400,5.252684326171875,0.3699759542942047,-0.8778209686279297,-1.721745252609253
1772567298093713400,5.26271337890625,0.17033979296684265,-1.1245471239089966,-1.737800121307373
1772567298103742500,5.272742431640625,-0.02381742373108864,-1.3193870782852173,-1.6165783405303955
1772567298113771500,5.282771484375,-0.17979317903518677,-1.4734669923782349,-1.4147062301635742
1772567298123800300,5.29280029296875,-0.30570170283317566,-1.595564842224121,-1.2019069194793701
1772567298133829400,5.302829345703125,-0.44024431705474854,-1.6452879905700684,-1.0337069034576416
1772567298143858400,5.3128583984375,-0.6035542488098145,-1.5360509157180786,-0.9089990258216858
1772567298153887200,5.32288720703125,-0.7568564414978027,-1.3051143884658813,-0.8765753507614136
1772567298163916300,5.332916259765625,-0.8459692597389221,-0.9674702882766724,-0.919397234916687
1772567298173945300,5.3429453125,-0.8652596473693848,-0.5355671048164368,-1.0081650018692017
1772567298183974100,5.35297412109375,-0.8432376980781555,-0.05818025767803192,-1.1078521013259888
1772567298194003500,5.36300341796875,-0.8182018399238586,0.3693218231201172,-1.1735624074935913
1772567298204032500,5.373032470703125,-0.8227738738059998,0.6854245066642761,-1.178570032119751
1772567298214061300,5.383061279296875,-0.8379011154174805,0.8985722064971924,-1.1135985851287842
1772567298224090400,5.39309033203125,-0.8230913281440735,1.0379163026809692,-0.9689733982086182
1772567298234119400,5.403119384765625,-0.757148027420044,1.0943670272827148,-0.7491997480392456
1772567298244148200,5.413148193359375,-0.6549066305160522,1.0481194257736206,-0.47055867314338684
1772567298254177300,5.42317724609375,-0.5294269919395447,0.9135690927505493,-0.1547463983297348
1772567298264206300,5.433206298828125,-0.404114693403244,0.688279390335083,0.17255103588104248
1772567298274235100,5.443235107421875,-0.2950824797153473,0.449100136756897,0.512479841709137
1772567298284264400,5.453264404296875,-0.21969689428806305,0.16450054943561554,0.8187142610549927
1772567298294293500,5.46329345703125,-0.18511520326137543,-0.13068929314613342,1.0543748140335083
1772567298304322300,5.473322265625,-0.15240438282489777,-0.3280138373374939,1.2307049036026
1772567298314351400,5.483351318359375,-0.10022320598363876,-0.3642706274986267,1.3371623754501343
1772567298324380400,5.49338037109375,-0.049514040350914,-0.24390223622322083,1.3485528230667114
1772567298334409200,5.5034091796875,-0.015080698765814304,0.017887573689222336,1.2508220672607422
1772567298344438300,5.513438232421875,-0.017772220075130463,0.37666112184524536,1.063250184059143
1772567298354467300,5.52346728515625,-0.13878892362117767,0.7622405290603638,0.7679141759872437
1772567298364496100,5.53349609375,-0.33906444907188416,1.0694576501846313,0.4381933808326721
1772567298374525200,5.543525146484375,-0.5381706357002258,1.096374750137329,0.12981157004833221
1772567298384554500,5.553554443359375,-0.6747930645942688,0.8110170960426331,-0.09332891553640366
1772567298394583300,5.563583251953125,-0.6509319543838501,0.306720107793808,-0.14494070410728455
1772567298404612400,5.5736123046875,-0.5306480526924133,-0.3145254850387573,-0.01022904273122549
1772567298414641400,5.583641357421875,-0.48402678966522217,-0.8214616775512695,0.3004281520843506
1772567298424670500,5.59367041015625,-0.5616192817687988,-0.882975161075592,0.7008189558982849
1772567298434699300,5.60369921875,-0.6130912899971008,-0.5292501449584961,1.1137263774871826
1772567298444728300,5.613728271484375,-0.5566467642784119,0.10899654030799866,1.505211353302002
1772567298454757400,5.62375732421875,-0.3075375556945801,0.3554478585720062,1.6643242835998535
1772567298464786200,5.6337861328125,0.11260765045881271,0.10016201436519623,1.4313806295394897
1772567298474815500,5.6438154296875,0.44673794507980347,0.0047987401485443115,0.9308847784996033
1772567298484844500,5.653844482421875,0.45109251141548157,0.1616395115852356,0.36198142170906067
1772567298494873300,5.663873291015625,0.18793465197086334,0.18442897498607635,-0.17577417194843292
1772567298504902400,5.67390234375,-0.10962408781051636,0.04861964285373688,-0.5549129843711853
1772567298514931500,5.683931396484375,-0.29980361461639404,-0.04891782999038696,-0.707508385181427
1772567298524960300,5.693960205078125,-0.3941657841205597,-0.08857951313257217,-0.6210703253746033
1772567298534989300,5.7039892578125,-0.4260028004646301,-0.07199548184871674,-0.38159918785095215
1772567298545018400,5.714018310546875,-0.3967934250831604,-0.13970673084259033,-0.12917527556419373
1772567298555047200,5.724047119140625,-0.322213739156723,-0.4160856008529663,0.008279251866042614
1772567298565076200,5.734076171875,-0.26635196805000305,-0.8416430950164795,-0.02326095476746559
1772567298575105500,5.74410546875,-0.2829677164554596,-1.2955697774887085,-0.18260958790779114
1772567298585134300,5.75413427734375,-0.2919149398803711,-1.5941027402877808,-0.37361273169517517
1772567298595163400,5.764163330078125,-0.23450733721256256,-1.7157626152038574,-0.5699265599250793
1772567298605192400,5.7741923828125,-0.14169511198997498,-1.6807446479797363,-0.7562543749809265
1772567298615221200,5.78422119140625,-0.05206561088562012,-1.4986462593078613,-0.9184669852256775
1772567298625250300,5.794250244140625,-0.002939519938081503,-1.2338683605194092,-1.0694438219070435
1772567298635279400,5.804279296875,0.002998530864715576,-0.9852409958839417,-1.2015653848648071
1772567298645308200,5.81430810546875,-0.02415400557219982,-0.755913496017456,-1.3079336881637573
1772567298655337200,5.824337158203125,-0.058733019977808,-0.574421226978302,-1.357473373413086
1772567298665366500,5.834366455078125,-0.09854964911937714,-0.48663604259490967,-1.3257508277893066
1772567298675395300,5.844395263671875,-0.1382129043340683,-0.534652829170227,-1.2261701822280884
1772567298685424400,5.85442431640625,-0.23947401344776154,-0.7094159126281738,-1.086078405380249
1772567298695453400,5.864453369140625,-0.44571158289909363,-0.8821690082550049,-0.9386323690414429
1772567298705482200,5.874482177734375,-0.6885645389556885,-0.9013385772705078,-0.7939475178718567
1772567298715511300,5.88451123046875,-0.8153374195098877,-0.7422199845314026,-0.654444694519043
1772567298725540400,5.894540283203125,-0.7706878185272217,-0.49246111512184143,-0.5269702076911926
1772567298735569200,5.904569091796875,-0.5596908926963806,-0.1555669903755188,-0.40965554118156433
1772567298745598200,5.91459814453125,-0.27989092469215393,0.2197355180978775,-0.30094343423843384
1772567298755627500,5.92462744140625,-0.038150787353515625,0.5945103764533997,-0.16482599079608917
1772567298765656300,5.93465625,0.1388377845287323,0.9385156035423279,-0.008103448897600174
1772567298775685400,5.944685302734375,0.2368660867214203,1.183209776878357,0.13017000257968903
1772567298785714400,5.95471435546875,0.2487080842256546,1.329469084739685,0.20913127064704895
1772567298795743200,5.9647431640625,0.1702686846256256,1.318875789642334,0.23704200983047485
1772567298805772300,5.974772216796875,0.0033865533769130707,1.1706664562225342,0.2279539704322815
1772567298815801300,5.98480126953125,-0.20667266845703125,0.9466186761856079,0.21253159642219543
1772567298825830100,5.994830078125,-0.35516998171806335,0.702276349067688,0.19601993262767792
1772567298835859200,6.004859130859375,-0.4056893289089203,0.4913367033004761,0.20843932032585144
1772567298845888300,6.01488818359375,-0.35964682698249817,0.40293312072753906,0.27559468150138855
1772567298855917600,6.02491748046875,-0.24850217998027802,0.46409422159194946,0.44891905784606934
1772567298865946400,6.0349462890625,-0.13496828079223633,0.650939404964447,0.7033215165138245
1772567298875975400,6.044975341796875,-0.06893494725227356,0.8554802536964417,0.9873992800712585
1772567298886004500,6.05500439453125,-0.07419272512197495,0.9828897714614868,1.2100359201431274
1772567298896033300,6.065033203125,-0.11063408851623535,0.9306987524032593,1.307202935218811
1772567298906062300,6.075062255859375,-0.10410695523023605,0.7340919375419617,1.2308682203292847
1772567298916091400,6.08509130859375,-0.05524194613099098,0.3670383095741272,0.9876339435577393
1772567298926120200,6.0951201171875,-0.009143787436187267,-0.11412806808948517,0.6663676500320435
1772567298936149200,6.105149169921875,-0.03151460736989975,-0.5058990120887756,0.47183650732040405
1772567298946178600,6.115178466796875,-0.11848456412553787,-0.7279918789863586,0.5002586841583252
1772567298956207400,6.125207275390625,-0.20109662413597107,-0.8907978534698486,0.7282609343528748
1772567298966236400,6.135236328125,-0.205032080411911,-0.8856644034385681,1.0573511123657227
1772567298976265500,6.145265380859375,-0.13193683326244354,-0.7293336987495422,1.3007447719573975
1772567298986294300,6.155294189453125,-0.025555262342095375,-0.4930284917354584,1.3097151517868042
1772567298996323300,6.1653232421875,0.06865112483501434,-0.19937662780284882,1.0755226612091064
1772567299006352400,6.175352294921875,0.10338056087493896,0.11362269520759583,0.6548900008201599
1772567299016381200,6.185381103515625,0.07080850005149841,0.40650489926338196,0.1359744369983673
1772567299026410200,6.19541015625,0.006613536737859249,0.5383490920066833,-0.3973136842250824
1772567299036439300,6.205439208984375,-0.07163998484611511,0.4133075773715973,-0.861763060092926
1772567299046468400,6.21546826171875,-0.1531098484992981,0.10280394554138184,-1.1799341440200806
1772567299056497400,6.225497314453125,-0.21670399606227875,-0.3156780004501343,-1.3586905002593994
1772567299066526000,6.23552587890625,-0.26279541850090027,-0.762370228767395,-1.4033440351486206
1772567299076555000,6.245554931640625,-0.3044928014278412,-1.0606855154037476,-1.3289328813552856
1772567299086583800,6.255583740234375,-0.3156149685382843,-1.1397006511688232,-1.121817946434021
1772567299096612900,6.26561279296875,-0.24063020944595337,-1.0548206567764282,-0.8137813210487366
1772567299106642000,6.275641845703125,-0.07967036962509155,-0.9407001733779907,-0.4583560824394226
1772567299116670700,6.285670654296875,0.09297516942024231,-0.893535315990448,-0.12708893418312073
1772567299126700000,6.295699951171875,0.18814028799533844,-0.9587072134017944,0.08913722634315491
1772567299136729000,6.30572900390625,0.2177162915468216,-1.0735448598861694,0.15943002700805664
1772567299146758100,6.315758056640625,0.17424346506595612,-1.1786627769470215,0.09504978358745575
1772567299156787000,6.325786865234375,0.04839950427412987,-1.2348568439483643,-0.06247566267848015
1772567299166816000,6.33581591796875,-0.10756491124629974,-1.183118224143982,-0.28192415833473206
1772567299176845000,6.345844970703125,-0.23199550807476044,-1.0553581714630127,-0.5300964713096619
1772567299186873900,6.355873779296875,-0.2499200999736786,-0.8267318606376648,-0.7350427508354187
1772567299196903000,6.36590283203125,-0.16741056740283966,-0.48392072319984436,-0.817968487739563
1772567299206932000,6.375931884765625,-0.06135816127061844,-0.13464383780956268,-0.7592988014221191
1772567299216961000,6.3859609375,0.02751658484339714,0.14718598127365112,-0.6017104983329773
1772567299226990000,6.395989990234375,0.11306189745664597,0.38883256912231445,-0.39677613973617554
1772567299237019100,6.40601904296875,0.15117360651493073,0.5051583647727966,-0.18068724870681763
1772567299247048000,6.4160478515625,0.09809044003486633,0.45926934480667114,0.023232823237776756
1772567299257077000,6.426076904296875,-0.009252529591321945,0.35092076659202576,0.23195593059062958
1772567299267106000,6.43610595703125,-0.12928035855293274,0.3214889466762543,0.40906766057014465
1772567299277134800,6.446134765625,-0.23960714042186737,0.3437444269657135,0.5229119658470154
1772567299287164000,6.456163818359375,-0.29366445541381836,0.4304906725883484,0.5776733160018921
1772567299297193000,6.46619287109375,-0.30119749903678894,0.5458568930625916,0.573347806930542
1772567299307222000,6.476221923828125,-0.2858259081840515,0.6825315356254578,0.5443693995475769
1772567299317251000,6.4862509765625,-0.23855024576187134,0.850784182548523,0.49501654505729675
1772567299327280000,6.496280029296875,-0.14104178547859192,1.0027292966842651,0.44402191042900085
1772567299337309000,6.506308837890625,-0.016313975676894188,1.1052982807159424,0.42949730157852173
1772567299347338000,6.516337890625,0.08552699536085129,1.0629514455795288,0.4333110451698303
1772567299357367000,6.526366943359375,0.11171066015958786,0.9290122985839844,0.42076408863067627
1772567299367395800,6.536395751953125,0.1063779667019844,0.7396911978721619,0.38928037881851196
1772567299377425000,6.5464248046875,0.10454757511615753,0.5137563347816467,0.3209551274776459
1772567299387454000,6.556453857421875,0.08443600684404373,0.34441569447517395,0.20877723395824432
1772567299397482800,6.566482666015625,0.03032243624329567,0.24737492203712463,0.08139237761497498
1772567299407512000,6.576511962890625,-0.04014996811747551,0.13948304951190948,-0.005531564354896545
1772567299417541000,6.586541015625,-0.11358530819416046,-0.032299891114234924,0.033702123910188675
1772567299427570000,6.59656982421875,-0.16252855956554413,-0.15505029261112213,0.30459657311439514
1772567299437599000,6.606598876953125,-0.11223849654197693,-0.05846995860338211,0.7520025968551636
1772567299447628000,6.6166279296875,0.0667477697134018,0.17142353951931,1.207006573677063
1772567299457656800,6.62665673828125,0.2919664978981018,0.5058950185775757,1.493376612663269
1772567299467686000,6.636685791015625,0.5123052000999451,0.7966014742851257,1.533508539199829
1772567299477715000,6.64671484375,0.6753476858139038,0.8976037502288818,1.3389333486557007
1772567299487743700,6.65674365234375,0.6974132061004639,0.7430164813995361,0.9880228638648987
1772567299497773000,6.66677294921875,0.568961501121521,0.3587835729122162,0.5616102814674377
1772567299507802000,6.676802001953125,0.4052894115447998,-0.230868399143219,0.14417967200279236
1772567299517831000,6.686830810546875,0.3126537501811981,-0.8669260740280151,-0.19565939903259277
1772567299527860000,6.69685986328125,0.2443784773349762,-1.4906851053237915,-0.4347161054611206
1772567299537889000,6.706888916015625,0.14380420744419098,-1.8944441080093384,-0.5675181150436401
1772567299547918000,6.71691796875,0.03945612907409668,-1.9250226020812988,-0.5829209089279175
1772567299557947000,6.72694677734375,-0.05560620501637459,-1.6071460247039795,-0.5246993899345398
1772567299567976000,6.736975830078125,-0.1052422970533371,-1.0721747875213623,-0.45659929513931274
1772567299578005000,6.7470048828125,-0.09641604870557785,-0.4937482476234436,-0.43683597445487976
1772567299588033800,6.75703369140625,-0.08966647833585739,-0.03252151980996132,-0.4800475537776947
1772567299598063000,6.76706298828125,-0.12584233283996582,0.24430716037750244,-0.595729410648346
1772567299608092200,6.777092041015625,-0.18779316544532776,0.32010090351104736,-0.7548627257347107
1772567299618121000,6.787120849609375,-0.28773707151412964,0.1654420793056488,-0.9465282559394836
1772567299628150000,6.79714990234375,-0.4033333361148834,-0.13034963607788086,-1.1363980770111084
1772567299638179000,6.807178955078125,-0.48042890429496765,-0.4085612893104553,-1.2997747659683228
1772567299648208000,6.817207763671875,-0.5120898485183716,-0.5908724069595337,-1.4147835969924927
1772567299658237000,6.82723681640625,-0.5233227610588074,-0.68589186668396,-1.4411314725875854
1772567299668266000,6.837265869140625,-0.5180299282073975,-0.6856304407119751,-1.3592543601989746
1772567299678294800,6.847294677734375,-0.4691483676433563,-0.5495929718017578,-1.146052360534668
1772567299688324000,6.857323974609375,-0.38241568207740784,-0.28317129611968994,-0.8306740522384644
1772567299698353200,6.867353271484375,-0.2720281779766083,0.09683273732662201,-0.5104649066925049
1772567299708382000,6.8773818359375,-0.14897960424423218,0.4665152132511139,-0.27724575996398926
1772567299718411000,6.887410888671875,-0.10921142995357513,0.6067732572555542,-0.1159447729587555
1772567299728440000,6.897440185546875,-0.20901459455490112,0.5173839926719666,0.023853106424212456
1772567299738468900,6.90746875,-0.3807498812675476,0.3111564815044403,0.11964914202690125
1772567299748498000,6.917497802734375,-0.5399130582809448,0.021341556683182716,0.15444229543209076
1772567299758527000,6.92752685546875,-0.598028302192688,-0.2571374773979187,0.1539919525384903
1772567299768555800,6.9375556640625,-0.5100840926170349,-0.3493994176387787,0.17476651072502136
1772567299778584800,6.947584716796875,-0.27424225211143494,-0.1528559923171997,0.24537330865859985
1772567299788614100,6.9576142578125,0.051878008991479874,0.23032839596271515,0.35591864585876465
1772567299798643000,6.967642822265625,0.3629181981086731,0.6621463894844055,0.48360735177993774
1772567299808672000,6.977672119140625,0.5619671940803528,1.0101890563964844,0.595748245716095
1772567299818701000,6.987701171875,0.6648057103157043,1.3189187049865723,0.6837058067321777
1772567299828729900,6.997729736328125,0.632659375667572,1.5201449394226074,0.6961318254470825
1772567299838759000,7.007759033203125,0.44116881489753723,1.4424618482589722,0.61808842420578
1772567299848788000,7.0177880859375,0.14056451618671417,1.0148731470108032,0.4995759427547455
1772567299858816800,7.027816650390625,-0.0994558110833168,0.39035364985466003,0.41195768117904663
1772567299868845800,7.037845703125,-0.23377984762191772,-0.24529962241649628,0.3772704303264618
1772567299878875100,7.047875244140625,-0.18656280636787415,-0.6150270700454712,0.4320319592952728
1772567299888904000,7.057904052734375,0.05513669550418854,-0.6679772138595581,0.569046139717102
1772567299898933000,7.06793310546875,0.4131939113140106,-0.52655428647995,0.7847733497619629
1772567299908962000,7.077962158203125,0.761168897151947,-0.20299647748470306,1.0656336545944214
1772567299918990800,7.087990966796875,0.9964720010757446,0.09814658761024475,1.340471625328064
1772567299929020000,7.09802001953125,1.0414875745773315,0.10551109910011292,1.502453088760376
1772567299939049000,7.108049072265625,0.8335123062133789,-0.2077416181564331,1.4645344018936157
1772567299949078000,7.118078125,0.46989181637763977,-0.6248275637626648,1.2661614418029785
1772567299959106800,7.12810693359375,0.2113524228334427,-0.8927943110466003,0.9377598166465759
1772567299969135900,7.138135986328125,0.1520829200744629,-1.1622731685638428,0.461877703666687
1772567299979165200,7.148165283203125,0.15667900443077087,-1.4341646432876587,-0.040249332785606384
1772567299989194000,7.158194091796875,0.13118264079093933,-1.5957049131393433,-0.42995893955230713
1772567299999223000,7.16822314453125,0.060999028384685516,-1.543267846107483,-0.6366103887557983
1772567300009252000,7.178252197265625,-0.027422957122325897,-1.0811318159103394,-0.6242480874061584
1772567300019281000,7.188281005859375,-0.09381849318742752,-0.21625834703445435,-0.42552727460861206
1772567300029310000,7.19831005859375,-0.1086525022983551,0.6500853896141052,-0.19833868741989136
1772567300039339000,7.208339111328125,-0.07839100807905197,1.227774739265442,-0.08088449388742447
1772567300049367800,7.218367919921875,-0.03331321105360985,1.5206977128982544,-0.13240425288677216
1772567300059396900,7.22839697265625,-0.02682708203792572,1.5330833196640015,-0.3284642994403839
1772567300069426400,7.238426513671875,-0.06962370872497559,1.2882932424545288,-0.573559582233429
1772567300079455500,7.24845556640625,-0.17247818410396576,0.8397207856178284,-0.7767633199691772
1772567300089484500,7.258484619140625,-0.31529346108436584,0.23938608169555664,-0.8812653422355652
1772567300099513600,7.268513671875,-0.418800950050354,-0.41814813017845154,-0.8886865377426147
1772567300109542400,7.27854248046875,-0.42038586735725403,-0.9828832745552063,-0.8511204123497009
1772567300119571500,7.288571533203125,-0.3117035925388336,-1.2790491580963135,-0.7923396825790405
1772567300129600500,7.2986005859375,-0.13526961207389832,-1.2526496648788452,-0.7285295128822327
1772567300139629300,7.30862939453125,0.03933043032884598,-0.885427713394165,-0.6828046441078186
1772567300149658400,7.318658447265625,0.17656418681144714,-0.33893612027168274,-0.6576767563819885
1772567300159687400,7.3286875,0.22630617022514343,0.2176288515329361,-0.6493759155273438
1772567300169716500,7.338716552734375,0.19681228697299957,0.6729138493537903,-0.6782928705215454
1772567300179745500,7.34874560546875,0.1003057211637497,0.9321129322052002,-0.7297754883766174
1772567300189774600,7.358774658203125,-0.037713538855314255,1.0182472467422485,-0.7601858377456665
1772567300199803400,7.368803466796875,-0.17497073113918304,0.928367018699646,-0.7232000827789307
1772567300209832400,7.37883251953125,-0.29391321539878845,0.6480314135551453,-0.6019226908683777
1772567300219861500,7.388861572265625,-0.3337245285511017,0.2960442900657654,-0.4154462516307831
1772567300229890300,7.398890380859375,-0.27461832761764526,-0.001856035552918911,-0.22570489346981049
1772567300239919400,7.40891943359375,-0.1181354969739914,-0.13515017926692963,-0.03528434410691261
1772567300249948400,7.418948486328125,0.12369731813669205,-0.08669237047433853,0.142603799700737
1772567300259977500,7.4289775390625,0.3881758451461792,0.09010051190853119,0.3287723660469055
1772567300270006500,7.439006591796875,0.5655574202537537,0.28714603185653687,0.5360478162765503
1772567300280035600,7.44903564453125,0.6400015354156494,0.48368918895721436,0.763364315032959
1772567300290064600,7.459064697265625,0.61089026927948,0.6054359078407288,0.9704000353813171
1772567300300093400,7.469093505859375,0.47658705711364746,0.572486162185669,1.099323034286499
1772567300310122500,7.47912255859375,0.24796395003795624,0.3466287851333618,1.1138921976089478
1772567300320151600,7.489151611328125,0.022214975208044052,0.014197573997080326,1.0184168815612793
1772567300330180400,7.499180419921875,-0.150131493806839,-0.30741825699806213,0.8452974557876587
1772567300340209400,7.50920947265625,-0.24573205411434174,-0.5489257574081421,0.6152685284614563
1772567300350238500,7.519238525390625,-0.2331092804670334,-0.5518097281455994,0.4034540355205536
1772567300360267500,7.529267578125,-0.09241047501564026,-0.26771435141563416,0.2739429175853729
1772567300370296600,7.539296630859375,0.11592215299606323,0.2695859968662262,0.24203619360923767
1772567300380325600,7.54932568359375,0.3418540954589844,0.8797532320022583,0.2945398688316345
1772567300390354400,7.5593544921875,0.4774423837661743,1.4173426628112793,0.36185798048973083
1772567300400383500,7.569383544921875,0.47311583161354065,1.6235299110412598,0.36266010999679565
1772567300410412500,7.57941259765625,0.38757777214050293,1.2337889671325684,0.2758389711380005
1772567300420441300,7.58944140625,0.2984130084514618,0.2643716633319855,0.17682556807994843
1772567300430470400,7.599470458984375,0.18976068496704102,-0.986377477645874,0.19531968235969543
1772567300440499500,7.60949951171875,0.02386571280658245,-1.942239761352539,0.44126713275909424
1772567300450528300,7.6195283203125,-0.09902378171682358,-2.0583369731903076,0.9636092782020569
1772567300460557600,7.6295576171875,-0.021327387541532516,-1.2888929843902588,1.6672340631484985
1772567300470586600,7.639586669921875,0.2858645021915436,-0.2259708195924759,2.286102771759033
1772567300480615400,7.649615478515625,0.6764282584190369,0.5409737229347229,2.5442495346069336
1772567300490644500,7.65964453125,0.9701527953147888,0.9382878541946411,2.378018856048584
1772567300500673500,7.669673583984375,1.0898019075393677,1.0843409299850464,1.8698071241378784
1772567300510702300,7.679702392578125,0.9773470759391785,0.951924204826355,1.1476833820343018
1772567300520731400,7.6897314453125,0.6506624221801758,0.5887928605079651,0.33772292733192444
1772567300530760400,7.699760498046875,0.2221461981534958,0.024768218398094177,-0.42761582136154175
1772567300540789200,7.709789306640625,-0.1811637133359909,-0.5461083054542542,-1.0140023231506348
1772567300550818600,7.719818603515625,-0.5075973272323608,-1.0830610990524292,-1.368406057357788
1772567300560847600,7.72984765625,-0.7396774291992188,-1.448852300643921,-1.47795569896698
1772567300570876400,7.73987646484375,-0.8339335918426514,-1.6096457242965698,-1.3678478002548218
1772567300580905500,7.749905517578125,-0.8099592924118042,-1.5721116065979004,-1.111168622970581
1772567300590934500,7.7599345703125,-0.7163276076316833,-1.3583025932312012,-0.7912117838859558
1772567300600963300,7.76996337890625,-0.5626752376556396,-1.0331016778945923,-0.4695488512516022
1772567300610992400,7.779992431640625,-0.3740256726741791,-0.7136245369911194,-0.20371834933757782
1772567300621021400,7.790021484375,-0.19587457180023193,-0.5404572486877441,-0.03233727812767029
1772567300631050200,7.80005029296875,-0.07145655155181885,-0.5385538935661316,0.032099589705467224
1772567300641079600,7.81007958984375,-0.01610780507326126,-0.6230757236480713,0.016390137374401093
1772567300651108600,7.820108642578125,-0.05410454049706459,-0.7301926016807556,-0.05426891893148422
1772567300661137700,7.8301376953125,-0.13550378382205963,-0.7459385395050049,-0.12283546477556229
1772567300671166500,7.84016650390625,-0.2104005217552185,-0.6227090358734131,-0.13822714984416962
1772567300681195500,7.850195556640625,-0.2645691931247711,-0.32924890518188477,-0.07033385336399078
1772567300691224600,7.860224609375,-0.2626759707927704,0.13330349326133728,0.0756852850317955
1772567300701252400,7.87025244140625,-0.25692591071128845,0.5635360479354858,0.28228986263275146
1772567300711281700,7.88028173828125,-0.2999885380268097,0.7710406184196472,0.4817032217979431
1772567300721310500,7.890310546875,-0.34606680274009705,0.7750753164291382,0.6173582673072815
1772567300731339500,7.900339599609375,-0.3789278268814087,0.6671134829521179,0.6745764017105103
1772567300741368600,7.91036865234375,-0.38547495007514954,0.5831589698791504,0.6512319445610046
1772567300751397400,7.9203974609375,-0.35681769251823425,0.5730279088020325,0.5664584636688232
1772567300761426400,7.930426513671875,-0.33221808075904846,0.5487273335456848,0.4426342844963074
1772567300771455500,7.94045556640625,-0.3366427421569824,0.48377734422683716,0.3194323182106018
1772567300781484300,7.950484375,-0.2424803078174591,0.6113355755805969,0.265357106924057
1772567300791513300,7.960513427734375,-0.09200596064329147,0.5181179046630859,0.25799131393432617
1772567300801542400,7.97054248046875,-0.06362970918416977,0.2816862165927887,0.30205944180488586
1772567300811571500,7.980571533203125,-0.10644486546516418,0.06982465833425522,0.3867170214653015
1772567300821600500,7.9906005859375,-0.09430137276649475,-0.14271609485149384,0.4675668776035309
1772567300831629600,8.000629638671874,-0.03880072012543678,-0.2494482845067978,0.5232240557670593
1772567300841656300,8.01065625,-0.04926081746816635,0.0034955590963363647,0.5791829228401184
1772567300851685600,8.020685546875,-0.14473886787891388,0.5742389559745789,0.6425672769546509
1772567300861714400,8.03071435546875,-0.3288005590438843,1.1750280857086182,0.6403834819793701
1772567300871743500,8.040743408203125,-0.4866403341293335,1.5705949068069458,0.5260211825370789
1772567300881772500,8.0507724609375,-0.4816224277019501,1.7735440731048584,0.3598391115665436
1772567300891801300,8.06080126953125,-0.3460804224014282,1.654781699180603,0.17989255487918854
1772567300901830400,8.070830322265625,-0.18380975723266602,1.2758042812347412,0.0516967698931694
1772567300911859500,8.080859375,-0.10958906263113022,0.876804769039154,0.020815210416913033
1772567300921888300,8.09088818359375,-0.15948258340358734,0.5245777368545532,0.043814532458782196
1772567300931917300,8.100917236328126,-0.2476876676082611,0.4091293215751648,0.11032956093549728
1772567300941946600,8.110946533203125,-0.23934824764728546,0.5190244317054749,0.17340654134750366
1772567300951975400,8.120975341796875,-0.07792220264673233,0.6729090809822083,0.20349881052970886
1772567300962004500,8.13100439453125,0.1846761256456375,0.7176224589347839,0.1759777069091797
1772567300972033500,8.141033447265626,0.42735978960990906,0.5696476697921753,0.10548616200685501
1772567300982062600,8.1510625,0.604489803314209,0.28906819224357605,0.07433783262968063
1772567300992091400,8.16109130859375,0.7166243195533752,-0.11972624808549881,0.10433079302310944
1772567301002120400,8.171120361328125,0.6673872470855713,-0.7402563691139221,0.14354237914085388
1772567301012149500,8.1811494140625,0.507844090461731,-1.3691275119781494,0.19263425469398499
1772567301022178300,8.19117822265625,0.3498843014240265,-1.8031587600708008,0.21926985681056976
1772567301032207600,8.20120751953125,0.2681232690811157,-2.0963704586029053,0.20017193257808685
1772567301042236700,8.211236572265625,0.06870150566101074,-1.8629169464111328,0.0192564707249403
1772567301052265500,8.221265380859375,-0.021393753588199615,-1.4651494026184082,-0.23856620490550995
1772567301062294500,8.23129443359375,-0.0865786150097847,-1.124687910079956,-0.5134565830230713
1772567301072324000,8.241323974609376,-0.19941595196723938,-0.6911515593528748,-0.7721156477928162
1772567301082353200,8.251353271484374,-0.23728343844413757,-0.2949219048023224,-0.996147096157074
1772567301092382200,8.26138232421875,-0.23300358653068542,-0.06076056510210037,-1.187879204750061
1772567301102411000,8.271410888671875,-0.19242632389068604,-0.000077773816883564,-1.3313682079315186
1772567301112440000,8.281440185546876,-0.124959796667099,-0.14227080345153809,-1.3740547895431519
1772567301122469000,8.29146923828125,-0.11811201274394989,-0.4618309736251831,-1.3396755456924438
1772567301132498000,8.301497802734374,-0.17415523529052734,-0.8324113488197327,-1.221653938293457
1772567301142527000,8.31152685546875,-0.31778591871261597,-1.202470302581787,-1.0828752517700195
1772567301152556300,8.321556396484375,-0.5156754851341248,-1.4322196245193481,-0.9385753273963928
1772567301162585000,8.331585205078126,-0.5707674622535706,-1.2460066080093384,-0.8112567663192749
1772567301172614100,8.3416142578125,-0.4375039041042328,-0.6458027958869934,-0.7364498376846313
1772567301182643200,8.351643310546875,-0.22437803447246552,0.14650091528892517,-0.6758706569671631
1772567301192672000,8.361672119140625,-0.11142537742853165,0.9185180068016052,-0.6254063248634338
1772567301202701000,8.371701171875,-0.11959116160869598,1.4646044969558716,-0.5811429619789124
1772567301212730000,8.381730224609376,-0.19933846592903137,1.7965813875198364,-0.5394858121871948
1772567301222759200,8.39175927734375,-0.3320773243904114,1.9500463008880615,-0.49411675333976746
1772567301232788000,8.4017880859375,-0.4951345920562744,1.8914108276367188,-0.43466171622276306
1772567301242817300,8.4118173828125,-0.6164655089378357,1.6998621225357056,-0.34956973791122437
1772567301252846300,8.421846435546875,-0.5996702313423157,1.331404209136963,-0.21095627546310425
1772567301262875100,8.431875244140626,-0.5281502604484558,0.8086203336715698,-0.037058789283037186
1772567301272904200,8.441904296875,-0.44798579812049866,0.40361252427101135,0.1622561812400818
1772567301282933200,8.451933349609375,-0.3199317157268524,0.11449123919010162,0.3332796096801758
1772567301292962000,8.461962158203125,-0.19297927618026733,0.0723116546869278,0.422199547290802
1772567301302991000,8.4719912109375,-0.11387060582637787,0.291042685508728,0.4131684899330139
1772567301313020200,8.482020263671876,-0.0650605782866478,0.6218069791793823,0.38500455021858215
1772567301323049000,8.492049072265624,-0.03871339187026024,0.8474880456924438,0.37730270624160767
1772567301333078300,8.502078369140625,-0.006048519164323807,0.998740017414093,0.4240551292896271
1772567301343107300,8.512107421875,0.02961413562297821,1.1128654479980469,0.5217699408531189
1772567301353136000,8.52213623046875,0.006791744381189346,1.2006633281707764,0.6547574400901794
1772567301363165200,8.532165283203126,-0.06786757707595825,1.2377322912216187,0.7617579102516174
1772567301373194200,8.5421943359375,-0.10171592235565186,1.251916527748108,0.817043125629425
1772567301383223000,8.55222314453125,-0.03638352081179619,1.218953251838684,0.7924949526786804
1772567301393252000,8.562252197265625,0.17855073511600494,0.8691961169242859,0.7187511324882507
1772567301403281200,8.57228125,0.5229024887084961,0.02945670112967491,0.6591794490814209
1772567301413310000,8.58231005859375,0.9540449976921082,-1.067103385925293,0.7421259880065918
1772567301423339000,8.592339111328124,1.3603845834732056,-2.0425820350646973,1.0043244361877441
1772567301433368300,8.602368408203125,1.6498756408691406,-2.620504856109619,1.3759108781814575
1772567301443397000,8.612397216796875,1.7789249420166016,-2.5694258213043213,1.718618392944336
1772567301453428000,8.622427978515624,1.6816502809524536,-1.9575657844543457,1.842673659324646
1772567301463457000,8.63245703125,1.389988660812378,-1.1100654602050781,1.6138465404510498
1772567301473486000,8.642486083984375,0.9971372485160828,-0.30964916944503784,1.0631784200668335
1772567301483515100,8.65251513671875,0.5837670564651489,0.253803551197052,0.321721613407135
1772567301493544200,8.662544189453126,0.2291579395532608,0.5673343539237976,-0.4331522583961487
1772567301503573200,8.6725732421875,0.0463724210858345,0.6691381931304932,-1.0391409397125244
1772567301513602000,8.68260205078125,0.02011983096599579,0.585953950881958,-1.3559770584106445
1772567301523631000,8.692631103515625,0.13799214363098145,0.44447407126426697,-1.3857488632202148
1772567301533660200,8.70266015625,0.3381190896034241,0.268192857503891,-1.219380259513855
1772567301543688000,8.71268798828125,0.5501250624656677,0.10166165232658386,-0.9664193987846375
1772567301553717200,8.72271728515625,0.6484341621398926,-0.02094629965722561,-0.7408061027526855
1772567301563746300,8.732746337890624,0.5588331818580627,-0.12716728448867798,-0.6100547313690186
1772567301573775000,8.742775146484375,0.3183259069919586,-0.27600064873695374,-0.6231907606124878
1772567301583804200,8.75280419921875,-0.00355117442086339,-0.4706614911556244,-0.8085403442382812
1772567301593833200,8.762833251953126,-0.32414448261260986,-0.6598910689353943,-1.1255855560302734
1772567301603862000,8.772862060546874,-0.5648651719093323,-0.7960630059242249,-1.521844744682312
1772567301613891000,8.78289111328125,-0.6524207592010498,-0.8458109498023987,-1.8707469701766968
1772567301623920000,8.792920166015625,-0.5831071734428406,-0.895249605178833,-2.0609912872314453
1772567301633949000,8.802948974609375,-0.35365957021713257,-0.9477160573005676,-1.9895319938659668
1772567301643978200,8.812978271484376,-0.009804743342101574,-0.9417319297790527,-1.6439708471298218
1772567301654007300,8.82300732421875,0.35937729477882385,-0.8322890996932983,-1.1104278564453125
1772567301664036000,8.8330361328125,0.6060853004455566,-0.6558719873428345,-0.5112014412879944
1772567301674065200,8.843065185546875,0.6067781448364258,-0.4071555435657501,0.02371397614479065
1772567301684094200,8.85309423828125,0.4033733606338501,-0.17176008224487305,0.37192708253860474
1772567301694123000,8.863123046875,0.08633142709732056,0.012158272787928581,0.506141185760498
1772567301704152000,8.873152099609374,-0.22634604573249817,0.17518740892410278,0.43912509083747864
1772567301714181000,8.88318115234375,-0.45734405517578125,0.34778231382369995,0.22689810395240784
1772567301724210000,8.8932099609375,-0.5904941558837891,0.5349306464195251,-0.006079486105591059
1772567301734239000,8.903239013671875,-0.6169564723968506,0.6578320860862732,-0.2088290899991989
1772567301744268300,8.913268310546876,-0.5141086578369141,0.7162573337554932,-0.3178493082523346
1772567301754297000,8.923297119140624,-0.3051983118057251,0.7489380240440369,-0.3234856426715851
1772567301764326100,8.933326171875,-0.0714862123131752,0.7677042484283447,-0.2310449182987213
1772567301774355200,8.943355224609375,0.10428925603628159,0.7994701266288757,-0.06293419003486633
1772567301784384000,8.953384033203125,0.17887668311595917,0.8433542251586914,0.1363895684480667
1772567301794413000,8.9634130859375,0.1775927096605301,0.8874067664146423,0.3117857277393341
1772567301804442000,8.973442138671874,0.095020592212677,0.8984458446502686,0.41257092356681824
1772567301814471200,8.98347119140625,-0.04867352545261383,0.8627490997314453,0.44461727142333984
1772567301824500000,8.9935,-0.18173517286777496,0.8135405778884888,0.43742460012435913
1772567301834529300,9.003529296875,-0.2671860158443451,0.7829452157020569,0.3944064676761627
1772567301844558300,9.013558349609376,-0.25847774744033813,0.7456087470054626,0.345031201839447
1772567301854587100,9.023587158203124,-0.1369910091161728,0.716300368309021,0.31212279200553894
1772567301864616200,9.0336162109375,0.06393358111381531,0.846826434135437,0.34475502371788025
1772567301874645200,9.043645263671875,0.24845679104328156,1.2583426237106323,0.4792349338531494
1772567301884674000,9.053674072265625,0.38035595417022705,1.845178484916687,0.7400907278060913
1772567301894703000,9.063703125,0.4866707921028137,2.304248571395874,1.0722801685333252
1772567301904732200,9.073732177734374,0.5417814254760742,2.2423713207244873,1.3423789739608765
1772567301914761000,9.083760986328125,0.5911169648170471,1.6492927074432373,1.5540074110031128
1772567301924790000,9.0937900390625,0.6744717955589294,0.8507289886474609,1.7545567750930786
1772567301934819300,9.1038193359375,0.750167191028595,-0.010650457814335823,1.8882397413253784
1772567301944848100,9.11384814453125,0.7917974591255188,-0.9209913611412048,1.8826860189437866
1772567301954877200,9.123877197265625,0.8458346128463745,-1.7875497341156006,1.7138878107070923
1772567301964906200,9.13390625,0.867389976978302,-2.455026149749756,1.4130140542984009
1772567301974935000,9.14393505859375,0.8596941828727722,-2.6865434646606445,1.006798267364502
1772567301984964000,9.153964111328126,0.8496004939079285,-2.428217887878418,0.5294764041900635
1772567301994993200,9.1639931640625,0.7407433390617371,-1.909761667251587,-0.00862637534737587
1772567302005022000,9.17402197265625,0.5151262283325195,-1.3568140268325806,-0.5749526619911194
1772567302015051000,9.184051025390625,0.21850016713142395,-0.8243836164474487,-1.0924627780914307
1772567302025080300,9.194080322265625,-0.0800204873085022,-0.3020769953727722,-1.4990044832229614
1772567302035109000,9.204109130859376,-0.3284315764904022,0.20021283626556396,-1.7940529584884644
1772567302045138200,9.21413818359375,-0.5059344172477722,0.6084445714950562,-1.9982500076293945
1772567302055167200,9.224167236328125,-0.6305660605430603,0.7094540596008301,-2.1044085025787354
1772567302065196000,9.234196044921875,-0.6495109796524048,0.54044508934021,-2.057468891143799
1772567302075224000,9.24422412109375,-0.5595158934593201,0.1308712512254715,-1.8277500867843628
1772567302085253000,9.254253173828126,-0.38812607526779175,-0.48455119132995605,-1.474392294883728
1772567302095282200,9.2642822265625,-0.17184913158416748,-1.1097851991653442,-1.0729472637176514
1772567302105311200,9.274311279296874,0.054840996861457825,-1.5889642238616943,-0.6978809833526611
1772567302115340000,9.284340087890625,0.24666795134544373,-1.8120369911193848,-0.42516374588012695
1772567302125369000,9.294369140625,0.3789823055267334,-1.7539705038070679,-0.28859230875968933
1772567302135398100,9.304398193359376,0.4347110986709595,-1.4420864582061768,-0.272793710231781
1772567302145426000,9.314426025390626,0.41723382472991943,-0.9805460572242737,-0.32574692368507385
1772567302155455200,9.324455322265624,0.32729700207710266,-0.515771210193634,-0.39800453186035156
1772567302165484300,9.334484375,0.22078974545001984,-0.1288389414548874,-0.441419392824173
1772567302175513000,9.34451318359375,0.1269005686044693,0.1554812639951706,-0.4472895860671997
1772567302185542100,9.354542236328125,0.06679807603359222,0.3540572226047516,-0.4186355769634247
1772567302195571200,9.3645712890625,0.03821421414613724,0.4459502696990967,-0.3569064140319824
1772567302205600000,9.37460009765625,0.043263569474220276,0.4169875979423523,-0.2284458875656128
1772567302215629000,9.384629150390625,0.033439964056015015,0.2947874665260315,-0.030630096793174744
1772567302225658000,9.394658203125,0.023564964532852173,0.20844992995262146,0.1947670727968216
1772567302235687000,9.40468701171875,0.041541002690792084,0.2563464343547821,0.37547191977500916
1772567302245716000,9.414716064453126,0.09304814040660858,0.42783722281455994,0.4671163558959961
1772567302255745300,9.424745361328124,0.1630195677280426,0.6460188031196594,0.47989046573638916
1772567302265774000,9.434774169921875,0.1937609612941742,0.8523826003074646,0.47577881813049316
1772567302275803100,9.44480322265625,0.17024946212768555,0.9831250309944153,0.5200772285461426
1772567302285832200,9.454832275390626,0.11542989313602448,0.9916495084762573,0.6008375883102417
1772567302295861000,9.464861083984376,0.052458830177783966,0.9160664081573486,0.6942846179008484
1772567302305890000,9.47489013671875,-0.02718273364007473,0.8198091387748718,0.7693825364112854
1772567302315919000,9.484919189453125,-0.11752767860889435,0.7581362724304199,0.7854918837547302
1772567302325948000,9.494947998046875,-0.20417176187038422,0.7672094106674194,0.7215867042541504
1772567302335977000,9.50497705078125,-0.26272085309028625,0.8685207366943359,0.5794594883918762
1772567302346006300,9.51500634765625,-0.29559385776519775,0.9544090032577515,0.4117586612701416
1772567302356035000,9.52503515625,-0.28133922815322876,0.94800865650177,0.27188315987586975
1772567302366064000,9.535064208984375,-0.191886305809021,0.8472322821617126,0.2211640477180481
1772567302376093200,9.54509326171875,-0.03340303525328636,0.6855373978614807,0.280495822429657
1772567302386122000,9.5551220703125,0.1505279242992401,0.6123894453048706,0.4249030649662018
1772567302396151000,9.565151123046874,0.33962371945381165,0.6986805200576782,0.6358329057693481
1772567302406180000,9.57518017578125,0.4731684625148773,0.7544564008712769,0.8805902004241943
1772567302416209000,9.585208984375,0.515612781047821,0.5898847579956055,1.1021640300750732
1772567302426238000,9.595238037109375,0.5105919241905212,0.19852255284786224,1.2682949304580688
1772567302436267300,9.605267333984376,0.514485776424408,-0.26132732629776,1.337785243988037
1772567302446296000,9.615296142578124,0.5299299955368042,-0.7147654294967651,1.2242544889450073
1772567302456325000,9.6253251953125,0.5279244184494019,-1.0159711837768555,0.9284934997558594
1772567302466354200,9.635354248046875,0.45468324422836304,-1.1288665533065796,0.4635941982269287
1772567302476383000,9.645383056640625,0.30330973863601685,-1.0341695547103882,-0.10205929726362228
1772567302486412000,9.655412109375,0.11067371070384979,-0.7505484819412231,-0.6625380516052246
1772567302496441000,9.665441162109374,-0.08716892451047897,-0.43386220932006836,-1.1691486835479736
1772567302506470100,9.67547021484375,-0.2844886779785156,-0.1554979830980301,-1.5511202812194824
1772567302516499000,9.6854990234375,-0.4707619249820709,0.051962047815322876,-1.7400745153427124
1772567302526528000,9.695528076171875,-0.5836791396141052,0.22704944014549255,-1.726768136024475
1772567302536557300,9.705557373046876,-0.5678818225860596,0.3519142270088196,-1.5859757661819458
1772567302546586000,9.715586181640624,-0.4469867944717407,0.42451706528663635,-1.3941277265548706
1772567302556615200,9.725615234375,-0.2693464756011963,0.39698532223701477,-1.2138100862503052
1772567302566644200,9.735644287109375,-0.0873044952750206,0.22781173884868622,-1.055343747138977
1772567302576673000,9.745673095703125,0.06648916751146317,-0.07557941973209381,-0.8743465542793274
1772567302586702000,9.7557021484375,0.16608206927776337,-0.43802765011787415,-0.6899423599243164
1772567302596731100,9.765731201171874,0.19379961490631104,-0.801514744758606,-0.5552440881729126
1772567302606760000,9.775760009765625,0.15218877792358398,-1.075785517692566,-0.5086140036582947
1772567302616789000,9.7857890625,0.07137975096702576,-1.1524356603622437,-0.56549072265625
1772567302626818300,9.795818359375,-0.05601389333605766,-1.0187735557556152,-0.6800961494445801
1772567302636847000,9.80584716796875,-0.08076995611190796,-0.7407824397087097,-0.8104451298713684
1772567302646876200,9.815876220703124,-0.19511544704437256,-0.4030478596687317,-0.8628353476524353
1772567302656904000,9.825904052734375,-0.07889215648174286,-0.15570515394210815,-0.7814763188362122
1772567302666933000,9.83593310546875,-0.026826294139027596,0.0640447810292244,-0.600219190120697
1772567302676962000,9.845962158203125,0.25636669993400574,0.23635651171207428,-0.4010382294654846
1772567302686991000,9.8559912109375,0.36565858125686646,0.3572840094566345,-0.21611444652080536
1772567302697020200,9.866020263671874,0.5819315314292908,0.3782902956008911,-0.05002349987626076
1772567302707049200,9.87604931640625,0.5324870347976685,0.3273927569389343,0.12046167999505997
1772567302717078000,9.886078125,0.5641184449195862,0.2159641981124878,0.3162424564361572
1772567302727107000,9.896107177734375,0.37580257654190063,0.13523633778095245,0.48305192589759827
1772567302737136000,9.90613623046875,0.3670326769351959,0.11125829070806503,0.5699331760406494
1772567302747165200,9.916165283203124,0.22462546825408936,0.26060330867767334,0.6320561766624451
1772567302757194000,9.926194091796875,0.32656338810920715,0.5238476395606995,0.7593065500259399
1772567302767223000,9.93622314453125,0.290633887052536,0.8678926229476929,0.9523364305496216
1772567302777252000,9.946252197265625,0.44056734442710876,1.3035411834716797,1.3045746088027954
1772567302787281200,9.95628125,0.33223262429237366,1.2314355373382568,1.4919391870498657
1772567302797310200,9.966310302734374,0.39227432012557983,0.9581348896026611,1.4260714054107666
1772567302807339300,9.97633935546875,0.27496978640556335,0.8727017641067505,1.245289921760559
1772567302817368000,9.9863681640625,0.32354190945625305,0.7155324816703796,0.980709433555603
1772567302827397000,9.996397216796876,0.18641309440135956,0.5920233726501465,0.7490985989570618
1772567302837426200,10.00642626953125,0.19453196227550507,0.5237114429473877,0.5965085625648499
