time,seconds_elapsed,z,y,x
1772609962283312600,0.076312744140625,0.029283377629518506,0.02771969024306163,-0.009388745855772868
1772609962293310700,0.086310791015625,0.052474283602833745,0.012277699629776179,-0.009399952236376703
1772609962303308500,0.09630859375,0.051129298734664916,0.014802651530131697,-0.008676031009154393
1772609962313306600,0.106306640625,0.0637000264942646,0.026503628984186796,-0.017657547770906237
1772609962323304700,0.1163046875,0.024793664994835853,0.022634002742916343,-0.02159393737176433
1772609962333302500,0.126302490234375,0.068788874065876,0.02195382019272074,-0.014110394949652254
1772609962343300600,0.136300537109375,0.04589373616874218,0.018212423441000283,-0.01642606974719092
1772609962353297700,0.146297607421875,0.03332417745292186,0.008313125114049762,-0.016477224545693024
1772609962363295500,0.15629541015625,0.054873161438107484,0.01887859573215246,-0.006594685557298362
1772609962373293600,0.16629345703125,0.053523500394821164,0.023225301433261483,-0.013144810453662647
1772609962383291600,0.176291748046875,0.06833879221081733,0.02826946961292997,-0.005449132251366973
1772609962393289500,0.18628955078125,0.05442717123627663,0.014338723812811077,-0.012565494462056084
1772609962403287600,0.19628759765625,0.06266074657440185,0.01380083581013605,-0.00332714426186867
1772609962413285400,0.206285400390625,0.0472562566936016,0.016644388672988862,-0.007085912273498252
1772609962423282700,0.21628271484375,0.032148703932762146,0.017625947056245057,-0.005495309480652213
1772609962433280800,0.22628076171875,0.04322656278610229,0.016260777916572988,-0.00732616903646849
1772609962443278600,0.236278564453125,0.046828386670351024,0.019734153115563095,-0.0072600541308522224
1772609962453276700,0.246276611328125,0.04833996027708053,0.010364449886977671,-0.0007066230325493961
1772609962463274800,0.256274658203125,0.04416472041904926,0.00980208503017202,-0.0070015401919838035
1772609962473272600,0.2662724609375,0.058390229648351666,0.013492463980708271,0.0003724500415846705
1772609962483270700,0.276270751953125,0.05180734412670135,0.014163860436249523,0.0034805264589842407
1772609962493268500,0.2862685546875,0.04238602030873299,0.013053762036189437,-0.000006667202804237604
1772609962503265500,0.296265625,0.060197571331262585,0.011046915725804865,-0.007359422852098942
1772609962513263600,0.306263671875,0.06394318760037422,0.012878058409411459,-0.0036019334821030496
1772609962523261400,0.316261474609375,0.042704000216722486,0.012801723503880202,-0.0011093129487708211
1772609962533259500,0.326259521484375,0.024005729487538336,0.0023979097208939493,0.0063350573735777285
1772609962543257600,0.336257568359375,0.052443303942680354,0.004391750419232994,-0.008262938429927452
1772609962553255700,0.346255615234375,0.07085282085835934,0.0010532353799790144,-0.0041375199298374354
1772609962563253800,0.356253662109375,0.05723579891622066,0.014648447349108754,-0.0022410203924402594
1772609962573250600,0.36625048828125,0.041973347854614255,0.01561776730529964,-0.0047063419268932195
1772609962583248100,0.376248046875,0.052746670803427695,0.016574666171334684,0.0028180530954152344
1772609962593246200,0.38624609375,0.06786182234883308,0.009167732649389655,0.0034074794890824704
1772609962603244300,0.396244384765625,0.05304945314228535,0.014258004993107169,0.0014987689240835607
1772609962613242000,0.4062421875,0.04452361685931682,0.005283602958731353,-0.0064602089900523425
1772609962623240200,0.416240234375,0.048565585726499556,0.004922934686485678,-0.008349319805437698
1772609962633238300,0.42623828125,0.038087446331977845,0.009528254791162908,-0.010242714070295915
1772609962643235300,0.4362353515625,0.047963528180122374,0.017438278997037558,-0.002621425411617383
1772609962653233400,0.4462333984375,0.049314942789077755,0.014710059609543531,-0.009357775328774005
1772609962663231200,0.456231201171875,0.044831075373291965,0.016139580956008284,-0.012753865774162113
1772609962673229300,0.466229248046875,0.0547112488746643,0.015294691097084432,-0.015139153475500643
1772609962683227400,0.476227294921875,0.05650982272922992,0.003930854909215123,-0.01262490563225001
1772609962693225200,0.48622509765625,0.03945172042250633,0.018293397989030926,-0.0162939495338127
1772609962703223300,0.496223388671875,0.04948036248385906,0.01465692291650921,-0.008953477977355942
1772609962713221400,0.506221435546875,0.042152796074748033,0.01660191950444132,-0.011087266002502292
1772609962723218200,0.51621826171875,0.04559913713634014,0.00844482520231977,-0.008412091976497322
1772609962733216300,0.52621630859375,0.05802607251107692,0.011945709462743252,-0.00797549065751955
1772609962743214000,0.536214111328125,0.05100070391893387,0.010054013964626938,-0.01003580245450139
1772609962753212200,0.546212158203125,0.06103168406784534,0.011826996720209718,-0.0203618656930048
1772609962763210200,0.556210205078125,0.052802784904837606,0.014779234121926128,-0.0038609314781613644
1772609962773208000,0.5662080078125,0.057145782545208926,0.012424231960996984,-0.014379905206570402
1772609962783206100,0.5762060546875,0.051611529293656346,0.011720778133068233,-0.004063239984074607
1772609962793203200,0.586203125,0.04832300914227962,0.008741269131936132,-0.0137702854082454
1772609962803201300,0.596201171875,0.05356324788331985,0.009708488462585955,-0.007662278256192803
1772609962813199400,0.606199462890625,0.047587680605053896,0.006172459823545068,-0.006532132581947371
1772609962823197200,0.616197265625,0.05178279420733452,-0.0006794336315244435,-0.0073035736121702935
1772609962833195300,0.6261953125,0.05417816491127014,0.009530154487304389,-0.0004810067162849009
1772609962843193300,0.636193359375,0.051938861551880836,0.007830821489822119,-0.009590214111469686
1772609962853191200,0.646191162109375,0.048202597633004184,0.004248780018277466,-0.0076386142528150226
1772609962863188200,0.656188232421875,0.04970364984571934,0.007460453807469457,-0.001659503310592845
1772609962873186000,0.66618603515625,0.06616904695630073,0.008219035356119274,0.0034434823842253532
1772609962883184000,0.67618408203125,0.05060965877473354,0.008123447760846465,-0.003514154733950272
1772609962893182200,0.68618212890625,0.03759294081330299,0.010865586075838655,0.006962998279882594
1772609962903180000,0.696179931640625,0.04417874894440174,0.0038946510846726594,0.010976827897969632
1772609962913178000,0.70617822265625,0.04926642747223377,0.0009951850498095154,0.006552316853450611
1772609962923176200,0.71617626953125,0.054957332590222355,0.014022789731435477,0.007108936956059187
1772609962933173200,0.72617333984375,0.05316168134510517,0.009221910522039979,0.0027894845880568025
1772609962943171300,0.73617138671875,0.05840075104236602,0.010709646595455705,0.00541786033026874
1772609962953169400,0.74616943359375,0.05750701707303524,0.009494462119415402,0.003479604010377079
1772609962963167200,0.756167236328125,0.05122749841213226,0.005894793659634888,-0.002746348699228838
1772609962973165300,0.766165283203125,0.047938978260755535,0.008754567004926501,0.0004624390131328255
1772609962983163100,0.7761630859375,0.0588636923789978,0.005125179260317236,-0.0013111830632667988
1772609962993161200,0.7861611328125,0.05646773715317249,0.008172456268034875,-0.0016898984488565474
1772609963003158300,0.796158203125,0.049289223825931545,0.00812821526750922,-0.011432581441989168
1772609963013156000,0.806156005859375,0.0446510426312685,0.001379617790132761,-0.015613228127500042
1772609963023154200,0.816154296875,0.04091302514672279,0.00031995266936719413,-0.00548637725552544
1772609963033152300,0.82615234375,0.045403322303295135,0.00015889862244948744,-0.003164912038017064
1772609963043150000,0.836150146484375,0.046452539095282554,0.006046550155244767,-0.009063468557316809
1772609963053148200,0.846148193359375,0.047802784660458564,0.007239723728876561,-0.007119851075718179
1772609963063146200,0.856146240234375,0.0545329696983099,0.007227174774557352,-0.004429653010517358
1772609963073143300,0.866143310546875,0.045106969705224036,0.006370850206166506,-0.004130624398170039
1772609963083141400,0.876141357421875,0.05782967315614223,0.0175016813557595,-0.00202182468380779
1772609963093139200,0.88613916015625,0.049450551867485044,0.00888659588675946,-0.009328092576563357
1772609963103137300,0.89613720703125,0.04675824404358864,0.014371383973397314,-0.006760342714097351
1772609963113135400,0.90613525390625,0.05813362453877925,0.008880294010136276,-0.008516429133806376
1772609963123133200,0.91613330078125,0.05289923101663589,0.004877141049690544,-0.006956194079760462
1772609963133131300,0.92613134765625,0.04152852669656276,0.00889017608333379,-0.00311651545218192
1772609963143129000,0.936129150390625,0.047215340161323546,0.003748611943796277,-0.003007748714927584
1772609963153126100,0.946126220703125,0.05769289503395557,0.006479461679793894,0.0010298636375460773
1772609963163124200,0.956124267578125,0.047522214153409,0.008057469852548092,-0.005701490444084629
1772609963173122000,0.9661220703125,0.04453063112199306,0.005166278455685824,0.0010324757197406143
1772609963183120100,0.9761201171875,0.04812485622167587,-0.0019680852025747296,-0.0038132107457611707
1772609963193118200,0.9861181640625,0.05127016851007938,-0.0010109488745220004,-0.00614067644579336
1772609963203116300,0.9961162109375,0.04304243839085102,0.00908635624255985,0.00004582103625871241
1772609963213114400,1.0061142578125,0.05276771359145641,0.00895978898713365,-0.0029848153639119115
1772609963223111200,1.016111083984375,0.05410977585017681,0.004828954526409506,-0.0026806265192572025
1772609963233109200,1.026109130859375,0.06204232241511345,0.0090640896118246,-0.006311703897453844
1772609963243107300,1.036107421875,0.045886721906065936,0.0030581089289858933,0.0033999355034437027
1772609963253105200,1.046105224609375,0.047832010754942894,0.006742368665989488,-0.003616747458744794
1772609963263103200,1.056103271484375,0.04274024057388305,0.004246862055826932,0.0010224109834525734
1772609963273101300,1.066101318359375,0.04962123225927353,0.00586989668039605,-0.0020205277758650482
1772609963283099100,1.07609912109375,0.05650865368545055,0.002742357510700822,0.003429344261018559
1772609963293096200,1.08609619140625,0.05022621241509914,0.0017262027380988,-0.00403976777694188
1772609963303094300,1.09609423828125,0.05740764835178852,-0.0011231040121056138,-0.0016319485833868384
1772609963313092400,1.10609228515625,0.0518704724907875,0.0021583288113586605,0.006949490344338119
1772609963323090400,1.11609033203125,0.055763388276100154,0.0016337204153649507,0.0010444127527065574
1772609963333088300,1.126088134765625,0.05127250659763813,0.002420651275664568,-0.002927239957777783
1772609963343086300,1.13608642578125,0.057707508081197734,0.006336582610383629,-0.0010435542361810803
1772609963353084400,1.14608447265625,0.06444120025038719,0.006865465322695672,-0.0016253544458188116
1772609963363081200,1.156081298828125,0.055312137377262115,0.001193685030285269,-0.003656577145634219
1772609963373079300,1.166079345703125,0.044241292786598205,0.006390705684106796,-0.005299677310697734
1772609963383077000,1.1760771484375,0.04573766882419586,0.0076001362727954975,-0.006360758070414885
1772609963393075200,1.1860751953125,0.05591302587985992,0.009986045028641819,-0.0005595518452115357
1772609963403073300,1.1960732421875,0.053370940181612966,0.005550765994936227,-0.006089092389028519
1772609963413071000,1.206071044921875,0.054715925049781795,0.014425214786175637,-0.010345379860326647
1772609963423069200,1.216069091796875,0.04768295767307281,0.010537230904307216,-0.011096198227629065
1772609963433067300,1.2260673828125,0.05696107362806797,0.006497600124683231,-0.004470094618760049
1772609963443064300,1.236064208984375,0.04858019877374172,0.011589717365615069,-0.0015922467606607823
1772609963453062400,1.2460625,0.05067804783582687,0.011952358399238437,0.0007685092876199632
1772609963463060200,1.256060302734375,0.053670799911022186,0.012856650295201688,-0.010867202644189819
1772609963473058300,1.266058349609375,0.05262275216281414,0.010199121523741632,-0.004441197317838669
1772609963483056400,1.276056396484375,0.04753799624443054,0.00564246286638081,-0.001586310210218653
1772609963493054200,1.28605419921875,0.0429039067029953,0.0019357721018604932,-0.004654118549311533
1772609963503052300,1.29605224609375,0.05233107573986053,0.012445293015334754,-0.009995443044649437
1772609963513049000,1.306049072265625,0.04874035777151584,0.005848141506314277,-0.007101219440484419
1772609963523047200,1.316047119140625,0.05008943429291248,0.0007924472856335341,-0.0002816664855927229
1772609963533045200,1.326045166015625,0.04290098409354687,-0.005287420617323369,-0.007093593256454914
1772609963543043000,1.33604296875,0.048883565634489055,0.006639182286150753,-0.0001302570498548448
1772609963553041200,1.346041259765625,0.055766310885548585,0.004406454798020422,-0.00885196296479553
1772609963563039200,1.356039306640625,0.05756371569633484,0.0028047734887339175,-0.009696469231229275
1772609963573037000,1.366037109375,0.04648702588677406,0.0012873181304894387,0.004939237367315217
1772609963583034000,1.3760341796875,0.04873334350883961,0.0011907441545277832,-0.000190928595373407
1772609963593032200,1.3860322265625,0.05980886427462101,0.005422554771695285,0.006240136498585343
1772609963603030300,1.3960302734375,0.050230304068326945,-0.002748111398052424,0.0006373389223124831
1772609963613028000,1.406028076171875,0.04873451255261898,0.002442534313909709,0.00138119782586582
1772609963623026200,1.416026123046875,0.04978606743216514,0.008699347952660173,-0.0055081232964526855
1772609963633024300,1.426024169921875,0.051285366079211234,-0.0005160414970479905,-0.000337470059748739
1772609963643022000,1.43602197265625,0.05397708938121795,-0.0005657623902894556,0.004679380854731426
1772609963653019100,1.44601904296875,0.04754617955088615,0.007948511319048703,-0.004200995353795587
1772609963663017000,1.456016845703125,0.04785013093352317,0.0037583296202123163,-0.010766491349227726
1772609963673015000,1.46601513671875,0.04755202476978302,0.005762636913638561,0.0028992742386180904
1772609963683013000,1.47601318359375,0.05173837054371833,0.00725119497096166,-0.004893489396292716
1772609963693011000,1.486010986328125,0.06385726288259029,-0.0023696152081713077,-0.0008146225848235189
1772609963703009000,1.496009033203125,0.05233458287119865,0.0006024411388672888,0.00657360623665154
1772609963713007000,1.506007080078125,0.04560264426767826,-0.0005521722563542425,-0.004279832743667066
1772609963723004200,1.516004150390625,0.04305938952565193,0.00966645768545568,-0.003110798097448423
1772609963733002200,1.526002197265625,0.04919453127980232,0.006487444056849926,0.002351449363818392
1772609963743000000,1.536,0.05338438418507575,0.0011531886231154202,0.0041139837906230235
1772609963752998100,1.545998046875,0.054880760222673415,0.0029538813695311546,-0.0006759265001863241
1772609963762996200,1.555996337890625,0.05518412708342075,-0.0064554780160076914,-0.005070078939059749
1772609963772994000,1.565994140625,0.05712707784473896,0.000505830630287528,-0.0010635923772118986
1772609963782992100,1.5759921875,0.05159107102751732,0.006250931887235492,-0.004175376855349168
1772609963792989200,1.5859892578125,0.0496527964413166,0.003179378954786807,-0.0025192619450855997
1772609963802987000,1.595987060546875,0.04801204349696636,0.00668749667359516,-0.0008553929866291582
1772609963812985000,1.605985107421875,0.05534896225631237,0.006965729093085974,-0.00017793211648240684
1772609963822983000,1.61598291015625,0.055496846294403074,-0.0019804514938034116,0.0013995006675366311
1772609963832981000,1.62598095703125,0.05504617991745472,-0.0008903181695379316,0.007268356168316677
1772609963842979000,1.63597900390625,0.05235211852788925,0.011109678763709961,-0.015734050628729165
1772609963852977200,1.64597705078125,0.0490647674202919,0.001479625832196325,-0.006923588718101382
1772609963862975200,1.655975341796875,0.051312838608026504,0.0062487216638401144,-0.009633633128087966
1772609963872972300,1.66597216796875,0.05176350498497486,-0.0012789521609432994,-0.0035550347336102276
1772609963882970000,1.67597021484375,0.044434769532084466,-0.0006915259281173348,-0.0038469120859634127
1772609963892968200,1.68596826171875,0.04862696052491665,0.0026804164567030965,-0.007346773433079943
1772609963902966300,1.69596630859375,0.05416296734213829,0.009327087929565459,0.002585258119693026
1772609963912964000,1.705964111328125,0.05431786564290523,0.01223199732452631,-0.004594899175362661
1772609963922962200,1.715962158203125,0.04115267912149429,0.0054089098388329145,-0.009716342975478619
1772609963932960000,1.7259599609375,0.05237374583780765,0.0024686368695460256,-0.004418921553948894
1772609963942957000,1.73595703125,0.056114101409912104,0.001922017571143806,-0.00466061222217977
1772609963952955100,1.745955078125,0.048483168140053746,0.009361245927494018,-0.004966262371558696
1772609963962953200,1.755953125,0.04563946914672851,0.006649429685529321,0.0053991008308716115
1772609963972951300,1.765951416015625,0.043696518385410305,0.002141688203811645,-0.0042928931546397505
1772609963982949400,1.775949462890625,0.05327274050414562,0.00719307157555595,-0.000231899926578626
1772609963992947200,1.785947265625,0.05162848042845726,0.004716324464790523,-0.007281005587335676
1772609964002945300,1.7959453125,0.05896656823158264,0.0034801154670305546,-0.01997508573196828
1772609964012942000,1.805942138671875,0.06225859551429748,-0.002101429258659482,-0.00514212126196362
1772609964022940200,1.815940185546875,0.06360358038246632,0.004649323643185198,0.0037489681368228045
1772609964032938200,1.825938232421875,0.052232291540503496,0.0032425986504182216,-0.006487398391077295
1772609964042936000,1.83593603515625,0.04175882832109928,-0.006891622677259146,0.00266761177405715
1772609964052934100,1.84593408203125,0.05462707772254943,0.005203103334736079,0.0004495429989416152
1772609964062932200,1.85593212890625,0.06614975773394108,0.00003965615695342421,-0.009094777011033147
1772609964072930000,1.865929931640625,0.05986380933225154,0.005735748906712979,-0.003206093431776389
1772609964082927000,1.875927001953125,0.05597147806882858,-0.00004351034816354513,-0.0018647618254180997
1772609964092925200,1.88592529296875,0.045643560799956316,-0.0011306845303624869,-0.000117580231372267
1772609964102923300,1.89592333984375,0.05073182384967804,0.009789243814907967,0.0006525182251352817
1772609964112921300,1.90592138671875,0.061356678238511084,0.008611413940880447,0.008380436462908984
1772609964122919200,1.915919189453125,0.05896306110024452,-0.0031281602242030204,0.00877821274199523
1772609964132917200,1.925917236328125,0.049687867754697794,-0.003504866315796971,-0.002721186858508736
1772609964142915300,1.935915283203125,0.052532735791802405,0.006451514226943254,-0.0034242844934109598
1772609964152913200,1.9459130859375,0.046695115679502484,0.009350742799788713,-0.0007895246761851012
1772609964162910200,1.95591015625,0.05207739323973656,0.004015738447383046,-0.0032332645664922893
1772609964172908000,1.965907958984375,0.06434709222614765,0.008011895411461592,-0.0029117227282375096
1772609964182906000,1.975906005859375,0.05656710587441921,0.0006522716299630702,-0.006282304273033514
1772609964192904200,1.985904296875,0.043402503874897955,-0.001840257571823895,-0.005996683131530881
1772609964202902000,1.995902099609375,0.05717091698646545,0.004237473172973841,0.0017895411647390572
1772609964212900000,2.005900146484375,0.06345452730059624,-0.0016678418806754052,-0.00215572586231865
1772609964222898200,2.015898193359375,0.05776654479205608,0.004230422377679496,-0.008655527077242731
1772609964232895200,2.025895263671875,0.05522212100625038,0.0006454034977592528,-0.008834701302740722
1772609964242893300,2.035893310546875,0.03591887012124061,-0.001317914198152721,-0.014831384434271603
1772609964252891100,2.04589111328125,0.050881461453437804,0.006473945254459977,-0.012539684167364612
1772609964262889200,2.05588916015625,0.05596855545938015,0.006648297174368053,-0.009146498065115883
1772609964272887300,2.06588720703125,0.05536883600056171,0.006267115837056189,-0.011497015847172587
1772609964282885000,2.075885009765625,0.05761106196939945,0.009164791773632169,-0.002446817763382569
1772609964292883200,2.08588330078125,0.04249649494588375,0.0008335282146930694,0.0015488003445789217
1772609964302880000,2.0958798828125,0.047885202246904374,-0.0011646963978186248,-0.006188077517785132
1772609964312878000,2.105878173828125,0.05267769722044468,-0.00030736718242987986,-0.015319633742095901
1772609964322876200,2.115876220703125,0.05327975476682186,0.004052910386305302,-0.0077507785235531625
1772609964332874000,2.1258740234375,0.04939093063473701,0.004306172761321067,-0.005415229981765151
1772609964342872000,2.1358720703125,0.05313245525062084,-0.005157528893649578,-0.010251646295422688
1772609964352870100,2.1458701171875,0.05223404510617256,0.0005505648211576044,-0.0035431524995714423
1772609964362868000,2.155867919921875,0.05013853413164615,0.008819978657644242,-0.009176847537606954
1772609964372865300,2.165865234375,0.05148468804359436,0.007960603615641593,0.006413849097676574
1772609964382863000,2.175863037109375,0.05327858572304248,0.0010747165594249962,-0.00032694866573438047
1772609964392861200,2.185861083984375,0.04938917706906795,0.003741908208373934,0.0059851205579005175
1772609964402859300,2.195859375,0.04100830221474171,-1.8266309052705764e-8,0.0010629530563950537
1772609964412857000,2.205857177734375,0.04265723846554756,-0.005993687456846237,-0.007666004583239555
1772609964422855200,2.215855224609375,0.04220832565426826,0.002429346038773656,-0.00724440903714858
1772609964432853200,2.225853271484375,0.0511865818798542,0.00902006780700758,-0.005887788530113175
1772609964442850000,2.23585009765625,0.04879705639481544,0.00292218932332471,0.00477473098798655
1772609964452848000,2.24584814453125,0.04655015425086021,0.0025229608726687726,0.002416358693037182
1772609964462846000,2.255845947265625,0.05044365455806255,-0.004897416652739048,-0.0007671667139045894
1772609964472844000,2.265843994140625,0.05179390012323856,0.00560978443948552,0.005305138937104493
1772609964482842000,2.275842041015625,0.04895253921747207,0.004181212941091508,0.006506778944982215
1772609964492840000,2.28583984375,0.05658288796544075,0.00557535244692117,-0.00021877558352425693
1772609964502838000,2.295838134765625,0.05583762255609035,0.00024286884516477584,0.004184902735520154
1772609964512836000,2.305836181640625,0.050451837864518165,-0.002353522589895874,-0.002105128186242655
1772609964522833200,2.315833251953125,0.05748597428500652,0.0009039265697821974,-0.002946574845910072
1772609964532831200,2.325831298828125,0.06287234349846839,-0.0029764037285931405,-0.0025458850905299185
1772609964542829000,2.3358291015625,0.05808394017815589,0.0028165004591457544,-0.0060840508877299726
1772609964552827100,2.3458271484375,0.05060147546827793,-0.000920220117457211,-0.0008611651402898132
1772609964562825200,2.3558251953125,0.05867839893996715,0.0004151018732227385,0.004479045110195875
1772609964572823000,2.365822998046875,0.043266894796490665,-0.004285513565782458,-0.0017103293155319988
1772609964582820900,2.37582080078125,0.050746436896920204,-0.002818454954214394,0.0010331881057936698
1772609964592817700,2.385817626953125,0.0603232435375452,-0.002994030716829002,0.0027696017106529323
1772609964602815700,2.395815673828125,0.0652642070710659,0.004838270344026387,0.0011836476934608071
1772609964612813800,2.405813720703125,0.05553367117345333,-0.001588894892949611,0.0020326931376941503
1772609964622812000,2.41581201171875,0.04790156885981559,-0.0014013546979054809,0.002478244948107749
1772609964632810000,2.42581005859375,0.050744098809361454,-0.0013910524995997546,-0.004565316887851804
1772609964642808000,2.43580810546875,0.0492477227717638,-0.00229475987367332,-0.003415397934056818
1772609964652806000,2.445805908203125,0.06046878948807716,0.005608067406434565,-0.007662077326793223
1772609964662803000,2.455802978515625,0.06510989329218864,0.007526504781004041,-0.003577904152544215
1772609964672800800,2.46580078125,0.05822188734412193,0.010395667009148747,-0.009759752858942374
1772609964682798800,2.475798828125,0.05837386303544044,0.0035524683171883225,-0.007239979457203298
1772609964692797000,2.485796875,0.05089373641312122,-0.0031289639418013394,-0.0035674375574570147
1772609964702794800,2.495794677734375,0.04460954157710075,-0.00015234101749956607,-0.0033423052983824163
1772609964712792800,2.505792724609375,0.061520344367623325,0.0017396467415615915,-0.006575770794274285
1772609964722791000,2.515791015625,0.04805179098546505,-0.0012946611867286264,-0.002614767341967672
1772609964732788000,2.5257880859375,0.05209317533075809,0.0008413644612766802,-0.00028647052487358447
1772609964742786000,2.5357861328125,0.047751346734166145,0.0006315028365701437,-0.0031942020645830778
1772609964752784000,2.545783935546875,0.047157472494244575,0.00225925016887486,-0.007245258420519531
1772609964762782000,2.555781982421875,0.057632104757428165,0.002258866576384753,-0.005171694416319951
1772609964772780000,2.565780029296875,0.0621229864358902,0.001724905830156058,0.0024503888268023726
1772609964782777900,2.57577783203125,0.05853168394565582,0.0018284758024848997,-0.004056225721398368
1772609964792776000,2.58577587890625,0.05135083253085613,0.008488171153701842,-0.010621109795477241
1772609964802772700,2.595772705078125,0.05015606978833675,0.003040134880878031,0.0027790453924331814
1772609964812770800,2.605770751953125,0.04836392567455768,0.00220888995481655,-0.0051441305559594185
1772609964822769000,2.615768798828125,0.048365094718337054,-0.003404218952916562,0.0003308393895626068
1772609964832766700,2.6257666015625,0.046419221347570414,-0.00023819267004728315,0.0024215189253445715
1772609964842764800,2.635764892578125,0.04971241767406463,-0.0020533340669237074,-0.007674617147957905
1772609964852763000,2.645762939453125,0.03968903630971908,0.003066091306041926,-0.004230276247207075
1772609964862760700,2.6557607421875,0.061686348584294316,0.00046829336518421766,-0.007136235954938456
1772609964872758800,2.6657587890625,0.06497954491078853,0.006784655171446502,-0.0038412677964661268
1772609964882755800,2.675755859375,0.05405599983632564,0.0010779131635092198,0.01615434013372287
1772609964892754000,2.68575390625,0.05630114841461181,-0.0022035927251912654,0.012642596552567555
1772609964902752000,2.695751953125,0.0533083963394165,-0.0123645924619399,0.005217634183587506
1772609964912749800,2.705749755859375,0.04073883762359619,0.005327259437367319,-0.004891434436524286
1772609964922748000,2.715747802734375,0.05285889900624752,0.005589472303818911,-0.007220580636989325
1772609964932746000,2.72574609375,0.05286123709380627,0.0008852218693122268,0.004509778175177052
1772609964942743800,2.735743896484375,0.04358487470448017,-0.0028962876970879733,0.0013867051180452108
1772609964952740900,2.745740966796875,0.05376081628203392,-0.001855765668209642,0.0009726626907475292
1772609964962738700,2.75573876953125,0.0658826312303543,0.003013137276098132,0.010544802289409563
1772609964972736800,2.76573681640625,0.053012628263235086,0.001398925278801471,0.002991920958133414
1772609964982734800,2.77573486328125,0.061841831406950945,-0.004914586983248591,-0.0013561912487726657
1772609964992732700,2.785732666015625,0.05510755471587181,-0.0010097067655064165,-0.0025337745276279747
1772609965002730800,2.795730712890625,0.042537996000051495,0.004653999818302691,-0.007225302477879449
1772609965012728800,2.805728759765625,0.047180853369832035,0.0004640921141020953,-0.007172814238816499
1772609965022726000,2.815725830078125,0.051072600111365316,-0.003444404832832515,-0.00005511858756653964
1772609965032724000,2.825723876953125,0.056306993633508676,-0.0006426818177103996,-0.002814244569977745
1772609965042721800,2.8357216796875,0.04553367068469524,0.001798592120874673,-0.000255244269547984
1772609965052719900,2.845719970703125,0.05421148265898228,0.007338087803125381,-0.0018764339969027787
1772609965062718000,2.855718017578125,0.04732815288603306,0.001696282523870468,-0.000277218639338389
1772609965072715800,2.8657158203125,0.050771571338176724,0.005068097044527531,0.004678750667069107
1772609965082713900,2.8757138671875,0.05017185187935829,0.0011662307677790522,-0.0037197968412656336
1772609965092711000,2.8857109375,0.056903205960988995,0.0027963709865696726,-0.0063279883119743315
1772609965102708700,2.895708740234375,0.05271218401193618,0.005801434554066509,-0.01285081420945935
1772609965112706800,2.905706787109375,0.04747077622711658,0.003870539556723088,-0.006770708844484761
1772609965122704600,2.91570458984375,0.04013970268666744,-0.006027333998121321,-0.0067336739028804
1772609965132702700,2.92570263671875,0.05016425309479236,0.00042580593032762404,-0.0012735362003091723
1772609965142700800,2.93570068359375,0.05300678304433822,-0.0032788755401968956,-0.006042924292897805
1772609965152699000,2.945698974609375,0.062134676873683924,0.0036284378965385257,-0.0068716850009281185
1772609965162696000,2.955696044921875,0.05120879371166229,0.003981690047308802,-0.0023289726705290376
1772609965172694000,2.965694091796875,0.05195639720857143,0.0007360774558968842,0.0024691391930449754
1772609965182691800,2.97569189453125,0.056149172723293304,0.003892185132950544,-0.005736260363366454
1772609965192690000,2.98568994140625,0.048072249251604075,0.004049878179002553,-0.0039014918174128978
1772609965202687700,2.995687744140625,0.0396925434410572,-0.006266220787912607,0.009450312450435013
1772609965212685800,3.005685791015625,0.044326632982492446,0.0016500687619671224,0.002681777296727523
1772609965222684000,3.015683837890625,0.0546504585981369,0.002460417030472308,-0.003472671946091577
1772609965232680700,3.0256806640625,0.05719312881827354,0.004624755457509309,-0.0014520254392176865
1772609965242678800,3.0356787109375,0.05599778155386448,-0.003119538526330143,0.0017262484038714318
1772609965252676900,3.0456767578125,0.045075990045070645,-0.004856061729043722,0.0066685088453348725
1772609965262674700,3.0556748046875,0.05151216057240963,0.0025634755461476743,0.00535102390544489
1772609965272672800,3.0656728515625,0.05061316590607166,0.0027721133281476793,0.004196118249278515
1772609965282670800,3.0756708984375,0.05315758969187736,-0.0023112726170569655,0.005710623598610982
1772609965292669000,3.0856689453125,0.05270633879303932,-0.0012276786314323544,0.009487347392039373
1772609965302667000,3.0956669921875,0.046422728478908534,0.003265869928151369,0.008561830044956878
1772609965312663800,3.105663818359375,0.04657470417022705,0.004089388205483556,0.0032110892673023043
1772609965322662000,3.115661865234375,0.05315817421376705,-0.000670099547598511,0.009065149057749659
1772609965332660000,3.125659912109375,0.055251347100734705,0.0029854090189561245,-0.000681022800412029
1772609965342657800,3.13565771484375,0.05360591798126697,0.009227883605100214,0.0007793503420427441
1772609965352656000,3.14565576171875,0.056147419157624244,-0.0007435118436813354,-0.0015785744283348321
1772609965362654000,3.155654052734375,0.03893851020336151,-0.0005784940076991916,-0.00775937282196246
1772609965372651800,3.16565185546875,0.044027357774972915,0.0018771007171832024,-0.00543534118803218
1772609965382648800,3.17564892578125,0.0483674328058958,0.00027490795124322174,0.00489280440970324
1772609965392647000,3.18564697265625,0.05958733047842979,-0.0020303002512082457,-0.004008130529662594
1772609965402645000,3.19564501953125,0.052855391874909396,-0.006428297748137265,-0.009974665118101984
1772609965412643000,3.20564306640625,0.05075812733471393,0.0017891849717125295,-0.0049762357763014735
1772609965422641000,3.215640869140625,0.058987611019611356,0.0068920793349854645,-0.011704164924984797
1772609965432639000,3.225638916015625,0.047613399568200106,0.002011723414901644,-0.006666271222475916
1772609965442637000,3.235636962890625,0.04312777858674526,-0.0006946494669653474,-0.0074342051213607185
1772609965452633900,3.2456337890625,0.04432721750438213,0.010320263685379177,-0.010326821290329097
1772609965462632000,3.2556318359375,0.05510287854075432,0.004731120175123215,-0.006651283715898171
1772609965472629800,3.265629638671875,0.05016366857290268,-0.002685896349418908,-0.005267245478974655
1772609965482627800,3.2756279296875,0.04732406123280525,0.0006134557232260703,-0.010655998445767909
1772609965492626000,3.2856259765625,0.04837327802479267,0.0029473054982721804,-0.009540383620373905
1772609965502623700,3.295623779296875,0.05735270329415798,-0.0016996617910452186,0.0037339075650088486
1772609965512621800,3.305621826171875,0.053312487992644306,-0.0018160912449471651,-0.008772723716124892
1772609965522619000,3.315618896484375,0.04179506867825985,-0.002559877083264291,-0.005498524351045489
1772609965532617000,3.325616943359375,0.05092705416083335,0.0001562134750187397,-0.004762748289247974
1772609965542615000,3.335614990234375,0.058708794078230854,0.003269651054125279,0.002455183732928708
1772609965552612900,3.34561279296875,0.05676116714179515,0.0014357136252336202,-0.001112390821846202
1772609965562611000,3.35561083984375,0.05137362888455391,-0.0026438473059795797,-0.0012428031353279947
1772609965572609000,3.365609130859375,0.04883154318630695,0.010011088138353079,0.007188486731983721
1772609965582607400,3.375607421875,0.05646130741238594,0.004392955995630473,0.0020316428249236196
1772609965592605200,3.385605224609375,0.05361819294095039,-0.006099650315660983,-0.0015925390216056257
1772609965602602200,3.395602294921875,0.05121989962756633,-0.004481383197754621,-0.006988635044638067
1772609965612600300,3.405600341796875,0.043588966357707974,-0.0009092237994074821,0.00593858713558875
1772609965622598100,3.41559814453125,0.05720832638740539,0.0014319324992597103,0.011142274992214514
1772609965632596200,3.42559619140625,0.05795826797187328,-0.0012852723038755357,-0.003432778327120468
1772609965642594300,3.43559423828125,0.0588549245506525,-0.00027627792442217467,0.0004588314170949161
1772609965652592000,3.445592041015625,0.05511398445665836,0.005699271087534726,0.002668525089509785
1772609965662590200,3.455590087890625,0.04793137947618961,0.0049554121839813885,0.003568688799627125
1772609965672587300,3.465587158203125,0.05496726946234703,0.005282415648642927,0.0021113843970932064
1772609965682585300,3.47558544921875,0.042249242186546326,0.009150653650425373,0.000984691055258736
1772609965692583400,3.48558349609375,0.0561667083799839,0.0033640696056187152,-0.00029230661061592397
1772609965702581200,3.495581298828125,0.04898410339951515,-0.0023926855565048755,0.004798285393510014
1772609965712579300,3.505579345703125,0.05317278726100921,0.007971453803218901,-0.006759338067099452
1772609965722577400,3.515577392578125,0.05527180536687374,0.0037706045798957346,0.0016758973229676485
1772609965732575200,3.5255751953125,0.05108370602726936,0.002920033898856491,-0.014129163582203908
1772609965742572300,3.535572265625,0.05078326177597046,0.002377853313554078,-0.001368438808992505
1772609965752570000,3.545570068359375,0.04838789107203483,0.0018030125676654278,-0.007435520295612514
1772609965762568200,3.555568115234375,0.0516787493109703,0.003742839790135622,-0.009929483402660116
1772609965772566300,3.565566162109375,0.04704349072575569,-0.003848601719550788,-0.006681779318861663
1772609965782564000,3.575564208984375,0.05931202066838741,0.00473027992490679,-0.009736344583891332
1772609965792562200,3.585562255859375,0.05856441717147827,0.00394548622276634,-0.004698003356810659
1772609965802560300,3.595560302734375,0.04913549456894398,0.0036560200232081115,0.0001096709195524454
1772609965812557300,3.605557373046875,0.04673953934311866,-0.0037699287264607844,-0.0048899000665638594
1772609965822555400,3.615555419921875,0.0602057546377182,-0.0001416186940856278,-0.008844939568964764
1772609965832553200,3.62555322265625,0.05391805267035961,0.004934844319988042,0.007939487762376666
1772609965842551300,3.63555126953125,0.040000586476922034,0.005786346582788974,0.0016049418454524129
1772609965852549400,3.64554931640625,0.037759529551863666,0.006478091706614941,0.008702115298481658
1772609965862547200,3.655547119140625,0.05302314965724945,0.006740432437229901,0.008565099714277312
1772609965872545300,3.665545166015625,0.05886252333521843,0.0031490568817593156,0.0016857337303925306
1772609965882542000,3.6755419921875,0.055123336806893346,-0.004383238319214433,0.0014512125884648412
1772609965892540200,3.6855400390625,0.04330255063176155,-0.0031543723776936527,0.0024771398364100603
1772609965902538200,3.695538330078125,0.05108662863671779,0.005397365531511604,-0.004100028330506757
1772609965912536000,3.7055361328125,0.05662321997582912,-0.003615870675910264,0.0022532679526600986
1772609965922534100,3.7155341796875,0.060064300340414045,0.001864277768228203,-0.0013662103192880748
1772609965932532200,3.7255322265625,0.060061962252855296,0.0035707894251681862,0.006017661987477913
1772609965942530000,3.735530029296875,0.05003507375717163,-0.00045627413382753727,0.0006854980461299419
1772609965952527400,3.74552734375,0.049883682587742804,-0.0011179346466436981,0.0027472072157543152
1772609965962525200,3.755525146484375,0.04988075997829437,0.004103909921180457,0.008929622177733108
1772609965972523300,3.765523193359375,0.0435965651422739,0.0016995887258090079,-0.00005281703262589871
1772609965982521300,3.775521240234375,0.047935471129417415,-0.0019108020573854446,0.007958009799756109
1772609965992519200,3.785519287109375,0.05586451056301593,-0.000036587417032569645,0.000798758295411244
1772609966002517200,3.795517333984375,0.05332184034287929,-0.0005256130429916084,0.0006563724163454026
1772609966012515300,3.805515380859375,0.05945873566269874,0.0043328963714651765,0.005149299921421334
1772609966022513200,3.81551318359375,0.04943243168890476,-0.0034763891399838026,-0.0004855184946209192
1772609966032510200,3.82551025390625,0.05557108057439327,-0.0005997742577455937,-0.0029443280898965893
1772609966042508000,3.835508056640625,0.05347615412175655,-0.001678418073616922,0.0074820993836969135
1772609966052506000,3.845506103515625,0.053477323165535925,0.0045368762446567415,-0.0017030501913744955
1772609966062504200,3.855504150390625,0.054824646121263504,-0.006591543752141296,-0.008050693051889539
1772609966072502000,3.865501953125,0.05153378788232803,-0.004323708418011665,-0.006556006647879258
1772609966082500000,3.8755,0.053475569599866865,0.0103184005218558,0.0026450620155315844
1772609966092498200,3.885498291015625,0.04973755211532116,-0.002237129668612033,0.005179347999813035
1772609966102495200,3.8954951171875,0.048240591555833816,0.00121839934643358,-0.004562028952222318
1772609966112493300,3.905493408203125,0.04943710786402225,-0.0006748670542612671,-0.009623504459718242
1772609966122491100,3.9154912109375,0.05677051949203014,0.0010137984187342226,-0.0032846020280849187
1772609966132489200,3.9254892578125,0.054527124479413026,-0.0016347615949809551,-0.004571125574130565
1772609966142487300,3.9354873046875,0.051982700693607324,0.008309563183784485,-0.007186212576506659
1772609966152485000,3.945485107421875,0.053181555089354515,0.0026713015684857963,-0.012501452782517299
1772609966162483200,3.955483154296875,0.043456864410638806,-0.004005618912167847,-0.005302335058664903
1772609966172480300,3.965480224609375,0.04465513428449631,0.001962239983677864,-0.011081923107104374
1772609966182478000,3.97547802734375,0.05378302811384201,0.0011965893734246491,-0.00032200762913562356
1772609966192476200,3.98547607421875,0.058573184999823565,0.004167202682048082,0.0026023827844299375
1772609966202474200,3.99547412109375,0.054985974162816996,-0.0003787701845169067,-0.0008854136655572801
1772609966212472300,4.005472412109375,0.05513619628846645,-0.005954926349036395,-0.006254311154410243
1772609966222470400,4.015470458984375,0.05169511592388153,0.00032225422430783506,-0.00785250359866768
1772609966232468200,4.02546826171875,0.05019698632061481,0.003370700275804847,-0.011365827215556054
1772609966242466300,4.03546630859375,0.04331248750388622,-0.0019752090631052852,-0.004666009916504845
1772609966252463400,4.04546337890625,0.05094225172996521,0.0003555537057109177,-0.004201506810449064
1772609966262461200,4.055461181640625,0.0569248332709074,0.005268113128654659,-0.0021553331366740165
1772609966272459300,4.065459228515625,0.0543757333099842,-0.00574055294599384,-0.01219909056876786
1772609966282457000,4.07545703125,0.053181555089354515,-0.0003345474503003061,-0.0021818558174185455
1772609966292455200,4.085455078125,0.04495382497012615,0.0037700565906241532,-0.00036112492997199296
1772609966302453200,4.095453369140625,0.060064300340414045,0.0010441570243798195,0.005164442691626027
1772609966312451000,4.105451171875,0.05333119269311428,0.0019342559982091188,0.004747596385888755
1772609966322448100,4.1154482421875,0.04809504560530185,-0.000952003495208919,0.0016157555004116147
1772609966332446500,4.125446533203125,0.048842649102211,-0.001379051534552127,0.007170978474756702
1772609966342444300,4.1354443359375,0.041808512681722636,-0.0007603168480098247,-0.0042728641467634585
1772609966352442400,4.1454423828125,0.05138648836612701,0.0008758695190772414,0.004777480067498982
1772609966362440200,4.155440185546875,0.06081073479354381,0.0025054069496691224,0.0018024097794666885
1772609966372438300,4.165438232421875,0.05452537091374397,-0.004782411970943212,0.004805875044921413
1772609966382436400,4.175436279296875,0.049289223825931545,0.0030642646751366555,0.0019154143004212528
1772609966392433200,4.18543310546875,0.05138473480045795,-0.0007545446943491696,0.0029931448008399457
1772609966402431200,4.19543115234375,0.0512345126748085,-0.0011109751828946174,0.002215027434658259
1772609966412429300,4.20542919921875,0.054822308033704754,-0.0005265628910623491,-0.0014654329100623727
1772609966422427100,4.21542724609375,0.05302841035425663,0.0017896233631297944,-0.008318468009447678
1772609966432425200,4.22542529296875,0.043300212544202805,-0.004124934442900121,-0.010564328973786905
1772609966442423300,4.23542333984375,0.04374678726792335,0.0016668920326046645,0.0009202749163843691
1772609966452421000,4.245421142578125,0.061548985940217966,0.00004656082177534699,-0.007803056700062007
1772609966462418400,4.25541845703125,0.06229658943712711,0.0013581731433048843,-0.0003329308819491416
1772609966472416300,4.265416259765625,0.03910276085436344,0.010159026975370944,-0.0009825904297176748
1772609966482414300,4.275414306640625,0.04284253190457821,0.0006459149544127285,-0.004592405824176967
1772609966492412400,4.285412353515625,0.046133390143513676,-0.006660681731905788,-0.013148144055064767
1772609966502410200,4.29541015625,0.05122223771512508,0.008715239641536027,-0.003703064902173355
1772609966512408300,4.305408203125,0.06139408763945102,-0.00015774784497916698,-0.005623319774493575
1772609966522406400,4.315406494140625,0.06124152742624282,0.003693283293675631,-0.01253923664279282
1772609966532404200,4.325404296875,0.051966334080696105,0.005696202347613871,-0.007701030230848119
1772609966542401300,4.3354013671875,0.0494219102948904,-0.00027483488600701093,-0.007891365171177313
1772609966552399000,4.345399169921875,0.04239011196196079,-0.0034724436172284185,-0.010739155817730352
1772609966562397200,4.355397216796875,0.050770986816287035,-0.0021003150138072667,0.0012199154500849544
1772609966572395300,4.365395263671875,0.059903556820750235,0.002354454171657562,0.003997545203566551
1772609966582393000,4.37539306640625,0.0657388388454914,0.008668021232634783,-0.006299602467706427
1772609966592391200,4.38539111328125,0.04508884952664375,-0.009008870559558272,0.0003497541525866836
1772609966602389000,4.395388916015625,0.05226853189766407,-0.008550769794825464,-0.009445353147527202
1772609966612386300,4.40538623046875,0.05376724602282047,-0.0036976854741573332,0.0026024467165116217
1772609966622384000,4.415384033203125,0.05556172822415829,0.0036183183613233264,0.004491868059150875
1772609966632382200,4.42538232421875,0.05047112708687782,0.009735102474875747,0.004213891367986798
1772609966642380300,4.43538037109375,0.047479544055461884,0.00000858516525477171,0.007347412753896787
1772609966652378000,4.445378173828125,0.04822773207426071,0.0005466375647112726,-0.0048079117383807895
1772609966662376200,4.455376220703125,0.0533171641677618,0.002320624967291951,0.0002645144213922322
1772609966672374300,4.465374267578125,0.04808043255805969,0.0018473083671182392,0.006887695420812815
1772609966682371000,4.47537109375,0.05346738629341125,0.0006947590648196637,0.003369987889751792
1772609966692369200,4.485369140625,0.06573650075793266,-0.005821838021278381,-0.0028650797080714253
1772609966702367000,4.495366943359375,0.04673194055855274,-0.002042757873982191,0.003567108763894066
1772609966712365000,4.505364990234375,0.05167231957018375,0.0010207761487923562,0.0054583110716659574
1772609966722363100,4.515363037109375,0.05361702389717102,-0.0036353973602876065,-0.0008013521112967282
1772609966732361000,4.52536083984375,0.05945289044380188,-0.0012485935552977025,0.0005527202456258238
1772609966742359000,4.535359130859375,0.062143444702029225,-0.006199968884978443,-0.0035199999528471378
1772609966752357000,4.545357177734375,0.05481003307402134,-0.0001903897392563522,-0.0056446365571580824
1772609966762354200,4.555354248046875,0.04837678515613079,-0.005612944510951638,-0.006983748806966468
1772609966772352300,4.565352294921875,0.048078094470500946,-0.0026557569394819436,0.006319567543501034
1772609966782350000,4.57535009765625,0.05810206035673618,0.0021885960854589937,-0.006428133351355791
1772609966792348200,4.58534814453125,0.05675590644478798,-0.002589139710366726,-0.0051291795819997784
1772609966802346200,4.59534619140625,0.059600189960002894,0.0016169336773455142,-0.00019241729956120251
1772609966812344000,4.605343994140625,0.048529345369338985,-0.0069544770467095075,-0.0038247550530824807
1772609966822342100,4.615342041015625,0.04808160160183906,-0.002787292630970478,-0.004339737104205414
1772609966832339000,4.6253388671875,0.053318333211541176,-0.005340904370229691,-0.003235045531624928
1772609966842337000,4.6353369140625,0.04568389281034469,0.005866133820731192,-0.007247413844987749
1772609966852335000,4.645335205078125,0.05510755471587181,0.0026569990484975278,-0.009834553394513204
1772609966862333200,4.655333251953125,0.051366614621877665,0.001911149117257446,-0.009370324283093213
1772609966872331300,4.665331298828125,0.044333062723279,0.0006468282698653638,-0.006575213671848178
1772609966882329300,4.675329345703125,0.049717093849182124,-0.001219568390212953,-0.006236081377975642
1772609966892327200,4.6853271484375,0.05376081628203392,-0.005362787408474833,-0.0029889252834487704
1772609966902324200,4.69532421875,0.05451134238839149,-0.0018649170890450476,-0.004572751275636255
1772609966912322000,4.705322021484375,0.04762801261544227,0.007760733661986887,-0.0076370159507729105
1772609966922320100,4.715320068359375,0.05226677833199501,0.007712510606087744,-0.001747428189218044
1772609966932318200,4.725318115234375,0.053016719916462896,0.0014136296575888991,0.000915069018304348
1772609966942316000,4.73531591796875,0.04419102390408516,-0.003738967332616448,-0.0009933218862861394
1772609966952314000,4.745314208984375,0.05122399128079414,0.0052477096614427865,-0.007453421278484165
1772609966962312200,4.755312255859375,0.05122691389024257,0.006652553224377334,0.004473483019089326
1772609966972309000,4.76530908203125,0.05466565616726875,0.004455097979027778,-0.005527357719885185
1772609966982307000,4.77530712890625,0.05750643255114555,0.0017296916031278669,-0.0068481671280227596
1772609966992305200,4.78530517578125,0.05316518847644329,0.007666954431310296,0.0037726138738915322
1772609967002303200,4.79530322265625,0.05077215586006641,0.0029597265884280205,0.00538836024114862
1772609967012301300,4.80530126953125,0.05316694204211235,0.009386763961240649,0.005274122744332999
1772609967022299100,4.815299072265625,0.04732815288603306,0.0011571341458708048,-0.0040951603591442105
1772609967032297200,4.825297119140625,0.04762625904977321,-0.0035315168607048687,-0.0028167013885453344
1772609967042295300,4.83529541015625,0.050020460709929465,0.0020156689376570284,-0.0024604444299358872
1772609967052292000,4.8452919921875,0.060195233243703836,-0.00020394334057345986,0.0008321308420505374
1772609967062290200,4.855290283203125,0.05211597168445587,0.0036256431512534616,0.005726825814740732
1772609967072288000,4.8652880859375,0.04493687383532524,0.0009161101979203521,-0.00024217472542077301
1772609967082286000,4.8752861328125,0.054964346852898596,-0.0022660269695334136,-0.001675550263095647
1772609967092284200,4.8852841796875,0.05017828162014484,-0.0028549875723198055,0.0017208507095463573
1772609967102282000,4.895281982421875,0.054070612883567806,0.0029485476072877645,-0.0050660420847591005
1772609967112280000,4.905280029296875,0.05167582670152187,0.0019464396263472734,0.0029070830857381223
1772609967122277400,4.91527734375,0.04763678044378757,0.0015758710145950317,0.009133145393198356
1772609967132275200,4.925275146484375,0.051076107242703436,0.003856675428152084,-0.002799512791726738
1772609967142273300,4.935273193359375,0.053471477946639055,0.0013906689071096479,-0.00553808917645365
1772609967152271000,4.94527099609375,0.04808510873317718,-0.00041879166765138503,0.0005949610853102058
1772609967162269200,4.955269287109375,0.05511515350043773,-0.00162588416878134,0.0009203662479296326
1772609967172267300,4.965267333984375,0.05496610041856766,0.009112860656995327,0.0026762517382390794
1772609967182265000,4.97526513671875,0.05033084183335304,0.0012448489619418979,0.004680732561601325
1772609967192262100,4.98526220703125,0.04239887979030609,-0.00303958689160645,0.002688627162622288
1772609967202260200,4.99526025390625,0.05137479792833328,0.004360715960152447,-0.005586412697052583
1772609967212258000,5.005258056640625,0.058707040512561794,0.007850713500380515,-0.012503937000548465
1772609967222256000,5.015256103515625,0.06364215882718563,0.0034583420266397296,-0.0061910823256243015
1772609967232254000,5.02525390625,0.04867722940742969,0.0021568857729434964,-0.00799717276636511
1772609967242252000,5.035251953125,0.05151625222563743,0.0071137044627219434,-0.004726051274361089
1772609967252250000,5.04525,0.05286065257191658,0.003421005690935999,-0.009844992590136825
1772609967262248000,5.055248046875,0.053011459219455714,0.005602843242045492,-0.005800868298485875
1772609967272245200,5.065245361328125,0.05256429997384548,-0.0021561551205813885,-0.007371569947618991
1772609967282243300,5.075243408203125,0.04912263508737087,0.0036971192185766993,0.00025916239283978935
1772609967292241200,5.0852412109375,0.05211772525012493,0.008532905344571918,0.000012631152709946036
1772609967302239200,5.0952392578125,0.05376315436959266,-0.00037953736949712034,-0.0014180957701522856
1772609967312237300,5.1052373046875,0.04673018699288368,0.00039376682424917817,-0.005853548333793878
1772609967322235100,5.115235107421875,0.051667058873176575,0.003688625384867191,-0.0019463574279565362
1772609967332233200,5.125233154296875,0.05151391413807869,0.00556874004304409,-0.0062658371954225
1772609967342230000,5.13522998046875,0.06229132874011993,-0.0016201850803568957,-0.002971800618711859
1772609967352228000,5.14522802734375,0.05196691860258579,-0.0028594628180377184,-0.0042426151389721774
1772609967362226200,5.15522607421875,0.04762509000599384,0.005155994523689151,0.0026022092544939366
1772609967372224000,5.16522412109375,0.04403612560331821,-0.004097352316230535,-0.004291632779315113
1772609967382222000,5.17522216796875,0.04852466919422149,0.0035522125888615844,-0.004756875670887529
1772609967392220200,5.18522021484375,0.05660802240669727,0.0012308387028984724,-0.004625440444098785
1772609967402218000,5.195218017578125,0.0545154340416193,-0.0035664237773045896,0.0093226309501566
1772609967412215300,5.20521533203125,0.0479272878229618,0.001879420538432896,0.010594678446277976
1772609967422213000,5.215213134765625,0.05270984592437744,0.0029847148992121217,0.0037185821317136285
1772609967432211200,5.225211181640625,0.05180792864859104,-0.007672215128317475,0.003979205829277634
1772609967442209300,5.235209228515625,0.04477320770621299,-0.0007196195114403962,-0.00243281663749367
1772609967452207000,5.24520703125,0.053453357768058776,0.0035466230982914566,-0.0065708388908300545
1772609967462205200,5.255205078125,0.05989245090484619,-0.004579418478440493,-0.0033855873176828026
1772609967472203300,5.265203369140625,0.04986906954050064,-0.003312175021599978,0.0010684512154199182
1772609967482201000,5.275201171875,0.053910453885793685,-0.0014154745548032224,0.0030285814404021946
1772609967492198100,5.2851982421875,0.04792670330107212,-0.004653086502850056,0.007454471591254696
1772609967502196000,5.295196044921875,0.04299216950833797,-0.002844520977232605,0.013174821999436244
1772609967512194000,5.305194091796875,0.048079848036170006,0.0018071407535113393,-0.0034102194354403764
1772609967522192100,5.315192138671875,0.06439034684598445,0.006025799628160893,-0.007337585479626431
1772609967532190200,5.325190185546875,0.05017477448880672,0.0024199206233024594,-0.004128989563509822
1772609967542185000,5.33518505859375,0.06080021339952946,0.004691646681260317,-0.007974586475221439
1772609967552183000,5.34518310546875,0.05361936198472976,0.0010725063360296188,-0.00027393983686342833
1772609967562181000,5.35518115234375,0.057658408242464064,0.004722461944632232,-0.0014239957879763096
1772609967572179200,5.36517919921875,0.04209259032011032,-0.0010868636549450457,-0.007952657771203667
1772609967582177300,5.37517724609375,0.05211655620634555,-0.0016475297450087964,-0.007786388693051412
1772609967592175600,5.385175537109375,0.052417584979534144,0.007010244088247418,-0.0037632432573474943
1772609967602173400,5.39517333984375,0.047780572828650475,0.006942183820717036,-0.005946377716399729
1772609967612171800,5.405171875,0.053020227047801016,0.008162373265437782,-0.0063013560333754865
1772609967622168600,5.41516845703125,0.052720951840281485,0.007127732988074421,-0.0007211264819372444
1772609967632166700,5.425166748046875,0.05256956067085266,-0.004159969223663211,-0.00925448848423548
1772609967642164700,5.435164794921875,0.04778291091620922,-0.00010040990086272358,0.002285270526120439
1772609967652162600,5.44516259765625,0.054366380959749216,0.000055876639392226934,-0.003906789047038182
1772609967662160600,5.45516064453125,0.05945347496569156,-0.002688581496849656,0.00402677129805088
1772609967672158700,5.46515869140625,0.049428340035676956,0.004788604249712079,-0.0038768140338826924
1772609967682156500,5.475156494140625,0.05227379259467125,-0.0006688026396557688,-0.006054514265991747
1772609967692153600,5.485153564453125,0.048232992771267885,0.00145832731584087,-0.00748220898155123
1772609967702151400,5.4951513671875,0.04614157344996929,0.003646978200227022,-0.005758773589273914
1772609967712149500,5.5051494140625,0.05436930356919765,0.0033579686583951112,-0.001028119205031544
1772609967722147600,5.515147705078125,0.05197042573392391,0.009682276309095322,-0.003646019219001755
1772609967732145700,5.525145751953125,0.0545154340416193,-0.004270827453304082,0.0126027211999055
1772609967742143700,5.535143798828125,0.05092120894193649,-0.0011926621169783174,0.004116668938053771
1772609967752141800,5.545141845703125,0.05122106867134571,0.003521945314761251,0.002203528793109581
1772609967762138600,5.555138671875,0.05480944855213165,0.005556483349669725,0.002553273812541738
1772609967772136700,5.56513671875,0.04762625904977321,-0.0011595818312838673,-0.00016582155358046293
1772609967782134500,5.575134521484375,0.04238718935251236,-0.009504618187248706,-0.000731803139578551
1772609967792132600,5.585132568359375,0.04268354195058346,-0.0028901867498643693,0.0046977019627112895
1772609967802130700,5.595130615234375,0.04133914160430431,-0.0015185148041695355,-0.0006949051952920853
1772609967812128500,5.60512841796875,0.049419572207331654,-0.0043650268090888854,0.004651515600271523
1772609967822126600,5.615126708984375,0.05240706358551979,0.010770948328636586,-0.002627736421395093
1772609967832124700,5.625124755859375,0.05464812051057815,0.00299854249516502,0.00599262801092118
1772609967842121700,5.635121826171875,0.05389759440422058,0.003509469425678253,0.007571951357927173
1772609967852119800,5.645119873046875,0.04761164600253105,0.0028111666969023643,-0.005481527550471947
1772609967862117600,5.65511767578125,0.039679099437594414,0.006035681701358407,-0.006085694855544716
1772609967872115700,5.66511572265625,0.04955518128573894,0.004613576476369053,-0.003539280042052269
1772609967882113800,5.67511376953125,0.049857379102706906,0.0003057780135422945,-0.007846941507561132
1772609967892111600,5.685111572265625,0.055096448799967765,-0.004166892154794186,-0.0034506610436830665
1772609967902109700,5.695109619140625,0.05734393546581268,-0.0008626629776321351,-0.0037275326231494543
1772609967912106800,5.705106689453125,0.05166062913239002,-0.0002183919910341501,-0.006518259320221841
1772609967922104600,5.7151044921875,0.05135843131542205,0.0004614069666713476,-0.011590758545231073
1772609967932102700,5.7251025390625,0.05375263297557831,0.002937295560911298,-0.010358202809281647
1772609967942100700,5.735100830078125,0.04851473232209682,0.009051686787977815,-0.006879457315430044
1772609967952098600,5.7450986328125,0.053453357768058776,0.008993307664245366,0.000954642976867035
1772609967962096600,5.7550966796875,0.05195464364290237,0.004598324108310043,-0.006851190202170982
1772609967972094500,5.765094482421875,0.05255202501416206,0.007917513392586261,-0.008708006183151155
1772609967982091800,5.775091796875,0.045967385926842685,0.004316602823790163,-0.007707743099424988
1772609967992089900,5.78508984375,0.047915597385168075,0.00883205268792808,-0.00603084112945944
1772609968002087700,5.795087646484375,0.0550993714094162,-0.0018261742475442588,-0.014238158648321404
1772609968012085800,5.805085693359375,0.06318330914378166,0.00045530601944774387,-0.00862007217137143
1772609968022083800,5.815083740234375,0.052857729962468146,0.007250025927182287,-0.004489338175347074
1772609968032081700,5.82508154296875,0.04821721068024635,-0.005039017080515623,-0.004526446182187646
1772609968042079700,5.835079833984375,0.052258010503649706,0.003188018918968737,-0.0004625486109871417
1772609968052077600,5.84507763671875,0.05390402414500713,0.00693781817285344,0.004636409362684935
1772609968062074600,5.85507470703125,0.048965398699045176,0.00004639642499387264,-0.0026360841246321795
1772609968072072700,5.86507275390625,0.05644727888703346,0.000008110241219401359,-0.002372802679101005
1772609968082070500,5.875070556640625,0.05315466708242893,0.0008299662844277918,-0.003636575537221506
1772609968092068600,5.885068603515625,0.04522212051749229,-0.003415927657019347,-0.001798382058320567
1772609968102066700,5.895066650390625,0.05240589454174041,-0.002540587860904634,0.0028666414774954317
1772609968112064500,5.905064453125,0.05435059886872768,-0.0004525478067807853,0.000882874648598954
1772609968122062600,5.9150625,0.049265258428454396,0.00035926176644861696,0.0007540058382321149
1772609968132059600,5.9250595703125,0.04522796573638916,0.006747391900978982,0.0011065638692583889
1772609968142057700,5.9350576171875,0.04986906954050064,-0.004892247287277132,0.005564502259343862
1772609968152055800,5.945055908203125,0.050916532766819,-0.00459978541303426,0.00253323567151092
1772609968162053600,5.9550537109375,0.050317982351779936,0.0005904767064377665,0.003363722545746714
1772609968172051700,5.9650517578125,0.05316518847644329,-0.001385517807956785,-0.0017574198602698743
1772609968182049800,5.9750498046875,0.06289221724271774,-0.0031984124488197265,0.005157181833777577
1772609968192047600,5.985047607421875,0.06154372524321079,-0.00016934695122763514,0.0010294343792833388
1772609968202044700,5.995044677734375,0.04074818997383117,-0.01144512126315385,0.005025381280807778
1772609968212042500,6.00504248046875,0.050178866142034526,-0.00009902166137471794,-0.0006893157047219574
1772609968222040600,6.01504052734375,0.05945347496569156,0.0034438020446337756,-0.006302287615137174
1772609968232038700,6.02503857421875,0.05855389577746391,-0.001375580935832113,-0.0012876195245888084
1772609968242036500,6.035036376953125,0.04957622407376766,-0.0013986878167837858,-0.003187662725942209
1772609968252034600,6.04503466796875,0.04284253190457821,0.00028791356328874827,-0.0032473113581538197
1772609968262032600,6.05503271484375,0.04628127418160438,0.0030867322352714833,-0.008726172027504071
1772609968272030500,6.065030517578125,0.04179097702503204,-0.001663183971866965,-0.009184729449963196
1772609968282027800,6.07502783203125,0.04149170181751251,-0.005210135863721371,-0.004743130273325368
1772609968292025600,6.085025634765625,0.0612426964700222,-0.0014568294784985483,-0.016836605043150484
1772609968302023700,6.095023681640625,0.048671384188532826,0.004307962859608233,-0.015490295867575332
1772609968312021800,6.105021728515625,0.04941664959788322,0.0015478139638900755,-0.005993550459528342
1772609968322019600,6.11501953125,0.05136018488109111,-0.004528930400218814,-0.007263387732254341
1772609968332017700,6.125017578125,0.056896191698312754,0.00698001334676519,-0.00899279620759189
1772609968342015700,6.135015625,0.06018704993724823,0.002940638295467943,-0.010162050049519165
1772609968352012500,6.145012451171875,0.046419221347570414,-0.005235325103905052,-0.008499313602223993
1772609968362010600,6.1550107421875,0.054499067428708074,0.00003773819450289011,0.006782810274232179
1772609968372008400,6.165008544921875,0.050607320687174794,0.009815985691361129,-0.008916625698842108
1772609968382006500,6.175006591796875,0.052853638309240336,0.00010108575429767369,-0.018315016165794805
1772609968392004600,6.185004638671875,0.05075871185660362,-0.0023004224294796583,-0.006489517282927408
1772609968402002700,6.195002685546875,0.05180442151725292,0.0022677622688934205,-0.00010486688027158378
1772609968412000800,6.205000732421875,0.053147068297863004,0.0025726634996011853,0.0005971073766238987
1772609968421998800,6.214998779296875,0.060628363963961596,0.002408979104179889,0.00439341265335679
1772609968431995600,6.22499560546875,0.05479015932977199,-0.004642199782654643,-0.0020102621101774276
1772609968441993700,6.23499365234375,0.04985094936192035,-0.0008810388845391571,0.00005701828370802104
1772609968451991600,6.244991455078125,0.04954875154495239,0.005773870693705976,-0.0005224438383709639
1772609968461989600,6.25498974609375,0.061818450531363485,0.003558989389520138,-0.003057780135422945
1772609968471987700,6.26498779296875,0.0550859274059534,0.0045635815884917975,-0.00009103015116415917
1772609968481985500,6.274985595703125,0.05059679929316044,0.005736643955856561,0.0027034320061095057
1772609968491983600,6.284983642578125,0.04326221862137317,0.0022488383727148173,-0.003878257072297856
1772609968501980400,6.29498046875,0.0619657500475645,0.009297076383791864,0.004252131885988638
1772609968511978800,6.304978759765625,0.06929623906612396,0.0014735066186636685,-0.0024194730987306683
1772609968521976800,6.314976806640625,0.06330898135006427,-0.000234849935490638,0.0019331052207387982
1772609968531974700,6.324974609375,0.04654956972897052,-0.013377532364148646,0.009954398648208006
1772609968541972700,6.33497265625,0.04894318686723709,-0.006438307685498148,-0.0007497680545318871
1772609968551970800,6.344970703125,0.049991819137334824,0.001008501189108938,-0.0014763470297213643
1772609968561968600,6.35496875,0.05672551130652427,0.004011190136428922,-0.0014593045633751898
1772609968571966700,6.364966796875,0.0473000958353281,0.0012825506238266825,-0.0010489153978880494
1772609968581963500,6.374963623046875,0.04864741879105568,0.0013618446714244782,-0.012812939017638563
1772609968591960800,6.3849609375,0.04760112460851669,-0.0026994682170450686,-0.007986249513551593
1772609968601959000,6.394958984375,0.06286649827957153,0.00873315889071673,-0.004653433562722057
1772609968611956700,6.404956787109375,0.056879240563511846,0.008734053939860313,-0.007481113003008067
1772609968621954800,6.414954833984375,0.05089665902256965,-0.0030828780440613625,-0.007371780010173096
1772609968631953000,6.424952880859375,0.05299216999709606,0.0018158903155475854,-0.0054618638687767085
1772609968641950700,6.43495068359375,0.05523381144404411,0.004016633496526628,-0.01343379259603098
1772609968651948000,6.444947998046875,0.04565875836908817,-0.004077003647945821,-0.009292555472301319
1772609968661945900,6.45494580078125,0.0567331100910902,-0.0003681757252663374,-0.0052975036199204625
1772609968671944000,6.46494384765625,0.05045066882073879,0.007475614843983203,-0.002879848018940538
1772609968681942000,6.47494189453125,0.051348494443297386,-0.0008081380451098084,-0.003922653336450458
1772609968691939800,6.48493994140625,0.0538923337072134,-0.0006857355081476271,0.002767163158394396
1772609968701938000,6.49493798828125,0.052692310267686844,-0.006278404416050762,-0.0003229300777427852
1772609968711936000,6.50493603515625,0.054635845550894735,0.00548199334135279,-0.00031158669982105493
1772609968721932800,6.514932861328125,0.05284077882766723,0.006977748324442655,-0.006829398495471105
1772609968731931000,6.524930908203125,0.048804070657491684,0.0000960625193081796,-0.013498391397995874
1772609968741928700,6.5349287109375,0.0577788197517395,0.0006584821750409901,-0.01586324823265895
1772609968751926800,6.5449267578125,0.0375794968098402,0.0050918615126051,-0.014188145494135097
1772609968761924900,6.5549248046875,0.04625789330601692,-0.00043280192669481037,-0.009849321705382316
1772609968771923000,6.5649228515625,0.05059679929316044,0.0030444091971963644,-0.006554499677382409
1772609968781921000,6.574921142578125,0.06361527082026004,0.00345483489530161,-0.0055791792386677115
1772609968791919000,6.584919189453125,0.05149287135004997,0.0042454190174117685,-0.007151122996816411
1772609968801916000,6.594916015625,0.04984978031814098,0.00011834741635248065,-0.008436121306056156
1772609968811914000,6.6049140625,0.0561316370666027,0.0019918862032704053,-0.0019293606273829936
1772609968821911800,6.614911865234375,0.05538286452591419,0.006158504363428801,-0.010282498091412708
1772609968831910000,6.624909912109375,0.055986675637960434,0.0023464717946015297,-0.006650735726626589
1772609968841908000,6.634907958984375,0.04671031324863434,-0.005339004674088209,0.0030562183659989385
1772609968851905800,6.64490576171875,0.05210018959343433,-0.007575056630466133,0.0008290164363570511
1772609968861904000,6.65490380859375,0.053746203234791755,0.0036707244019955395,0.006386276104161515
1772609968871900700,6.664900634765625,0.06018003567457199,-0.0013453684606589376,0.0027457459110300985
1772609968881899000,6.67489892578125,0.04671382037997245,-0.0021175949421711267,-0.003923657983448356
1772609968891897000,6.68489697265625,0.0582365003913641,-0.005020641173608601,0.008105071853939444
1772609968901895000,6.69489501953125,0.06018237376213073,-0.00252381938919425,-0.0026859328820370136
1772609968911893000,6.70489306640625,0.05135492418408394,0.004683298978023231,-0.010451918107876554
1772609968921891000,6.71489111328125,0.05943827739655971,0.0024397395686246454,-0.0016698877072893082
1772609968931889000,6.724888916015625,0.056448447930812835,0.003109912181459367,0.0020118512790650127
1772609968941887000,6.734886962890625,0.05315758969187736,-0.0036975941426120695,0.0024526812485884874
1772609968951883800,6.7448837890625,0.059141340276598925,0.0029604024418629703,-0.005184590430511162
1772609968961881900,6.7548818359375,0.058094461572170256,0.008775609792955219,-0.006209339501522481
1772609968971880000,6.7648798828125,0.05240472549796104,0.0029073753466829656,-0.013372755724331364
1772609968981877800,6.774877685546875,0.04492284530997276,-0.009340184873156248,-0.006754899353999644
1772609968991875800,6.784875732421875,0.06242986042797565,0.0005876088959164917,-0.01712732248487882
1772609969001874000,6.7948740234375,0.05464812051057815,0.01187649841774255,-0.02172393869329244
1772609969011871700,6.804871826171875,0.042376667958497996,0.005146368178818374,-0.0225607913762331
1772609969021869000,6.814869140625,0.049857963624596595,-0.003073854487389326,-0.013005374583508818
1772609969031867000,6.824866943359375,0.042676527687907216,-0.003090878687426448,-0.011464045159332454
1772609969041865000,6.834864990234375,0.06527648203074932,0.001032338722422719,-0.010264332247059792
1772609969051863000,6.844863037109375,0.061681672409176824,0.008649298265855759,-0.0026884718989953395
1772609969061860900,6.85486083984375,0.05464636694490909,0.010194847207423299,-0.005042295882990584
1772609969071859000,6.86485888671875,0.04058218575716018,0.0014279504438862204,-0.0019028014140203594
1772609969081857000,6.87485693359375,0.049561611026525496,-0.00008634484289214014,-0.013671528608351946
1772609969091853800,6.884853759765625,0.0684141955345869,-0.007350454094354063,-0.0015678795043844729
1772609969101852000,6.894851806640625,0.059735214516520495,-0.0017961444354616105,0.0045859030181542035
1772609969111849700,6.904849609375,0.047614568611979484,0.001030713020917028,0.006043243953306228
1772609969121847800,6.914847900390625,0.036840661141276355,-0.005144103156495839,-0.0010600943790283054
1772609969131846000,6.924845947265625,0.05793839422762394,-0.002737133346311748,-0.00101057441518642
1772609969141843700,6.93484375,0.05554536161124706,0.0008110241219401359,0.0002185107220429927
1772609969151841800,6.944841796875,0.06362871482372283,0.004822689182404428,-0.003338734234962612
1772609969161839900,6.95483984375,0.056447863408923146,0.00006913797976449131,-0.0011683770590927452
1772609969171837000,6.9648369140625,0.04716974745392799,0.004004687330406159,0.0075668185250833625
1772609969181835000,6.9748349609375,0.06242869138419628,-0.007927998253982514,0.0003689246439374983
1772609969191832800,6.984832763671875,0.052850131177902215,-0.003943897053878754,-0.008239813282666727
1772609969201831000,6.994830810546875,0.044022097077965734,0.004820022301282733,-0.0066677142608910795
1772609969211829000,7.0048291015625,0.046267245656251905,0.005498487818427384,-0.006777385180443525
1772609969221826800,7.014826904296875,0.06183131001293659,0.0004533149917609989,-0.00427989667574875
1772609969231825000,7.024824951171875,0.06018704993724823,-0.0027380831943824885,-0.004554010042548179
1772609969241822000,7.034822021484375,0.052553194057941434,0.0024452559939585625,-0.0053225923954043535
1772609969251819800,7.04481982421875,0.05419862317740917,0.006959792542643845,-0.009209708627592772
1772609969261817900,7.05481787109375,0.06018120471835136,0.00003839578162878751,-0.008948253812966867
1772609969271815700,7.064815673828125,0.055991351813077926,0.0027493900396861133,-0.011312471326813102
1772609969281813800,7.074813720703125,0.04222469226717949,-0.0035170134113170206,-0.0064750960319302974
1772609969291811800,7.084811767578125,0.05060615164339542,-0.0020804595358669756,-0.008501076301047577
1772609969301809700,7.0948095703125,0.05405190818309784,-0.003855999574717134,-0.0022694427693262693
1772609969311807700,7.104807861328125,0.05001403096914291,0.0012973646004684268,-0.003266253520641476
1772609969321805000,7.11480517578125,0.04492693696320057,0.0027370420147664843,-0.005878207851015031
1772609969331803000,7.124802978515625,0.049265842950344085,-0.0057211723920889196,-0.0030860929144546387
1772609969341801000,7.134801025390625,0.054203883874416346,-0.008884020337183027,-0.005662592338956892
1772609969351799000,7.144799072265625,0.05121113179922104,0.0049852228003554044,-0.007433310072217136
1772609969361796900,7.154796875,0.06333353126943111,-0.002286357371509075,-0.0009870291428174824
1772609969371795000,7.164794921875,0.06093991413116455,0.0013958382725715636,-0.0013518438672181219
1772609969381792800,7.174792724609375,0.04298632428944111,-0.004234258302580565,-0.008315728063089773
1772609969391789800,7.184789794921875,0.044333062723279,0.0008232077500782907,-0.004905271165631712
1772609969401788000,7.194787841796875,0.05660451527535915,0.007819313715118915,-0.004768922301707789
1772609969411785700,7.20478564453125,0.05032032043933868,-0.00498262898446992,-0.0006830046949442475
1772609969421783800,7.21478369140625,0.058549804124236104,0.0037060514437034725,-0.006387088954914361
1772609969431782000,7.224781982421875,0.0483762006342411,-0.0006974259459413588,-0.005173648911388591
1772609969441780000,7.234780029296875,0.05421382074654102,-0.0006586831044405699,-0.0009161284642294049
1772609969451778000,7.244778076171875,0.05780453871488571,-0.004742627949826419,-0.017676836993265894
1772609969461776000,7.25477587890625,0.054960255199670786,-0.004305551706813276,-0.007476683423062786
1772609969471773000,7.26477294921875,0.05450900430083275,0.007409070680104195,-0.010147245206031948
1772609969481771000,7.27477099609375,0.04687807103097438,0.005153839099220931,-0.009986328156432136
1772609969491768800,7.284768798828125,0.044483284848928446,-0.0038238874034024774,-0.004487630275450647
1772609969501767000,7.294766845703125,0.05735270329415798,0.002491542821098119,-0.013940244280826299
1772609969511765000,7.304764892578125,0.04568447733223438,0.004461746915522963,-0.006239825971331447
1772609969521762800,7.3147626953125,0.03999941743314266,0.0013897555916570126,-0.001640223221387714
1772609969531761000,7.324760986328125,0.0401502240806818,0.001539027869235724,0.0026341661621816456
1772609969541757700,7.3347578125,0.04733399810492992,0.003441920614801347,-0.005843821524223312
1772609969551756000,7.344756103515625,0.05362170007228851,-0.0006029343292117119,-0.00795700515275821
1772609969561754000,7.354754150390625,0.05886076976954937,-0.0009515833701007068,-0.001350473894039169
1772609969571752000,7.364751953125,0.05032967278957367,-0.004459061768092215,-0.00835945760696195
1772609969581750000,7.37475,0.05631517693996429,-0.004612571829371154,-0.009720087568834423
1772609969591748400,7.384748291015625,0.048235330858826635,0.0028177973670884967,-0.0067932312035467474
1772609969601746400,7.394746337890625,0.05422375761866569,0.0017535656690597532,-0.0026604422477539626
1772609969611744500,7.40474462890625,0.06529518673121928,0.0016010967873968183,-0.0028073764377739277
1772609969621741600,7.414741455078125,0.051829555958509445,0.005135992915276438,-0.012962841482879593
1772609969631739600,7.42473974609375,0.0394137264996767,-0.004422620481532067,-0.006088261271966621
1772609969641737500,7.434737548828125,0.04869125793278217,0.0029551965437829494,-0.014950754763931035
1772609969651735600,7.444735595703125,0.06859013662338256,0.007356262780632824,-0.007969809835404157
1772609969661733600,7.454733642578125,0.06020926176905632,0.0018572635055519638,0.004760675063170492
1772609969671731500,7.4647314453125,0.04330196610987186,0.004648739121295512,-0.010007991998968645
1772609969681729500,7.4747294921875,0.047045244291424745,0.00035725247245281934,0.0025704167435877025
1772609969691727600,7.4847275390625,0.06485095009505748,-0.00216959912404418,-0.0020047274185344575
1772609969701724400,7.494724365234375,0.05602174695134163,0.0018767171246930957,0.007206871772045269
1772609969711722500,7.504722412109375,0.042403555965423584,-0.002237695924192667,0.003380865476792678
1772609969721720600,7.514720458984375,0.047042906203866,-0.002957991289068013,0.0005289649107027798
1772609969731718700,7.52471875,0.0629027386367321,-0.00814920325661078,-0.0010602313763462005
1772609969741716700,7.534716796875,0.05302607226669788,-0.012896342984773218,-0.0073196753636002535
1772609969751714600,7.544714599609375,0.04359890322983265,0.000371737655531615,-0.007428871359117329
1772609969761712600,7.554712646484375,0.055873278391361234,0.005117251682188362,-0.004451262054126709
1772609969771709400,7.56470947265625,0.06125614047348499,-0.007182422317378223,-0.004865423212433234
1772609969781707500,7.57470751953125,0.057815060108900064,-0.007819934769626707,-0.009413661101320758
1772609969791705600,7.58470556640625,0.046290626531839366,-0.00005821472695097327,-0.009225545517541468
1772609969801703400,7.594703369140625,0.05316986465156078,0.003617039719689637,-0.010906018550926818
1772609969811701500,7.604701416015625,0.06469254466295242,-0.00018549436843022702,-0.006049765025638043
1772609969821699600,7.614699462890625,0.06064940675199031,-0.0015646189682185648,-0.00791701106908731
1772609969831697400,7.624697509765625,0.04493804287910461,0.0018100633629597723,-0.015632307287305594
1772609969841695500,7.634695556640625,0.04987316119372844,-0.000517374937608838,-0.010641385398525743
1772609969851692500,7.644692626953125,0.0522626866787672,0.004037036963738501,-0.01083103535226546
1772609969861690600,7.654690673828125,0.05704875191152096,0.007259469608962535,-0.011499801459303126
1772609969871688700,7.664688720703125,0.06318447818756102,0.009789243814907967,-0.014571345258597284
1772609969881686500,7.6746865234375,0.0546545502513647,-0.0018612455609254537,-0.015954652843158692
1772609969891684600,7.6846845703125,0.04881868370473384,0.0007636413162574172,-0.008435491118393838
1772609969901682700,7.6946826171875,0.06392915907502174,0.006956559405941516,-0.0005200418187305331
1772609969911680500,7.704680419921875,0.06482698469758033,0.008148381272703408,-0.006861611131485551
1772609969921677600,7.714677490234375,0.04657178156077862,0.0007755509497597813,-0.004621641051815823
1772609969931675400,7.72467529296875,0.05569850634634495,0.00174793964587152,-0.010284909244207665
1772609969941673500,7.734673583984375,0.05360299537181854,-0.004832425125129521,-0.003747525098407641
1772609969951671600,7.744671630859375,0.04911503630280494,-0.0061232138543389734,-0.000054031742177903646
1772609969961669400,7.75466943359375,0.05510287854075432,-0.0008097089476883411,0.0019259448275901377
1772609969971667500,7.76466748046875,0.05016600666046142,0.0013768595774658024,-0.0026943627836648375
1772609969981665500,7.77466552734375,0.05315758969187736,0.0014476232587359846,0.0016803269029129295
1772609969991663400,7.784663330078125,0.043132454761862754,-0.001391837950889021,-0.00799481641249731
1772609970001660700,7.79466064453125,0.046725510817766186,-0.00949910176191479,-0.009654137059999629
1772609970011658500,7.804658447265625,0.05421323622465133,-0.002491524554789066,-0.003208678114507347
1772609970021656600,7.814656494140625,0.053016135394573206,-0.003086823566816747,-0.0021508578909561035
1772609970031654700,7.824654541015625,0.046882747206091875,-0.007040803623292595,-0.008543499803822487
1772609970041652500,7.834652587890625,0.043592473489046095,-0.006793441266100853,-0.014479264794662595
1772609970051650600,7.844650634765625,0.05510930828154087,0.004173413227126002,-0.009450285050971433
1772609970061648600,7.854648681640625,0.0625888503819704,0.004009199108742177,-0.0025274543846957385
1772609970071646500,7.864646484375,0.057201312124729155,-0.004782302373088896,-0.010563972780760378
1772609970081643500,7.8746435546875,0.05405950696766376,-0.009449453933909535,-0.006381627328507602
1772609970091641300,7.884641357421875,0.05929682309925556,-0.0030561179012991487,-0.00036955483159981664
1772609970101639400,7.894639404296875,0.058550973168015476,0.00023994623571634292,-0.015260277370829134
1772609970111637500,7.904637451171875,0.054064183142781254,-0.0029642383667640385,-0.005000712630432099
1772609970121635300,7.91463525390625,0.03850479496121406,-0.008511716426070778,-0.009345993559435009
1772609970131633400,7.92463330078125,0.04778466448187828,-0.005224328785855323,-0.016506605903804303
1772609970141631500,7.934631591796875,0.06918225729763508,-0.005976663256809115,-0.004573399729607627
1772609970151628500,7.944628662109375,0.051524435532093044,-0.0022130729395896196,-0.002489935385901481
1772609970161626600,7.954626708984375,0.05451777212917804,-0.005067147196456789,0.0011408405981957912
1772609970171624400,7.96462451171875,0.059004562154412264,-0.01041744044953957,-0.008730912134703249
1772609970181622500,7.97462255859375,0.05511515350043773,-0.005659870658908039,0.0010599756480194629
1772609970191620600,7.98462060546875,0.05017828162014484,0.002683558261860162,-0.002650879834964871
1772609970201618400,7.994618408203125,0.05092705416083335,0.00640139147490263,-0.0032832777206785973
1772609970211616500,8.004616455078125,0.05990472586452961,-0.0013484189342707394,-0.009682194110704586
1772609970221614600,8.014614501953124,0.053773091241717336,-0.0030918833344243464,-0.004606489148456603
1772609970231611400,8.024611328125,0.04345101919174194,0.005487856826558709,-0.0038132838109973814
1772609970241609500,8.034609375,0.05826163483262062,0.0023491569420322775,-0.006045508975628763
1772609970251607300,8.044607177734376,0.05302139609158039,0.0033450726442039013,0.000753905373532325
1772609970261605400,8.05460546875,0.051524435532093044,0.002980422316584736,-0.007521445013396442
1772609970271603700,8.064603759765625,0.05541501322984695,-0.002990669715963304,-0.008490618839114904
1772609970281601500,8.0746015625,0.051524435532093044,-0.006475205629784614,-0.004996712308749557
1772609970291599600,8.084599609375,0.056012979122996326,-0.00281681098639965,-0.0026618122209329156
1772609970301597700,8.09459765625,0.05990238777697086,-0.0028350590291433037,-0.012687723469082266
1772609970311594500,8.104594482421875,0.05047463421821594,-0.0008633753636851907,-0.013879919795179739
1772609970321592600,8.114592529296875,0.049426586470007895,0.001241049569658935,-0.007217959421640261
1772609970331590400,8.12459033203125,0.04643617248237133,-0.01071960173388943,-0.011133972954750061
1772609970341588500,8.13458837890625,0.054070612883567806,-0.0005130092897452414,-0.01231520949541591
1772609970351586600,8.144586669921875,0.05601648625433445,0.005127407750021666,-0.006813470273977145
1772609970361584400,8.15458447265625,0.0539186371922493,-0.007328205729927867,-0.010898164038034156
1772609970371582500,8.16458251953125,0.0582581277012825,0.0014499065473675726,-0.010390342380059883
1772609970381580500,8.17458056640625,0.05062368730008602,-0.008470982556883245,-0.00910944485720247
1772609970391577600,8.18457763671875,0.05915186167061329,-0.006950750719662755,-0.0049997719155158845
1772609970401575700,8.19457568359375,0.054062429577112193,0.0030539624768309293,0.0018355357309337704
1772609970411573500,8.204573486328124,0.057204234734177586,-0.001074168570153415,-0.0066300491316244005
1772609970421571600,8.214571533203125,0.06528875699043274,-0.006094243488181382,-0.003732099200412631
1772609970431569700,8.224569580078125,0.05122282223701477,-0.0008725085182115435,-0.0049573575458955015
1772609970441567500,8.2345673828125,0.05062427182197571,0.002865582031570375,-0.0019656466503161934
1772609970451565600,8.244565673828125,0.04763210426867008,-0.0034559856727719306,0.00041421595723368224
1772609970461563600,8.254563720703125,0.05780746132433414,-0.004836644642520696,0.003017438991880044
1772609970471560400,8.264560546875,0.05152385101020336,-0.006491206916514784,0.00046137956720776853
1772609970481558500,8.27455859375,0.05092822320461273,-0.0013715440815314649,-0.002951159689482301
1772609970491556400,8.284556396484374,0.050482233002781866,-0.006601681553665548,-0.002678927752515301
1772609970501554400,8.294554443359376,0.05751403133571147,-0.003989471494965255,-0.0006901650880929083
1772609970511552500,8.304552490234375,0.060351300588250154,-0.002994816168118268,0.003422092536324635
1772609970521550300,8.31455029296875,0.054065936708450314,0.000023563538677990436,-0.0011924246549606323
1772609970531548400,8.32454833984375,0.05287117396593093,-0.004581409506127238,-0.002108059928845614
1772609970541545700,8.334545654296875,0.05092646963894367,-0.005873659540060907,-0.006882014598697424
1772609970551543600,8.34454345703125,0.0518225416958332,-0.002302267326693982,-0.0028845972592942415
1772609970561541600,8.354541748046875,0.052419923067092894,0.0025297559396363794,-0.004000687008723617
1772609970571539500,8.36453955078125,0.043885318955779073,-0.0002854841441847384,-0.007840694429865106
1772609970581537500,8.37453759765625,0.06004501111805439,0.0011304105357266962,-0.0018345767497085035
1772609970591534600,8.38453466796875,0.05286123709380627,0.0006625555619597435,-0.0031812695177737623
1772609970601532700,8.39453271484375,0.049123804131150244,0.00926072642877698,-0.014269668031437322
1772609970611530800,8.40453076171875,0.044787236231565476,0.00032050065863877534,-0.007924673785734922
1772609970621527600,8.414527587890625,0.06139876381456852,-0.0017123203432187436,-0.010598815765278413
1772609970631525600,8.424525634765626,0.05137596697211265,0.005732022579666227,-0.010127773320581764
1772609970641523700,8.434523681640625,0.04703998359441757,0.0016033070107921957,-0.0056256852615159
1772609970651521800,8.444521728515625,0.04808569325506687,0.0036678931240923703,-0.01407341480697505
1772609970661520000,8.454519775390626,0.06364566595852375,-0.004617375868652016,-0.014827027919562533
1772609970671517700,8.464517578125,0.046886254337429996,0.000039254298154264685,-0.014222513554617762
1772609970681515800,8.474515869140625,0.04928104051947593,-0.0015725648126564918,-0.014807638232503086
1772609970691513900,8.484513916015626,0.052124154990911484,-0.00572299902299419,-0.016226300258236005
1772609970701510700,8.4945107421875,0.041650107249617575,-0.005152012468315661,-0.006360931600350886
1772609970711508700,8.5045087890625,0.05287409657537937,0.0021275318142957985,-0.0046988801396451885
1772609970721506800,8.5145068359375,0.042997430205345154,-0.0037258338564075525,-0.012127185243181883
1772609970731504600,8.524504638671875,0.05811082818508148,-0.008236023023538291,-0.008710810061590746
1772609970741502700,8.534502685546874,0.0569160654425621,0.003347118470817804,0.0029957294835709033
1772609970751500800,8.544500732421875,0.04868424367010593,0.005406133359856903,0.00019070026651024817
1772609970761498600,8.55449853515625,0.04643792604804039,-0.002442315118201077,-0.010433131209015846
1772609970771496000,8.564495849609376,0.05137538245022297,-0.00836596954613924,0.0007552570804022252
1772609970781493800,8.57449365234375,0.053773675763607025,-0.00011189940925687551,0.004616636083135381
1772609970791491800,8.584491943359374,0.05272738158106804,0.000488075777888298,0.006648973027803004
1772609970801490000,8.594489990234376,0.04659340887069702,-0.007373487910069525,0.0034522867451887576
1772609970811487700,8.60448779296875,0.05078209273219108,-0.009534775863494724,0.006550545021472499
1772609970821485800,8.61448583984375,0.058713470253348346,-0.00805502216713503,0.0017558124250732362
1772609970831484000,8.62448388671875,0.06275543912053108,-0.002285937246400863,0.010181165741942822
1772609970841481700,8.634481689453125,0.05243336707055568,-0.007465075183659791,0.008317116302577778
1772609970851478800,8.644478759765626,0.055125674894452095,-0.004124623915646225,0.002933870627963915
1772609970861476600,8.6544765625,0.05871697738468647,-0.004059668920654803,-0.004723009933903813
1772609970871474700,8.664474609375,0.05812076505720615,-0.0012644852441735565,0.005757494947640225
1772609970881472800,8.67447265625,0.05213409186303615,0.005554327925201505,0.00009946918594650924
1772609970891470600,8.684470703125,0.05303250200748443,0.01063513832082972,-0.0017944182692561299
1772609970901468700,8.69446875,0.050936991032958026,-0.00403899145880714,-0.001566947922622785
1772609970911466800,8.704466796875,0.05033727157413959,-0.011929817773867398,-0.00878294371603988
1772609970921464600,8.714464599609375,0.0534784922093153,0.0012862221519462764,-0.010305696303909644
1772609970931462000,8.7244619140625,0.05078501534163952,0.006523227756284177,-0.00009212612970732152
1772609970941459700,8.734459716796875,0.0512345126748085,0.004156498624943197,-0.004498608327191323
1772609970951457800,8.744457763671875,0.059764440611004825,0.009056801354512572,-0.011246931809931993
1772609970961455900,8.754455810546874,0.06051029054224491,-0.007482428177259862,-0.008782925449730828
1772609970971453700,8.76445361328125,0.05108604411482811,-0.004905764355976134,-0.013367412828933447
1772609970981451800,8.77445166015625,0.04300678255558014,0.0059655390745960175,-0.012775575282471254
1772609970991449900,8.784449951171876,0.059169981849193566,-0.005220949518680572,-0.008133284168271348
1772609971001447700,8.79444775390625,0.055876785522699354,-0.0011626871038228272,-0.010165465849312022
1772609971011444700,8.80444482421875,0.048996962881088256,-0.004172372047509998,-0.0003139339205343276
1772609971021442600,8.814442626953126,0.048400166031718254,-0.004303907738998532,-0.008051898628287016
1772609971031440600,8.824440673828125,0.053639820250868796,0.004709986055549234,-0.01226497714552097
1772609971041438700,8.834438720703124,0.05917524254620075,0.005017718564160168,-0.010680931957624852
1772609971051436500,8.8444365234375,0.060224459338188166,-0.005934248887188733,-0.010704742091475055
1772609971061434600,8.8544345703125,0.04436638047099113,0.0010988646199926733,-0.015787717044726014
1772609971071432700,8.8644326171875,0.05200023635029793,0.0022483451823703945,-0.010258222166681662
1772609971081430800,8.8744306640625,0.05498948129415512,0.0019571802160702643,-0.007302057508518919
1772609971091427800,8.884427734375,0.048556817898154254,0.0024404702209867538,-0.009904860418057068
1772609971101425700,8.89442578125,0.05035480723083019,-0.0024417123300023375,-0.010145646903989836
1772609971111423700,8.904423828125,0.0490080687969923,-0.00005850698789581656,-0.005834578771842644
1772609971121421800,8.914421875,0.04766191488504409,-0.0026889650893397628,-0.003134781761234626
1772609971131419600,8.924419677734376,0.0530471150547266,0.002031195300351828,-0.008030024723196402
1772609971141417700,8.934417724609375,0.0603799421608448,0.004232924862019718,0.004465117049543187
1772609971151415800,8.944415771484374,0.04541618178486824,-0.002467193831130862,-0.00007749481615610421
1772609971161412600,8.95441259765625,0.043323593419790266,-0.006293565452564508,0.0014308821864891796
1772609971171410700,8.96441064453125,0.04676818091571331,0.006003021540772169,0.00026199367074295876
1772609971181408800,8.97440869140625,0.046616205224394795,0.0035684330713003872,-0.0045066546363290395
1772609971191406800,8.98440673828125,0.05304886862039566,0.00034590909453108905,0.00027447869298048315
1772609971201405000,8.994405029296875,0.05005670106709003,-0.003108323012571782,0.00192947022523731
1772609971211402800,9.00440283203125,0.048562078595161436,-0.005302380724437535,0.001290304672019556
1772609971221400800,9.01440087890625,0.058140054279565805,-0.005683726458530873,-0.008361768295057118
1772609971231399000,9.02439892578125,0.06277940451800823,-0.0035580212751403447,-0.003429736986663192
1772609971241395700,9.034395751953125,0.05275485410988331,0.0034130233138799666,0.00045637459852732715
1772609971251393800,9.044393798828125,0.05096037190854549,-0.0027637473586015404,0.0009206037099473178
1772609971261391600,9.0543916015625,0.0626326895236969,-0.005503693716507405,-0.00029069917541928587
1772609971271389700,9.0643896484375,0.05036065244972705,-0.0034834582015872,-0.009607283977279439
1772609971281387800,9.0743876953125,0.05245733246803284,0.003667272069584578,-0.008425216319551692
1772609971291385600,9.084385498046874,0.0599397971779108,-0.0011215879084542392,-0.004629239836381748
1772609971301383700,9.0943837890625,0.054549920833110804,-0.0012106726977042853,-0.017344107040716334
1772609971311381800,9.1043818359375,0.045720717689394945,-0.0038638723539188504,-0.005679890533629804
1772609971321378800,9.11437890625,0.04736497776508331,0.0016702530334703623,-0.009454303638963029
1772609971331377000,9.124376953125,0.045567572954297066,-0.002485697602201253,-0.007426396274240687
1772609971341374700,9.134374755859374,0.05858662900328636,-0.001484539469331503,-0.0007460508606396615
1772609971351372800,9.144372802734376,0.05215513465106487,0.0031428098040632902,-0.016334628604073077
1772609971361371000,9.154370849609375,0.05245733246803284,0.0007939451229758561,-0.004485447451518848
1772609971371368700,9.16436865234375,0.05171089801490306,0.0004928067519329488,-0.009701355468900873
1772609971381366800,9.17436669921875,0.05769698668718338,-0.0026597937937825914,-0.010735146362893282
1772609971391364900,9.18436474609375,0.05709785175025463,-0.005042213684599847,-0.0068827087184414265
1772609971401361700,9.194361572265626,0.04856909285783768,0.0009865268193185329,-0.0034254261377267537
1772609971411359700,9.20435986328125,0.04782090483903884,-0.0008100560075603425,-0.012700847812136635
1772609971421357600,9.214357666015625,0.0569464605808258,0.005995258359424769,-0.006990772202797234
1772609971431355600,9.224355712890626,0.05619885708391666,0.0006924940424971282,-0.010045684527698903
1772609971441353700,9.234353759765625,0.05335808070003986,0.0028898031573742627,-0.004233500250754878
1772609971451351600,9.2443515625,0.0599397971779108,-0.012464527438767253,-0.006295903540123254
1772609971461349600,9.254349609375,0.053802317336201666,-0.005038140297681093,0.0013295041712466627
1772609971471347700,9.26434765625,0.05754384195208549,-0.0017018172155134378,-0.014220869586803018
1772609971481344800,9.2743447265625,0.0553039540708065,-0.008474233959894627,-0.004565517817251384
1772609971491342800,9.2843427734375,0.0487204840272665,-0.004753971327748149,-0.0012855097658932208
1772609971501340700,9.294340576171875,0.05276069932878017,0.0010943345753476022,-0.010861375691602006
1772609971511338800,9.3043388671875,0.04811842648088932,0.0030475144697353243,-0.01037895333636552
1772609971521336800,9.3143369140625,0.056201195171475406,-0.004545589274074882,-0.0082850315307267
1772609971531334700,9.324334716796875,0.05709960531592369,-0.012375716644152998,-0.011329011469660326
1772609971541332700,9.334332763671876,0.05829787518978118,0.002909384640678763,-0.0010283658002037555
1772609971551330800,9.344330810546875,0.06353694488704204,-0.0016339761436916886,-0.003919849458010867
1772609971561327600,9.35432763671875,0.050072483158111566,-0.0007169160977005958,0.002638869736762717
1772609971571325700,9.36432568359375,0.049177580145001405,-0.0007117284659296274,0.002787064302107319
1772609971581323500,9.374323486328125,0.053822191080451005,-0.003784486974775791,-0.0013404730898328124
1772609971591321600,9.384321533203124,0.04918576345145702,-0.0018263569106347858,-0.003918826544703916
1772609971601319400,9.3943193359375,0.050532501885294914,-0.0014743651351891457,-0.00577103028264828
1772609971611317800,9.40431787109375,0.05711597192883491,-0.0017449257048778235,-0.00290733881406486
1772609971621315800,9.41431591796875,0.05262742833793163,-0.0029835275891236957,-0.0033838702846318482
1772609971631312600,9.424312744140625,0.06265723944306373,0.0021079868636094032,-0.0020833547458518295
1772609971641310700,9.434310791015625,0.05039046306610107,-0.007410605050064623,0.0016299027567729352
1772609971651308500,9.44430859375,0.04335866473317146,-0.0007186513970606029,-0.007469696559850126
1772609971661306600,9.454306640625,0.054583238580822944,0.003958875427301973,-0.00901368373199366
1772609971671304700,9.4643046875,0.05667816503345966,-0.00638343569310382,-0.0015494670648593454
1772609971681302500,9.474302490234376,0.04799976853728294,-0.011939243189338594,-0.003503724671481177
1772609971691300600,9.484300537109375,0.047102527436614035,-0.007318305390421301,-0.005883495947485789
1772609971701298700,9.494298583984374,0.05713292306363582,0.00511642969828099,0.00045139702931046484
1772609971711295500,9.50429541015625,0.05249591091275215,-0.009312255686614661,0.0027379279307555406
1772609971721293600,9.51429345703125,0.045313890454173084,0.0025150332945398984,-0.0005004420691169799
1772609971731291600,9.524291748046876,0.055638300591707227,0.00045623760120943186,-0.0010409969529137015
1772609971741289700,9.534289794921875,0.05548983203172683,-0.001181391804292798,-0.0039190548735670745
1772609971751287800,9.544287841796875,0.051152095088362694,-0.0018544870265759527,0.0010352704650256781
1772609971761285600,9.55428564453125,0.047862405893206596,0.002704527984652668,0.005116137437336146
1772609971771283700,9.56428369140625,0.055494508206844324,0.0005634791016578674,0.000001324307406321168
1772609971781281800,9.57428173828125,0.06312427243292332,-0.0037294505855999887,-0.005478449677396566
1772609971791278600,9.584278564453125,0.056691024515032766,-0.006018365240376442,-0.0069536550628021354
1772609971801276700,9.594276611328125,0.04651508293747902,-0.004606817942019552,-0.0019305205380078403
1772609971811274500,9.6042744140625,0.051750645503401756,-0.00035951749477535486,-0.006474401912186295
1772609971821272600,9.6142724609375,0.05818798507452011,-0.0021169190887361765,-0.0029888248187489807
1772609971831270700,9.624270751953125,0.0637257454574108,-0.0008685812617652117,-0.0027362108977045862
1772609971841268500,9.6342685546875,0.04098199872970581,-0.0019263466863892972,-0.008232159699173644
1772609971851266600,9.6442666015625,0.05145487742722034,-0.0018353074020706116,-0.005201240171212703
1772609971861264600,9.6542646484375,0.05594400554001331,-0.0026834669303148983,-0.009874638809729367
1772609971871262500,9.664262451171876,0.04651625198125839,-0.00039493586802855134,-0.005950862095272168
1772609971881259800,9.674259765625,0.057144613501429554,-0.00835239767851308,-0.0021616441464517265
1772609971891257600,9.684257568359374,0.04622165294885635,-0.007412212485261261,-0.0012852631707210092
1772609971901255700,9.694255615234376,0.05639467191696167,-0.00034556203465908766,-0.004725137958908453
1772609971911253800,9.704253662109375,0.06207564016282558,-0.0005765943115577101,-0.013770952128525823
1772609971921251600,9.71425146484375,0.04770984567999839,-0.0053457084095105524,-0.00859385088472627
1772609971931249700,9.724249755859375,0.050101124730706215,-0.004059595855418593,-0.009122596599720418
1772609971941247700,9.734247802734375,0.05578852271735668,0.002788534739986062,-0.005355754879489541
1772609971951244500,9.74424462890625,0.05608604435920715,-0.003200933199469,0.00003256882904097438
1772609971961242600,9.75424267578125,0.04935118314623833,-0.0058125770025886595,0.002300696424115449
1772609971971240400,9.764240478515624,0.0547375523597002,-0.006564089489635079,-0.003574853678932413
1772609971981238500,9.774238525390626,0.06251870775520801,-0.004429981804080307,-0.00546676837275736
1772609971991236600,9.784236572265625,0.0560837062716484,0.004336458301730454,-0.004293806470092386
1772609972001234400,9.794234375,0.05024783972501754,-0.009394764604605733,0.002810216848831624
1772609972011232500,9.804232421875,0.05518588064908981,-0.0037002792900428173,0.008221391709987074
1772609972021230600,9.814230712890625,0.058927989786863325,-0.003631652766931802,-0.00004032287723384797
1772609972031227600,9.8242275390625,0.05354395866096019,0.001181446603219956,0.002497543303621933
1772609972041225700,9.834225830078125,0.0538444029122591,-0.007492730375565588,0.00013290566466748715
1772609972051223600,9.8442236328125,0.04516659093797207,-0.01830698812296614,0.0073427731113974
1772609972061221600,9.8542216796875,0.05354571222662925,-0.003797894445620477,0.006503280946798622
1772609972071219700,9.8642197265625,0.05653787977993488,-0.008557126470375806,-0.004105471690604463
1772609972081217500,9.874217529296875,0.05623802005052566,0.004323598820157349,-0.004308108990080654
1772609972091215600,9.884215576171876,0.05025310042202472,-0.001999758982472122,-0.00944445809838362
1772609972101213700,9.894213623046875,0.06072714816331863,-0.011546170484833418,-0.0013335866913199424
1772609972111210500,9.90421044921875,0.054144847163558,-0.005612798380479216,-0.0060597018977627155
1772609972121208600,9.91420849609375,0.04172258796393871,-0.0035441936791874465,0.0007007321478798985
1772609972131206400,9.924206298828125,0.05429214667975902,-0.00899279620759189,-0.004087470243033022
1772609972141204500,9.93420458984375,0.061173138365149496,-0.004777206072863191,-0.012153972785407677
1772609972151202600,9.94420263671875,0.056384735044836994,-0.007193583032209426,-0.006982524964259937
1772609972161200600,9.95420068359375,0.04546294353604317,-0.007312350573670119,-0.0022662918310146778
1772609972171198700,9.96419873046875,0.056685763818025585,-0.005981321165617555,-0.0072392579379957165
1772609972181196800,9.97419677734375,0.054740474969148634,-0.005092354702949524,-0.012622914604563265
1772609972191193600,9.984193603515624,0.06461480325162411,-0.00610078282682225,-0.0034375914995558557
1772609972201191700,9.994191650390626,0.05728431423306465,0.005203030269499868,-0.011079694617399945
1772609972211189500,10.004189453125,0.05354278961718082,-0.004680504232738167,0.0002494629827328026
1772609972221187600,10.0141875,0.05174772289395332,-0.004963613756746053,-0.010881130704842507
1772609972231185700,10.024185546875,0.054441784283518785,-0.0063323082940652965,-0.0032656507324427364
1772609972241183500,10.03418359375,0.04741115499436855,-0.002461732204724103,-0.010558328491263091
1772609972251181600,10.044181640625,0.053096214893460274,-0.0012259067994542419,-0.010586367275658995
1772609972261179600,10.0541796875,0.05728840588629246,-0.012253935161698608,-0.006535475316504016
1772609972271176700,10.0641767578125,0.060131520357728,-0.004651351203490048,-0.00016917342129163442
1772609972281174800,10.0741748046875,0.04681961884200573,0.007570508319512009,-0.008379276552284137
1772609972291172600,10.084172607421875,0.04592588487267494,0.0008211071245372294,-0.010121772838057949
1772609972301170700,10.094170654296875,0.05430559068322181,-0.006323942324519157,-0.005861941702803596
1772609972311168800,10.104168701171876,0.04816986440718174,0.0026780053039081393,0.006542042054608464
1772609972321166600,10.11416650390625,0.05894494092166423,-0.004568586557172238,-0.00262366303447634
1772609972331164700,10.12416455078125,0.0496703320980072,-0.0023643727774731813,-0.0115220772231929
1772609972341162800,10.134162841796876,0.0456312858402729,-0.006237542682699859,-0.0033086952897254376
1772609972351159600,10.14415966796875,0.05056932676434517,-0.007304203799832612,-0.005400142010487616
1772609972361157600,10.15415771484375,0.0453349332422018,0.0005496515057049692,0.005191102369688451
1772609972371155500,10.164155517578125,0.05506196200847625,-0.0038729324432089924,-0.0022475779973901806
1772609972381153500,10.174153564453125,0.0565589225679636,-0.006057199413422495,0.004994794346299022
1772609972391151600,10.184151611328126,0.05476268680095672,-0.004199406184908002,0.010121096984622999
1772609972401149400,10.1941494140625,0.052819736039638514,-0.005105999635811894,0.004998749002208933
1772609972411147500,10.2041474609375,0.05087620075643062,-0.005593216897174715,-0.0019924615920055657
1772609972421145600,10.2141455078125,0.058954877793788905,-0.0027047471803613005,-0.00023221958698704838
1772609972431142700,10.224142578125,0.057010757988691325,-0.0012578911066055297,0.005583882813248783
1772609972441140700,10.234140625,0.055664019554853436,-0.0024664814450778066,0.0061636006636545055
1772609972451138600,10.244138671875,0.04608604387044906,-0.0036257892817258834,-0.0010429331816732882
1772609972461136600,10.25413671875,0.054316112077236176,-0.006339614817686378,-0.00034588169506751
1772609972471134700,10.264134765625,0.053119595769047734,-0.006706073509901761,-0.0014995909079909323
1772609972481132500,10.274132568359375,0.057608139359951016,0.006439641126058995,-0.0039500254005659366
1772609972491130600,10.284130615234375,0.05686345847249031,0.0010516644774004817,-0.003937704775109887
1772609972501128700,10.294128662109374,0.04968436062335968,-0.013266089612618088,-0.006499518087133765
1772609972511125500,10.30412548828125,0.043999300724267956,-0.004463737943209707,-0.00033834684258326884
1772609972521123600,10.31412353515625,0.05551964264810085,-0.0094954667664133,-0.0006511117193382233
1772609972531121400,10.324121337890626,0.053128363597393036,-0.008167049440555274,-0.0010275986152235418
1772609972541119500,10.334119384765625,0.05133154330849647,-0.006504997979849577,-0.0026066297012846914
1772609972551117600,10.34411767578125,0.05327683215737342,-0.004057696159277111,-0.002811084498511627
1772609972561115400,10.354115478515626,0.05627250684201717,-0.004617942124232649,-0.01142230664314702
1772609972571113500,10.364113525390625,0.05103577523231506,-0.0013428294437006114,-0.011123360229190438
1772609972581111600,10.374111572265624,0.045646483409404755,-0.0023371742432937025,-0.006441897015227005
1772609972591109600,10.384109619140625,0.05193067824542522,-0.003279953252431005,-0.006581159355444833
1772609972601107500,10.394107421875,0.058065819999575614,-0.0038760742483660575,-0.002505142088187858
1772609972611105500,10.40410546875,0.0459451740950346,-0.00716019221926108,-0.008314440288301557
1772609972621103600,10.414103515625,0.046993806365132326,-0.009865852715075016,-0.008110624811891466
1772609972631101400,10.424101318359375,0.04879238021969795,-0.0020345745675265786,-0.00652952963290736
1772609972641099500,10.434099609375,0.055526072388887404,-0.006192096105776727,-0.0027216709156986326
1772609972651097600,10.44409765625,0.051336219483613964,-0.0006622998336330056,-0.007971307672746479
1772609972661095400,10.454095458984375,0.04924129303097725,-0.003047222208790481,-0.006866287306603044
1772609972671093500,10.464093505859376,0.05253390483558178,-0.005374642243050038,0.005393273878283799
1772609972681090600,10.474090576171875,0.04924304659664631,-0.007379186998493969,-0.0009051869451068341
1772609972691088400,10.48408837890625,0.049992988181114195,-0.0019056692245416342,-0.003687145813833922
1772609972701086500,10.49408642578125,0.04849661214351654,-0.006517364271078258,-0.0055846408650744705
1772609972711084300,10.504084228515625,0.05702537103593349,-0.014153412107471376,0.0009369337902404367
1772609972721082400,10.514082275390624,0.05537994191646576,-0.008700115137640387,0.0012707323218695819
1772609972731080400,10.52408056640625,0.055529579520225525,-0.003632310354057699,0.00677724818312563
1772609972741078300,10.534078369140625,0.052388358885049814,-0.00248830968439579,0.0012786507668439298
1772609972751075600,10.54407568359375,0.05612871445715427,-0.012490045472513884,-0.00022812793375924227
1772609972761073700,10.55407373046875,0.04789747720658779,-0.0018190503870137034,0.0021561003216542304
1772609972771071500,10.564071533203125,0.04595043479204178,0.00010830094637349247,0.0005649404063820839
1772609972781069600,10.574069580078126,0.05208265393674373,-0.007492017989512533,0.0021570227702613918
1772609972791067400,10.5840673828125,0.053430561414361,-0.011304050558339804,-0.0024858345995191484
1772609972801065500,10.5940654296875,0.05537585026323795,-0.00806691353432834,-0.0003397350820712745
1772609972811063600,10.6040634765625,0.05941665008664131,-0.006718165806494653,0.0013211930006276815
1772609972821061400,10.614061279296875,0.051039866885542864,-0.005057082460168749,0.0027058796915225684
1772609972831059500,10.6240595703125,0.05538403356969356,-0.010777798194531351,0.0027731453746091574
1772609972841056500,10.634056396484375,0.0633165801346302,-0.006506185289938003,0.0020738653982989488
1772609972851054300,10.644054443359375,0.05613280611038208,-0.0021872626448981463,-0.004837694955291226
1772609972861052400,10.654052490234376,0.05478431411087513,0.0009153612792491912,-0.009818725637719034
1772609972871050500,10.664050537109375,0.07932078947424888,0.0021773075064644215,-0.008621853136504069
1772609972881048300,10.67404833984375,0.03472469190061092,0.002247084807045758,-0.006147836838942021
1772609972891046400,10.68404638671875,0.0353179816186428,-0.0007518412806093692,-0.007395051287906244
1772609972901044500,10.69404443359375,0.050128597259521485,-0.002924600476119667,-0.00311884440658614
1772609972911042600,10.70404248046875,0.06419102488160133,-0.0012896379517391323,-0.011709800081327557
1772609972921039600,10.71403955078125,0.03141922061443329,0.0018627981971949337,-0.0071302080729510635
1772609972931037400,10.724037353515625,0.050128597259521485,-0.00522025539893657,0.0018487605386879294
1772609972941035500,10.734035400390624,0.046994390887022015,-0.003432787460274994,-0.009664521456696093
1772609972951033600,10.74403369140625,0.06659983958899975,-0.001022657578624785,-0.0031670217967126515
1772609972961031400,10.754031494140625,0.059116205835342404,-0.004077204577345401,-0.004099270278681069
