time,seconds_elapsed,z,y,x
1772563609386198000,0.065197998046875,-0.012320552390813826,-0.010737667113542557,0.2390969254106283
1772563609396197000,0.075197021484375,-0.055771571582555766,-0.11882979304194449,0.17876608308851719
1772563609406195000,0.08519482421875,-0.1429959737882018,-0.16271628104150293,0.10179682517647742
1772563609416194000,0.095194091796875,-0.1910907271325588,-0.12881401143968105,0.08120937969982624
1772563609426192100,0.105192138671875,-0.18529782294481992,-0.06264262639582156,0.11447042878866195
1772563609436190000,0.11518994140625,-0.11936404604911803,0.011751228070259094,0.171131058165431
1772563609446188800,0.125188720703125,-0.06817191121131182,-0.004815291327238082,0.14541735571622846
1772563609456187100,0.135187255859375,-0.07697101147770881,-0.04103109856843948,0.08546002288162707
1772563609466185200,0.145185302734375,-0.06914426337480545,-0.06540507684648036,0.039536476096510884
1772563609476184000,0.15518408203125,-0.090314769436419,-0.1410807878166437,0.001404021579027176
1772563609486182100,0.16518212890625,-0.06388005923628806,-0.16615853044986723,-0.04719955807030201
1772563609496180000,0.175179931640625,-0.004972527715563774,-0.100395141685009,-0.04201894056200981
1772563609506179000,0.185178955078125,0.04387596660554409,-0.04524842400252819,-0.0093763156324625
1772563609516177200,0.19517724609375,0.02165712053477764,0.026540216401219365,0.05880348662436008
1772563609526175000,0.205175048828125,-0.029004268427193163,0.03455985672771931,0.11440087068378925
1772563609536174000,0.215174072265625,-0.039513679742813106,0.04969897367060184,0.15611352177560328
1772563609546172200,0.225172119140625,-0.012335749959945679,0.13048866665363312,0.16877309686243533
1772563609556170200,0.235170166015625,0.04873568159639835,0.12342881126999854,0.15526128886044024
1772563609566169000,0.245169189453125,0.03635872284322977,0.028130115941166878,0.16626374439001082
1772563609576167200,0.255167236328125,0.03359218073934316,-0.13734803102910517,0.05999708032310009
1772563609586166000,0.265166015625,0.15046557901650667,-0.6521405509293079,-0.21793431039452552
1772563609596164400,0.275164306640625,0.1464975521683693,-0.173341135430336,0.10502806218266486
1772563609606162200,0.285162109375,0.14054185863435267,-0.05235562565922737,0.12394669766426086
1772563609616161000,0.2951611328125,0.10799918694794178,-0.033491935235261915,0.2016828482955694
1772563609626159000,0.3051591796875,0.15974106462299822,0.12802432236671446,0.2928121489852667
1772563609636157000,0.315156982421875,0.938539910262823,-0.442567826166749,0.3438742277026176
1772563609646156000,0.325156005859375,0.38036709831953047,-0.5442103375643491,0.3702881873756647
1772563609656154000,0.335154052734375,-0.3732908763229847,-0.06910802301764488,0.28046996928453444
1772563609666152200,0.345152099609375,-0.7084460832580923,0.2333727025449276,0.051993222087621686
1772563609676151000,0.355151123046875,-0.6536892416760325,0.20679566126465795,0.2921183215022087
1772563609686149000,0.365149169921875,-0.7256053078517317,0.33920506684780116,0.1714718344271183
1772563609696147200,0.375147216796875,-0.967430781443417,0.41318566433787346,0.08946282878220081
1772563609706146300,0.385146240234375,-0.41934594053328034,-0.2923842789620161,-0.15238134950995444
1772563609716144000,0.39514404296875,-0.010841419748961925,-0.9654115505754947,0.3633849838584661
1772563609726143200,0.405143310546875,-0.6209507551565766,-1.3401590554475784,0.41735155184566974
1772563609736141300,0.415141357421875,-1.1305021595329046,-0.8948755405813456,0.37757308368682857
1772563609746139100,0.42513916015625,-1.7169734297215937,-1.1286235061794518,0.7939028912693261
1772563609756138000,0.435137939453125,-1.0926637195259332,-3.2710651587069033,1.6547323698639869
1772563609766136000,0.445135986328125,0.1809771832667291,-2.40384334872663,0.6288327405780554
1772563609776134000,0.4551337890625,0.47869522447213525,-2.8919197111368176,0.6272223827719688
1772563609786133000,0.465133056640625,0.3401228392798453,-3.4956729555159805,0.6318202319562435
1772563609796131000,0.475131103515625,0.11188801108002662,-2.645216402375698,0.6259364346146583
1772563609806129200,0.485129150390625,0.030681006000377237,-0.8583832544863224,0.18341303211152551
1772563609816128000,0.4951279296875,0.15004678734885527,0.05005962367653846,-0.40242227826118465
1772563609826126000,0.5051259765625,0.2457026072859764,-0.11241758791208266,-0.37148879533708096
1772563609836124200,0.515124267578125,0.8938742545843124,-0.48701837778985496,0.032117724272608755
1772563609846123300,0.525123291015625,1.4064800780951976,-0.7895628162384033,-0.13896189596652983
1772563609856121000,0.53512109375,1.2498469163596628,-1.3285153794050215,-0.3605331015586853
1772563609866119200,0.545119140625,1.2513923922359942,-1.3452496565848588,-0.8691045549869537
1772563609876118300,0.5551181640625,1.116584035752341,-1.6565706912070512,-0.41634734323918815
1772563609886116000,0.5651162109375,0.5256183767538517,-2.1244576675474645,0.1676408779621124
1772563609896115000,0.575114990234375,0.3011350831072777,-0.9346732979625463,0.24432372014820575
1772563609906113000,0.585113037109375,0.2034042652606964,0.3126952455848455,0.5399292992442846
1772563609916111000,0.595111083984375,-0.3046867111742496,0.3496984038114547,1.3241770579397678
1772563609926110000,0.60510986328125,-1.1626187878269703,-0.09851473476588725,2.095955211162567
1772563609936108000,0.61510791015625,-1.296928985530138,-0.328291458645463,2.3694687854379413
1772563609946106000,0.625106201171875,-0.894969648605585,-0.4966887079328298,2.6067612917751073
1772563609956105200,0.635105224609375,-0.8193466176707297,-0.8263011860489845,3.238798965874314
1772563609966103000,0.64510302734375,-0.6699439186453819,-1.3240280048578976,4.086457997250557
1772563609976101000,0.65510107421875,-0.40679453852865843,-1.913928664973378,4.712250639480352
1772563609986100200,0.665100341796875,0.04328969115018844,-2.337246431747079,5.043697931808233
1772563609996098000,0.67509814453125,0.8249614618778228,-1.8661369862288235,4.996805247730016
1772563610006096100,0.68509619140625,2.1055776105105877,0.07638590506613255,3.7404385742127895
1772563610016095200,0.69509521484375,3.482023784869909,2.8894512751966714,0.454591441437602
1772563610026093300,0.70509326171875,4.490528627240658,5.23952971598804,-2.6773084076851603
1772563610036091100,0.715091064453125,3.7000539568543434,7.319934306797385,-2.6584493934363125
1772563610046090200,0.72509033203125,2.5028946745872496,8.759044734862446,-2.666092017143965
1772563610056088300,0.73508837890625,1.9625801754176615,9.699990537223218,-4.497398513010144
1772563610066087200,0.745087158203125,1.74933840675354,10.156937601876258,-7.138480007538199
1772563610076085000,0.7550849609375,1.240779958937317,10.534620575678348,-9.696030401420593
1772563610086083000,0.7650830078125,0.8581424314677715,10.558668975263833,-10.47062945728302
1772563610096082200,0.775082275390625,1.6968787361979483,10.111340218305587,-10.872281335693597
1772563610106080000,0.785080078125,2.0621489492811262,9.33249051926136,-11.62350068501234
1772563610116078000,0.795078125,1.6539081939995288,6.871624722108245,-9.239835031917691
1772563610126077200,0.8050771484375,1.4453285719275473,2.618015676239133,-6.800723970454931
1772563610136075000,0.815074951171875,0.293856835732609,1.7819184878408907,-6.35728286858499
1772563610146073000,0.825072998046875,-0.9015911125719547,5.4745875951409335,-9.235805922532082
1772563610156072200,0.835072265625,-0.8491526309348643,6.0216077294290065,-9.175519503873586
1772563610166070300,0.8450703125,-0.20334815115928648,4.691556811019778,-9.68673065815568
1772563610176068000,0.855068115234375,-0.5253484007060527,1.9906337189912795,-7.8835028403043745
1772563610186067200,0.865067138671875,-1.7875225914582609,-2.1570909401267766,-3.797219030576944
1772563610196065300,0.875065185546875,-2.6005893251419065,-5.3515135886579746,-1.6750456745743751
1772563610206064000,0.885064208984375,-2.95484115447402,-7.142592119032144,-0.7199900983184576
1772563610216062000,0.89506201171875,-3.253454683214426,-7.084217671474814,-0.7342606157332658
1772563610226060000,0.90506005859375,-3.2940941521167755,-5.933688038435578,-0.9326134428232907
1772563610236059100,0.91505908203125,-3.1691222030580044,-5.758949311167002,0.009468085569143294
1772563610246057000,0.925056884765625,-3.05561594312638,-5.8023149901628495,0.6654419310510158
1772563610256055000,0.935054931640625,-2.770891239006817,-6.007206279110908,1.2052572485268116
1772563610266054100,0.94505419921875,-2.689837926651537,-6.136921623304486,2.0773066247940064
1772563610276052200,0.95505224609375,-2.703760653541982,-6.17947364782989,3.0686364604800938
1772563610286050000,0.965050048828125,-2.655664146631956,-6.125904554727673,4.128606701672077
1772563610296049200,0.975049072265625,-2.5692329406306147,-6.017045536080002,5.13497570105791
1772563610306047200,0.985047119140625,-2.456574821960926,-5.89112432347238,5.981790098303556
1772563610316045000,0.995045166015625,-2.295407816188037,-5.777926398837566,6.751990626946092
1772563610326044200,1.005044189453125,-2.1075065327465534,-5.70647152043283,7.499987507086992
1772563610336042200,1.015042236328125,-1.973784290999174,-5.502311468368768,8.156984850397706
1772563610346040300,1.025040283203125,-2.1345441772758957,-5.2327463394582265,8.604147018617391
1772563610356039200,1.0350390625,-2.372626957207918,-4.9650838292986155,9.074770141923427
1772563610366037200,1.045037353515625,-1.859282298028469,-4.554584919826686,9.473162726277112
1772563610376036000,1.0550361328125,-1.408150641655922,-4.218585078760981,9.437986783477664
1772563610386034000,1.065033935546875,-0.9727402860283851,-3.817516260935366,9.567642506438494
1772563610396032000,1.075031982421875,-0.6444446626644581,-3.3415161207661033,9.797817874246835
1772563610406031000,1.085031005859375,-0.45743630947470665,-2.906473721668124,10.07582233020067
1772563610416029200,1.095029296875,-0.05476852288669906,-2.4398729857459664,10.467917275714873
1772563610426027000,1.105027099609375,0.03363806570768356,-1.9671718871220945,10.75595680347085
1772563610436026000,1.115026123046875,0.09605039047896861,-1.5093714205101132,10.896841776454448
1772563610446024200,1.125024169921875,0.1795575257271528,-1.0954060039713978,10.976370655721425
1772563610456022300,1.135022216796875,1.3089391567975281,-0.6535647385135293,10.872990945267677
1772563610466021400,1.145021484375,0.35331425622105594,0.11851736609190702,10.442174931693076
1772563610476019500,1.15501953125,0.2406441548526287,0.9480186633564531,10.03692006035447
1772563610486017500,1.165017578125,0.1479840643990785,2.730200916700065,8.993291297632455
1772563610496016400,1.175016357421875,0.33880408483147617,5.208119263201952,6.790727477097511
1772563610506014500,1.185014404296875,-0.6154080263376236,6.618896746230125,3.7156244509518146
1772563610516013300,1.195013427734375,-2.656890473556518,9.189272134894132,-3.5309102731138466
1772563610526011400,1.205011474609375,-1.2623100920915602,18.043061438333986,-17.18507682777643
1772563610536009200,1.21500927734375,1.9422974119760095,26.612601253950594,-33.12363500683308
1772563610546008300,1.22500830078125,4.950034144204855,31.792989629662035,-47.73735561821461
1772563610556006400,1.23500634765625,6.312163039398193,28.607595506238937,-44.03060771667957
1772563610566004200,1.245004150390625,4.0554119938626885,16.5649482026577,-25.516388902032375
1772563610576003300,1.25500341796875,1.5997529715724288,9.579017302411794,-16.922100429606438
1772563610586001400,1.26500146484375,3.3460826980292797,7.391617148739099,-13.060090654689073
1772563610595999500,1.27499951171875,6.5896788350522515,4.1753515017122025,-14.707465063005685
1772563610605998300,1.284998291015625,9.5257416392982,-0.03274900791347027,-14.286660740357636
1772563610615996400,1.294996337890625,11.439896514242887,-2.01401985527575,-12.20286241545677
1772563610625994500,1.304994384765625,12.61165481327176,-3.6982144664674994,-8.074637991100548
1772563610635993600,1.31499365234375,12.732381964367628,-4.416914524975419,-2.6788082908540964
1772563610645991400,1.324991455078125,11.441000091570615,-4.023268550626933,1.784033288037777
1772563610655989500,1.334989501953125,9.204891728830336,-3.604187690770626,4.590826153770089
1772563610665988400,1.34498828125,6.773032830452919,-3.46593569663912,5.809218778201937
1772563610675986200,1.354986083984375,4.462064749300479,-3.352139513850212,6.510920940157771
1772563610685985300,1.3649853515625,2.668631180232763,-3.3621494512110948,6.882671601301431
1772563610695983400,1.3749833984375,1.4546902745127677,-3.495098955020308,7.19469055505991
1772563610705981400,1.3849814453125,0.6997358303189277,-3.746008775560558,7.762521422186493
1772563610715980300,1.394980224609375,0.04619710302948951,-3.9060841867044567,8.510517717805504
1772563610725978400,1.404978271484375,-0.46298225316405295,-3.7630274226397273,9.468424591839312
1772563610735976400,1.4149765625,-0.6782347771286964,-3.4543709310516713,10.306083038204907
1772563610745975600,1.4249755859375,-0.7769511719465255,-3.2446672733858226,10.600463459420203
1772563610755973400,1.434973388671875,-0.23713351638317107,-2.859967698819935,10.835298635733126
1772563610765971500,1.444971435546875,-0.4716396068722009,-2.49914496666491,11.13719951558113
1772563610775970600,1.454970458984375,-0.4352636406332254,-2.033470844068378,11.337842499434947
1772563610785968400,1.464968505859375,-0.4325719173312187,-1.4747612948998807,11.276923628091811
1772563610795966500,1.474966552734375,-0.32046646410822865,-0.8486592944599688,11.401873365318774
1772563610805965300,1.48496533203125,-0.21935586763024328,-0.05473597232396714,11.761316918075083
1772563610815963400,1.49496337890625,-0.14748422511816023,0.7365409086901694,11.705312706780433
1772563610825961500,1.50496142578125,-0.18915950334165244,1.5299626653790472,11.701294703310728
1772563610835960300,1.514960205078125,-0.3291536284327507,2.1542282441720366,11.199363418549298
1772563610845958400,1.52495849609375,-0.7343430333197116,2.7766923265010117,11.030589737164973
1772563610855957200,1.534957275390625,-1.2758593094944952,3.5618899332672354,10.983521696519851
1772563610865955300,1.544955322265625,-1.3931155696094035,4.1145875286698335,10.817495268017053
1772563610875953400,1.554953369140625,-1.3935633133769034,4.467412247808277,10.623328786700963
1772563610885952500,1.564952392578125,-1.5526783550560475,4.804005378592014,10.522909095096587
1772563610895950300,1.574950439453125,-1.8249463131844996,5.101812267124653,10.454697728657722
1772563610905948400,1.584948486328125,-2.0812357809364794,5.240375519162416,10.217260260891914
1772563610915947500,1.594947509765625,-2.139943990492821,4.94241548589468,9.613401218050718
1772563610925945300,1.6049453125,-2.2296903123915195,4.705182308529317,9.196086491084099
1772563610935943400,1.614943359375,-2.538957337093353,4.450515765804052,8.714885275140404
1772563610945942500,1.624942626953125,-3.487063532602787,3.423020976281166,7.197821838822961
1772563610955940600,1.634940673828125,-4.0264346134424205,2.594187641406059,5.180363241270184
1772563610965938400,1.6449384765625,-3.7782735070884224,1.8969789914771913,0.004247136050462723
1772563610975937300,1.654937255859375,-3.162795338124037,4.658315635675192,-12.752455615103244
1772563610985935400,1.664935302734375,-0.29791575573459267,14.502195003873108,-31.363840672516822
1772563610995933200,1.67493310546875,4.161533988761901,24.79929744776487,-47.94146130974293
1772563611005932300,1.684932373046875,5.503556499993801,27.61752999140024,-56.83495250897407
1772563611015930400,1.694930419921875,6.088287648516893,23.603211347687242,-47.73128126673698
1772563611025929500,1.704929443359375,4.455125305426121,14.471751934814453,-29.06708348754644
1772563611035927300,1.71492724609375,2.6540052735090254,6.918499870529771,-15.794003577649592
1772563611045925400,1.72492529296875,2.5485715531349182,2.6161060432255265,-11.23975738825798
1772563611055924500,1.734924560546875,7.039425174546241,-2.99178702955544,-13.551288948512077
1772563611065922600,1.744922607421875,14.218120872616767,-7.263105919638275,-17.21124704182148
1772563611075920400,1.75492041015625,19.596206241858006,-7.644044680365919,-15.280371333700417
1772563611085919500,1.76491943359375,20.054511150860787,-7.246593760776519,-8.595859082743525
1772563611095917600,1.77491748046875,16.748505611675977,-5.577440651372075,-1.7997551733046768
1772563611105915400,1.784915283203125,13.184237258839607,-3.041257455167174,3.259510329991579
1772563611115914200,1.794914306640625,8.492292909806967,-1.703421581970155,4.901977092522382
1772563611125912300,1.804912353515625,3.654201721739769,-2.3207009551376103,5.770526351714134
1772563611135910400,1.814910400390625,1.1668014072738586,-2.9994620942279693,6.430604709905386
1772563611145909200,1.8249091796875,-1.0206394437354058,-3.355650736841559,6.910213103699684
1772563611155907300,1.8349072265625,-2.8713492167949677,-3.800833421681821,7.402360661071539
1772563611165905400,1.844905517578125,-3.9208594387710094,-3.9928576302722094,8.213865844526886
1772563611175904300,1.854904296875,-4.1840591243028635,-3.8132381452247497,8.832450162813068
1772563611185902300,1.86490234375,-4.089513877689838,-3.352831587767601,9.616460605621338
1772563611195901400,1.8749013671875,-4.0071149959445,-2.635964005383849,10.498127705061435
1772563611205899500,1.8848994140625,-3.632656244885921,-1.4211186981700359,11.62258766182065
1772563611215897300,1.8948974609375,-3.7144635904788967,-0.020914485473930836,12.969603159034252
1772563611225896400,1.904896484375,-3.9182045403480528,0.5946636367335916,14.134212755352257
1772563611235894500,1.91489453125,-3.7746354428470132,0.6914527167506516,15.024662880706787
1772563611245892400,1.924892333984375,-3.646330549973249,0.8965173895042389,15.765990950608252
1772563611255891200,1.93489111328125,-3.1333743055894967,1.0704144052516669,16.10531525992155
1772563611265889300,1.94488916015625,-1.8835763429380952,0.8990347060874104,15.643793142437934
1772563611275887600,1.9548876953125,-0.23639570362791418,0.4090600357752293,13.779144933462142
1772563611285886200,1.96488623046875,0.10527356137633323,0.18639095194377003,10.910931092083453
1772563611295884300,1.97488427734375,-0.25915479405522346,-0.003991115462779998,9.186148449915647
1772563611305882400,1.98488232421875,-0.6224864402912557,-0.17991306116655467,8.235217260113359
1772563611315881500,1.994881591796875,-0.7517186771430074,-0.39849531407579775,7.552023399272561
1772563611325879300,2.00487939453125,-1.049963957092911,-0.7411191033259034,7.42815093588829
1772563611335877400,2.01487744140625,-1.3795628450751303,-1.2355264223232865,7.777479921865463
1772563611345876500,2.02487646484375,-1.805577595847845,-1.88762868706882,8.47712398224771
1772563611355874300,2.034874267578125,-2.222855790196359,-2.5429595584720373,9.220576204696297
1772563611365873400,2.044873291015625,-2.499450671613216,-2.8669810847133395,9.660312606829404
1772563611375871500,2.05487158203125,-2.6449042676866052,-2.637183902567625,9.459283254006504
1772563611385869300,2.064869384765625,-2.7508029752239582,-2.1007398150905967,8.596485690209269
1772563611395868400,2.074868408203125,-2.869706710284948,-1.5150051886133848,7.270218381991982
1772563611405866500,2.084866455078125,-2.827335887545347,-0.4517205621764064,5.9929556354403495
1772563611415864600,2.094864501953125,-2.870528255800903,1.1967309738524257,4.297969581121206
1772563611425863200,2.10486328125,-1.322169809770584,1.911289840902388,1.0990829389184713
1772563611435861200,2.114861328125,0.7670724597498774,3.593192834025621,-4.208416151446103
1772563611445859300,2.124859375,4.36307976667434,8.150142437157035,-12.428971849000453
1772563611455858400,2.1348583984375,11.133113707572221,15.976336997830867,-27.222138342428206
1772563611465856300,2.144856201171875,18.65000091153383,23.020354176342487,-42.62738108742237
1772563611475854300,2.154854248046875,21.780309692072866,19.962042125999925,-48.978351704120634
1772563611485853400,2.164853515625,17.53983719115257,9.166370567256212,-40.00275622217655
1772563611495851300,2.174851318359375,11.079221958386897,-0.1534273514315486,-24.002692311799525
1772563611505850400,2.184850341796875,7.951211517918109,-3.3398575399041173,-16.93679063373804
1772563611515848400,2.194848388671875,7.064254495376348,-2.0530086343616247,-16.06022056517601
1772563611525846500,2.204846435546875,6.085528705197572,-0.17179770538061856,-16.02806601602435
1772563611535845400,2.214845458984375,4.594969537185132,1.817679244790971,-15.222703573107719
1772563611545843500,2.224843505859375,3.5468612909615036,3.0183661166623232,-13.718147736185788
1772563611555841500,2.234841552734375,2.6272613512292504,3.045224312971532,-10.960573367130756
1772563611565840400,2.24484033203125,1.7294158549264071,2.145275122387707,-7.821699002820253
1772563611575838200,2.254838134765625,1.0145802167616784,1.096483570075035,-4.926913380858302
1772563611585836300,2.264836181640625,0.47817032381519675,0.012316752998530864,-2.1599387307733298
1772563611595835400,2.27483544921875,-0.05086027253493666,-1.120445460420847,0.4464057968944311
1772563611605833200,2.284833251953125,-0.40859029937162994,-1.9986296861812471,2.6642864290267227
1772563611615831300,2.294831298828125,-0.6726889795698225,-2.670790988615155,4.484534939783812
1772563611625830400,2.304830322265625,-0.9747159700155258,-3.1383143923401833,5.960387244790792
1772563611635828500,2.314828369140625,-2.426048750793934,-3.499172195808589,7.632673976045846
1772563611645826300,2.324826416015625,-3.966496569830179,-3.830705997376144,9.27689255068004
1772563611655825400,2.334825439453125,-4.509094211500883,-3.841309516716003,10.226528439974784
1772563611665823500,2.344823486328125,-5.839294182991981,-3.345777285341918,10.94057336615324
1772563611675822600,2.354822509765625,-6.512658723735809,-2.358931170941144,13.510297597432135
1772563611685820400,2.3648203125,-7.006812360233068,-1.2586577070638536,14.405004211187363
1772563611695818500,2.374818603515625,-7.850120795184373,0.23712167981490492,15.334833576250075
1772563611705817300,2.3848173828125,-7.330755560541153,1.7255625404991208,15.710896255373953
1772563611715815400,2.3948154296875,-7.220056466984748,3.45689080491811,15.841836172926426
1772563611725813500,2.4048134765625,-6.250210733354091,5.091161693772674,16.083369970095156
1772563611735812400,2.414812255859375,-4.273077716448903,5.2891667303383345,18.127625389158723
1772563611745810200,2.42481005859375,-1.8535440466374158,5.451568538603186,19.300159933257103
1772563611755808300,2.434808349609375,0.9611048663575201,5.566226014396548,16.82239502375126
1772563611765807400,2.444807373046875,3.516597670122981,4.434423001398146,12.643615301156043
1772563611775805400,2.454805419921875,6.388779246088862,3.104210462686419,9.122725486797094
1772563611785803300,2.46480322265625,8.611643511852622,1.5623830258600413,6.623826019325852
1772563611795802400,2.47480224609375,9.346882032707333,0.10954035197533667,4.888915950897336
1772563611805800400,2.484800537109375,8.963008387571573,-0.7753736204314976,4.520096667030454
1772563611815798300,2.49479833984375,7.548339742323756,-1.2473305496245621,4.99843898641169
1772563611825797400,2.50479736328125,5.6458098387211555,-1.5532801203414797,6.060839085099101
1772563611835795500,2.51479541015625,3.9853392174661155,-1.5682371587157249,7.252508537778258
1772563611845794600,2.524794677734375,2.5721780541718005,-1.3897308956071734,8.515062960019707
1772563611855792400,2.53479248046875,1.3800982671260833,-1.071782332604006,9.576761047917604
1772563611865790500,2.54479052734375,0.3060083516994491,-0.6237902894314378,10.403651432031392
1772563611875789300,2.554789306640625,-0.6006085166126489,-0.28465331938378513,10.836346098959446
1772563611885787400,2.564787353515625,-1.1755214509546756,-0.19544388084076345,10.704316632604598
1772563611895785200,2.57478515625,-1.522762524741888,0.000834112736582756,9.898684140574932
1772563611905784300,2.584784423828125,-2.520604518800974,0.0315907777890563,9.223364958631992
1772563611915782400,2.594782470703125,-3.183065388214588,0.10153919715359806,8.327640107744932
1772563611925780200,2.6047802734375,-2.783700159436464,0.5476635467581451,6.600161066100001
1772563611935779300,2.614779296875,-2.067653830307722,1.2088095341809093,3.766935535994172
1772563611945777400,2.62477734375,-0.9788942786134779,3.0529172055616973,-1.908756815293431
1772563611955775500,2.634775390625,1.4254010516643523,7.140636893311142,-12.004078211212157
1772563611965774300,2.6447744140625,5.888133324962854,13.529649948155878,-26.044158392405507
1772563611975772400,2.6547724609375,13.176837211716174,21.062374188196657,-44.71730403268337
1772563611985770500,2.6647705078125,22.230877869343757,25.046351469659804,-61.02052203783989
1772563611995769300,2.674769287109375,25.509779128503798,20.623865866553782,-57.970355884552
1772563612005767400,2.684767333984375,19.589100793766974,10.174498977530002,-39.83655092997551
1772563612015766300,2.694766357421875,11.12121517998576,2.683126446314156,-21.780410229837894
1772563612025764400,2.704764404296875,6.008547172325849,-0.24318273341953753,-13.945125769257544
1772563612035762400,2.714762451171875,2.6891063975065945,0.02172726316154003,-11.273264521062373
1772563612045761300,2.72476123046875,1.034798682795465,0.6740922704964876,-9.563155131891369
1772563612055759400,2.73475927734375,0.9092752373337745,0.49240211665481326,-8.682242065688968
1772563612065757200,2.744757080078125,0.6159362879954278,-0.20916385170072316,-6.841615952813625
1772563612075756300,2.75475634765625,0.5059424200989305,-0.9872814370781182,-4.877748660194873
1772563612085754400,2.76475439453125,0.6158629304982721,-1.5190765297055244,-2.6374270636737345
1772563612095752400,2.77475244140625,0.7795907997351139,-1.7402704264178872,-0.24418986463546752
1772563612105751300,2.784751220703125,0.8746656962454319,-2.1974437010422347,1.7557020965665577
1772563612115749400,2.794749267578125,0.9381259956996887,-2.798211499869823,3.401478422036767
1772563612125747500,2.80474755859375,0.9432032258987426,-3.321545345883071,4.908238491004705
1772563612135746600,2.81474658203125,0.8072878580212592,-3.75481605913341,6.390158133226633
1772563612145744400,2.824744384765625,0.396160879778862,-4.015865873154998,7.851940996348858
1772563612155742500,2.834742431640625,-0.14346501607205717,-4.02665906984806,9.121823569521307
1772563612165741600,2.844741455078125,-0.8292179502785205,-3.8002795871913433,10.198727409857511
1772563612175739400,2.854739501953125,-1.4730021762728691,-3.3616298112511633,11.115167716515064
1772563612185738200,2.86473828125,-1.9421616567671298,-2.97690393320024,11.555553522467612
1772563612195736300,2.874736328125,-2.0152035121023655,-2.4607196666806934,11.848002683359384
1772563612205734400,2.884734375,-1.9203940615952013,-2.5055560027509927,14.71166894443631
1772563612215733200,2.894733154296875,-2.0636358268380164,-3.440214395405352,19.05015758295059
1772563612225731300,2.9047314453125,-2.2631085978686807,-2.4542963556349275,18.347188177537916
1772563612235729400,2.9147294921875,-2.420563597381115,-1.2300775092676282,17.868422664308547
1772563612245728500,2.924728515625,-1.855761138164997,0.5721593247849494,14.750287136644124
1772563612255726300,2.934726318359375,-1.5133318485736846,1.9036520395003258,12.603138329339027
1772563612265724400,2.944724365234375,-1.6596937916636465,2.4493312805734573,12.742011377978324
1772563612275723500,2.9547236328125,-2.3018659062862397,3.025658611758053,13.104265311980246
1772563612285721300,2.964721435546875,-2.9410312403082846,3.8331571899205445,13.479743469214439
1772563612295719400,2.974719482421875,-3.1078713232815263,3.607734277336299,14.154354210627078
1772563612305718500,2.984718505859375,-3.21049641597569,2.46312234390825,14.708396790897845
1772563612315716400,2.99471630859375,-3.101230570092797,1.722964340699464,13.993030845248699
1772563612325714400,3.00471435546875,-2.7766870658040044,1.3315168993085622,12.763217832136153
1772563612335713300,3.01471337890625,-2.202262791761756,1.0439063375543802,11.880034482914208
1772563612345711400,3.02471142578125,-1.622553270792961,0.8829499788574874,11.37625727802515
1772563612355710200,3.034710205078125,-1.0972282509624958,1.0160325344618408,10.505668037438392
1772563612365708300,3.044708251953125,-0.6861760915219783,1.0181219079565256,9.013262657037377
1772563612375706400,3.054706298828125,-0.28417408449947834,0.3956905588533729,7.82232093411088
1772563612385705500,3.06470556640625,-0.013616437420248985,-0.44709085654914377,7.044550262475013
1772563612395703300,3.074703369140625,0.18880232393443583,-0.7919950118213892,6.101279232037067
1772563612405701400,3.084701416015625,0.3175479463130235,-0.7145645661383867,5.113517902487516
1772563612415700500,3.094700439453125,0.13559972605705262,-0.2124842282950878,4.284628453510999
1772563612425698300,3.1046982421875,-0.15615389031860977,0.0060616381265223025,2.147597135594487
1772563612435696400,3.1146962890625,0.4914016343753785,0.8215659742206335,-4.412490863314271
1772563612445695500,3.124695556640625,2.482860771340132,5.771627590954304,-14.602379717677831
1772563612455692800,3.13469287109375,6.960856080222129,13.553552217268942,-25.426861191320416
1772563612465691000,3.14469091796875,13.480983824664353,19.879902771973608,-35.73972585248947
1772563612475690000,3.15468994140625,20.14700823277235,21.40849765613079,-41.52553862066269
1772563612485687800,3.164687744140625,24.758154120993613,15.845153919172287,-43.31026164453029
1772563612495686000,3.174685791015625,23.60114681637287,7.161490880769491,-39.67274919178486
1772563612505684700,3.184684814453125,16.624619704288243,1.452695885825157,-27.198002264559268
1772563612515682800,3.194682861328125,11.261536673867703,1.586241601961851,-19.625855530190467
1772563612525681700,3.204681640625,7.989063986450433,2.9897157762393354,-16.577075862824916
1772563612535679700,3.2146796875,5.7577539639025925,3.777026429636776,-15.021027154552936
1772563612545677800,3.224677734375,4.439281255084276,3.8869957476139065,-13.656668892872332
1772563612555677000,3.234677001953125,2.8401801715493202,3.1286323717594144,-10.774760872662068
1772563612565674800,3.2446748046875,1.828787498782575,1.5126640323147176,-7.663240963745117
1772563612575672800,3.2546728515625,0.9506880286961793,0.20401801324486732,-4.4836692628651855
1772563612585672000,3.264671875,0.3549541323825717,-0.6637225599125027,-1.9267752870649097
1772563612595669800,3.274669677734375,-0.07314034727364778,-1.3713272239103913,0.17744097196459768
1772563612605667800,3.284667724609375,-0.3909082199476659,-1.9964429897919296,2.048557500171661
1772563612615667000,3.2946669921875,-0.5260429588414728,-2.4151962251290677,3.5153117219656704
1772563612625665000,3.3046650390625,-0.5942167697489261,-2.7633263567104933,4.856759648180008
1772563612635662800,3.314662841796875,-0.6500621372200548,-3.091531306116283,6.135064012739062
1772563612645662000,3.324661865234375,-0.8958569528341292,-3.3496336685091257,7.404330499839782
1772563612655660000,3.334659912109375,-1.2250748786747454,-3.5739690781176088,8.64057325373888
1772563612665657900,3.344657958984375,-1.7547465494073926,-3.648935764035582,10.129747981655598
1772563612675656700,3.35465673828125,-3.916108152590692,-4.407465728628635,14.662455708456038
1772563612685654800,3.36465478515625,-5.551210231572389,-5.245942505639791,18.72680124261975
1772563612695652600,3.374652587890625,-6.196163501346111,-4.843860711379349,22.072596355879305
1772563612705651700,3.384651611328125,-8.365742167124152,-1.5413621574021874,19.104401214313505
1772563612715649800,3.39464990234375,-8.695787191438674,1.5333718893006443,15.772203249251842
1772563612725649000,3.40464892578125,-7.439109552276134,2.3155543860293926,14.490487030422686
1772563612735646700,3.414646728515625,-5.972479833644628,2.841646444709599,13.064508471131324
1772563612745644800,3.424644775390625,-4.814720833873748,2.943822624592483,11.815164243596792
1772563612755644000,3.434643798828125,-4.554580243651569,2.7268179962635037,11.174869613283873
1772563612765642000,3.44464208984375,-4.7980409172296525,2.027776870210469,10.807421617770194
1772563612775639800,3.454639892578125,-4.123409133028984,1.1557317317269742,10.274178664422035
1772563612785639000,3.464638916015625,-3.1634406502902506,0.46006271245554087,9.20050606109202
1772563612795637000,3.474636962890625,-2.451409986543655,0.36538397565595804,8.685905264371634
1772563612805634800,3.484634765625,-1.9429039995670316,0.7749349367532878,8.103167920014261
1772563612815633700,3.494633544921875,-1.258819327366352,1.323999363285303,7.969955965876578
1772563612825631700,3.5046318359375,-0.6903613413173705,1.1247224801529199,7.769402413871884
1772563612835629800,3.5146298828125,-0.3246141583722085,0.23903825402595102,7.594955363026261
1772563612845628700,3.524628662109375,0.03029825376048684,-0.9849581086970866,7.765950227591395
1772563612855626800,3.534626708984375,0.10009002125859259,-2.1227070244878528,8.029169786867499
1772563612865625900,3.5446259765625,-0.16854586397781968,-2.608749250721931,8.150583751183747
1772563612875624000,3.5546240234375,-0.3919008842468262,-2.7065292414724826,8.279559675186873
1772563612885621800,3.564621826171875,-0.6570901361607014,-2.6127473804473875,8.395699498492478
1772563612895620900,3.574620849609375,-1.114500726672262,-2.448387131591141,8.355627600345015
1772563612905619000,3.584618896484375,-1.559491834463179,-2.2141469985619184,7.941081169047951
1772563612915616800,3.59461669921875,-1.8340856051906942,-2.0127296693347394,7.106668572735786
1772563612925615900,3.604615966796875,-2.2760578035518524,-1.4502711428962647,6.488466531765461
1772563612935614000,3.614614013671875,-2.516167705397308,-0.29782749292925,5.302940404146909
1772563612945612000,3.624612060546875,-1.7800655534505843,1.0695198675647377,2.533606623715162
1772563612955611000,3.63461083984375,-1.2853086903631687,4.0444980933994055,-2.9296833323419094
1772563612965609000,3.64460888671875,0.3397454573348164,7.434192554140091,-10.801978549933432
1772563612975607000,3.65460693359375,2.2696236788511275,11.92167816042304,-19.199851300811765
1772563612985606000,3.66460595703125,6.166628779304027,17.68172871083021,-30.268902578318116
1772563612995603700,3.674603759765625,20.04833158544302,21.92071886423826,-44.67052357680797
1772563613005601800,3.684601806640625,29.77832738482952,21.25409736801386,-56.74585734446048
1772563613015601000,3.694600830078125,23.839005139899253,12.166039874494075,-49.16200380568504
1772563613025598700,3.7045986328125,13.822455667400359,2.9114333899021148,-29.24667199293375
1772563613035597800,3.714597900390625,7.890453974616527,1.0556836499139666,-18.294429231774807
1772563613045596000,3.724595947265625,4.64097404025197,2.028170253442228,-13.985434398770332
1772563613055593700,3.73459375,2.7473078265845774,3.3330075278788804,-12.967735027074813
1772563613065592800,3.7445927734375,1.832018881919235,3.46173999851495,-12.157014856517314
1772563613075591000,3.7545908203125,1.2302747854053973,2.5556483596533535,-10.16398225969076
1772563613085589000,3.764589111328125,0.793939570017904,1.3032535123765467,-7.501264102894067
1772563613095587800,3.774587890625,0.3231038268744945,-0.12627046443670986,-4.321107880124449
1772563613105586000,3.7845859375,-0.0673589873932302,-1.4220052717462182,-1.1266250258386135
1772563613115584000,3.794583984375,-0.2898642589651048,-2.3939584990501404,1.5433569844812154
1772563613125582800,3.804582763671875,-0.43253575003929434,-3.077190353813767,3.6532530427128074
1772563613135580700,3.81458056640625,-0.37239305070042605,-3.529102346909046,5.282372832414508
1772563613145578800,3.824578857421875,-0.1862017860472202,-3.8089620753407476,6.635143532153964
1772563613155577900,3.834577880859375,0.09450783721208572,-4.01577673356682,7.760508913320303
1772563613165575700,3.84457568359375,0.3546481351733207,-4.089317770595848,8.715232481142879
1772563613175573800,3.85457373046875,0.5667161838829518,-4.116430526188016,9.451320312303304
1772563613185572900,3.86457275390625,0.6198153213858604,-4.210015111075341,9.815354699981212
1772563613195571000,3.874571044921875,0.5274690461218356,-4.292779611262679,10.096156677699089
1772563613205569800,3.88456982421875,0.43183892688155173,-4.2967227959305045,10.32334864578247
1772563613215568000,3.89456787109375,0.05075051028383896,-4.084289421039819,10.700302136266231
1772563613225566000,3.90456591796875,-0.5848222974052653,-3.5537960586607453,11.097311741828918
1772563613235565000,3.91456494140625,-1.4081295988678932,-2.8405542655587195,11.576460701417922
1772563613245563000,3.92456298828125,-2.413572715580463,-2.2112262888096272,12.143815183204412
1772563613255561000,3.93456103515625,-3.5291643062293527,-1.4969532529637217,12.44042964708209
1772563613265559800,3.944559814453125,-4.446963041758537,-0.7705953001137822,12.542373771774768
1772563613275557600,3.9545576171875,-3.7212066349983215,-0.04973141463547945,12.316693377298115
1772563613285555700,3.9645556640625,-2.475088968294859,0.7171778173767029,11.905018117523193
1772563613295554800,3.974554931640625,-3.5597336320161816,1.3479272052310407,13.177204291462898
1772563613305552600,3.984552734375,-3.2494249893069265,1.9065727492526172,13.562313031351566
1772563613315550700,3.99455078125,-2.0198925467014313,2.4493032235227523,13.701833730244635
1772563613325549800,4.0045498046875,-1.9681027382314205,2.7486837911128994,13.151983340966702
1772563613335548000,4.0145478515625,-2.2874691321432588,2.874522293873131,12.619315557157993
1772563613345545700,4.024545654296875,-2.342066983771324,2.982836538119614,12.439115641874075
1772563613355544800,4.034544921875,-2.1344038920223714,2.9791224860325456,11.828686572992801
1772563613365543000,4.04454296875,-1.7789701594293117,2.9447090520381924,11.24141743042469
1772563613375542000,4.0545419921875,-1.67348850826025,3.124796739119291,11.16441017858982
1772563613385539800,4.064539794921875,-1.599774452751875,3.4553520510435103,11.181132180809975
1772563613395538000,4.074537841796875,-1.2635796736359595,3.545011279180646,10.945495040464401
1772563613405536800,4.084536865234375,-1.0450146641224622,3.2576065421968696,10.230524231612682
1772563613415534800,4.094534912109375,-1.345439626199007,2.9599031140387058,9.66391793784499
1772563613425533000,4.104532958984375,-1.606743707242608,2.7839883287280798,9.17607187705934
1772563613435531800,4.11453173828125,-1.6249731914162635,2.4710715493470428,8.782093602016568
1772563613445529900,4.12452978515625,-2.031692874610424,1.2308419177688656,8.274925585645438
1772563613455529000,4.134529052734375,-2.1394424707114696,1.474821354524046,5.891505431744456
1772563613465527800,4.14452783203125,-0.6079786800544709,1.573401117350161,3.2107717257857322
1772563613475526000,4.15452587890625,1.2157858029343187,-0.8907084840297699,-1.3360066119432448
1772563613485524000,4.16452392578125,4.878826518559456,2.446276423047483,-10.503319428485632
1772563613495523000,4.174523193359375,10.75424064720273,8.287063767206668,-24.701806210827826
1772563613505521000,4.18452099609375,19.809467884266375,12.408978862285613,-45.136378170537945
1772563613515519000,4.19451904296875,30.22188597559929,13.830525576609372,-64.06907023453712
1772563613525517800,4.204517822265625,31.86289610958099,9.773366739079355,-67.57871267869471
1772563613535516000,4.214515869140625,20.551233176541327,0.45276612570658326,-47.12331771118641
1772563613545514800,4.2245146484375,10.658720418077706,-7.409775321242213,-27.1093139272809
1772563613555512800,4.234512939453125,5.217873764497042,-8.766171225741505,-17.38358747577667
1772563613565511000,4.244510986328125,3.0218457754716277,-6.836580881255864,-14.6103444129467
1772563613575509800,4.254509765625,3.34240722438693,-4.564568261441588,-12.653625823038816
1772563613585507800,4.2645078125,2.651987796206772,-3.472739823696017,-9.820062439280747
1772563613595506000,4.274505859375,1.0788134733498096,-1.7982058980360627,-7.185221884968876
1772563613605505000,4.284505126953125,0.10379837425723672,0.013818681994080543,-5.110614582261443
1772563613615502800,4.2945029296875,-0.3036999651592225,1.083740189162269,-2.649080092066526
1772563613625501000,4.3045009765625,-0.3825520411431789,1.3577210156232118,-0.29979835461080073
1772563613635500000,4.3145,-0.7389958275616169,1.3317775960713625,2.2633517589747902
1772563613645497900,4.324497802734375,-1.4523486798226832,1.367820530963689,5.065960617020726
1772563613655496000,4.334495849609375,-2.30909629593119,1.2861561009727418,7.936982501557469
1772563613665495000,4.3444951171875,-4.083735294288396,0.9733985307414084,12.170933491754532
1772563613675492900,4.354492919921875,-5.541580817961693,0.6798819598138331,15.106320588696002
1772563613685491000,4.364490966796875,-5.83220977768898,0.9027250119727105,14.542130708420276
1772563613695489800,4.37448974609375,-4.942081139373779,1.3772418547816574,12.470595652765034
1772563613705488000,4.38448779296875,-4.715664831838011,2.002429809116572,11.688611747348308
1772563613715485700,4.394485595703125,-5.105313553243875,2.5060239125236867,11.802434525883196
1772563613725484800,4.40448486328125,-5.246940869027376,2.9246152352973818,12.467440403604506
1772563613735483000,4.41448291015625,-5.221074606364965,3.2398066816121336,13.61176592130661
1772563613745482000,4.42448193359375,-5.189891532593966,3.474694757156074,15.041137045645712
1772563613755479800,4.434479736328125,-4.3485283864915365,3.462795352786779,15.930307068061827
1772563613765478000,4.444477783203125,-3.805943604302406,3.0041952602297064,15.91694957383871
1772563613775477000,4.45447705078125,-3.2823066836893555,2.3452836077302694,15.134734197753668
1772563613785474800,4.464474853515625,-2.421021862542629,2.218952937538922,13.80553726582527
1772563613795473000,4.474472900390625,-1.7579801245011388,2.212216615021229,12.132247495007514
1772563613805472000,4.484471923828125,-1.4521009886719285,1.820730449055135,10.496471170026064
1772563613815470000,4.494469970703125,-1.1255284627735613,1.2156276897631584,9.138688779604434
1772563613825468000,4.504468017578125,-0.9462697738625109,0.6504124119624495,8.398314649426936
1772563613835466800,4.514466796875,-0.7764274403333663,0.3479749410197139,8.136604910191894
1772563613845464800,4.52446484375,-0.5821534069895744,0.04043026486476883,8.105656814220547
1772563613855463000,4.534462890625,-0.3469617453891784,-0.3607406798947602,8.176989527550338
1772563613865461800,4.544461669921875,-0.2887537404399365,-0.5317120539864525,8.15291073282659
1772563613875459800,4.5544599609375,-0.33342071129269896,-0.5160596172265708,7.876925215479731
1772563613885458000,4.5644580078125,-0.4203508067268878,-0.4360289259172976,7.638042225080728
1772563613895456800,4.574456787109375,-0.5353461361724883,-0.29850731015326454,7.543840092816948
1772563613905454800,4.584454833984375,-0.6957387235067785,-0.1822375951239839,7.635677249515056
1772563613915454000,4.594453857421875,-0.6808722860254347,-0.05807400330603122,7.841794280865788
1772563613925452000,4.6044521484375,-0.9003519261658192,0.058888863352872425,7.915932699266076
1772563613935449900,4.614449951171875,-0.8401578619658947,0.12820038218651897,7.9667276514798395
1772563613945449000,4.624448974609375,-0.7601930754996836,0.25060484624430535,7.8183315722137685
1772563613955447000,4.634447021484375,-0.6909913828492165,0.6581503127381205,6.843736598229408
1772563613965444900,4.64444482421875,-0.32465777831822634,1.0864144498728214,5.37343666665256
1772563613975444000,4.65444384765625,0.11458967125415802,1.7499724668733774,2.5359096399605274
1772563613985442000,4.664442138671875,1.20149292755723,1.695126631833613,-2.5285055011838673
1772563613995439900,4.67443994140625,3.084221859885752,2.523554893039167,-10.068847815012932
1772563614005438700,4.684438720703125,5.557862090677022,5.711631095153093,-19.620557423782348
1772563614015436800,4.694436767578125,7.407809574127197,7.535857277369499,-27.182138340473173
1772563614025435000,4.704434814453125,15.4713813968122,11.551803230023383,-41.742494441413875
1772563614035433700,4.714433837890625,23.03683301745653,14.242857838988304,-63.88097109043598
1772563614045431800,4.724431884765625,20.834099685573577,8.300362809240818,-64.98156969461441
1772563614055430000,4.734429931640625,12.745019327622652,3.276242853605747,-44.11901080727577
1772563614065429000,4.744428955078125,3.576917114268243,1.4469851069629192,-20.2444199747324
1772563614075426800,4.7544267578125,0.926065044093132,0.03505100124552846,-12.216194190716744
1772563614085426000,4.764426025390625,-0.04900163905620575,-0.40833588621914385,-10.232476534724235
1772563614095424000,4.774424072265625,-0.2379296351969242,-0.13515782750844954,-10.882669458717107
1772563614105421800,4.784421875,-0.07881225543022155,-0.4874757661685347,-10.721538985562324
1772563614115421000,4.7944208984375,-0.13632351028695702,-1.3879291068822144,-7.8542574565976855
1772563614125419000,4.8044189453125,-0.26369536009430883,-2.199369408407807,-4.701626954135299
1772563614135417000,4.8144169921875,-0.2721357100509107,-2.6922648615375158,-2.1075299136221406
1772563614145415700,4.824415771484375,-0.09204583101272583,-2.8228736474394798,0.3940525093227625
1772563614155413800,4.834413818359375,0.3835457283556461,-2.902247920666635,2.5536305900901555
1772563614165411800,4.844411865234375,0.8648679403305053,-2.9361607116624713,3.977746278119087
1772563614175411000,4.854410888671875,1.3078975387901066,-2.747488151587546,5.17143759201467
1772563614185408800,4.86440869140625,1.606363183492422,-2.634093827597797,6.647536565259099
1772563614195406800,4.87440673828125,1.8597797261565923,-2.5914675687924027,7.863215839079022
1772563614205406000,4.884406005859375,1.9354016611129043,-2.3755130340382453,8.688972835248709
1772563614215403800,4.89440380859375,1.825011195114255,-2.0509325587399303,9.615683191508055
1772563614225401900,4.90440185546875,1.6984529997773468,-1.7822218547016382,10.27556865747571
1772563614235401000,4.91440087890625,1.6331962453603743,-1.490716112139821,10.49145947934389
1772563614245399000,4.92439892578125,1.4471014268189668,-1.130954287214577,10.569925697815417
1772563614255396900,4.93439697265625,1.1034387960404157,-0.6848933582350611,10.808442192989586
1772563614265396000,4.94439599609375,0.9367488621275871,-0.2538710449660197,11.096660584443807
1772563614275394000,4.95439404296875,0.7062602636516094,0.12606533378604798,11.475507925850152
1772563614285393000,4.964392822265625,0.2521288592074998,0.5090267594477161,11.56519813364744
1772563614295390700,4.974390625,-0.2879354828596115,0.9643236092083155,11.694356428480148
1772563614305388800,4.984388916015625,-1.0648165121793747,1.4063368702322243,12.809722393679618
1772563614315388000,4.994387939453125,-1.2668868984878063,1.9334438050433993,14.710536141014098
1772563614325385700,5.0043857421875,-0.8029742326058447,2.088405526435375,15.686624568426607
1772563614335383800,5.0143837890625,-0.16697452300786972,2.1116560536414384,16.329350809800623
1772563614345383000,5.0243828125,-0.3397767292559147,2.139826647723466,15.72780179746747
1772563614355380700,5.034380615234375,-1.5832685775004327,2.2261102619476616,13.71212131550312
1772563614365378800,5.04437890625,-2.939773641462624,2.1320884546868504,12.87456457594633
1772563614375378000,5.0543779296875,-4.174752366775274,1.1951738075383007,18.323462434035537
1772563614385376000,5.0643759765625,-4.980636203217506,1.0403463800504804,19.470303733950853
1772563614395373800,5.074373779296875,-4.238741439343989,2.301717876117676,13.215532560813426
1772563614405373000,5.084373046875,-3.9534550096884367,2.6873811811491843,10.450030905890465
1772563614415371000,5.09437109375,-3.994381771099567,2.6938328415066004,9.433664244103431
1772563614425368800,5.104368896484375,-4.228315906919539,2.830499320012331,8.957515050852297
1772563614435368000,5.114367919921875,-4.583901615203917,2.7877947352737187,8.581568107062578
1772563614445366000,5.124365966796875,-4.629734561096131,2.823734063661098,8.458754797342419
1772563614455364400,5.1343642578125,-4.678819494521617,2.85788796993643,8.461022742274404
1772563614465362400,5.144362548828125,-4.671300204932689,2.6817309003025294,8.516416128194331
1772563614475360300,5.1543603515625,-4.601403369624912,2.427890433137864,8.580790108427404
1772563614485359000,5.164359130859375,-4.599410734502971,2.2889773447491226,8.477418581280112
1772563614495357200,5.174357177734375,-4.461529034988581,2.21041365725249,8.211054294237494
1772563614505355300,5.184355224609375,-4.0730820905879135,2.3265178247228264,7.428610370093583
1772563614515354000,5.19435400390625,-3.5345419076144693,2.88566708048284,5.214167311194538
1772563614525352200,5.204352294921875,-3.222060304780304,3.0632170657798645,0.5507727648198604
1772563614535350300,5.214350341796875,-3.968410294497013,0.6138211224723606,-5.1073675631642335
1772563614545349400,5.224349365234375,0.762135734000057,5.2139340869605535,-21.193208891808986
1772563614555347200,5.23434716796875,9.37184053287506,18.322587989288568,-54.93335784039497
1772563614565345300,5.24434521484375,12.505634232920407,27.402201479589937,-69.92065340573787
1772563614575344400,5.254344482421875,9.593754268294573,25.83374921681881,-68.59949364979266
1772563614585342200,5.26434228515625,7.288799748343229,12.591453736764192,-60.69908176026344
1772563614595340300,5.27434033203125,5.092278715103864,-0.4725643205016851,-27.662750942873952
1772563614605339400,5.28433935546875,6.6451289195954795,-3.0641701287209986,-12.539423105275631
1772563614615337500,5.29433740234375,10.798041210484504,-4.7999499657213685,-7.358505152732134
1772563614625336000,5.304336181640625,15.741419988453387,-5.697986016160249,-5.201103831481933
1772563614635334100,5.314334228515625,18.097711896932125,-5.6473786954730745,-4.733852814957499
1772563614645332200,5.324332275390625,17.362931641238927,-5.071266906735301,-3.541513500192761
1772563614655329300,5.334329345703125,14.985703327715395,-3.9033226130366323,-0.9092711456805467
1772563614665327400,5.344327392578125,10.893228262132405,-3.2448096044659613,0.9601596213966608
1772563614675326500,5.354326416015625,6.754017164337634,-2.392334697240591,1.9010119002550838
1772563614685324300,5.36432421875,3.5756022322773933,-1.8674859166197477,3.183895993819833
1772563614695322400,5.374322265625,1.6118039132416246,-1.8743641318261621,4.751479657062887
1772563614705321200,5.3843212890625,0.7114052253246307,-2.121230668324977,6.130743226930499
1772563614715319000,5.394319091796875,0.4556348130106926,-2.292879905145615,7.4586349214792245
1772563614725317000,5.404317138671875,0.3368132032752037,-2.3281758210629224,8.253887473791837
1772563614735316200,5.414316162109375,0.247236392724514,-2.2179307548843323,8.675992357644438
1772563614745314300,5.424314208984375,0.1999380321885459,-2.0222819260559977,9.257652428159117
1772563614755313200,5.434313232421875,0.004120915854908526,-1.6778329672053456,9.89120693656206
1772563614765311200,5.444311279296875,-0.35134558649659153,-1.1798526120267807,10.090070635783672
1772563614775309300,5.454309326171875,-0.8324666498761624,-0.5888384377114474,10.160350040668249
1772563614785308400,5.464308349609375,-1.508737506520748,0.10406754658743739,10.29459016880989
1772563614795306200,5.47430615234375,-3.496673072469234,0.9884048150848597,10.781307517826557
1772563614805304300,5.48430419921875,-5.251867219513654,2.1886475233852862,11.322224074542522
1772563614815303400,5.494303466796875,-5.0124412082791325,3.2285330079257486,11.453474957740307
1772563614825301200,5.50430126953125,-5.815971759593486,4.051867745384573,11.7848591217041
1772563614835299300,5.51429931640625,-5.9096507447659965,4.677952940820157,11.998847909343242
1772563614845298200,5.524298095703125,-5.374959346175194,4.894967506021261,11.369908201259374
1772563614855296300,5.534296142578125,-5.2298810131549835,5.050471371465921,11.058332315093278
1772563614865294300,5.54429443359375,-4.858304831795394,5.100601137769222,11.186820747840404
1772563614875293200,5.554293212890625,-4.933432553493977,5.1743724764227865,11.254742191421984
1772563614885291300,5.564291259765625,-5.0339761637389655,5.2837751004278655,11.186731900513172
1772563614895289000,5.5742890625,-5.07063503857255,5.365500612956285,11.068062266469001
1772563614905288200,5.5842880859375,-5.185819753110408,5.495615185600519,11.025678584247826
1772563614915286300,5.594286376953125,-4.8702901608824725,5.687665113154053,10.895449445313215
1772563614925285400,5.604285400390625,-4.443411486756801,5.7967731381267305,10.309382079750298
1772563614935283200,5.614283203125,-3.9350399398148057,5.88137099122107,9.834751474368572
1772563614945281300,5.62428125,-3.495569495141506,6.032673313322663,9.423319375699759
1772563614955280400,5.6342802734375,-3.135707424712181,6.181997028827666,8.960354073670507
1772563614965278200,5.6442783203125,-2.818157724833488,6.30487697404325,8.516309745210409
1772563614975276300,5.6542763671875,-2.5397218917250632,6.388468280443549,8.133754196935891
1772563614985275400,5.664275390625,-2.2817595223248004,6.495149955052137,7.777302227210998
1772563614995273500,5.6742734375,-2.1063912649810312,6.65587126288414,7.432263047382235
1772563615005271300,5.684271240234375,-2.0585668530106545,6.799189015972614,7.039370229488611
1772563615015270100,5.694270263671875,-2.0692939987301826,6.751871969002485,6.566614185807109
1772563615025268200,5.704268310546875,-2.2317232795238495,6.57438832693994,6.1420443731456995
1772563615035266000,5.71426611328125,-2.588729376000166,6.546960221788287,6.086364571499824
1772563615045265200,5.72426513671875,-2.4057635031342506,6.331219037523866,5.722651086339354
1772563615055263200,5.73426318359375,-2.265546054148674,5.211452791538834,4.4498955880790945
1772563615065262300,5.744262451171875,-2.7210838365256786,1.301306177701056,2.5833418377429247
1772563615075261400,5.754261474609375,-3.52461906401515,-4.236198769123852,-3.4623417638003824
1772563615085259300,5.76425927734375,-1.9387553554549812,1.9035361580356955,-34.67010223228931
1772563615095257300,5.77425732421875,4.786162263387442,20.4244223216176,-68.89819368777275
1772563615105256200,5.784256103515625,12.76757135117054,23.872348606574533,-69.21801600875854
1772563615115254300,5.794254150390625,17.396317193490265,12.506535565674303,-67.60922004516124
1772563615125252400,5.80425244140625,8.625943839883805,2.5054367602854968,-39.6931840770483
1772563615135251200,5.814251220703125,2.857409538769722,1.2528740090958774,-15.117100341385601
1772563615145249300,5.824249267578125,4.625035297363996,-0.17648684957753866,-7.937230923360586
1772563615155247000,5.8342470703125,25.305659408450126,-10.532178443223238,1.9354875858306884
1772563615165246200,5.84424609375,32.51020032639503,-15.119141491824388,6.262928760629892
1772563615175244300,5.854244384765625,26.12380768318176,-12.444751601934433,9.6477138220191
1772563615185242000,5.8642421875,18.654364951962233,-9.209384364074468,10.094551580590009
1772563615195241200,5.8742412109375,12.969098132121562,-6.464873474732041,7.281779640448093
1772563615205239300,5.8842392578125,7.988440886116027,-4.301523766471445,4.260532707652449
1772563615215238400,5.89423828125,4.087601322066783,-3.0829063933730123,2.6492344058454034
1772563615225236200,5.904236328125,1.1683807854197918,-1.956472360061854,2.277511217230558
1772563615235234300,5.914234375,-0.7202712533473968,-1.3763029664963482,3.032067017495632
1772563615245233400,5.9242333984375,-1.3363375974632798,-1.5336339012376963,4.458599703538417
1772563615255231200,5.934231201171875,-1.5684278589822351,-1.7774417808182537,5.932235501539707
1772563615265229300,5.944229248046875,-1.889457948322594,-1.6410511966444552,6.925253436443209
1772563615275228200,5.954228271484375,-2.054731366501003,-1.4056243380486964,7.776262362769246
1772563615285226200,5.964226318359375,-2.189498733387142,-1.1761259196538478,8.438716217920184
1772563615295224000,5.97422412109375,-2.3687800725214183,-0.8800972928401082,8.92761558715105
1772563615305223200,5.98422314453125,-2.6171932539403437,-0.5456126055777073,9.42286695575714
1772563615315221200,5.99422119140625,-2.943877861911058,-0.22745134967193006,9.778641464611887
1772563615325219000,6.004218994140625,-3.232319540727138,0.008184256303682923,9.944964245712757
1772563615335218200,6.01421826171875,-3.6102865921676157,0.19046826611896975,10.00239936659336
1772563615345216300,6.02421630859375,-4.16831707303077,0.44039391619376833,10.267893885064124
1772563615355214300,6.03421435546875,-4.756652383525669,0.6921520971916616,10.406011731421946
1772563615365213200,6.044213134765625,-5.287376924312114,1.1204807509299366,10.258347473561763
1772563615375211300,6.054211181640625,-5.970133562779426,1.6507488531857728,10.038512297981978
1772563615385210400,6.06421044921875,-6.554860035127401,2.27781063856855,9.558333410823344
1772563615395208400,6.07420849609375,-7.149049332347512,2.8591595973074435,8.479244627663492
1772563615405206300,6.084206298828125,-7.977978528812527,3.498836972504854,7.4020947036117315
1772563615415205000,6.094205078125,-8.551448863130807,4.19043479681462,6.475073966228962
1772563615425203200,6.104203125,-8.753003701132535,5.043483996796608,5.463595661005377
1772563615435201300,6.114201171875,-8.798889253994822,5.823452470737696,4.631016709861159
1772563615445200100,6.1242001953125,-8.960930996775627,6.404818526741862,4.134037494549155
1772563615455198200,6.1341982421875,-8.950091622853279,6.6600050016880035,3.945837812682986
1772563615465196300,6.1441962890625,-8.876669243767857,6.602409721809625,3.992351142054796
1772563615475195400,6.1541953125,-8.802814318484067,6.4461459779083725,4.168966769111156
1772563615485193500,6.164193359375,-8.756992478507756,6.3013002846002575,4.34812185151726
1772563615495191600,6.174191650390625,-8.587349613073467,6.196994106951355,4.640445340202748
1772563615505190400,6.1841904296875,-8.156175872102379,6.0523851450085635,4.863617551250756
1772563615515188500,6.1941884765625,-7.55595956967771,5.810400681462884,4.965370829546451
1772563615525187600,6.2041875,-7.143623800167441,5.682304462903738,5.0859904286146165
1772563615535185700,6.214185546875,-7.024775302425026,5.5789241679281,5.124674087274074
1772563615545183500,6.22418359375,-7.080631045159697,5.5126323713749645,4.900643213570118
1772563615555182300,6.234182373046875,-7.036449373605847,5.58785683144629,4.892791915547847
1772563615565180400,6.244180419921875,-7.056845680424571,5.299333319565654,4.596318905967474
1772563615575178500,6.254178466796875,-7.0159069363147015,4.612398518630862,3.7547254582405087
1772563615585177300,6.26417724609375,-6.722296330428123,3.1384976399526,2.275124029833078
1772563615595175400,6.274175537109375,-5.778560020565986,0.9819219558715819,-0.09987842433452605
1772563615605173200,6.28417333984375,-2.113738705134392,0.04819938276261091,-8.050136002528667
1772563615615172400,6.29417236328125,2.4030231183849273,3.028608985996246,-33.56154243997335
1772563615625170400,6.30417041015625,4.971239429318905,10.086679239779711,-67.6791662725687
1772563615635168500,6.31416845703125,7.775002718096971,11.733992857819795,-69.35522901523113
1772563615645167400,6.32416748046875,4.1529684049904345,-0.9213761556245386,-68.12975783071518
1772563615655165400,6.33416552734375,-2.272950923577696,-15.321166285425424,-47.14933127336502
1772563615665163500,6.34416357421875,-1.2816754484273492,-9.157975079354644,-21.546168927764892
1772563615675162600,6.35416259765625,-1.4697522345662115,-0.7910918524365872,-13.129877892142533
1772563615685160400,6.364160400390625,-1.7754665352225303,2.2846115507550535,-7.695431168732046
1772563615695158500,6.374158447265625,4.5197734264254565,1.1788741223834454,-0.76515610473454
1772563615705157600,6.38415771484375,16.707365792036054,1.7440204266011714,6.680215430545807
1772563615715155500,6.394155517578125,25.67986564605236,2.7856992242991923,11.709181072646379
1772563615725154300,6.404154296875,24.472601149356365,1.739344689875096,14.036231689071654
1772563615735152400,6.41415234375,20.778614529716968,-0.3830901300752535,9.225803583955765
1772563615745150500,6.424150390625,17.237617162352798,-1.452251210797578,8.41533417328894
1772563615755149300,6.4341494140625,11.059354059356451,-1.4261340421140194,11.983662030649185
1772563615765147400,6.4441474609375,5.5338312267482275,-0.9133324768353253,11.469868458658457
1772563615775145500,6.4541455078125,3.375366075658798,-1.7255395980149506,10.905310329592227
1772563615785144600,6.46414453125,2.0381264147892595,-2.2116458293959496,10.364220754396914
1772563615795142400,6.474142333984375,0.6282116860702633,-1.9551281058460472,9.036125646230579
1772563615805140500,6.484140380859375,-1.207128887617588,-0.8212514283787459,8.670326002445817
1772563615815139600,6.4941396484375,-2.529287299211323,-0.13695844718962907,8.412771629324554
1772563615825137400,6.504137451171875,-3.141971161282062,0.30829379575550553,8.349415886223316
1772563615835135500,6.514135498046875,-3.7279017487227915,0.8689557211007922,8.141504372671246
1772563615845134600,6.524134521484375,-4.3679079174831505,1.336121032103151,8.130016763973236
1772563615855132700,6.534132568359375,-5.016023742941021,1.7231635165333747,7.9730171070128675
1772563615865131300,6.54413134765625,-5.612388046112656,2.0321723286904394,7.8832175936222075
1772563615875129300,6.55412939453125,-6.596777853402495,0.6941871101506054,8.528921389502287
1772563615885127400,6.56412744140625,-6.997554118022323,-2.1576430210515856,10.01504491315484
1772563615895126500,6.57412646484375,-6.200239372482896,-1.2744026809453963,10.065873767638205
1772563615905124400,6.584124267578125,-5.695099647068977,2.1040277507200837,8.636026842480897
1772563615915122400,6.594122314453125,-5.822988944879174,5.4046027892887585,7.317712539094686
1772563615925121500,6.60412158203125,-6.266727568390965,7.857837653172016,6.5984858263641595
1772563615935119400,6.614119384765625,-6.216338858890533,8.94669379710853,6.682025694838166
1772563615945117400,6.624117431640625,-5.68017388061583,9.350037281867861,6.810950180914998
1772563615955116500,6.634116455078125,-5.398544804424047,9.398781731292605,7.147401565140485
1772563615965114400,6.6441142578125,-4.869928341832757,9.351951591056585,7.021719421985745
1772563615975112400,6.654112548828125,-4.40368971722126,9.462053887763618,6.769122379010915
1772563615985111600,6.664111572265625,-4.055057773597539,9.843283155870438,6.571914045780897
1772563615995109600,6.674109619140625,-4.078383704127371,10.303545044159888,6.339256798028946
1772563616005107500,6.684107421875,-4.34587407259047,10.291534288370608,5.990999825197458
1772563616015106600,6.6941064453125,-4.816986732979118,9.942331559121609,5.806233040389419
1772563616025104600,6.704104736328125,-4.718944584161043,9.368322880142927,5.81755055321753
1772563616035103500,6.714103515625,-4.598891094543039,8.770168186423183,5.9394642837494604
1772563616045101300,6.724101318359375,-4.6174540484547615,8.096169439429044,6.274765913417935
1772563616055099400,6.734099365234375,-4.336575206108391,7.386996503201127,6.981882501637935
1772563616065098500,6.744098388671875,-4.025326359939575,6.668796795430779,7.66276808553636
1772563616075096300,6.754096435546875,-3.8137119002163407,6.145276194673777,8.058181946340202
1772563616085094400,6.764094482421875,-3.7633027324497696,5.814767644500732,8.243455511626602
1772563616095093500,6.774093505859375,-3.866173908859491,5.800920320934057,8.044878812652826
1772563616105091600,6.784091552734375,-4.303416740611195,5.757303882047534,7.749876460146903
1772563616115089400,6.79408935546875,-4.709163194859028,4.335839000788331,8.016889566487073
1772563616125088500,6.804088623046875,-4.940355046233535,1.130823646572232,9.181025700074434
1772563616135086600,6.814086669921875,-5.6344929104149335,0.07172872691005468,6.97693160123229
1772563616145084400,6.82408447265625,-5.785812768173217,2.306900831713527,-8.252383498969674
1772563616155083500,6.83408349609375,-0.09694763157963752,11.691093627291917,-48.66136314525604
1772563616165081600,6.84408154296875,8.190870753386616,16.598435461717845,-70.48998707864284
1772563616175080400,6.85408056640625,15.438406178927421,9.590135493275522,-68.8022105173111
1772563616185078300,6.864078369140625,7.359718035653233,-2.77822435837388,-49.35476509637832
1772563616195076400,6.874076416015625,7.8367656390488145,-8.986266513562201,-11.34910039103031
1772563616205075500,6.884075439453125,20.12084035681486,-5.438813686448335,3.3911931748658417
1772563616215073300,6.8940732421875,22.032591677749156,-1.2741186033070087,1.7280536266624926
1772563616225071400,6.9040712890625,25.50364164866209,-0.9061910806480795,-2.9121780707895755
1772563616235070500,6.914070556640625,25.602792927765844,-2.001602564512193,1.0343599991172552
1772563616245068500,6.924068603515625,19.06687023282051,-2.785302333936095,3.7078064706772564
1772563616255066400,6.93406640625,13.07389589267969,-2.3330163929618895,1.5299170726716518
1772563616265065500,6.9440654296875,9.071637104594707,-1.4016932822100818,-0.5537988346427679
1772563616275063600,6.9540634765625,6.276087517410517,-1.4674829744599758,-0.7846861501127481
1772563616285061400,6.964061279296875,4.6188057553246615,-1.2232596459463239,-1.393045426982641
1772563616295060500,6.974060546875,3.5705157227933406,-0.3444672616923228,-2.557559161710739
1772563616305058600,6.98405859375,2.1965476289853454,-0.13067527526691555,-3.350621510502696
1772563616315056600,6.994056640625,0.7755353137992322,-0.15829028129279613,-3.479771037507057
1772563616325055500,7.004055419921875,-0.7859693217910826,0.43202626614719625,-0.6424824957460165
1772563616335053600,7.014053466796875,-1.1920916236139834,0.7758757977999746,1.9730805266439913
1772563616345051600,7.0240517578125,-1.433800777349621,0.7314014269098639,2.799398663827777
1772563616355050500,7.034050537109375,-1.7371826895356177,1.1808294942349196,3.2564100258886812
1772563616365048300,7.04404833984375,-1.4048422477602958,2.1194830940052864,4.048054909098148
1772563616375047400,7.05404736328125,-0.9471288018446415,2.8718764555394647,4.63092143279314
1772563616385045500,7.06404541015625,-0.6507049651682376,3.572059152843058,5.328241434141993
1772563616395043300,7.074043212890625,-0.5252010646572336,4.317645756971836,5.979455517876148
1772563616405042400,7.08404248046875,-0.5952677401065826,4.725848079939186,6.623173692896962
1772563616415040500,7.09404052734375,-0.6538549536317586,4.815960020279884,7.121928685709833
1772563616425038600,7.10403857421875,-0.5104916078358889,4.727514844107628,7.483885682591795
1772563616435037400,7.114037353515625,-0.30694705732166766,4.7893613516896965,7.7482409678995605
1772563616445035500,7.124035400390625,-0.24811081920517608,4.955093765681982,7.815838001832366
1772563616455033600,7.13403369140625,-0.2510439683139324,5.2018835836827755,7.622752886012196
1772563616465032700,7.14403271484375,-0.37178514793515205,5.446262833410501,7.290674310043454
1772563616475030800,7.15403076171875,-0.7116922255724668,5.727203927338123,6.713501029554009
1772563616485028900,7.16402880859375,-0.6267267082095146,5.803135658895969,5.852100473073125
1772563616495027500,7.17402734375,-0.3283633913705125,5.867535358092188,4.989032860162854
1772563616505025500,7.184025634765625,-0.4905648182250559,5.849191307628154,4.303474608278274
1772563616515024600,7.194024658203125,-1.1685269158922136,5.5020987024009225,3.415424529802799
1772563616525022700,7.204022705078125,-1.9676259144999086,5.109821386057138,2.390421557095647
1772563616535020500,7.2140205078125,-2.3127894513607026,5.026052385002374,1.2293424729913471
1772563616545019600,7.22401953125,-2.4221372764386233,4.479064983940124,0.07549509370625018
1772563616555017700,7.234017822265625,-2.5371637316748497,3.554912787730992,-0.8896838171571493
1772563616565015600,7.244015625,-2.542268069076538,2.201869262399524,-1.7763795584142208
1772563616575014700,7.2540146484375,-2.172545406629145,0.39391061663404103,-2.4051631991535425
1772563616585012700,7.2640126953125,-1.7802561075866221,-1.377818777886778,-3.3092806153327223
1772563616595010600,7.274010498046875,-2.4095310389742255,-3.3756910698294638,-3.447204400423169
1772563616605009700,7.284009765625,-2.9753552424535155,-5.062739901408553,-3.8431145203113553
1772563616615007700,7.2940078125,-1.7738488708928226,-6.183304019773006,-5.827944521459937
1772563616625005800,7.304005859375,-1.709712498807907,-7.592453609338403,-6.264638487157225
1772563616635004400,7.31400439453125,-1.6346408912107349,-7.661619500023126,-6.495303099787235
1772563616645002500,7.32400244140625,-1.1256868682056664,-8.604915664902329,-4.020481257995963
1772563616655001600,7.334001708984375,-0.44224224747419355,-8.384124796032905,-3.034450697761774
1772563616664999700,7.343999755859375,-0.21754648012071848,-4.14772553590089,-5.757638228568434
1772563616674997500,7.35399755859375,-0.46138533936142917,-1.577026614370942,-4.421197901383042
1772563616684996600,7.36399658203125,-0.5939885139510035,-0.40521307802349327,-2.2061089457958936
1772563616694994700,7.37399462890625,-0.315243761023879,0.7119291030682623,-0.9207377115905284
1772563616704992500,7.383992431640625,-0.09321399800926447,2.184725673766434,-0.9384873032927512
1772563616714991600,7.39399169921875,0.19162994857579468,3.845402923509478,-0.9328682943671941
1772563616724989700,7.40398974609375,0.721973673351109,5.230214190632105,0.22913959501981734
1772563616734987800,7.41398779296875,1.270473524802923,5.838985555434227,2.2071423804968595
1772563616744986600,7.423986572265625,1.6019854067996144,6.0645858704119915,3.711315355581045
1772563616754984700,7.433984619140625,1.8163062028720973,4.966693018060922,4.6516684527456755
1772563616764982800,7.443982666015625,1.9469863004446029,4.003427247342467,3.113766811060905
1772563616774981600,7.453981689453125,1.3902160487756132,4.4500057704553,1.0575526586562394
1772563616784979500,7.4639794921875,1.037114850783348,4.724609770315885,-0.2674187645316124
1772563616794977800,7.473977783203125,0.9451473457038402,4.4350130762457844,-0.6396446419715881
1772563616804976600,7.4839765625,0.2961798718526959,3.2771263584420085,0.44041620109081264
1772563616814974500,7.493974365234375,-0.47691345562189813,0.5003736800558864,2.6070184814065693
1772563616824973600,7.5039736328125,-0.31543373063802715,-1.8747440710544585,2.9552409674465654
1772563616834971600,7.5139716796875,-0.052642041385173796,-2.4062587393052874,0.7656704839974642
1772563616844969700,7.5239697265625,0.10801014673337339,-2.3638225962445136,-2.0315525893568993
1772563616854968600,7.533968505859375,0.5469637279257178,-2.489342826835811,-3.725097797217965
1772563616864966700,7.543966552734375,1.0841790920361876,-3.003028846798837,-3.8921366176337
1772563616874964700,7.55396484375,1.2425801402270793,-2.747593950049579,-3.4422260274887084
1772563616884963600,7.563963623046875,1.570549527311325,-0.4304078711651265,-3.9591812783807514
1772563616894961700,7.573961669921875,2.167830360805988,2.096870718572289,-4.448980811321735
1772563616904959700,7.583959716796875,1.9476970790624617,2.11644138822183,-3.06127674536705
1772563616914958600,7.59395849609375,1.490201148355007,1.19959513111189,-1.3734101676642894
1772563616924956700,7.603956787109375,0.8306453527331352,-0.5749600614193826,0.16745032382607458
1772563616934954800,7.613954833984375,0.4913257195949554,-2.279403752978891,0.970291723832488
1772563616944953600,7.62395361328125,0.203796442916058,-2.0776623063638806,0.36293490200340744
1772563616954951400,7.633951416015625,0.3837544026702642,-0.24690657624825835,-0.8697083660989999
1772563616964949500,7.643949462890625,0.6220844353616237,0.5124889191329479,-0.5934978078246116
1772563616974948600,7.653948486328125,0.7355711138099431,0.5488423812791705,0.11487725602388381
1772563616984946700,7.66394677734375,0.7419184370100498,0.8702103242717683,0.41224575313925743
1772563616994945500,7.673945556640625,0.8968219254087656,0.9932657721847296,0.2653787831366062
1772563617004943600,7.683943603515625,0.8576386466640978,1.0058484826430678,-0.005395721563696861
1772563617014941700,7.693941650390625,0.7001245373755693,0.9306786753684282,-0.15130115305781364
1772563617024940800,7.70394091796875,0.5966857902109622,0.9013996816530823,-0.40781799982488154
1772563617034938600,7.713938720703125,0.4506272870469838,1.1561653008386492,-0.556435612887144
1772563617044936700,7.723936767578125,-0.24417568997964262,1.4836118330925703,-0.32467093006074427
1772563617054935800,7.733935791015625,-1.6315059541858732,2.813079983177781,-0.5984037000447512
1772563617064933600,7.74393359375,-2.7832798881977796,4.170330458679795,-1.1212719743728636
1772563617074931700,7.753931640625,-3.016094956859946,3.768421975159645,-1.2124006905406712
1772563617084930600,7.7639306640625,-3.0441026154652238,1.335631348890066,-0.4848346040099859
1772563617094928600,7.7739287109375,-2.8841119599953293,-0.9377928912878036,0.45000995886623857
1772563617104926500,7.783926513671875,-2.4945731287047264,-1.0048533341258763,0.18107845168411732
1772563617114925600,7.793925537109375,-2.0769111957356334,-0.18414777612686156,-0.4134451920568943
1772563617124923600,7.803923583984375,-1.0236410367041826,0.4411071059644222,-0.4719108250290155
1772563617134922800,7.8139228515625,0.1598345881253481,0.333017318123579,0.205329680365324
1772563617144920600,7.823920654296875,1.5405422193214295,1.042376132312417,0.11061784501373767
1772563617154918700,7.833918701171875,3.487126660966873,0.4263672174721956,0.4348001147747039
1772563617164917800,7.843917724609375,5.484706838095188,-1.3864730628550053,0.795551827520132
1772563617174915600,7.85391552734375,5.983160802134871,-1.2749737588316201,-0.05657528918087482
1772563617184913700,7.86391357421875,4.623497420272231,-1.191454933145642,-0.8217536057472229
1772563617194912800,7.873912841796875,2.2548756070524454,-0.4153431346327066,-1.5543635316640139
1772563617204910600,7.88391064453125,0.21272680487930773,0.13405892635583877,-1.9584891067117451
1772563617214908700,7.89390869140625,-1.1838999877214431,0.22115619505047796,-1.8427818296045064
1772563617224907500,7.903907470703125,-2.002798204037547,-0.09498597611784934,-0.9990209747105836
1772563617234905600,7.913905517578125,-2.350591651010513,-0.3063870853513479,-0.2176087317019701
1772563617244903700,7.923903564453125,-2.419256314174831,-0.6590326485306024,0.48682431652247904
1772563617254902500,7.933902587890625,-2.0388748950690028,-0.23099019132256507,0.5870435171186924
1772563617264900600,7.943900634765625,-1.2741674108847976,-0.11234978337287903,0.38055063819289203
1772563617274899700,7.953899658203125,-0.038570553673803805,-1.0369874250113964,0.786903826162219
1772563617284897500,7.9638974609375,1.2771014185100793,-2.0626912394642827,1.3020657638967037
1772563617294895600,7.9738955078125,2.2317776400595903,-2.462072834855318,1.2911913186609745
1772563617304894700,7.983894775390625,2.501056937766075,-2.932699465292692,1.3240373572081328
1772563617314892500,7.993892578125,2.5048960775375364,-3.181390733000636,1.3518407254129647
1772563617324890600,8.003890625,2.4215841726005074,-3.5575726545900106,1.4053501972824334
1772563617334889700,8.0138896484375,2.1931863358587025,-4.126887622794508,1.5474956917211413
1772563617344887800,8.0238876953125,1.5647177524179219,-4.758066634237766,1.72514913739264
1772563617354885600,8.0338857421875,0.8407944063037633,-4.122149488356709,1.383655375085771
1772563617364884700,8.043884765625,0.49155602121949193,-2.3059745106488463,0.24396686953455207
1772563617374882800,8.0538828125,0.5174696301549673,-2.01372116459012,-0.19359218855947255
1772563617384880600,8.063880615234375,0.7820914574444293,-2.067280905342102,-0.1438587280973792
1772563617394879500,8.07387939453125,1.3327964177250862,-1.6909446699738502,0.7765335310563445
1772563617404877600,8.083877685546875,0.6904688202798366,-1.4674211612701415,0.8480030225083232
1772563617414875600,8.093875732421875,-0.03356850760281086,-1.4326315874397755,0.024459026212990283
1772563617424874500,8.10387451171875,-0.40600422840118405,-1.3547235873728989,-0.22957564834952354
1772563617434872600,8.11387255859375,-0.4417348824739456,-1.0696978544801472,-0.39059856947660443
1772563617444871700,8.12387158203125,-0.2312286762535572,-0.7564806308478117,-0.6447688531175255
1772563617454869800,8.133869873046875,0.12139467509388922,-0.30048107617795466,-1.0370072987556458
1772563617464867600,8.14386767578125,0.4778647649973631,0.19930267516076564,-1.1522262078240513
1772563617474866700,8.15386669921875,0.2585556591182947,0.5540449183583259,-0.8501149000957607
1772563617484864500,8.163864501953125,-1.6143500905930994,0.3178957368373871,1.2808490806058048
1772563617494862600,8.173862548828126,-4.425218827462196,-0.2250537870109081,4.7277276100754735
1772563617504861700,8.18386181640625,-0.8660872529923915,2.0923504646688698,0.8106421368852257
1772563617514859800,8.19385986328125,1.221235738903284,1.7205922047406434,-1.6813257777571677
1772563617524857600,8.203857666015624,1.28482119910717,0.043752047964930534,-1.9652189994886515
1772563617534856400,8.2138564453125,1.6265104839861393,-0.7859908029705286,-1.7070578926458955
1772563617544854500,8.2238544921875,1.2442957119733093,-1.6865858902424573,-0.10619769048392771
1772563617554852600,8.2338525390625,1.7820599421381949,-0.8363459024623036,0.9568424596726893
1772563617564851500,8.2438515625,1.3167793489038944,-0.5016635737359524,1.8322832319438456
1772563617574849500,8.253849609375,-0.11011690975427627,-0.8273612164959311,2.587593649968505
1772563617584848600,8.2638486328125,-1.326444418349862,-0.7450608266890049,2.906381951731443
1772563617594846500,8.273846435546876,-2.265934176683426,-0.23856997892707585,2.578928697475791
1772563617604844500,8.283844482421875,-2.7960663045346736,0.07618453727513551,1.7784055112838744
1772563617614843600,8.29384375,-2.402088614013791,-0.3432069959655404,0.533043046861887
1772563617624841700,8.303841796875,-1.088674942150712,-0.7187269465148448,-1.2854501446604727
1772563617634839600,8.313839599609375,0.42071079914569853,-0.40694706220924853,-3.71615519682765
1772563617644838700,8.323838623046875,1.2549714197665451,0.10826163727641105,-4.660336912369728
1772563617654836700,8.333836669921874,0.901696911033988,0.7061193938761949,-3.3066321466505526
1772563617664834600,8.34383447265625,-0.057254503616690634,1.6597300320208073,-1.2914338952451943
1772563617674833700,8.353833740234375,-0.7943956432223319,1.1923396070256829,-0.0035901334464550016
1772563617684831700,8.363831787109374,-0.9741022220313549,2.24054371483922,-0.13084171787500382
1772563617694829800,8.373829833984376,-0.6445826828956603,3.3294249932169913,-0.12432839045822619
1772563617704828400,8.383828369140625,0.12199497907459735,2.570666480565071,0.6198796187937259
1772563617714826500,8.393826416015624,0.3441372625529766,2.1522321019187567,0.27576982876956463
1772563617724825600,8.40382568359375,0.48227907430827616,2.4098531105354426,-1.0807347968012093
1772563617734823700,8.41382373046875,0.7828022360622883,0.6927949251398444,-1.6920874102681873
1772563617744821500,8.423821533203125,0.1918359925419092,0.3620698096066713,-0.4134311635315418
1772563617754820600,8.433820556640624,0.11621230401992798,0.5484446141332388,0.1980494602292776
1772563617764818700,8.443818603515625,0.29838030450642106,0.21615502576231954,0.18078911334872244
1772563617774816500,8.45381640625,0.551299419042468,0.3004091799855232,0.044455812320113176
1772563617784815600,8.463815673828124,0.6120668992161751,0.8625921043530106,-0.3699696229457855
1772563617794813700,8.473813720703125,0.2696031228333711,0.7108467146590352,-0.6704898620903491
1772563617804811500,8.4838115234375,0.035215105766057964,1.178653903761506,-1.0803355683505536
1772563617814810600,8.493810546875,0.29924364333748815,2.2301579299032688,-0.9693477209806441
1772563617824808700,8.50380859375,0.5329816720634698,3.6458208468854427,-0.22317396461367606
1772563617834806800,8.513806884765625,0.5818120462059975,4.251062576256692,0.6490384932607411
1772563617844805400,8.523805419921874,0.9374883553832769,4.8665322696536775,1.450521464395523
1772563617854803500,8.533803466796876,1.1973480828374623,4.9467503002285955,2.1759055307120083
1772563617864802600,8.543802490234375,0.6614701048105954,4.997494983559847,1.9514497095942496
1772563617874800600,8.553800537109375,-1.0473825622975825,5.613039788019657,0.02401215922832489
1772563617884798500,8.563798583984376,-3.0517928777068852,5.5298237446725365,-1.9332173028111457
1772563617894797600,8.573797607421875,-4.205235183322429,4.803237316828966,-2.7991455658495425
1772563617904795600,8.583795654296875,-4.139484654039144,4.190849515095353,-2.712742709159851
1772563617914793500,8.59379345703125,-3.737265204873681,3.150323394563794,-2.7036159843742844
1772563617924792600,8.60379248046875,-4.22086296056509,0.9606447745651007,-2.9512732328593727
1772563617934790700,8.613790771484375,-3.550477143371105,0.5914601645171642,-3.201512314531207
1772563617944788700,8.623788818359374,-0.5323018731057644,1.1807640277832745,-2.551915602865815
1772563617954787600,8.63378759765625,-1.9354536835610865,1.5047849695026874,-2.15717744936645
1772563617964785700,8.64378564453125,-2.7515058627963063,0.463836239644885,-1.8833529094457626
1772563617974783700,8.65378369140625,-1.5185463683515785,1.110098253929615,-2.125755890664458
1772563617984782600,8.663782470703126,-0.4974216983824968,1.3116332181870936,-2.173067384676635
1772563617994780400,8.673780517578125,2.1513339840352534,-1.8040777126789092,-1.9450851429983973
1772563618004778500,8.683778564453124,4.0933378198921675,-0.3690297117471695,-4.872611589567363
1772563618014777600,8.693777587890626,3.219012899908423,0.019149521628022192,-5.089951733461022
1772563618024775400,8.703775390625,3.2372377079069614,-0.039196284356713296,-5.356934444662929
1772563618034774500,8.7137744140625,1.4705495224237441,-0.828196790537238,-4.905964700853825
1772563618044772600,8.723772705078124,-0.18172434837222098,-1.7588164291948079,-4.379569713704288
1772563618054770700,8.733770751953125,-0.5671358705997467,-2.319573412412405,-3.833513748273253
1772563618064769500,8.74376953125,-0.27501111935675143,-2.4653040718615054,-3.5142715652629732
1772563618074767600,8.753767578125,0.6164513979107141,-3.0595617581427095,-2.8955341022416947
1772563618084765700,8.763765625,0.8951075957715511,-3.5753088022887707,-2.3062696942031384
1772563618094764500,8.7737646484375,0.3894342018723488,-3.7123815235078332,-1.878059186951816
1772563618104762600,8.7837626953125,0.04079319815933704,-3.7218873107388615,-1.1921522677600382
1772563618114760700,8.7937607421875,-0.24902970588207243,-3.532415124718845,-0.2786059289783239
1772563618124759600,8.803759521484375,-0.7853139266222715,-3.427243562412262,0.6235182675570249
1772563618134757600,8.813757568359375,-1.500548354846239,-3.635582945987582,1.535243236130476
1772563618144755700,8.823755615234376,-1.897091511940956,-3.729136843475699,2.5371347978413104
1772563618154754600,8.833754638671875,-1.6716221298664806,-4.205364654920995,3.647593117254972
1772563618164752400,8.84375244140625,-1.212326456260681,-4.646531089857221,4.380186092036962
1772563618174751500,8.85375146484375,-1.0101409191399813,-4.889618253947794,4.942908822369575
1772563618184749600,8.86374951171875,-1.0986123987972736,-4.646172485677898,5.379954085722566
1772563618194747600,8.87374755859375,-1.4205442592829465,-4.384988523882627,5.615519329875707
1772563618204746500,8.88374658203125,-1.6678659922033547,-3.902272811722755,5.269653051573038
1772563618214744600,8.89374462890625,-1.6055144577085971,-3.4825539462238546,4.620656059366464
1772563618224742700,8.90374267578125,-1.0839257017970085,-2.979787087421119,4.023546490785479
1772563618234741800,8.91374169921875,-0.13977964209020136,-2.498197456681728,3.8619542453378437
1772563618244739600,8.923739501953126,1.0384066441595554,-2.327271857960522,4.2046185127288105
1772563618254737700,8.933737548828125,1.5933967344135045,-2.029674812786281,4.374644824522734
1772563618264736800,8.94373681640625,0.9779910461634397,-1.6035747218176721,4.088737924881279
1772563618274734600,8.953734619140626,-7.436368144613504,1.020738008739054,0.6466016215026378
1772563618284732700,8.963732666015625,-5.491407212516665,-0.18726914128409697,1.5132856713443994
1772563618294731500,8.9737314453125,-0.5499468353897333,0.7884241675972938,-0.47981852941364045
1772563618304729600,8.9837294921875,4.552736953872442,5.854702764526009,-14.073774361002444
1772563618314728400,8.993728515625,11.949482697671652,4.976189160680771,-19.765995822286605
1772563618324726500,9.0037265625,5.0765620905339714,5.023960965681076,-7.384737910619378
1772563618334724600,9.013724609375,1.1297621548205614,3.688615740256011,-1.0934168759807943
1772563618344723700,9.0237236328125,0.7388602184832096,1.5361705801084637,-0.05824848309010267
1772563618354721500,9.033721435546875,0.8130477367222309,1.4128276935562492,0.24157164496108888
1772563618364719600,9.0437197265625,1.011198903760314,1.5288485666573046,1.417903973907232
1772563618374718700,9.05371875,-0.6805845551252365,1.7137831092476843,6.151041334071755
1772563618384716500,9.063716552734375,0.10984159994423388,3.6153014977201816,2.6118133144676685
1772563618394714600,9.073714599609374,-2.776716291898489,3.7564866226941347,2.209186015153676
1772563618404713700,9.083713623046876,-1.3503987099111079,4.0650604044348,-0.6828758809328079
1772563618414711600,9.093711669921875,-1.3940402832388876,4.12496396125555,-1.1742428093209862
1772563618424709600,9.103709716796875,-1.248662675011158,4.754447274696827,-0.6726707132607698
1772563618434708500,9.11370849609375,-0.5667629456341267,5.963891453519463,-1.3778358751520514
1772563618444706600,9.12370654296875,-1.1976344985634089,5.284510428965091,-2.504913613194227
1772563618454704600,9.13370458984375,-2.1151894884645936,2.1260665640488265,-3.765684074628353
1772563618464703000,9.143702880859376,0.6517074202090501,0.6982230876684189,-3.1446643458887933
1772563618474701000,9.153701171875,2.7997026152104136,0.898774301585555,-0.5798268637381494
1772563618484700200,9.1637001953125,1.3699708408653735,1.3203671442627907,0.7854692633144557
1772563618494698000,9.173697998046874,1.4533160635501146,0.9258484787330031,0.5493611444562673
1772563618504696000,9.183696044921875,1.6327876645594834,0.5246045966014266,-0.03745470138639211
1772563618514695200,9.193695068359375,1.5174755242496727,0.6806579126223922,-0.4747068854883313
1772563618524693000,9.20369287109375,2.0064432825416327,0.6697142015427351,-0.9451679501004516
1772563618534691000,9.213691162109376,1.7698305751621721,0.29349662411808963,-0.8028435919634997
1772563618544690200,9.223690185546875,1.48269822537899,0.3033943332761526,-0.43494653750807044
1772563618554688000,9.23368798828125,1.061460772010684,0.4358738814860582,-0.5061623464599252
1772563618564686000,9.24368603515625,0.7441828748106956,0.49428983009755606,-0.14086319954320786
1772563618574685200,9.253685302734375,0.8028425690501928,0.36365444844961164,-0.09990691977664827
1772563618584683300,9.263683349609375,0.8910504293352365,0.23660218598544597,-0.22470219709426165
1772563618594681000,9.27368115234375,0.8422071957111358,0.1786614536702633,-0.3593381926856935
1772563618604680000,9.283679931640625,0.624860914337635,0.31819705787152053,-0.20980989451929927
1772563618614678300,9.29367822265625,0.592249269068241,0.37476650183349847,0.03422098016217351
1772563618624677000,9.303677001953124,0.4343833506673574,0.1787596533477306,0.201293848977983
1772563618634675000,9.313675048828125,0.2549433138400316,-0.0658873074054718,0.28474282429814335
1772563618644673000,9.323673095703125,0.10595745198726654,-0.1761705136373639,0.4402469820037484
1772563618654672100,9.333672119140624,0.06294073255956173,0.029043723654747007,0.12962532782256603
1772563618664670000,9.343669921875,-0.12860592164695261,0.4633019866377115,-0.04336217186450958
1772563618674668000,9.35366796875,-0.17317630025744438,0.7323463065445422,-0.17615772722102702
1772563618684667100,9.363667236328125,-0.3176420543372631,0.8293816164076327,-0.146699504481256
1772563618694665200,9.373665283203126,-0.3588555237352848,0.5495838472962379,-0.26811178829707205
1772563618704663000,9.3836630859375,-0.5724637876242399,0.559763003744185,-0.14476919400580227
1772563618714662100,9.393662109375,-0.636933044925332,0.5312421349197626,-0.008244535123556851
1772563618724660200,9.40366015625,-0.5782914708644151,0.35816608016639945,-0.1908062841679901
1772563618734658000,9.413657958984375,-0.5887959137439728,0.34227146868109704,-0.2134530733272433
1772563618744657200,9.4236572265625,-0.5386252309083939,0.2998766805440187,-0.12422668364942073
1772563618754655200,9.4336552734375,-0.3693810094028711,0.27413287521749735,-0.25193463354334233
1772563618764654000,9.443654052734376,-0.31340894681215287,0.2732239436790347,-0.4249646571978926
1772563618774652000,9.45365185546875,-0.5003799636662006,0.12900251974910498,-0.2907675644803792
1772563618784650000,9.46364990234375,-0.37656010725200173,0.027352409566938875,-0.04878266254328191
1772563618794649000,9.473649169921876,-0.3494090654760599,-0.11182809758633375,0.14425744509138166
1772563618804647200,9.483647216796875,-0.24966157404482364,-0.2263061251595616,0.22039755870290098
1772563618814645000,9.49364501953125,-0.0358802916765213,-0.12683949649631976,0.06583236234784126
1772563618824644000,9.50364404296875,-0.01983399676084518,-0.16536533424556255,0.00025463234819471836
1772563618834642200,9.51364208984375,-0.07869184392094612,-0.42908144486695526,0.2719143954504281
1772563618844640000,9.523639892578124,0.301371887537837,-0.604851268748939,0.31164770929329094
1772563618854639000,9.53363916015625,0.2866553799211979,-0.6209975169077515,0.39610790748260916
1772563618864637200,9.54363720703125,0.17396949646174906,-0.493236229391396,0.3170467918578535
1772563618874635000,9.553635009765625,0.3859767548948526,-0.4640878763183951,0.10729228078760206
1772563618884634000,9.563634033203124,0.6466986521363258,-0.5307540591418742,-0.21736681270487604
1772563618894632200,9.573632080078125,0.9624655602514743,-0.591792465211451,-0.4839197541873902
1772563618904630300,9.58363037109375,0.8673328691393136,-0.26052520562559367,-0.3425453171864152
1772563618914628900,9.59362890625,0.4729045122414827,0.08448883976191282,-0.12024623571112751
1772563618924627000,9.603626953125,0.12701134593188762,-0.1133224277973175,-0.21998832031488416
1772563618934626000,9.6136259765625,-0.09778700501322746,-0.09260989463627338,-0.16679931257143615
1772563618944624000,9.6236240234375,-0.3248381033211946,0.22576368884593248,0.0220193779759109
1772563618954622000,9.6336220703125,-0.3764315124362707,0.15675269646197557,0.148190108365193
1772563618964621000,9.64362109375,-0.6426531761378049,0.0655308951832354,0.2170431337084621
1772563618974619100,9.653619140625,-0.5089174903869629,0.1213141572035849,0.13141674128398298
1772563618984617000,9.663616943359376,-0.21864801162183284,0.1408342657096684,-0.10255210052318871
1772563618994616000,9.673615966796875,-0.16271628104150293,0.14845087819322944,-0.050686450337991115
1772563619004614100,9.6836142578125,-0.11478022539019583,0.3031080636806786,-0.0924338074170053
1772563619014612200,9.6936123046875,-0.07755845597684383,0.4445733207702636,-0.2291272469948977
1772563619024611000,9.703611083984375,-0.242169172462821,0.5191267497122287,-0.3418981783892959
1772563619034609200,9.713609130859375,-0.15226853678524493,0.6821048965603113,-0.4635495316579938
1772563619044607200,9.723607177734374,-0.18802140268981454,0.731053490255028,-0.4973359928604215
1772563619054606000,9.733606201171876,-0.012661328652501105,0.7759821807838976,-0.5544952194090932
1772563619064604200,9.743604248046875,-0.00032791678011417387,0.6321366044290363,-0.5082793386138975
1772563619074603000,9.75360302734375,-0.054205052918195724,0.4591913364484906,-0.5210547221001237
1772563619084601000,9.76360107421875,0.22020342437028884,0.4135761249601841,-0.42573790659271177
1772563619094599000,9.773598876953125,0.46047056260406966,0.3219341985732317,-0.5434124651849269
1772563619104598000,9.783597900390625,0.5176993472576141,-0.00924567499011755,-0.5208003089476376
1772563619114596000,9.79359619140625,0.42247780881822106,-0.3467215799577534,-0.3338916898053139
1772563619124594000,9.803593994140625,0.4907809451937675,-0.33706206346973777,-0.24273740080483255
1772563619134593000,9.813593017578125,0.3268909441977739,-0.3675548168890178,-0.2460252633690834
1772563619144591000,9.823591064453124,-0.2703939809501171,-0.46025765050575135,-0.07178780015353113
1772563619154589200,9.833589111328125,-0.3313666283071041,-0.22382073808461425,-0.09435461941175162
1772563619164588000,9.843588134765625,-0.09501286412477493,0.027033845137059687,-0.20962480200966818
1772563619174586000,9.853586181640624,0.3400193058401346,0.2783409944318235,-0.1409673540374264
1772563619184584200,9.863584228515625,0.5543500387847423,0.16362550484091043,-0.09343997965171001
1772563619194583300,9.873583251953125,0.45870296840965746,-0.027636487205326556,0.08344060021745972
1772563619204581000,9.8835810546875,-0.4474333863765001,-0.5826994965650141,0.4451420971015468
1772563619214580000,9.893580078125,-0.23621640153825282,-0.42011531747058034,0.44759237633049487
1772563619224578000,9.903578125,-0.07237374681532383,-0.18637027448192237,0.5120454496817664
1772563619234576000,9.913575927734374,-0.1700724890232086,-0.15758578628525138,0.3885652370180934
1772563619244575000,9.923574951171876,-0.12408756743967532,-0.08671776785776018,0.29543720025923104
1772563619254573000,9.933572998046875,-0.18511457533240316,0.09778320562094449,0.3659883347572759
1772563619264571100,9.943571044921875,-0.2781400650322437,0.1824886107429862,0.35866350829452276
1772563619274570000,9.953570068359374,-0.21931728918552398,0.15414967435672877,0.24186856381474062
1772563619284568000,9.963568115234375,-0.1622393111795187,0.2647030758321285,0.18565807109195737
1772563619294566100,9.973566162109375,-0.08035305513143538,0.13109043193906544,0.17153921884121373
1772563619304565200,9.983565185546874,0.038980595779418946,0.15954744174703955,0.11967795257018879
1772563619314563000,9.99356298828125,0.17116086878180503,0.2585379773311317,-0.12011504707951098
1772563619324561200,10.00356103515625,0.19469547362625597,0.28049422694295645,-0.2418212906069122
1772563619334560300,10.013560302734374,0.22204817545413968,0.29286738630384207,-0.27444930248921734
1772563619344558000,10.02355810546875,0.003474398112297058,0.14777268667072058,-0.09728166757328435
1772563619354556200,10.03355615234375,0.010557049849629402,0.16932094000354408,-0.14381611279835924
1772563619364555000,10.043554931640625,0.07682429648339748,0.21887962842062114,-0.11920489169834181
1772563619374553000,10.053552978515626,-0.00004325461983680725,0.14122311889678238,-0.06976645039375871
1772563619384552000,10.063552001953125,-0.1068693061351776,-0.10626607954502106,-0.02978113455120474
1772563619394550000,10.073550048828125,0.055638300591707227,-0.23316855827495456,-0.04743249004334211
1772563619404548000,10.083548095703126,0.05916121402084827,-0.38574659940078854,0.11980780776124447
1772563619414547200,10.093547119140625,0.05089315189123153,-0.10494637524858116,0.020422756434231994
1772563619424545000,10.103544921875,0.02227671373784542,-0.3272311359375715,0.1005045203436166
1772563619434543000,10.113543212890624,0.24695991387069224,-0.5060467572562396,0.20625417479909955
1772563619444542200,10.123542236328126,0.2739554728239775,-0.32407764034271236,0.12312138928864151
1772563619454540000,10.1335400390625,0.26570377730727196,-0.20428762396648525,-0.08232804499883205
1772563619464538600,10.14353857421875,0.3182294988363981,-0.02207344625070691,-0.13472392960321158
1772563619474537700,10.153537841796876,0.2553916421294212,0.15826485459059475,-0.1089100912477821
1772563619484535800,10.163535888671875,0.17390403001010418,0.22310236068218944,-0.1434281181277707
1772563619494533600,10.17353369140625,0.168059395635128,0.16289076082557438,-0.1262578972160816
1772563619504532500,10.183532470703126,0.11753624610006809,0.09429945515841245,-0.003267221635021269
1772563619514530600,10.193530517578125,0.07218260815739631,0.04239551878944039,0.06296656112056224
1772563619524528400,10.2035283203125,0.15847557473182677,0.002088496711850166,0.15429982341714202
1772563619534527500,10.213527587890624,0.1785211684167385,-0.009559709375351666,0.20602643045783042
1772563619544525600,10.223525634765625,0.038892917495965955,-0.0045031566381454466,0.1633991487391293
1772563619554524700,10.233524658203125,-0.08737374754846096,0.05186696535944938,-0.012687303343974053
1772563619564522500,10.2435224609375,-0.07096037288606166,0.21485212647020815,0.0271271129110828
1772563619574520600,10.2535205078125,-0.12918752092719077,0.3519542199142277,0.003922689869068563
1772563619584519700,10.263519775390625,0.21361469362974167,0.18656798901110885,-0.14347732756435871
1772563619594517800,10.273517822265624,0.09112053286135197,-0.03314458310231566,0.13140790039040148
1772563619604515600,10.283515625,-0.039548751056194306,-0.04226692397370934,-0.03334500104524195
1772563619614514700,10.2935146484375,0.3111673053652048,-0.013914981975406408,-0.15214118407852947
1772563619624512800,10.3035126953125,0.17902444176375865,0.122554220392555,-0.04274206720478833
1772563619634510600,10.313510498046876,0.041215222963690755,0.07876827015802264,-0.0920098829165101
1772563619644509400,10.323509521484375,-0.07257657591104508,-0.043787703800201416,-0.184914888041839
