time,seconds_elapsed,z,y,x
1772563609386198000,0.065197998046875,-0.07471222430467606,0.024677034467458725,-0.09852027148008347
1772563609396197000,0.075197021484375,-0.0650569349527359,0.03963068500161171,-0.09850428998470306
1772563609406195000,0.08519482421875,-0.05544820800423622,0.04664371535181999,-0.08252158761024475
1772563609416194000,0.095194091796875,-0.043928440660238266,0.04598351567983627,-0.05218764767050743
1772563609426192100,0.105192138671875,-0.030599351972341537,0.03645309433341026,-0.015473175793886185
1772563609436190000,0.11518994140625,-0.020180800929665565,0.02188134379684925,0.009807413443922997
1772563609446188800,0.125188720703125,-0.010549580678343773,0.019111445173621178,0.024357374757528305
1772563609456187100,0.135187255859375,-0.0037039248272776604,0.0034533911384642124,0.02956198900938034
1772563609466185200,0.145185302734375,0.009742575697600842,-0.002905871020630002,0.03342210128903389
1772563609476184000,0.15518408203125,0.004951016511768103,0.001775433775037527,0.018298009410500526
1772563609486182100,0.16518212890625,-0.0014026183634996414,0.006978429853916168,0.00625847652554512
1772563609496180000,0.175179931640625,-0.009389970451593399,0.0187274981290102,-0.014250793494284153
1772563609506179000,0.185178955078125,-0.024308940395712852,0.02283567562699318,-0.04436122253537178
1772563609516177200,0.19517724609375,-0.03591340035200119,0.026166224852204323,-0.06221505627036095
1772563609526175000,0.205175048828125,-0.050884317606687546,0.028196927160024643,-0.08867906779050827
1772563609536174000,0.215174072265625,-0.05543432757258415,0.029374312609434128,-0.11155375838279724
1772563609546172200,0.225172119140625,-0.07246434688568115,0.0024914569221436977,-0.15494288504123688
1772563609556170200,0.235170166015625,-0.07504282146692276,-0.008675443939864635,-0.21370525658130646
1772563609566169000,0.245169189453125,-0.08328384160995483,0.022270819172263145,-0.25962772965431213
1772563609576167200,0.255167236328125,-0.16729885339736938,-0.015708254650235176,-0.2738226354122162
1772563609586166000,0.265166015625,-0.2410493642091751,0.024237679317593575,-0.32266682386398315
1772563609596164400,0.275164306640625,-0.3207138180732727,0.010176986455917358,-0.4139983355998993
1772563609606162200,0.285162109375,-0.39047664403915405,-0.04992123693227768,-0.5376177430152893
1772563609616161000,0.2951611328125,-0.44598811864852905,-0.10394612699747086,-0.6888935565948486
1772563609626159000,0.3051591796875,-0.48114463686943054,-0.5245875120162964,-1.0089246034622192
1772563609636157000,0.315156982421875,-0.4429871141910553,-0.8596128821372986,-1.2654887437820435
1772563609646156000,0.325156005859375,-0.3597775101661682,-1.1785728931427002,-1.43267023563385
1772563609656154000,0.335154052734375,-0.2636227607727051,-1.3620878458023071,-1.4035496711730957
1772563609666152200,0.345152099609375,-0.2021525353193283,-1.3791840076446533,-1.236939549446106
1772563609676151000,0.355151123046875,-0.16802385449409485,-1.387717604637146,-1.1757453680038452
1772563609686149000,0.365149169921875,-0.12973850965499878,-1.3279658555984497,-1.2576000690460205
1772563609696147200,0.375147216796875,-0.07445608824491501,-1.3488823175430298,-1.6049144268035889
1772563609706146300,0.385146240234375,0.08932594954967499,-1.6352624893188477,-2.202281951904297
1772563609716144000,0.39514404296875,0.2574838101863861,-1.917449951171875,-2.532011032104492
1772563609726143200,0.405143310546875,0.3552800714969635,-2.249108076095581,-2.660813570022583
1772563609736141300,0.415141357421875,0.33419954776763916,-1.9353593587875366,-2.2103512287139893
1772563609746139100,0.42513916015625,0.4386325776576996,-1.221531867980957,-1.782261848449707
1772563609756138000,0.435137939453125,0.4554198086261749,-1.1038081645965576,-1.6794337034225464
1772563609766136000,0.445135986328125,0.6326411962509155,-1.1140271425247192,-1.827603816986084
1772563609776134000,0.4551337890625,0.7488613128662109,-1.1594269275665283,-1.8522138595581055
1772563609786133000,0.465133056640625,0.6834838390350342,-1.470744013786316,-1.7337404489517212
1772563609796131000,0.475131103515625,0.5824326276779175,-1.7157047986984253,-1.5066372156143188
1772563609806129200,0.485129150390625,0.5881425738334656,-1.8261865377426147,-1.279881477355957
1772563609816128000,0.4951279296875,0.6458301544189453,-1.8764797449111938,-1.0784170627593994
1772563609826126000,0.5051259765625,0.6374349594116211,-1.7024645805358887,-1.036391019821167
1772563609836124200,0.515124267578125,0.4856877624988556,-1.3305342197418213,-1.090572476387024
1772563609846123300,0.525123291015625,0.2875135838985443,-0.8054349422454834,-1.0944899320602417
1772563609856121000,0.53512109375,-0.00025163590908050537,-0.3643355965614319,-1.2117366790771484
1772563609866119200,0.545119140625,-0.26007792353630066,0.11996748298406601,-1.4041813611984253
1772563609876118300,0.5551181640625,-0.44752106070518494,0.4099375307559967,-1.3703871965408325
1772563609886116000,0.5651162109375,-0.5981403589248657,0.7542906403541565,-1.3956905603408813
1772563609896115000,0.575114990234375,-0.6201420426368713,1.2689366340637207,-1.4367469549179077
1772563609906113000,0.585113037109375,-0.4878515601158142,1.7889013290405273,-1.5121071338653564
1772563609916111000,0.595111083984375,-0.2872353792190552,2.1110472679138184,-1.5114182233810425
1772563609926110000,0.60510986328125,-0.2001362442970276,2.324418306350708,-1.482452154159546
1772563609936108000,0.61510791015625,-0.26842451095581055,2.4009623527526855,-1.3507089614868164
1772563609946106000,0.625106201171875,-0.46630868315696716,2.4361777305603027,-1.0127894878387451
1772563609956105200,0.635105224609375,-0.663911759853363,2.515303373336792,-0.6071451306343079
1772563609966103000,0.64510302734375,-0.740708589553833,2.488839864730835,-0.10673830658197403
1772563609976101000,0.65510107421875,-0.6653842329978943,2.295072078704834,0.3243403732776642
1772563609986100200,0.665100341796875,-0.49242228269577026,1.8872184753417969,0.6150192618370056
1772563609996098000,0.67509814453125,-0.413535475730896,1.0821126699447632,0.6881677508354187
1772563610006096100,0.68509619140625,-0.6627596616744995,-0.2219550758600235,0.6126876473426819
1772563610016095200,0.69509521484375,-1.0749908685684204,-1.7422714233398438,0.3917427659034729
1772563610026093300,0.70509326171875,-1.274713397026062,-2.59721040725708,0.11232176423072815
1772563610036091100,0.715091064453125,-1.2671995162963867,-2.669678211212158,-0.14657530188560486
1772563610046090200,0.72509033203125,-1.2411381006240845,-2.434345006942749,-0.31477296352386475
1772563610056088300,0.73508837890625,-1.3872498273849487,-2.1627566814422607,-0.38928020000457764
1772563610066087200,0.745087158203125,-1.7663657665252686,-1.5222705602645874,-0.406263530254364
1772563610076085000,0.7550849609375,-2.0249111652374268,-0.5655206441879272,-0.36575233936309814
1772563610086083000,0.7650830078125,-1.9641897678375244,0.24223610758781433,-0.3779899477958679
1772563610096082200,0.775082275390625,-1.682823657989502,0.6169106364250183,-0.4326814115047455
1772563610106080000,0.785080078125,-0.8035463094711304,0.3677006959915161,-0.6349008083343506
1772563610116078000,0.795078125,0.31225988268852234,-1.060714840888977,-1.5365257263183594
1772563610126077200,0.8050771484375,1.5190494060516357,-2.043778419494629,-2.3074681758880615
1772563610136075000,0.815074951171875,2.1907920837402344,-2.0090649127960205,-2.4214322566986084
1772563610146073000,0.825072998046875,2.5532052516937256,-1.7077628374099731,-2.2800991535186768
1772563610156072200,0.835072265625,2.2661914825439453,-1.7263778448104858,-2.111992120742798
1772563610166070300,0.8450703125,1.6726363897323608,-1.8073225021362305,-1.8648066520690918
1772563610176068000,0.855068115234375,1.2397902011871338,-1.7283751964569092,-1.3754923343658447
1772563610186067200,0.865067138671875,0.9760188460350037,-1.6526100635528564,-0.7611213326454163
1772563610196065300,0.875065185546875,0.7785854339599609,-1.747974157333374,-0.17916227877140045
1772563610206064000,0.885064208984375,0.3658592104911804,-1.7647346258163452,0.3542228043079376
1772563610216062000,0.89506201171875,-0.18951904773712158,-1.8879750967025757,0.6919580101966858
1772563610226060000,0.90506005859375,-0.5796812176704407,-1.9025660753250122,0.7571820616722107
1772563610236059100,0.91505908203125,-0.9611761569976807,-1.4270024299621582,0.823664128780365
1772563610246057000,0.925056884765625,-1.323447346687317,-0.7114272713661194,0.9275884032249451
1772563610256055000,0.935054931640625,-1.606188178062439,-0.03198488429188728,0.9808089733123779
1772563610266054100,0.94505419921875,-1.8328702449798584,0.48923787474632263,0.936418354511261
1772563610276052200,0.95505224609375,-2.0502147674560547,0.9761284589767456,0.7938265800476074
1772563610286050000,0.965050048828125,-2.2485246658325195,1.4993486404418945,0.5992668867111206
1772563610296049200,0.975049072265625,-2.4342598915100098,2.057234048843384,0.3582870364189148
1772563610306047200,0.985047119140625,-2.6247074604034424,2.53041410446167,0.06538302451372147
1772563610316045000,0.995045166015625,-2.8188517093658447,2.751610517501831,-0.3302591145038605
1772563610326044200,1.005044189453125,-3.018794298171997,2.8402535915374756,-0.7713884115219116
1772563610336042200,1.015042236328125,-3.206216812133789,3.091806173324585,-1.1054332256317139
1772563610346040300,1.025040283203125,-3.3147904872894287,3.542775869369507,-1.3036974668502808
1772563610356039200,1.0350390625,-3.397326946258545,3.9569146633148193,-1.442669153213501
1772563610366037200,1.045037353515625,-3.4864015579223633,4.13898229598999,-1.5229437351226807
1772563610376036000,1.0550361328125,-3.5428307056427,4.145782470703125,-1.522253394126892
1772563610386034000,1.065033935546875,-3.5635340213775635,4.0798234939575195,-1.4425386190414429
1772563610396032000,1.075031982421875,-3.5352025032043457,3.885362386703491,-1.2937073707580566
1772563610406031000,1.085031005859375,-3.455415964126587,3.626293182373047,-1.1388202905654907
1772563610416029200,1.095029296875,-3.330371856689453,3.38383412361145,-0.9304438829421997
1772563610426027000,1.105027099609375,-3.1650562286376953,3.1839754581451416,-0.6935296058654785
1772563610436026000,1.115026123046875,-2.9526026248931885,2.854794979095459,-0.513810396194458
1772563610446024200,1.125024169921875,-2.6557457447052,1.6187472343444824,-0.7653615474700928
1772563610456022300,1.135022216796875,-2.3610141277313232,0.7060465216636658,-0.9625081419944763
1772563610466021400,1.145021484375,-2.049311637878418,0.6414332389831543,-0.7696411609649658
1772563610476019500,1.15501953125,-1.4059621095657349,0.14456863701343536,-0.49113473296165466
1772563610486017500,1.165017578125,-0.07478225976228714,-1.5063831806182861,-0.4171014726161957
1772563610496016400,1.175016357421875,3.79130220413208,-4.840742111206055,0.5086482167243958
1772563610506014500,1.185014404296875,9.022744178771973,-7.919848442077637,2.7491750717163086
1772563610516013300,1.195013427734375,9.49774169921875,-8.584381103515625,4.231176853179932
1772563610526011400,1.205011474609375,5.897064685821533,-8.344077110290527,4.623636722564697
1772563610536009200,1.21500927734375,-0.37358278036117554,-7.7984232902526855,4.267479419708252
1772563610546008300,1.22500830078125,-5.5255513191223145,-6.987514972686768,4.063701152801514
1772563610556006400,1.23500634765625,-5.633035182952881,-5.387655735015869,4.853165626525879
1772563610566004200,1.245004150390625,-2.252300977706909,-2.2654733657836914,6.397032260894775
1772563610576003300,1.25500341796875,0.21915775537490845,1.20559561252594,7.1780500411987305
1772563610586001400,1.26500146484375,0.9604072570800781,2.533001661300659,7.24397087097168
1772563610595999500,1.27499951171875,0.6080750226974487,2.2943170070648193,6.751147747039795
1772563610605998300,1.284998291015625,-0.2334545999765396,1.7953970432281494,5.736517429351807
1772563610615996400,1.294996337890625,-0.9143790602684021,1.378819465637207,4.381392002105713
1772563610625994500,1.304994384765625,-1.193809151649475,0.9386988878250122,2.8546111583709717
1772563610635993600,1.31499365234375,-1.177301049232483,0.5346052050590515,1.3855907917022705
1772563610645991400,1.324991455078125,-1.0498697757720947,0.3151165246963501,0.09761430323123932
1772563610655989500,1.334989501953125,-0.9718809723854065,0.3469671308994293,-0.9731900095939636
1772563610665988400,1.34498828125,-0.9832491278648376,0.6638566851615906,-1.7970963716506958
1772563610675986200,1.354986083984375,-1.1077463626861572,1.106831669807434,-2.3543734550476074
1772563610685985300,1.3649853515625,-1.3578733205795288,1.498700499534607,-2.7042253017425537
1772563610695983400,1.3749833984375,-1.6967756748199463,1.6459131240844727,-2.841150999069214
1772563610705981400,1.3849814453125,-2.10920786857605,1.6719619035720825,-2.7977137565612793
1772563610715980300,1.394980224609375,-2.5194108486175537,1.6866391897201538,-2.648590087890625
1772563610725978400,1.404978271484375,-2.881298542022705,1.6229034662246704,-2.4382681846618652
1772563610735976400,1.4149765625,-3.167738199234009,1.2545679807662964,-2.183422565460205
1772563610745975600,1.4249755859375,-3.382803440093994,0.7960577011108398,-2.007314682006836
1772563610755973400,1.434973388671875,-3.554053544998169,0.3660549223423004,-1.850557565689087
1772563610765971500,1.444971435546875,-3.688516616821289,0.042228490114212036,-1.75408935546875
1772563610775970600,1.454970458984375,-3.80366849899292,-0.25902482867240906,-1.7419419288635254
1772563610785968400,1.464968505859375,-3.8505914211273193,-0.5584911704063416,-1.8699404001235962
1772563610795966500,1.474966552734375,-3.824859619140625,-0.9138569831848145,-2.1181468963623047
1772563610805965300,1.48496533203125,-3.7193491458892822,-1.2371060848236084,-2.472867965698242
1772563610815963400,1.49496337890625,-3.4899508953094482,-1.4601250886917114,-2.868169069290161
1772563610825961500,1.50496142578125,-3.211585760116577,-1.5913466215133667,-3.2171032428741455
1772563610835960300,1.514960205078125,-2.8667843341827393,-1.5424158573150635,-3.498753070831299
1772563610845958400,1.52495849609375,-2.4791650772094727,-1.3085315227508545,-3.709979295730591
1772563610855957200,1.534957275390625,-2.0878472328186035,-1.0003670454025269,-3.865330219268799
1772563610865955300,1.544955322265625,-1.7368255853652954,-0.7376552820205688,-3.9284064769744873
1772563610875953400,1.554953369140625,-1.3881701231002808,-0.5290024280548096,-3.8806958198547363
1772563610885952500,1.564952392578125,-1.0083363056182861,-0.34846386313438416,-3.7280874252319336
1772563610895950300,1.574950439453125,-0.5809735655784607,-0.2677147090435028,-3.521995782852173
1772563610905948400,1.584948486328125,-0.10368974506855011,-0.3428886830806732,-3.2638347148895264
1772563610915947500,1.594947509765625,0.42298924922943115,-0.4993850886821747,-2.88889741897583
1772563610925945300,1.6049453125,1.112613320350647,-0.8191218972206116,-2.2433555126190186
1772563610935943400,1.614943359375,2.4126579761505127,-1.4122785329818726,-1.154622197151184
1772563610945942500,1.624942626953125,4.569062232971191,-1.972360372543335,0.22679558396339417
1772563610955940600,1.634940673828125,7.56972599029541,-2.257831335067749,1.8427053689956665
1772563610965938400,1.6449384765625,10.183379173278809,-2.6571414470672607,3.875107526779175
1772563610975937300,1.654937255859375,9.710112571716309,-2.9688944816589355,5.575542449951172
1772563610985935400,1.664935302734375,6.157865047454834,-3.2870538234710693,6.280378818511963
1772563610995933200,1.67493310546875,1.822532057762146,-3.961543321609497,6.3892035484313965
1772563611005932300,1.684932373046875,-0.2896006107330322,-4.2564897537231445,6.151057720184326
1772563611015930400,1.694930419921875,0.38787907361984253,-3.610389471054077,6.202188014984131
1772563611025929500,1.704929443359375,1.8336100578308105,-1.796093463897705,6.583246231079102
1772563611035927300,1.71492724609375,2.7019801139831543,0.5297234654426575,6.933722019195557
1772563611045925400,1.72492529296875,2.3071181774139404,0.7125013470649719,7.362504959106445
1772563611055924500,1.734924560546875,0.8773931860923767,-0.08896315842866898,7.2066330909729
1772563611065922600,1.744922607421875,-0.46058952808380127,0.3483276069164276,5.895749092102051
1772563611075920400,1.75492041015625,-1.1642533540725708,1.3235015869140625,3.93111252784729
1772563611085919500,1.76491943359375,-1.3667269945144653,2.078061103820801,1.9457998275756836
1772563611095917600,1.77491748046875,-1.2466943264007568,2.2404627799987793,0.1933649778366089
1772563611105915400,1.784915283203125,-1.1202305555343628,1.8015215396881104,-1.1684715747833252
1772563611115914200,1.794914306640625,-1.10428786277771,0.6876621246337891,-2.22360897064209
1772563611125912300,1.804912353515625,-1.1659647226333618,0.11740700155496597,-2.9769930839538574
1772563611135910400,1.814910400390625,-1.2839478254318237,-0.18324656784534454,-3.4860148429870605
1772563611145909200,1.8249091796875,-1.4857532978057861,-0.05661740154027939,-3.760796070098877
1772563611155907300,1.8349072265625,-1.7177600860595703,0.30964022874832153,-3.829641819000244
1772563611165905400,1.844905517578125,-1.9869253635406494,0.9100629091262817,-3.745363473892212
1772563611175904300,1.854904296875,-2.280272960662842,1.6035563945770264,-3.545537233352661
1772563611185902300,1.86490234375,-2.537921667098999,2.048494338989258,-3.228022813796997
1772563611195901400,1.8749013671875,-2.654536724090576,1.3918417692184448,-2.573058605194092
1772563611205899500,1.8848994140625,-2.511242389678955,-0.31850141286849976,-1.4398483037948608
1772563611215897300,1.8948974609375,-2.235119581222534,-1.6019785404205322,-0.41531696915626526
1772563611225896400,1.904896484375,-1.8657726049423218,-2.0929248332977295,0.2704281508922577
1772563611235894500,1.91489453125,-1.347807765007019,-2.030888319015503,0.7265703678131104
1772563611245892400,1.924892333984375,-0.7242336273193359,-1.5684961080551147,0.9559956192970276
1772563611255891200,1.93489111328125,-0.11395908892154694,-0.8625479340553284,0.9771403074264526
1772563611265889300,1.94488916015625,0.28815844655036926,-0.24392402172088623,0.8622945547103882
1772563611275887600,1.9548876953125,0.413366436958313,-0.12032032757997513,0.7830066680908203
1772563611285886200,1.96488623046875,0.41476523876190186,-0.3318510949611664,0.7033452391624451
1772563611295884300,1.97488427734375,0.3369138538837433,-0.6452851891517639,0.5582508444786072
1772563611305882400,1.98488232421875,0.1795596033334732,-0.8991919755935669,0.3234464228153229
1772563611315881500,1.994881591796875,0.0014191661030054092,-0.9634646773338318,0.04837276041507721
1772563611325879300,2.00487939453125,-0.1344565451145172,-0.8456578850746155,-0.18537567555904388
1772563611335877400,2.01487744140625,-0.18269197642803192,-0.6762494444847107,-0.33567407727241516
1772563611345876500,2.02487646484375,-0.14941319823265076,-0.5193139910697937,-0.4201946258544922
1772563611355874300,2.034874267578125,-0.062010906636714935,-0.4016810953617096,-0.5091603994369507
1772563611365873400,2.044873291015625,0.095889613032341,-0.45681679248809814,-0.6123597621917725
1772563611375871500,2.05487158203125,0.3183503746986389,-0.8069803714752197,-0.6542512774467468
1772563611385869300,2.064869384765625,0.7621229887008667,-1.8212754726409912,-0.3739002048969269
1772563611395868400,2.074868408203125,1.627312183380127,-3.4825279712677,0.3994426131248474
1772563611405866500,2.084866455078125,2.294156789779663,-3.5332283973693848,0.8242297768592834
1772563611415864600,2.094864501953125,2.3724634647369385,-2.388420343399048,0.7648407220840454
1772563611425863200,2.10486328125,2.184386730194092,-0.9900038242340088,0.931486964225769
1772563611435861200,2.114861328125,2.397667169570923,0.4660080671310425,1.6689785718917847
1772563611445859300,2.124859375,2.965275526046753,1.0737360715866089,2.617830991744995
1772563611455858400,2.1348583984375,2.7776851654052734,0.4066265821456909,2.310314416885376
1772563611465856300,2.144856201171875,1.3990731239318848,-0.7538833022117615,0.8749274015426636
1772563611475854300,2.154854248046875,0.44454243779182434,-0.778583824634552,-0.426461398601532
1772563611485853400,2.164853515625,0.7444145679473877,0.2298394739627838,-0.8635435104370117
1772563611495851300,2.174851318359375,1.010156273841858,0.9906315803527832,-0.8856645226478577
1772563611505850400,2.184850341796875,0.4069673418998718,1.0558620691299438,-0.8955283761024475
1772563611515848400,2.194848388671875,-0.23869632184505463,0.8141127228736877,-0.706230878829956
1772563611525846500,2.204846435546875,-0.4756484627723694,0.8815392255783081,-0.34335434436798096
1772563611535845400,2.214845458984375,-0.5048350691795349,1.2184280157089233,-0.08482452481985092
1772563611545843500,2.224843505859375,-0.45968717336654663,1.618374228477478,-0.030638063326478004
1772563611555841500,2.234841552734375,-0.4403313100337982,2.005936861038208,-0.11603205651044846
1772563611565840400,2.24484033203125,-0.49961555004119873,2.227342367172241,-0.23883457481861115
1772563611575838200,2.254838134765625,-0.5966869592666626,2.286393642425537,-0.3706762194633484
1772563611585836300,2.264836181640625,-0.6875004768371582,2.237872838973999,-0.49308478832244873
1772563611595835400,2.27483544921875,-0.7916881442070007,2.13339900970459,-0.6240620017051697
1772563611605833200,2.284833251953125,-0.9323808550834656,1.9987419843673706,-0.7693624496459961
1772563611615831300,2.294831298828125,-1.1692605018615723,1.7419233322143555,-0.9990284442901611
1772563611625830400,2.304830322265625,-1.50132155418396,0.9208633303642273,-1.3504538536071777
1772563611635828500,2.314828369140625,-1.8689138889312744,-0.13008658587932587,-1.803375244140625
1772563611645826300,2.324826416015625,-2.2785303592681885,-0.44396185874938965,-2.2956900596618652
1772563611655825400,2.334825439453125,-2.6599457263946533,-0.1464846432209015,-2.641110897064209
1772563611665823500,2.344823486328125,-2.8310203552246094,0.9271776080131531,-2.8783628940582275
1772563611675822600,2.354822509765625,-2.9206249713897705,2.2458388805389404,-2.8421084880828857
1772563611685820400,2.3648203125,-2.817927122116089,3.631178855895996,-2.4898295402526855
1772563611695818500,2.374818603515625,-2.527151107788086,4.330782413482666,-1.7211686372756958
1772563611705817300,2.3848173828125,-1.989527940750122,3.902989149093628,-0.2991947531700134
1772563611715815400,2.3948154296875,-1.3058604001998901,2.818528890609741,1.3282946348190308
1772563611725813500,2.4048134765625,-0.5073760151863098,1.6736083030700684,2.803297519683838
1772563611735812400,2.414812255859375,0.3071536421775818,1.1015206575393677,3.8568897247314453
1772563611745810200,2.42481005859375,0.9968655705451965,1.3734395503997803,4.251868724822998
1772563611755808300,2.434808349609375,1.3547991514205933,1.8545230627059937,4.141594409942627
1772563611765807400,2.444807373046875,1.443934679031372,2.068150520324707,3.584433078765869
1772563611775805400,2.454805419921875,1.3137761354446411,1.66588294506073,2.7791225910186768
1772563611785803300,2.46480322265625,1.022691249847412,0.7658668756484985,1.930869221687317
1772563611795802400,2.47480224609375,0.7040891051292419,-0.12973585724830627,1.1264593601226807
1772563611805800400,2.484800537109375,0.3999858498573303,-1.0241810083389282,0.3913193643093109
1772563611815798300,2.49479833984375,0.17886199057102203,-1.734849214553833,-0.2065560221672058
1772563611825797400,2.50479736328125,0.0613732784986496,-2.0046627521514893,-0.6279222965240479
1772563611835795500,2.51479541015625,0.0037302235141396523,-2.0348494052886963,-0.9259414672851562
1772563611845794600,2.524794677734375,-0.014316556043922901,-1.886148452758789,-1.168627142906189
1772563611855792400,2.53479248046875,-0.020374447107315063,-1.5532845258712769,-1.3869504928588867
1772563611865790500,2.54479052734375,0.008275305852293968,-1.0598617792129517,-1.5605016946792603
1772563611875789300,2.554789306640625,0.11567217111587524,-0.5009517669677734,-1.6198595762252808
1772563611885787400,2.564787353515625,0.5362589359283447,-0.36389219760894775,-1.4489657878875732
1772563611895785200,2.57478515625,1.4381836652755737,-0.9922816157341003,-0.7578099966049194
1772563611905784300,2.584784423828125,2.806779623031616,-1.9648773670196533,0.23828276991844177
1772563611915782400,2.594782470703125,3.6725006103515625,-2.3796346187591553,0.8687800168991089
1772563611925780200,2.6047802734375,3.8675973415374756,-2.719026565551758,1.2474106550216675
1772563611935779300,2.614779296875,3.821594476699829,-3.570435047149658,1.662576675415039
1772563611945777400,2.62477734375,4.237539768218994,-5.53560209274292,2.180856943130493
1772563611955775500,2.634775390625,4.595681190490723,-8.20279312133789,2.9479587078094482
1772563611965774300,2.6447744140625,3.46512770652771,-8.437579154968262,3.646850109100342
1772563611975772400,2.6547724609375,0.8893442153930664,-4.776499271392822,3.775786876678467
1772563611985770500,2.6647705078125,-1.1686276197433472,0.21917548775672913,2.456902265548706
1772563611995769300,2.674769287109375,-1.237767219543457,2.0803568363189697,0.7553309202194214
1772563612005767400,2.684767333984375,-0.21081292629241943,1.6864782571792603,-0.2860640585422516
1772563612015766300,2.694766357421875,0.7943346500396729,0.5394393801689148,-0.63193279504776
1772563612025764400,2.704764404296875,1.2567715644836426,0.34675583243370056,-0.5123575329780579
1772563612035762400,2.714762451171875,1.061724066734314,1.0471378564834595,-0.14014670252799988
1772563612045761300,2.72476123046875,0.6029928922653198,1.8430508375167847,0.31098121404647827
1772563612055759400,2.73475927734375,0.26338472962379456,2.3013861179351807,0.7878833413124084
1772563612065757200,2.744757080078125,-0.016976088285446167,2.4225103855133057,1.1538593769073486
1772563612075756300,2.75475634765625,-0.24667692184448242,2.328784465789795,1.3171982765197754
1772563612085754400,2.76475439453125,-0.45125120878219604,2.1813437938690186,1.2352575063705444
1772563612095752400,2.77475244140625,-0.6953946352005005,2.0651071071624756,0.9642643332481384
1772563612105751300,2.784751220703125,-0.9841124415397644,1.954505443572998,0.5583615303039551
1772563612115749400,2.794749267578125,-1.331674575805664,1.8277925252914429,0.05779391899704933
1772563612125747500,2.80474755859375,-1.696550965309143,1.6533232927322388,-0.47025179862976074
1772563612135746600,2.81474658203125,-2.077343702316284,1.261929988861084,-0.9561713933944702
1772563612145744400,2.824744384765625,-2.456743001937866,0.7560312747955322,-1.3564631938934326
1772563612155742500,2.834742431640625,-2.8240575790405273,0.3498448431491852,-1.6906625032424927
1772563612165741600,2.844741455078125,-3.1361730098724365,0.08899740874767303,-1.934654951095581
1772563612175739400,2.854739501953125,-3.416577100753784,0.10164449363946915,-2.071993350982666
1772563612185738200,2.86473828125,-3.6624841690063477,0.36047184467315674,-2.1082913875579834
1772563612195736300,2.874736328125,-3.7316689491271973,0.5188705325126648,-2.1110243797302246
1772563612205734400,2.884734375,-3.532156229019165,0.45776280760765076,-2.130650758743286
1772563612215733200,2.894733154296875,-3.2262933254241943,0.398267537355423,-2.190690517425537
1772563612225731300,2.9047314453125,-2.8141231536865234,0.5163488984107971,-2.236678123474121
1772563612235729400,2.9147294921875,-2.501851797103882,0.6758727431297302,-2.2651352882385254
1772563612245728500,2.924728515625,-2.201411724090576,0.8476564884185791,-2.244175910949707
1772563612255726300,2.934726318359375,-1.846889615058899,0.9049293994903564,-1.9556689262390137
1772563612265724400,2.944724365234375,-1.408892273902893,0.8170549273490906,-1.2794744968414307
1772563612275723500,2.9547236328125,-0.8496690988540649,0.681115984916687,-0.29679813981056213
1772563612285721300,2.964721435546875,-0.1573077291250229,0.5506634712219238,0.5953866839408875
1772563612295719400,2.974719482421875,0.6076666712760925,0.33751580119132996,1.2342214584350586
1772563612305718500,2.984718505859375,1.270021677017212,0.10857886075973511,1.5593280792236328
1772563612315716400,2.99471630859375,1.6946477890014648,0.049952831119298935,1.5920175313949585
1772563612325714400,3.00471435546875,1.863371729850769,-0.019844956696033478,1.4628078937530518
1772563612335713300,3.01471337890625,1.9387836456298828,-0.12932831048965454,1.3806581497192383
1772563612345711400,3.02471142578125,1.9581685066223145,-0.11403869092464447,1.366188406944275
1772563612355710200,3.034710205078125,1.8647128343582153,-0.028365332633256912,1.3650124073028564
1772563612365708300,3.044708251953125,1.6937798261642456,0.053403351455926895,1.319757342338562
1772563612375706400,3.054706298828125,1.533078908920288,0.006388172507286072,1.227827787399292
1772563612385705500,3.06470556640625,1.4052022695541382,-0.019837643951177597,1.1254864931106567
1772563612395703300,3.074703369140625,1.2867027521133423,-0.017796598374843597,1.0114190578460693
1772563612405701400,3.084701416015625,1.3215752840042114,-0.39181357622146606,1.0331476926803589
1772563612415700500,3.094700439453125,2.0886573791503906,-2.079207420349121,1.564583659172058
1772563612425698300,3.1046982421875,3.43762469291687,-4.910364151000977,2.4496803283691406
1772563612435696400,3.1146962890625,3.5698635578155518,-7.444248199462891,2.914893865585327
1772563612445695500,3.124695556640625,2.3078384399414062,-9.008575439453125,2.7210891246795654
1772563612455692800,3.13469287109375,0.592810332775116,-8.606486320495605,1.9141767024993896
1772563612465691000,3.14469091796875,-0.4025794267654419,-6.2211995124816895,1.1635680198669434
1772563612475690000,3.15468994140625,-0.5465866327285767,-2.878161907196045,0.9054019451141357
1772563612485687800,3.164687744140625,-0.47680410742759705,1.4673032760620117,0.5754871368408203
1772563612495686000,3.174685791015625,-0.029564816504716873,3.2433862686157227,0.12375321239233017
1772563612505684700,3.184684814453125,0.3287719786167145,2.2305641174316406,-0.3745144307613373
1772563612515682800,3.194682861328125,0.7333634495735168,0.6580357551574707,-0.7215064167976379
1772563612525681700,3.204681640625,0.9247423410415649,-0.17631475627422333,-0.9188905954360962
1772563612535679700,3.2146796875,0.884465217590332,-0.034240178763866425,-0.9514211416244507
1772563612545677800,3.224677734375,0.8187439441680908,0.7025806307792664,-0.8236047029495239
1772563612555677000,3.234677001953125,0.7302582859992981,1.467508316040039,-0.6531032919883728
1772563612565674800,3.2446748046875,0.6446014642715454,2.037672996520996,-0.5133826732635498
1772563612575672800,3.2546728515625,0.5114391446113586,2.3939614295959473,-0.44448724389076233
1772563612585672000,3.264671875,0.3450540602207184,2.580759048461914,-0.4259728789329529
1772563612595669800,3.274669677734375,0.17040956020355225,2.6383450031280518,-0.47118136286735535
1772563612605667800,3.284667724609375,-0.03241116926074028,2.607607126235962,-0.589057981967926
1772563612615667000,3.2946669921875,-0.28001564741134644,2.5017921924591064,-0.7614771723747253
1772563612625665000,3.3046650390625,-0.5383229851722717,2.2894623279571533,-0.9875961542129517
1772563612635662800,3.314662841796875,-0.830899178981781,1.5974074602127075,-1.3062697649002075
1772563612645662000,3.324661865234375,-1.1847467422485352,0.3870404362678528,-1.7629274129867554
1772563612655660000,3.334659912109375,-1.6423689126968384,-1.2778568267822266,-2.442237377166748
1772563612665657900,3.344657958984375,-2.259153366088867,-3.1167991161346436,-3.167564868927002
1772563612675656700,3.35465673828125,-2.769317865371704,-4.188758850097656,-4.061688423156738
1772563612685654800,3.36465478515625,-2.646923303604126,-2.812417507171631,-4.797813415527344
1772563612695652600,3.374652587890625,-2.2152650356292725,0.05939166620373726,-4.946157455444336
1772563612705651700,3.384651611328125,-1.7986174821853638,2.580522298812866,-4.614708423614502
1772563612715649800,3.39464990234375,-1.4939444065093994,3.8240067958831787,-4.188302040100098
1772563612725649000,3.40464892578125,-1.3031741380691528,4.335662364959717,-3.75654935836792
1772563612735646700,3.414646728515625,-1.1354498863220215,4.411998748779297,-3.303298234939575
1772563612745644800,3.424644775390625,-0.7870615720748901,4.022366523742676,-2.441941976547241
1772563612755644000,3.434643798828125,-0.04727380350232124,2.9552242755889893,-1.0067869424819946
1772563612765642000,3.44464208984375,0.7157931923866272,1.7004235982894897,0.4105762541294098
1772563612775639800,3.454639892578125,1.126807689666748,0.5788747072219849,1.4872634410858154
1772563612785639000,3.464638916015625,1.2757357358932495,-0.30377620458602905,2.2209784984588623
1772563612795637000,3.474636962890625,1.2642700672149658,-0.8730356693267822,2.591599464416504
1772563612805634800,3.484634765625,1.1922918558120728,-1.1670657396316528,2.6003804206848145
1772563612815633700,3.494633544921875,1.0386935472488403,-1.2923669815063477,2.3406829833984375
1772563612825631700,3.5046318359375,0.8607863783836365,-1.2774474620819092,1.9310468435287476
1772563612835629800,3.5146298828125,0.7486401200294495,-1.096628189086914,1.426010251045227
1772563612845628700,3.524628662109375,0.6607783436775208,-0.8407256603240967,1.0037540197372437
1772563612855626800,3.534626708984375,0.5737771391868591,-0.7297235131263733,0.7907642126083374
1772563612865625900,3.5446259765625,0.5074104070663452,-0.8239278197288513,0.660747230052948
1772563612875624000,3.5546240234375,0.45776593685150146,-1.083497405052185,0.5157114863395691
1772563612885621800,3.564621826171875,0.4259442389011383,-1.4920008182525635,0.3628323972225189
1772563612895620900,3.574620849609375,0.41597628593444824,-1.9293347597122192,0.26561716198921204
1772563612905619000,3.584618896484375,0.5102824568748474,-2.370147943496704,0.3586389720439911
1772563612915616800,3.59461669921875,0.9503554105758667,-2.8578357696533203,0.8736780285835266
1772563612925615900,3.604615966796875,1.576494812965393,-2.799431562423706,1.4260538816452026
1772563612935614000,3.614614013671875,2.14616060256958,-2.554321527481079,1.5589115619659424
1772563612945612000,3.624612060546875,2.5044150352478027,-2.4663004875183105,1.530092477798462
1772563612955611000,3.63461083984375,2.563126802444458,-1.9359241724014282,1.6456934213638306
1772563612965609000,3.64460888671875,2.454918384552002,0.38626596331596375,2.2938733100891113
1772563612975607000,3.65460693359375,2.335085391998291,2.814312696456909,2.945390462875366
1772563612985606000,3.66460595703125,1.830230712890625,0.07640696316957474,3.0943989753723145
1772563612995603700,3.674603759765625,0.7611767053604126,-2.8755156993865967,2.071108818054199
1772563613005601800,3.684601806640625,0.061134129762649536,-2.0282821655273438,0.6230428814888
1772563613015601000,3.694600830078125,0.15217800438404083,0.3252193331718445,-0.2542908191680908
1772563613025598700,3.7045986328125,0.285685658454895,1.4467724561691284,-0.6842982172966003
1772563613035597800,3.714597900390625,0.5124021172523499,1.223779559135437,-0.7030295729637146
1772563613045596000,3.724595947265625,0.6178069710731506,0.7456625699996948,-0.45917490124702454
1772563613055593700,3.73459375,0.6138759255409241,0.6050881147384644,-0.0927007794380188
1772563613065592800,3.7445927734375,0.5764687061309814,0.7218238711357117,0.30548807978630066
1772563613075591000,3.7545908203125,0.46247345209121704,0.9265447854995728,0.6281065940856934
1772563613085589000,3.764589111328125,0.28613319993019104,1.248494267463684,0.8914893269538879
1772563613095587800,3.774587890625,0.0870850682258606,1.6349461078643799,1.1024731397628784
1772563613105586000,3.7845859375,-0.10172170400619507,1.9475359916687012,1.2520416975021362
1772563613115584000,3.794583984375,-0.3070372939109802,2.1302099227905273,1.3415924310684204
1772563613125582800,3.804582763671875,-0.55010586977005,2.176483154296875,1.3802759647369385
1772563613135580700,3.81458056640625,-0.8030430674552917,2.1066925525665283,1.356830358505249
1772563613145578800,3.824578857421875,-1.0603431463241577,1.9658902883529663,1.2555650472640991
1772563613155577900,3.834577880859375,-1.3173717260360718,1.7753539085388184,1.0795255899429321
1772563613165575700,3.84457568359375,-1.5842101573944092,1.5052062273025513,0.8210659623146057
1772563613175573800,3.85457373046875,-1.8854891061782837,1.0757856369018555,0.49809083342552185
1772563613185572900,3.86457275390625,-2.2260217666625977,0.5303841233253479,0.10618285089731216
1772563613195571000,3.874571044921875,-2.637342929840088,-0.14491048455238342,-0.42494842410087585
1772563613205569800,3.88456982421875,-3.0845787525177,-0.8605217337608337,-1.0312024354934692
1772563613215568000,3.89456787109375,-3.4755802154541016,-1.4366482496261597,-1.6108745336532593
1772563613225566000,3.90456591796875,-3.775728225708008,-1.8114936351776123,-2.048525810241699
1772563613235565000,3.91456494140625,-3.9725773334503174,-1.832579493522644,-2.2779104709625244
1772563613245563000,3.92456298828125,-4.098156452178955,-1.7763211727142334,-2.3293800354003906
1772563613255561000,3.93456103515625,-4.150986194610596,-1.148207187652588,-2.220643997192383
1772563613265559800,3.944559814453125,-4.174677848815918,-0.5912860035896301,-2.121408700942993
1772563613275557600,3.9545576171875,-4.151106357574463,-0.1683051735162735,-2.0402112007141113
1772563613285555700,3.9645556640625,-3.9442079067230225,-0.057840801775455475,-1.8240716457366943
1772563613295554800,3.974554931640625,-3.5878183841705322,0.2771017849445343,-1.627875804901123
1772563613305552600,3.984552734375,-3.131498098373413,0.7663435339927673,-1.530686378479004
1772563613315550700,3.99455078125,-2.7020506858825684,1.1819987297058105,-1.3933796882629395
1772563613325549800,4.0045498046875,-2.3144264221191406,1.3554877042770386,-1.1695836782455444
1772563613335548000,4.0145478515625,-1.9193753004074097,1.3778241872787476,-0.9084606170654297
1772563613345545700,4.024545654296875,-1.5455200672149658,1.3068530559539795,-0.6396244764328003
1772563613355544800,4.034544921875,-1.201501488685608,1.2071725130081177,-0.37505513429641724
1772563613365543000,4.04454296875,-0.8574548363685608,1.0874708890914917,-0.08424211293458939
1772563613375542000,4.0545419921875,-0.48229479789733887,0.9374712705612183,0.2545340657234192
1772563613385539800,4.064539794921875,-0.133307084441185,0.9290745258331299,0.4692285656929016
1772563613395538000,4.074537841796875,0.1139434427022934,0.9925315380096436,0.5785425305366516
1772563613405536800,4.084536865234375,0.301099956035614,0.9204168319702148,0.694355309009552
1772563613415534800,4.094534912109375,0.4617237448692322,0.6371476054191589,0.862537145614624
1772563613425533000,4.104532958984375,0.7502139806747437,-0.01482985820621252,1.2672148942947388
1772563613435531800,4.11453173828125,1.5843043327331543,-1.4509754180908203,2.314444065093994
1772563613445529900,4.12452978515625,1.8883488178253174,-1.9396848678588867,3.1097793579101562
1772563613455529000,4.134529052734375,2.132294178009033,-2.1417438983917236,3.319740056991577
1772563613465527800,4.14452783203125,3.9836394786834717,-3.802661180496216,3.444951057434082
1772563613475526000,4.15452587890625,6.198863506317139,-6.071577072143555,3.641101121902466
1772563613485524000,4.16452392578125,6.840035915374756,-7.178443908691406,3.607804775238037
1772563613495523000,4.174523193359375,6.363092422485352,-7.007979393005371,4.626557350158691
1772563613505521000,4.18452099609375,3.8957724571228027,-2.3257193565368652,4.313878536224365
1772563613515519000,4.19451904296875,0.9383162260055542,2.003424882888794,2.044167995452881
1772563613525517800,4.204517822265625,0.0290716290473938,3.275784969329834,0.058145735412836075
1772563613535516000,4.214515869140625,0.6601970791816711,1.6516544818878174,-1.3962723016738892
1772563613545514800,4.2245146484375,1.3527982234954834,-0.15335693955421448,-2.329423189163208
1772563613555512800,4.234512939453125,1.3236628770828247,-0.4998411238193512,-2.688750982284546
1772563613565511000,4.244510986328125,0.36148422956466675,1.2325382232666016,-2.5428082942962646
1772563613575509800,4.254509765625,-0.6662496328353882,3.644458770751953,-2.182621955871582
1772563613585507800,4.2645078125,-1.3414217233657837,5.022835731506348,-1.7639427185058594
1772563613595506000,4.274505859375,-1.6464745998382568,5.190621852874756,-1.3912339210510254
1772563613605505000,4.284505126953125,-1.7516731023788452,4.530238628387451,-1.2203131914138794
1772563613615502800,4.2945029296875,-1.8224130868911743,3.515986204147339,-1.2107601165771484
1772563613625501000,4.3045009765625,-1.9479470252990723,2.2219715118408203,-1.2825747728347778
1772563613635500000,4.3145,-2.11563777923584,0.7123275399208069,-1.3052582740783691
1772563613645497900,4.324497802734375,-2.222055435180664,-0.9284454584121704,-1.2786593437194824
1772563613655496000,4.334495849609375,-2.0425732135772705,-2.838660955429077,-1.16621994972229
1772563613665495000,4.3444951171875,-1.622691035270691,-4.380067825317383,-0.9598222374916077
1772563613675492900,4.354492919921875,-1.276451587677002,-5.089481353759766,-0.7472902536392212
1772563613685491000,4.364490966796875,-1.1523734331130981,-5.058427333831787,-0.6215996146202087
1772563613695489800,4.37448974609375,-1.1154117584228516,-4.4582014083862305,-0.540951132774353
1772563613705488000,4.38448779296875,-1.0919392108917236,-3.366335153579712,-0.5355051159858704
1772563613715485700,4.394485595703125,-1.0119576454162598,-1.8231229782104492,-0.6137074828147888
1772563613725484800,4.40448486328125,-0.8382863998413086,-0.2374199777841568,-0.6363289952278137
1772563613735483000,4.41448291015625,-0.5334327220916748,1.0862066745758057,-0.5206695199012756
1772563613745482000,4.42448193359375,-0.09103284031152725,2.25710129737854,-0.32190951704978943
1772563613755479800,4.434479736328125,0.3859321177005768,2.9393341541290283,-0.03162601217627525
1772563613765478000,4.444477783203125,0.797383725643158,3.1644132137298584,0.29220613837242126
1772563613775477000,4.45447705078125,1.0825988054275513,3.173844575881958,0.601235568523407
1772563613785474800,4.464474853515625,1.1946216821670532,3.010143518447876,0.8944097757339478
1772563613795473000,4.474472900390625,1.148123860359192,2.6122448444366455,1.1769176721572876
1772563613805472000,4.484471923828125,0.9891312718391418,2.0743319988250732,1.37679123878479
1772563613815470000,4.494469970703125,0.8472905158996582,1.5078363418579102,1.4609156847000122
1772563613825468000,4.504468017578125,0.746674656867981,0.9409642815589905,1.4396206140518188
1772563613835466800,4.514466796875,0.675761342048645,0.4195314645767212,1.3278378248214722
1772563613845464800,4.52446484375,0.6549453735351562,-0.012538142502307892,1.134729027748108
1772563613855463000,4.534462890625,0.661691427230835,-0.33060744404792786,0.9188904762268066
1772563613865461800,4.544461669921875,0.6543940305709839,-0.5558716058731079,0.7202873229980469
1772563613875459800,4.5544599609375,0.5926635265350342,-0.702543318271637,0.5675041675567627
1772563613885458000,4.5644580078125,0.47068649530410767,-0.8103129267692566,0.45346173644065857
1772563613895456800,4.574456787109375,0.29944708943367004,-0.9505531191825867,0.3852461874485016
1772563613905454800,4.584454833984375,0.09685491025447845,-1.120242714881897,0.31303930282592773
1772563613915454000,4.594453857421875,-0.10824524611234665,-1.1567330360412598,0.22637686133384705
1772563613925452000,4.6044521484375,-0.23230697214603424,-1.1986154317855835,0.10036852210760117
1772563613935449900,4.614449951171875,-0.26007866859436035,-1.3675525188446045,-0.022260187193751335
1772563613945449000,4.624448974609375,-0.3098102807998657,-1.426781415939331,-0.15556524693965912
1772563613955447000,4.634447021484375,-0.4118919372558594,-1.5009517669677734,-0.3381904363632202
1772563613965444900,4.64444482421875,-0.542870283126831,-1.6059216260910034,-0.580120325088501
1772563613975444000,4.65444384765625,0.0034950654953718185,-1.4539613723754883,-0.853285551071167
1772563613985442000,4.664442138671875,1.397595763206482,-1.336337685585022,-1.0617494583129883
1772563613995439900,4.67443994140625,2.7622427940368652,-0.786294162273407,-1.3387796878814697
1772563614005438700,4.684438720703125,4.047098159790039,-0.2892642021179199,-1.3730841875076294
1772563614015436800,4.694436767578125,5.42324161529541,-2.826995372772217,0.5670822858810425
1772563614025435000,4.704434814453125,4.183980941772461,-2.7892813682556152,1.4789719581604004
1772563614035433700,4.714433837890625,1.4325151443481445,-0.49355921149253845,0.6204606294631958
1772563614045431800,4.724431884765625,0.1373969316482544,1.0101134777069092,-0.00905887596309185
1772563614055430000,4.734429931640625,0.9035165309906006,1.769249677658081,0.15953733026981354
1772563614065429000,4.744428955078125,1.9309200048446655,1.7504898309707642,0.46891409158706665
1772563614075426800,4.7544267578125,2.6056036949157715,1.538751482963562,0.7906684875488281
1772563614085426000,4.764426025390625,2.5169870853424072,1.3742544651031494,1.0511417388916016
1772563614095424000,4.774424072265625,1.8487372398376465,1.3837158679962158,1.2860710620880127
1772563614105421800,4.784421875,1.190218210220337,1.6488982439041138,1.5567044019699097
1772563614115421000,4.7944208984375,0.6995483636856079,2.007596492767334,1.843817949295044
1772563614125419000,4.8044189453125,0.2772989571094513,2.3494713306427,2.0826032161712646
1772563614135417000,4.8144169921875,-0.11040589958429337,2.61633563041687,2.192547082901001
1772563614145415700,4.824415771484375,-0.46403998136520386,2.7941651344299316,2.165985107421875
1772563614155413800,4.834413818359375,-0.8000068664550781,2.872485399246216,2.0233218669891357
1772563614165411800,4.844411865234375,-1.1414681673049927,2.860602855682373,1.7867145538330078
1772563614175411000,4.854410888671875,-1.4622009992599487,2.7374632358551025,1.5022542476654053
1772563614185408800,4.86440869140625,-1.7833924293518066,2.4699854850769043,1.1779955625534058
1772563614195406800,4.87440673828125,-2.126140594482422,2.007350444793701,0.8369671106338501
1772563614205406000,4.884406005859375,-2.4257020950317383,1.393841028213501,0.5089118480682373
1772563614215403800,4.89440380859375,-2.6742708683013916,0.7563217878341675,0.21996015310287476
1772563614225401900,4.90440185546875,-2.9112062454223633,0.15102393925189972,-0.04850428178906441
1772563614235401000,4.91440087890625,-3.134824275970459,-0.3816056251525879,-0.31001895666122437
1772563614245399000,4.92439892578125,-3.324016571044922,-0.8942510485649109,-0.5556554198265076
1772563614255396900,4.93439697265625,-3.441805601119995,-1.3244484663009644,-0.8064500689506531
1772563614265396000,4.94439599609375,-3.4921092987060547,-1.6684359312057495,-1.0651837587356567
1772563614275394000,4.95439404296875,-3.487229585647583,-2.0186991691589355,-1.2826995849609375
1772563614285393000,4.964392822265625,-3.416642427444458,-2.365999937057495,-1.4506289958953857
1772563614295390700,4.974390625,-3.1892154216766357,-2.8750879764556885,-1.5447746515274048
1772563614305388800,4.984388916015625,-2.6856348514556885,-3.2974956035614014,-1.6501623392105103
1772563614315388000,4.994387939453125,-2.0220236778259277,-3.3568544387817383,-1.8716657161712646
1772563614325385700,5.0043857421875,-1.27051842212677,-3.020573616027832,-2.2411091327667236
1772563614335383800,5.0143837890625,-0.6389957666397095,-2.745903730392456,-2.5966150760650635
1772563614345383000,5.0243828125,-0.2966953217983246,-2.8140945434570312,-2.7682101726531982
1772563614355380700,5.034380615234375,-0.1371312290430069,-3.161243438720703,-2.7478585243225098
1772563614365378800,5.04437890625,0.25945544242858887,-4.044124603271484,-2.67279052734375
1772563614375378000,5.0543779296875,0.5564253330230713,-4.589407920837402,-2.5498812198638916
1772563614385376000,5.0643759765625,0.4450560510158539,-3.9569897651672363,-2.4312872886657715
1772563614395373800,5.074373779296875,0.2500138580799103,-3.083427906036377,-2.3181517124176025
1772563614405373000,5.084373046875,0.18123872578144073,-2.4566709995269775,-2.236863613128662
1772563614415371000,5.09437109375,0.22036536037921906,-2.0301268100738525,-2.145737648010254
1772563614425368800,5.104368896484375,0.24354471266269684,-1.6183078289031982,-2.027386426925659
1772563614435368000,5.114367919921875,0.2639632821083069,-1.2295938730239868,-1.9095641374588013
1772563614445366000,5.124365966796875,0.26598817110061646,-0.857639729976654,-1.7816746234893799
1772563614455364400,5.1343642578125,0.2722298204898834,-0.5494725704193115,-1.6175392866134644
1772563614465362400,5.144362548828125,0.2776912450790405,-0.31042107939720154,-1.3900808095932007
1772563614475360300,5.1543603515625,0.31159859895706177,-0.015814486891031265,-1.083757996559143
1772563614485359000,5.164359130859375,0.34319254755973816,0.2997887432575226,-0.737011730670929
1772563614495357200,5.174357177734375,0.28627467155456543,0.7308304309844971,-0.4355836808681488
1772563614505355300,5.184355224609375,0.00551271066069603,1.2616825103759766,-0.205169215798378
1772563614515354000,5.19435400390625,0.19548878073692322,2.3323159217834473,0.3189517855644226
1772563614525352200,5.204352294921875,4.151137828826904,5.635476589202881,3.1797661781311035
1772563614535350300,5.214350341796875,8.370638847351074,7.210402011871338,5.586069107055664
1772563614545349400,5.224349365234375,9.092663764953613,6.379804611206055,5.55051326751709
1772563614555347200,5.23434716796875,5.80888032913208,2.7944016456604004,4.709712982177734
1772563614565345300,5.24434521484375,1.0562163591384888,-1.7213175296783447,4.091752052307129
1772563614575344400,5.254344482421875,-0.09249547868967056,-2.664494037628174,4.580637454986572
1772563614585342200,5.26434228515625,0.553594172000885,-1.50999915599823,5.926103591918945
1772563614595340300,5.27434033203125,1.1775836944580078,-0.7090803384780884,7.087321758270264
1772563614605339400,5.28433935546875,1.4862194061279297,-0.3547965884208679,7.68416166305542
1772563614615337500,5.29433740234375,1.3461838960647583,-0.535683810710907,7.297905445098877
1772563614625336000,5.304336181640625,0.8310434818267822,-0.5356313586235046,6.029106140136719
1772563614635334100,5.314334228515625,0.332954078912735,0.0928669273853302,4.17832612991333
1772563614645332200,5.324332275390625,0.18029387295246124,0.9878692626953125,2.1224029064178467
1772563614655329300,5.334329345703125,0.12168462574481964,1.4303902387619019,0.4312918484210968
1772563614665327400,5.344327392578125,-0.005651725456118584,1.5116242170333862,-0.7197556495666504
1772563614675326500,5.354326416015625,-0.13543236255645752,1.567976951599121,-1.4368155002593994
1772563614685324300,5.36432421875,-0.2651759088039398,1.707541823387146,-1.89181387424469
1772563614695322400,5.374322265625,-0.4102521538734436,1.8446881771087646,-2.20534610748291
1772563614705321200,5.3843212890625,-0.6131742596626282,1.8407340049743652,-2.467740774154663
1772563614715319000,5.394319091796875,-0.9121705889701843,1.6449058055877686,-2.717731475830078
1772563614725317000,5.404317138671875,-1.2694002389907837,1.1912480592727661,-3.0019848346710205
1772563614735316200,5.414316162109375,-1.656845211982727,0.5065972805023193,-3.3449602127075195
1772563614745314300,5.424314208984375,-2.02057147026062,-0.30304625630378723,-3.7168190479278564
1772563614755313200,5.434313232421875,-2.3776135444641113,-1.17023503780365,-4.106354236602783
1772563614765311200,5.444311279296875,-2.7586421966552734,-2.0639595985412598,-4.512808322906494
1772563614775309300,5.454309326171875,-3.139939546585083,-2.9220001697540283,-4.933338642120361
1772563614785308400,5.464308349609375,-3.4850003719329834,-3.5037200450897217,-5.504210472106934
1772563614795306200,5.47430615234375,-3.7706499099731445,-3.558974027633667,-6.04359245300293
1772563614805304300,5.48430419921875,-3.944477081298828,-3.6857032775878906,-6.319669723510742
1772563614815303400,5.494303466796875,-4.047609329223633,-3.2931365966796875,-6.482998847961426
1772563614825301200,5.50430126953125,-4.060455799102783,-2.6563916206359863,-6.517134666442871
1772563614835299300,5.51429931640625,-3.9198122024536133,-2.444749355316162,-6.328973293304443
1772563614845298200,5.524298095703125,-3.6996843814849854,-2.059624195098877,-6.028578281402588
1772563614855296300,5.534296142578125,-3.454077959060669,-1.212384581565857,-5.594056606292725
1772563614865294300,5.54429443359375,-3.158435821533203,-0.36586031317710876,-5.069455146789551
1772563614875293200,5.554293212890625,-2.8100454807281494,0.20913614332675934,-4.518888473510742
1772563614885291300,5.564291259765625,-2.426258087158203,0.5057514905929565,-3.978614091873169
1772563614895289000,5.5742890625,-2.0285072326660156,0.707459568977356,-3.451082706451416
1772563614905288200,5.5842880859375,-1.6172587871551514,0.867876410484314,-2.959702968597412
1772563614915286300,5.594286376953125,-1.2489761114120483,0.9833841323852539,-2.516341209411621
1772563614925285400,5.604285400390625,-0.9321539998054504,1.0646915435791016,-2.1405224800109863
1772563614935283200,5.614283203125,-0.6714358925819397,1.0933983325958252,-1.8145205974578857
1772563614945281300,5.62428125,-0.4684203267097473,1.0776269435882568,-1.5004435777664185
1772563614955280400,5.6342802734375,-0.3385254442691803,1.0108755826950073,-1.197428584098816
1772563614965278200,5.6442783203125,-0.272210955619812,0.8993119597434998,-0.8846501708030701
1772563614975276300,5.6542763671875,-0.26306697726249695,0.7629040479660034,-0.584363579750061
1772563614985275400,5.664275390625,-0.2932019829750061,0.6165705323219299,-0.29109740257263184
1772563614995273500,5.6742734375,-0.3474797010421753,0.46392732858657837,0.003922868054360151
1772563615005271300,5.684271240234375,-0.42981603741645813,0.32294654846191406,0.32982519268989563
1772563615015270100,5.694270263671875,-0.5122656226158142,0.2770557701587677,0.7595659494400024
1772563615025268200,5.704268310546875,-0.5113379955291748,0.49911993741989136,1.3121601343154907
1772563615035266000,5.71426611328125,-0.21566346287727356,0.7121152877807617,1.8431224822998047
1772563615045265200,5.72426513671875,1.5015679597854614,0.624891996383667,2.376868963241577
1772563615055263200,5.73426318359375,5.51694393157959,0.327137291431427,3.356661796569824
1772563615065262300,5.744262451171875,11.698415756225586,0.6474443674087524,6.058171272277832
1772563615075261400,5.754261474609375,15.287225723266602,0.4484484791755676,8.763120651245117
1772563615085259300,5.76425927734375,11.124244689941406,-3.284144878387451,9.759997367858887
1772563615095257300,5.77425732421875,2.1263294219970703,-6.68519926071167,9.147836685180664
1772563615105256200,5.784256103515625,-2.930795431137085,-5.160327911376953,8.132692337036133
1772563615115254300,5.794254150390625,-2.6168949604034424,-0.7483798265457153,7.972663402557373
1772563615125252400,5.80425244140625,-1.4498021602630615,2.728332281112671,8.216682434082031
1772563615135251200,5.814251220703125,-0.35280823707580566,5.972070693969727,8.51498031616211
1772563615145249300,5.824249267578125,0.5073596835136414,6.254382610321045,8.097311973571777
1772563615155247000,5.8342470703125,0.8072084784507751,3.456118106842041,6.440756320953369
1772563615165246200,5.84424609375,1.2910417318344116,1.005434274673462,4.220134735107422
1772563615175244300,5.854244384765625,1.910264492034912,-0.5123552680015564,2.021526575088501
1772563615185242000,5.8642421875,2.2142326831817627,-1.3169896602630615,0.2523389160633087
1772563615195241200,5.8742412109375,2.1185357570648193,-1.2788913249969482,-0.9338476657867432
1772563615205239300,5.8842392578125,1.842110276222229,-1.0916255712509155,-1.6440621614456177
1772563615215238400,5.89423828125,1.4986493587493896,-0.8476163148880005,-2.0522541999816895
1772563615225236200,5.904236328125,1.208486557006836,-0.47131824493408203,-2.2600224018096924
1772563615235234300,5.914234375,0.9924187660217285,-0.12152880430221558,-2.3735830783843994
1772563615245233400,5.9242333984375,0.7557519674301147,0.09238217771053314,-2.4393742084503174
1772563615255231200,5.934231201171875,0.48175719380378723,0.06551700830459595,-2.505213499069214
1772563615265229300,5.944229248046875,0.18110211193561554,-0.1327563226222992,-2.601320505142212
1772563615275228200,5.954228271484375,-0.1382279396057129,-0.4936162531375885,-2.710409164428711
1772563615285226200,5.964226318359375,-0.4945079982280731,-0.9490718245506287,-2.8253355026245117
1772563615295224000,5.97422412109375,-0.845523476600647,-1.42893648147583,-2.9299113750457764
1772563615305223200,5.98422314453125,-1.1820189952850342,-1.8664928674697876,-3.0025932788848877
1772563615315221200,5.99422119140625,-1.521755576133728,-2.380385160446167,-3.0874032974243164
1772563615325219000,6.004218994140625,-1.8457874059677124,-2.9885776042938232,-3.2072534561157227
1772563615335218200,6.01421826171875,-2.0688507556915283,-3.605682611465454,-3.3335087299346924
1772563615345216300,6.02421630859375,-2.1545536518096924,-4.28143835067749,-3.4667952060699463
1772563615355214300,6.03421435546875,-2.1291303634643555,-4.998627662658691,-3.6030735969543457
1772563615365213200,6.044213134765625,-1.9950803518295288,-5.712405204772949,-3.7665326595306396
1772563615375211300,6.054211181640625,-1.7583619356155396,-6.434493541717529,-3.9866957664489746
1772563615385210400,6.06421044921875,-1.5110373497009277,-7.12469482421875,-4.160467624664307
1772563615395208400,6.07420849609375,-1.2865965366363525,-7.481357097625732,-4.243865013122559
1772563615405206300,6.084206298828125,-1.0834592580795288,-7.4166178703308105,-4.2620368003845215
1772563615415205000,6.094205078125,-0.9067939519882202,-7.0471720695495605,-4.225226879119873
1772563615425203200,6.104203125,-0.7792667150497437,-6.498427391052246,-4.158543586730957
1772563615435201300,6.114201171875,-0.6537426114082336,-5.786707878112793,-4.055235385894775
1772563615445200100,6.1242001953125,-0.5058022737503052,-4.951333045959473,-3.919154405593872
1772563615455198200,6.1341982421875,-0.3148309886455536,-4.000631809234619,-3.7371044158935547
1772563615465196300,6.1441962890625,-0.07538487762212753,-2.9266951084136963,-3.5521316528320312
1772563615475195400,6.1541953125,0.19239863753318787,-1.7335565090179443,-3.354212760925293
1772563615485193500,6.164193359375,0.48068296909332275,-0.5962460041046143,-3.1493024826049805
1772563615495191600,6.174191650390625,0.7555688619613647,0.30578503012657166,-2.9590489864349365
1772563615505190400,6.1841904296875,0.9726889133453369,0.8908384442329407,-2.8214213848114014
1772563615515188500,6.1941884765625,1.1037731170654297,1.2848637104034424,-2.7210288047790527
1772563615525187600,6.2041875,1.1834403276443481,1.6256638765335083,-2.5842456817626953
1772563615535185700,6.214185546875,1.2594151496887207,2.1147830486297607,-2.340346336364746
1772563615545183500,6.22418359375,1.438494086265564,2.881737470626831,-1.9989114999771118
1772563615555182300,6.234182373046875,1.823891043663025,4.000942230224609,-1.5115535259246826
1772563615565180400,6.244180419921875,2.726673126220703,5.691081523895264,-0.8617140650749207
1772563615575178500,6.254178466796875,4.589095592498779,8.244647979736328,-0.07772290706634521
1772563615585177300,6.26417724609375,7.5640435218811035,10.957420349121094,0.828392505645752
1772563615595175400,6.274175537109375,11.355103492736816,11.655632972717285,1.3104830980300903
1772563615605173200,6.28417333984375,14.019749641418457,10.4164400100708,1.2113701105117798
1772563615615172400,6.29417236328125,11.171603202819824,6.515225887298584,0.802288830280304
1772563615625170400,6.30417041015625,3.7808284759521484,-0.17189127206802368,0.913614809513092
1772563615635168500,6.31416845703125,-0.39990586042404175,-1.7510288953781128,3.333846092224121
1772563615645167400,6.32416748046875,-1.334489345550537,2.1172142028808594,7.707883358001709
1772563615655165400,6.33416552734375,-1.869537591934204,4.452945232391357,10.475286483764648
1772563615665163500,6.34416357421875,-1.4616986513137817,4.947298049926758,11.978313446044922
1772563615675162600,6.35416259765625,-0.6777869462966919,4.89395809173584,12.94748306274414
1772563615685160400,6.364160400390625,-0.13251693546772003,4.043455123901367,14.87546443939209
1772563615695158500,6.374158447265625,0.08559675514698029,0.7575530409812927,15.530069351196289
1772563615705157600,6.38415771484375,0.5302241444587708,-2.72017765045166,14.352690696716309
1772563615715155500,6.394155517578125,1.1064786911010742,-3.7105045318603516,12.235490798950195
1772563615725154300,6.404154296875,0.9833799600601196,-2.4039087295532227,9.332514762878418
1772563615735152400,6.41415234375,0.7525907158851624,-0.6264686584472656,6.05275821685791
1772563615745150500,6.424150390625,1.0066083669662476,0.018308576196432114,3.3428540229797363
1772563615755149300,6.4341494140625,1.4904125928878784,-0.20163923501968384,1.3008917570114136
1772563615765147400,6.4441474609375,1.971038579940796,-1.2180275917053223,-0.6661071181297302
1772563615775145500,6.4541455078125,2.2222938537597656,-2.491133689880371,-2.444181442260742
1772563615785144600,6.46414453125,2.0272579193115234,-3.8248698711395264,-3.8014979362487793
1772563615795142400,6.474142333984375,1.5436183214187622,-4.581579685211182,-4.49811315536499
1772563615805140500,6.484140380859375,1.0682212114334106,-4.729717254638672,-4.778842926025391
1772563615815139600,6.4941396484375,0.6783181428909302,-4.679262638092041,-4.988856792449951
1772563615825137400,6.504137451171875,0.370221346616745,-4.6003618240356445,-5.209352970123291
1772563615835135500,6.514135498046875,0.17869214713573456,-4.539994239807129,-5.407733917236328
1772563615845134600,6.524134521484375,0.07891019433736801,-4.414952754974365,-5.545408725738525
1772563615855132700,6.534132568359375,0.008902880363166332,-4.200439453125,-5.529507637023926
1772563615865131300,6.54413134765625,-0.6295026540756226,-2.9053354263305664,-5.038311958312988
1772563615875129300,6.55412939453125,-1.6334753036499023,-1.0744645595550537,-4.292647838592529
1772563615885127400,6.56412744140625,-2.5584402084350586,-0.22894224524497986,-4.008799076080322
1772563615895126500,6.57412646484375,-3.433079719543457,0.06035800278186798,-3.9426634311676025
1772563615905124400,6.584124267578125,-4.231886863708496,0.20011617243289948,-3.949314594268799
1772563615915122400,6.594122314453125,-4.849052429199219,0.7356725335121155,-3.8304572105407715
1772563615925121500,6.60412158203125,-5.083693027496338,1.2907524108886719,-3.7388274669647217
1772563615935119400,6.614119384765625,-4.873654365539551,1.8040053844451904,-3.696615219116211
1772563615945117400,6.624117431640625,-4.278000831604004,2.2417304515838623,-3.682455539703369
1772563615955116500,6.634116455078125,-3.534855604171753,2.4670727252960205,-3.689545154571533
1772563615965114400,6.6441142578125,-2.6807942390441895,2.5665886402130127,-3.7302653789520264
1772563615975112400,6.654112548828125,-1.72250497341156,2.331773281097412,-3.8044748306274414
1772563615985111600,6.664111572265625,-0.7628556489944458,1.9843852519989014,-3.813662528991699
1772563615995109600,6.674109619140625,-0.07425516098737717,1.621062159538269,-3.587050437927246
1772563616005107500,6.684107421875,0.28326207399368286,1.3704571723937988,-3.1377155780792236
1772563616015106600,6.6941064453125,0.4272235035896301,1.1952275037765503,-2.5571341514587402
1772563616025104600,6.704104736328125,0.45039165019989014,1.0597494840621948,-1.9111288785934448
1772563616035103500,6.714103515625,0.42150941491127014,0.8526134490966797,-1.2333070039749146
1772563616045101300,6.724101318359375,0.4647286832332611,0.5677923560142517,-0.6357019543647766
1772563616055099400,6.734099365234375,0.5520700216293335,0.21973799169063568,-0.12227242439985275
1772563616065098500,6.744098388671875,0.6818522214889526,-0.17166461050510406,0.3223538398742676
1772563616075096300,6.754096435546875,0.8907130360603333,-0.5773945450782776,0.6975806951522827
1772563616085094400,6.764094482421875,1.2356661558151245,-0.9900482892990112,1.0423057079315186
1772563616095093500,6.774093505859375,1.8212950229644775,-1.3871933221817017,1.3832027912139893
1772563616105091600,6.784091552734375,3.108334541320801,-1.5170669555664062,1.727675199508667
1772563616115089400,6.79408935546875,5.653595447540283,-1.1702874898910522,2.0981833934783936
1772563616125088500,6.804088623046875,9.461885452270508,-0.5554565787315369,2.7481796741485596
1772563616135086600,6.814086669921875,13.204440116882324,-0.6435321569442749,3.9884767532348633
1772563616145084400,6.82408447265625,12.551315307617188,-1.449190378189087,6.021919250488281
1772563616155083500,6.83408349609375,6.477329730987549,0.6291684508323669,8.416305541992188
1772563616165081600,6.84408154296875,-0.43542760610580444,1.6718964576721191,9.483409881591797
1772563616175080400,6.85408056640625,-2.180341958999634,2.0293569564819336,11.260427474975586
1772563616185078300,6.864078369140625,-1.317179799079895,-0.8422847390174866,13.233251571655273
1772563616195076400,6.874076416015625,-1.1825593709945679,-4.765068054199219,13.3180570602417
1772563616205075500,6.884075439453125,-2.0502817630767822,-4.68822717666626,11.422224044799805
1772563616215073300,6.8940732421875,-2.963444709777832,-2.3370110988616943,7.726492881774902
1772563616225071400,6.9040712890625,-2.6349923610687256,0.2804148495197296,3.4700701236724854
1772563616235070500,6.914070556640625,-1.681949257850647,1.4715781211853027,-0.08139721304178238
1772563616245068500,6.924068603515625,-1.0963146686553955,1.460770845413208,-2.496748208999634
1772563616255066400,6.93406640625,-0.951833963394165,1.8273990154266357,-3.856119155883789
1772563616265065500,6.9440654296875,-0.8481267094612122,2.4562036991119385,-4.375034332275391
1772563616275063600,6.9540634765625,-0.8342106342315674,2.7000019550323486,-4.451254844665527
1772563616285061400,6.964061279296875,-1.025499701499939,2.2561097145080566,-4.512448310852051
1772563616295060500,6.974060546875,-1.2595553398132324,1.5382018089294434,-4.497068405151367
1772563616305058600,6.98405859375,-1.1123123168945312,0.9321377277374268,-4.226165771484375
1772563616315056600,6.994056640625,-1.200650691986084,1.1480990648269653,-3.724496364593506
1772563616325055500,7.004055419921875,-1.4540696144104004,1.8712879419326782,-3.1302313804626465
1772563616335053600,7.014053466796875,-1.5753827095031738,2.373126745223999,-2.4225428104400635
1772563616345051600,7.0240517578125,-1.5352712869644165,2.690950870513916,-1.597546935081482
1772563616355050500,7.034050537109375,-1.625479817390442,2.7544567584991455,-1.0489815473556519
1772563616365048300,7.04404833984375,-1.751639485359192,2.507521629333496,-0.7585760951042175
1772563616375047400,7.05404736328125,-1.930105209350586,2.1146485805511475,-0.6699881553649902
1772563616385045500,7.06404541015625,-2.1330063343048096,1.6028671264648438,-0.7287086844444275
1772563616395043300,7.074043212890625,-2.139061212539673,1.2797818183898926,-0.6910342574119568
1772563616405042400,7.08404248046875,-1.9441347122192383,1.1542850732803345,-0.5159844756126404
1772563616415040500,7.09404052734375,-1.6774734258651733,1.0707989931106567,-0.3279605805873871
1772563616425038600,7.10403857421875,-1.3382928371429443,0.9239564538002014,-0.1761852353811264
1772563616435037400,7.114037353515625,-0.9252274632453918,0.6659155488014221,-0.03701004758477211
1772563616445035500,7.124035400390625,-0.45567724108695984,0.25293612480163574,0.10459166020154953
1772563616455033600,7.13403369140625,0.0516355000436306,-0.27161872386932373,0.2424461990594864
1772563616465032700,7.14403271484375,0.6122334003448486,-0.8175109028816223,0.37316247820854187
1772563616475030800,7.15403076171875,1.0550081729888916,-1.4931375980377197,0.3204505443572998
1772563616485028900,7.16402880859375,1.3607206344604492,-2.4416465759277344,-0.04445303976535797
1772563616495027500,7.17402734375,1.721907615661621,-3.3298892974853516,-0.5736638903617859
1772563616505025500,7.184025634765625,2.1066107749938965,-3.842899799346924,-0.9649825096130371
1772563616515024600,7.194024658203125,2.278550386428833,-3.9844162464141846,-1.0401136875152588
1772563616525022700,7.204022705078125,2.177380084991455,-3.9396615028381348,-0.9792666435241699
1772563616535020500,7.2140205078125,1.9135550260543823,-3.808265447616577,-0.8988144397735596
1772563616545019600,7.22401953125,1.6343331336975098,-3.5880329608917236,-0.8163522481918335
1772563616555017700,7.234017822265625,1.5053114891052246,-3.2896358966827393,-0.7759194374084473
1772563616565015600,7.244015625,1.6329567432403564,-2.829681634902954,-0.7764333486557007
1772563616575014700,7.2540146484375,1.9242218732833862,-2.1980488300323486,-0.7389195561408997
1772563616585012700,7.2640126953125,2.1490800380706787,-2.90022349357605,-0.9085209369659424
1772563616595010600,7.274010498046875,2.124288558959961,-2.518205404281616,-0.6684114336967468
1772563616605009700,7.284009765625,1.9115431308746338,-0.6449429392814636,0.06647757440805435
1772563616615007700,7.2940078125,1.548251748085022,1.045348882675171,0.8159262537956238
1772563616625005800,7.304005859375,0.6469925045967102,1.9760940074920654,1.31866455078125
1772563616635004400,7.31400439453125,-0.6742057204246521,2.0156972408294678,1.6248301267623901
1772563616645002500,7.32400244140625,-1.5821006298065186,1.096029281616211,1.721664309501648
1772563616655001600,7.334001708984375,-2.0593671798706055,0.5159581303596497,1.790115475654602
1772563616664999700,7.343999755859375,-2.34945011138916,0.3954226076602936,1.8778131008148193
1772563616674997500,7.35399755859375,-2.4511563777923584,0.9257757067680359,2.131234645843506
1772563616684996600,7.36399658203125,-2.632274627685547,1.826695203781128,2.5996503829956055
1772563616694994700,7.37399462890625,-2.9715707302093506,2.1538403034210205,3.1493027210235596
1772563616704992500,7.383992431640625,-2.880260944366455,1.8113878965377808,3.46238112449646
1772563616714991600,7.39399169921875,-2.4863197803497314,1.2002654075622559,3.4701480865478516
1772563616724989700,7.40398974609375,-2.132779121398926,0.6040219068527222,3.163651943206787
1772563616734987800,7.41398779296875,-1.8068124055862427,-0.17794851958751678,2.6303939819335938
1772563616744986600,7.423986572265625,-0.9540438055992126,-0.6201176047325134,2.0328054428100586
1772563616754984700,7.433984619140625,0.6846042275428772,-0.3049596846103668,1.4511295557022095
1772563616764982800,7.443982666015625,1.890740156173706,0.08814477175474167,0.9377896785736084
1772563616774981600,7.453981689453125,2.2040295600891113,0.23543035984039307,0.5110695362091064
1772563616784979500,7.4639794921875,1.685781717300415,0.1611974537372589,0.014731248840689659
1772563616794977800,7.473977783203125,0.7399494051933289,0.6549820899963379,-0.17481179535388947
1772563616804976600,7.4839765625,0.3720599412918091,1.4583977460861206,0.023345015943050385
1772563616814974500,7.493974365234375,0.9055091738700867,1.3608230352401733,0.13220252096652985
1772563616824973600,7.5039736328125,1.3409086465835571,0.7439791560173035,0.19315682351589203
1772563616834971600,7.5139716796875,1.3295902013778687,0.4878823757171631,0.4100654423236847
1772563616844969700,7.5239697265625,1.074730396270752,0.6445899605751038,0.6066367626190186
1772563616854968600,7.533968505859375,1.0252525806427002,0.9428791999816895,0.642395555973053
1772563616864966700,7.543966552734375,1.1669305562973022,1.9940201044082642,0.7246424555778503
1772563616874964700,7.55396484375,1.6912339925765991,2.7628815174102783,0.4708716869354248
1772563616884963600,7.563963623046875,1.8374100923538208,3.1386632919311523,-0.14709745347499847
1772563616894961700,7.573961669921875,1.6929255723953247,3.600074291229248,-0.7184829115867615
1772563616904959700,7.583959716796875,1.8435721397399902,3.7118186950683594,-1.0830140113830566
1772563616914958600,7.59395849609375,2.110126256942749,3.5540270805358887,-1.1866953372955322
1772563616924956700,7.603956787109375,2.5366263389587402,3.0838463306427,-1.080753207206726
1772563616934954800,7.613954833984375,2.9532599449157715,2.5030455589294434,-0.7901317477226257
1772563616944953600,7.62395361328125,3.2054240703582764,1.6275410652160645,-0.5786912441253662
1772563616954951400,7.633951416015625,3.4479405879974365,0.8159095048904419,-0.44816920161247253
1772563616964949500,7.643949462890625,3.7046453952789307,0.284756600856781,-0.42632755637168884
1772563616974948600,7.653948486328125,3.9996066093444824,0.21517564356327057,-0.5851611495018005
1772563616984946700,7.66394677734375,4.159308433532715,0.45022305846214294,-0.854340672492981
1772563616994945500,7.673945556640625,4.230696201324463,0.8793358206748962,-1.2013593912124634
1772563617004943600,7.683943603515625,4.266345024108887,1.3811135292053223,-1.5883357524871826
1772563617014941700,7.693941650390625,4.220402240753174,1.8222017288208008,-2.0047967433929443
1772563617024940800,7.70394091796875,4.111120223999023,2.2233495712280273,-2.4792022705078125
1772563617034938600,7.713938720703125,4.002510070800781,2.9122912883758545,-2.8073558807373047
1772563617044936700,7.723936767578125,3.711008310317993,3.7964658737182617,-2.801558017730713
1772563617054935800,7.733935791015625,3.1864473819732666,4.716032028198242,-2.505321741104126
1772563617064933600,7.74393359375,2.612072706222534,5.18731689453125,-1.962882161140442
1772563617074931700,7.753931640625,2.1448862552642822,4.7892608642578125,-1.2311701774597168
1772563617084930600,7.7639306640625,1.8415796756744385,3.8018529415130615,-0.3768380880355835
1772563617094928600,7.7739287109375,1.4454715251922607,2.7429866790771484,0.5356082916259766
1772563617104926500,7.783926513671875,0.9488084316253662,1.8757133483886719,1.4901823997497559
1772563617114925600,7.793925537109375,0.6018357872962952,0.81792151927948,2.1644606590270996
1772563617124923600,7.803923583984375,0.5016549825668335,0.12397418916225433,2.506650447845459
1772563617134922800,7.8139228515625,0.2888316810131073,0.14847953617572784,2.4043781757354736
1772563617144920600,7.823920654296875,0.11286992579698563,0.6492905616760254,1.788025975227356
1772563617154918700,7.833918701171875,0.06640096008777618,1.3064018487930298,0.7384754419326782
1772563617164917800,7.843917724609375,0.10031828284263611,1.796016812324524,-0.35221365094184875
1772563617174915600,7.85391552734375,0.08626105636358261,2.010427951812744,-1.1001282930374146
1772563617184913700,7.86391357421875,0.09942714869976044,1.817204475402832,-1.3416436910629272
1772563617194912800,7.873912841796875,0.1420033872127533,1.4715733528137207,-1.1929986476898193
1772563617204910600,7.88391064453125,0.13346564769744873,1.1138004064559937,-0.8433083891868591
1772563617214908700,7.89390869140625,0.12105744332075119,0.8663977980613708,-0.45055899024009705
1772563617224907500,7.903907470703125,0.12933455407619476,0.8395254015922546,-0.0931750163435936
1772563617234905600,7.913905517578125,0.2200298309326172,1.0924900770187378,0.25347188115119934
1772563617244903700,7.923903564453125,0.31194350123405457,1.5720951557159424,0.569542407989502
1772563617254902500,7.933902587890625,0.3215082585811615,2.310065984725952,0.8102410435676575
1772563617264900600,7.943900634765625,0.4232885539531708,2.964994192123413,0.8703861832618713
1772563617274899700,7.953899658203125,0.6205542087554932,3.4671289920806885,0.743611216545105
1772563617284897500,7.9638974609375,0.752876341342926,3.7313661575317383,0.5277122855186462
1772563617294895600,7.9738955078125,0.8009666800498962,3.90754771232605,0.3478327691555023
1772563617304894700,7.983894775390625,0.780461847782135,3.819145679473877,0.2487500160932541
1772563617314892500,7.993892578125,0.708349883556366,3.458131790161133,0.2531951069831848
1772563617324890600,8.003890625,0.5780280232429504,2.90266489982605,0.3357832431793213
1772563617334889700,8.0138896484375,0.4124968349933624,2.2755987644195557,0.5158145427703857
1772563617344887800,8.0238876953125,0.3169601559638977,1.7192660570144653,0.7886319160461426
1772563617354885600,8.0338857421875,0.3139566481113434,1.4988964796066284,1.0576660633087158
1772563617364884700,8.043884765625,0.3161678910255432,1.4462635517120361,1.1975727081298828
1772563617374882800,8.0538828125,0.29427459836006165,1.494396448135376,1.2335840463638306
1772563617384880600,8.063880615234375,0.2905110716819763,1.5219392776489258,1.1232848167419434
1772563617394879500,8.07387939453125,0.3339312672615051,1.184666395187378,1.0100288391113281
1772563617404877600,8.083877685546875,0.29508399963378906,0.8876587748527527,0.877803385257721
1772563617414875600,8.093875732421875,0.17819440364837646,0.822111189365387,0.7690691947937012
1772563617424874500,8.10387451171875,0.05708974599838257,0.8395055532455444,0.6806350350379944
1772563617434872600,8.11387255859375,-0.05457020550966263,0.829515278339386,0.6352193355560303
1772563617444871700,8.12387158203125,-0.21342189610004425,0.8149174451828003,0.6167256832122803
1772563617454869800,8.133869873046875,-0.3035043776035309,0.6917684078216553,0.588649570941925
1772563617464867600,8.14386767578125,-0.33706238865852356,0.49341052770614624,0.6330880522727966
1772563617474866700,8.15386669921875,-0.3436800539493561,-0.3802972435951233,0.9058380722999573
1772563617484864500,8.163864501953125,-0.20712411403656006,-1.5391321182250977,1.5910972356796265
1772563617494862600,8.173862548828126,-0.25469323992729187,-1.5229079723358154,1.8175519704818726
1772563617504861700,8.18386181640625,-0.4548599421977997,-1.7498080730438232,1.7729912996292114
1772563617514859800,8.19385986328125,-0.5716485977172852,-2.3965535163879395,1.6631770133972168
1772563617524857600,8.203857666015624,-0.7566461563110352,-3.273866653442383,1.479288101196289
1772563617534856400,8.2138564453125,-0.8536041378974915,-4.057665824890137,1.156072735786438
1772563617544854500,8.2238544921875,-0.8505551218986511,-3.9137954711914062,0.5764663815498352
1772563617554852600,8.2338525390625,-0.7904565930366516,-3.354079008102417,0.06850491464138031
1772563617564851500,8.2438515625,-0.7304024696350098,-2.983208179473877,-0.1411910355091095
1772563617574849500,8.253849609375,-0.6987159252166748,-2.7395520210266113,-0.11417725682258606
1772563617584848600,8.2638486328125,-0.7954705357551575,-2.3427345752716064,0.04669779911637306
1772563617594846500,8.273846435546876,-0.931646466255188,-1.8615766763687134,0.24484871327877045
1772563617604844500,8.283844482421875,-1.022170901298523,-1.5445184707641602,0.4164102077484131
1772563617614843600,8.29384375,-1.1482577323913574,-1.48297917842865,0.46813011169433594
1772563617624841700,8.303841796875,-1.4375123977661133,-1.5367037057876587,0.4307138919830322
1772563617634839600,8.313839599609375,-1.7089289426803589,-1.6344739198684692,0.34592577815055847
1772563617644838700,8.323838623046875,-1.8695547580718994,-1.394304633140564,0.2632993459701538
1772563617654836700,8.333836669921874,-1.9671162366867065,-0.9098628163337708,0.19243153929710388
1772563617664834600,8.34383447265625,-2.119086503982544,-0.42096787691116333,0.16362576186656952
1772563617674833700,8.353833740234375,-2.074647903442383,-0.14031782746315002,0.30233117938041687
1772563617684831700,8.363831787109374,-1.6914646625518799,-0.06781768798828125,0.574883222579956
1772563617694829800,8.373829833984376,-0.9813867807388306,-0.3577978312969208,0.6101102232933044
1772563617704828400,8.383828369140625,-0.2373480200767517,-0.2981068193912506,0.38929346203804016
1772563617714826500,8.393826416015624,0.23021411895751953,0.17971327900886536,0.15875184535980225
1772563617724825600,8.40382568359375,0.18055899441242218,0.16799597442150116,0.12900610268115997
1772563617734823700,8.41382373046875,0.01964920200407505,0.1637548953294754,0.17894810438156128
1772563617744821500,8.423821533203125,-0.13052502274513245,0.20959462225437164,0.16286872327327728
1772563617754820600,8.433820556640624,-0.1390780210494995,0.16828739643096924,0.0989464521408081
1772563617764818700,8.443818603515625,-0.03884197026491165,0.20369519293308258,-0.07451401650905609
1772563617774816500,8.45381640625,0.18171730637550354,0.18813779950141907,-0.284985214471817
1772563617784815600,8.463815673828124,0.5269526839256287,0.06819577515125275,-0.5007098913192749
1772563617794813700,8.473813720703125,0.9194746613502502,-0.045351024717092514,-0.7115433216094971
1772563617804811500,8.4838115234375,1.2075302600860596,-0.02809685468673706,-0.9177181124687195
1772563617814810600,8.493810546875,1.3570222854614258,0.1348707675933838,-1.1574673652648926
1772563617824808700,8.50380859375,1.4399099349975586,0.5890270471572876,-1.4439984560012817
1772563617834806800,8.513806884765625,1.743529200553894,0.982686460018158,-1.8202348947525024
1772563617844805400,8.523805419921874,2.347531318664551,1.022432804107666,-2.2451744079589844
1772563617854803500,8.533803466796876,3.0003771781921387,0.7578959465026855,-2.539337158203125
1772563617864802600,8.543802490234375,3.2345521450042725,0.4085843861103058,-2.468804359436035
1772563617874800600,8.553800537109375,3.1694605350494385,0.06428798288106918,-1.9844141006469727
1772563617884798500,8.563798583984376,2.9736971855163574,-0.18193158507347107,-1.3303073644638062
1772563617894797600,8.573797607421875,2.7414193153381348,-0.26562434434890747,-0.749077320098877
1772563617904795600,8.583795654296875,2.3753058910369873,0.1468847095966339,-0.3767668306827545
1772563617914793500,8.59379345703125,1.7501459121704102,0.9373034238815308,-0.09941140562295914
1772563617924792600,8.60379248046875,0.9857633709907532,2.253054141998291,-0.08567440509796143
1772563617934790700,8.613790771484375,0.575878381729126,3.500157117843628,-0.45990899205207825
1772563617944788700,8.623788818359374,0.42119860649108887,3.482321262359619,-0.33313146233558655
1772563617954787600,8.63378759765625,0.4501727223396301,2.543065309524536,-0.015682922676205635
1772563617964785700,8.64378564453125,0.21468453109264374,2.0099539756774902,0.3046383559703827
1772563617974783700,8.65378369140625,0.04411838948726654,1.3219529390335083,0.5276839137077332
1772563617984782600,8.663782470703126,-0.23215915262699127,2.1152703762054443,-0.040997426956892014
1772563617994780400,8.673780517578125,-1.0503463745117188,3.651214599609375,-0.6798519492149353
1772563618004778500,8.683778564453124,-1.5316678285598755,4.394436359405518,-1.1748099327087402
1772563618014777600,8.693777587890626,-1.9550471305847168,4.7269721031188965,-1.4229878187179565
1772563618024775400,8.703775390625,-2.3208446502685547,3.9818434715270996,-1.1466354131698608
1772563618034774500,8.7137744140625,-2.5992488861083984,2.3148114681243896,-0.5027877688407898
1772563618044772600,8.723772705078124,-2.836641550064087,0.6548408269882202,0.09703090786933899
1772563618054770700,8.733770751953125,-3.1165428161621094,-0.0671253353357315,0.3810804784297943
1772563618064769500,8.74376953125,-3.3758018016815186,0.03347327560186386,0.2528834640979767
1772563618074767600,8.753767578125,-3.6361217498779297,0.41389012336730957,0.006269437726587057
1772563618084765700,8.763765625,-3.9528770446777344,0.6806867122650146,-0.06369716674089432
1772563618094764500,8.7737646484375,-4.195568084716797,0.7311432361602783,-0.03749991953372955
1772563618104762600,8.7837626953125,-4.312976837158203,0.7812215685844421,-0.013058208860456944
1772563618114760700,8.7937607421875,-4.31112813949585,0.9381052255630493,0.037861961871385574
1772563618124759600,8.803759521484375,-4.289601802825928,1.251860499382019,0.17474615573883057
1772563618134757600,8.813757568359375,-4.246738433837891,1.6042946577072144,0.37322303652763367
1772563618144755700,8.823755615234376,-4.1011762619018555,1.9101940393447876,0.5295731425285339
1772563618154754600,8.833754638671875,-3.968841552734375,2.124340057373047,0.6331104636192322
1772563618164752400,8.84375244140625,-3.8098647594451904,2.173135995864868,0.7544247508049011
1772563618174751500,8.85375146484375,-3.589735269546509,1.9045838117599487,0.9306466579437256
1772563618184749600,8.86374951171875,-3.283799409866333,1.3939272165298462,1.1810146570205688
1772563618194747600,8.87374755859375,-3.0480363368988037,1.0020028352737427,1.445797324180603
1772563618204746500,8.88374658203125,-2.9568264484405518,1.0668925046920776,1.6592087745666504
1772563618214744600,8.89374462890625,-3.0012764930725098,1.6062356233596802,1.758983850479126
1772563618224742700,8.90374267578125,-3.056924343109131,2.4318690299987793,1.665101170539856
1772563618234741800,8.91374169921875,-2.960583448410034,3.1216518878936768,1.3374863862991333
1772563618244739600,8.923739501953126,-2.7739269733428955,3.5325233936309814,0.9406305551528931
1772563618254737700,8.933737548828125,-2.5990374088287354,3.7553815841674805,0.6751487851142883
1772563618264736800,8.94373681640625,-2.6894145011901855,4.53519344329834,1.4016189575195312
1772563618274734600,8.953734619140626,-2.5037505626678467,4.224853992462158,1.8442678451538086
1772563618284732700,8.963732666015625,-2.512481927871704,3.5223171710968018,2.105875015258789
1772563618294731500,8.9737314453125,-3.404489755630493,2.6234991550445557,2.0357813835144043
1772563618304729600,8.9837294921875,-3.99878191947937,2.39331316947937,1.554248332977295
1772563618314728400,8.993728515625,-4.049826622009277,2.5925679206848145,1.1031451225280762
1772563618324726500,9.0037265625,-3.8401918411254883,2.586369276046753,0.8461369872093201
1772563618334724600,9.013724609375,-3.766263008117676,2.1710727214813232,0.7483169436454773
1772563618344723700,9.0237236328125,-3.6391513347625732,1.6304099559783936,0.6822130084037781
1772563618354721500,9.033721435546875,-3.45969295501709,1.0523433685302734,0.5382116436958313
1772563618364719600,9.0437197265625,-2.855958938598633,0.08512640744447708,0.7084787487983704
1772563618374718700,9.05371875,-2.857691764831543,-0.048370666801929474,0.6837643384933472
1772563618384716500,9.063716552734375,-2.856245517730713,-0.35641539096832275,1.104966640472412
1772563618394714600,9.073714599609374,-3.026653289794922,-0.6013031601905823,1.3685914278030396
1772563618404713700,9.083713623046876,-3.0987842082977295,-1.5984246730804443,1.570727825164795
1772563618414711600,9.093711669921875,-3.023859739303589,-2.2987594604492188,1.7194805145263672
1772563618424709600,9.103709716796875,-2.8616721630096436,-2.5889816284179688,1.801340937614441
1772563618434708500,9.11370849609375,-2.5739524364471436,-1.9220925569534302,1.9318795204162598
1772563618444706600,9.12370654296875,-2.0886013507843018,-0.39822837710380554,1.880288004875183
1772563618454704600,9.13370458984375,-1.2075793743133545,0.39341863989830017,1.5101364850997925
1772563618464703000,9.143702880859376,-0.2859663665294647,0.2500269412994385,1.159010887145996
1772563618474701000,9.153701171875,0.15447603166103363,0.22209808230400085,0.9585354924201965
1772563618484700200,9.1637001953125,0.3584370017051697,-0.005438954569399357,0.6917800903320312
1772563618494698000,9.173697998046874,0.3243304491043091,-0.06294538825750351,0.3534420132637024
1772563618504696000,9.183696044921875,0.2431139349937439,0.09362928569316864,0.11413759738206863
1772563618514695200,9.193695068359375,0.14698155224323273,0.29263773560523987,-0.11434963345527649
1772563618524693000,9.20369287109375,0.08486152440309525,0.5014397501945496,-0.28867337107658386
1772563618534691000,9.213691162109376,0.0575081966817379,0.5525793433189392,-0.43421274423599243
1772563618544690200,9.223690185546875,0.0615498423576355,0.4288666844367981,-0.49453064799308777
1772563618554688000,9.23368798828125,0.054114826023578644,0.3064686059951782,-0.5625989437103271
1772563618564686000,9.24368603515625,-0.010274842381477356,0.30705925822257996,-0.6417913436889648
1772563618574685200,9.253685302734375,-0.12242588400840759,0.3588066101074219,-0.6942393779754639
1772563618584683300,9.263683349609375,-0.1747434139251709,0.42291632294654846,-0.6505300402641296
1772563618594681000,9.27368115234375,-0.149240180850029,0.4605388045310974,-0.5226924419403076
1772563618604680000,9.283679931640625,-0.0913739874958992,0.43324998021125793,-0.38512417674064636
1772563618614678300,9.29367822265625,-0.0429084487259388,0.3718726336956024,-0.29687899351119995
1772563618624677000,9.303677001953124,-0.017115440219640732,0.3338075876235962,-0.28919216990470886
1772563618634675000,9.313675048828125,-0.023863624781370163,0.3590319752693176,-0.3143015205860138
1772563618644673000,9.323673095703125,-0.04434695839881897,0.3285377621650696,-0.2947750687599182
1772563618654672100,9.333672119140624,-0.082283154129982,0.3260785937309265,-0.24650688469409943
1772563618664670000,9.343669921875,-0.171747088432312,0.3859243094921112,-0.275211364030838
1772563618674668000,9.35366796875,-0.2584061026573181,0.45602431893348694,-0.27469098567962646
1772563618684667100,9.363667236328125,-0.30880874395370483,0.3648830056190491,-0.2229258418083191
1772563618694665200,9.373665283203126,-0.28079333901405334,0.2852481007575989,-0.15279656648635864
1772563618704663000,9.3836630859375,-0.21404913067817688,0.1939001977443695,-0.09346422553062439
1772563618714662100,9.393662109375,-0.15171411633491516,0.07489338517189026,-0.06319074332714081
1772563618724660200,9.40366015625,-0.0924256443977356,0.0002844664268195629,-0.07303404062986374
1772563618734658000,9.413657958984375,-0.05704101547598839,0.0243527851998806,-0.10876274108886719
1772563618744657200,9.4236572265625,-0.04690272733569145,0.05861370638012886,-0.15344586968421936
1772563618754655200,9.4336552734375,-0.031937360763549805,0.09899228066205978,-0.12549465894699097
1772563618764654000,9.443654052734376,-0.046058136969804764,0.13042481243610382,-0.02399958297610283
1772563618774652000,9.45365185546875,-0.0860188752412796,0.09142974019050598,0.07204652577638626
1772563618784650000,9.46364990234375,-0.11787247657775879,0.035287778824567795,0.12380367517471313
1772563618794649000,9.473649169921876,-0.12146800756454468,0.004008688498288393,0.12082652747631073
1772563618804647200,9.483647216796875,-0.08658395707607269,0.008439548313617706,0.12382356822490692
1772563618814645000,9.49364501953125,-0.04350413754582405,-0.09012484550476074,0.4048198163509369
1772563618824644000,9.50364404296875,-0.023745615035295486,0.028279300779104233,0.6496458053588867
1772563618834642200,9.51364208984375,0.044682979583740234,0.04360312968492508,0.6281402111053467
1772563618844640000,9.523639892578124,0.12067312002182007,0.07868055254220963,0.5168238878250122
1772563618854639000,9.53363916015625,0.1679476946592331,-0.010442133992910385,0.3965773582458496
1772563618864637200,9.54363720703125,0.17373588681221008,-0.024284590035676956,0.17013251781463623
1772563618874635000,9.553635009765625,0.1682676076889038,0.11082981526851654,-0.19635918736457825
1772563618884634000,9.563634033203124,0.15426602959632874,0.24578271806240082,-0.5658085942268372
1772563618894632200,9.573632080078125,0.14706537127494812,0.2992784380912781,-0.7905178666114807
1772563618904630300,9.58363037109375,0.12189743667840958,0.2884659469127655,-0.7915509939193726
1772563618914628900,9.59362890625,0.051663223654031754,0.23779025673866272,-0.6735236644744873
1772563618924627000,9.603626953125,-0.00568148959428072,0.19169287383556366,-0.5370500683784485
1772563618934626000,9.6136259765625,-0.025653867051005363,0.06672990322113037,-0.4096212387084961
1772563618944624000,9.6236240234375,-0.05809883028268814,-0.13320297002792358,-0.3206578493118286
1772563618954622000,9.6336220703125,-0.1025424599647522,-0.27505892515182495,-0.2720887362957001
1772563618964621000,9.64362109375,-0.1552703082561493,-0.32741841673851013,-0.28468039631843567
1772563618974619100,9.653619140625,-0.21335119009017944,-0.3277395963668823,-0.3254014551639557
1772563618984617000,9.663616943359376,-0.2638665735721588,-0.2357061505317688,-0.34760385751724243
1772563618994616000,9.673615966796875,-0.3431278169155121,-0.14325077831745148,-0.3618435263633728
1772563619004614100,9.6836142578125,-0.46810752153396606,-0.06879591196775436,-0.35958653688430786
1772563619014612200,9.6936123046875,-0.5978966951370239,-0.010652445256710052,-0.3366740345954895
1772563619024611000,9.703611083984375,-0.6907261610031128,0.019684191793203354,-0.26149556040763855
1772563619034609200,9.713609130859375,-0.7532129883766174,0.046289704740047455,-0.12448389083147049
1772563619044607200,9.723607177734374,-0.7883079051971436,-0.014707503840327263,0.0019964086823165417
1772563619054606000,9.733606201171876,-0.7927748560905457,-0.052918270230293274,0.06863642483949661
1772563619064604200,9.743604248046875,-0.7924309968948364,-0.01163067389279604,0.06700517982244492
1772563619074603000,9.75360302734375,-0.7734748721122742,0.051131777465343475,-0.010573500767350197
1772563619084601000,9.76360107421875,-0.7529982924461365,0.19601890444755554,-0.10124234855175018
1772563619094599000,9.773598876953125,-0.724790632724762,0.40355080366134644,-0.1971273422241211
1772563619104598000,9.783597900390625,-0.691142737865448,0.5730857849121094,-0.3101354241371155
1772563619114596000,9.79359619140625,-0.6842419505119324,0.6621922254562378,-0.4425608515739441
1772563619124594000,9.803593994140625,-0.7120301723480225,0.7312877178192139,-0.5296044945716858
1772563619134593000,9.813593017578125,-0.7423563599586487,0.8571457862854004,-0.5087205171585083
1772563619144591000,9.823591064453124,-0.7572416663169861,0.9178261160850525,-0.4209520220756531
1772563619154589200,9.833589111328125,-0.7413338422775269,0.8613234162330627,-0.32097724080085754
1772563619164588000,9.843588134765625,-0.6440990567207336,0.6311193108558655,-0.22484995424747467
1772563619174586000,9.853586181640624,-0.5416991710662842,0.3037968873977661,-0.17153187096118927
1772563619184584200,9.863584228515625,-0.4311376214027405,-0.05780160799622536,-0.12211129814386368
1772563619194583300,9.873583251953125,-0.37320879101753235,-0.12677589058876038,-0.040261171758174896
1772563619204581000,9.8835810546875,-0.3428879678249359,-0.20053066313266754,-0.04320530593395233
1772563619214580000,9.893580078125,-0.3187096416950226,-0.22455903887748718,-0.05552349239587784
1772563619224578000,9.903578125,-0.2838365137577057,-0.18000827729701996,-0.04343675449490547
1772563619234576000,9.913575927734374,-0.25202450156211853,-0.1772172749042511,-0.0308501236140728
1772563619244575000,9.923574951171876,-0.18590140342712402,-0.1796644628047943,0.013378091156482697
1772563619254573000,9.933572998046875,-0.09212004393339157,-0.1978144347667694,0.10462198406457901
1772563619264571100,9.943571044921875,-0.0564989298582077,-0.20453496277332306,0.18746191263198853
1772563619274570000,9.953570068359374,-0.07018491625785828,-0.22214138507843018,0.2300514578819275
1772563619284568000,9.963568115234375,-0.10194846987724304,-0.25741174817085266,0.2059575319290161
1772563619294566100,9.973566162109375,-0.14605042338371277,-0.21959461271762848,0.14411039650440216
1772563619304565200,9.983565185546874,-0.19955559074878693,-0.14579463005065918,0.06756158173084259
1772563619314563000,9.99356298828125,-0.21079891920089722,-0.03511684015393257,0.05420050397515297
1772563619324561200,10.00356103515625,-0.21159856021404266,-0.027938304468989372,0.06328433007001877
1772563619334560300,10.013560302734374,-0.1669788956642151,0.0034462506882846355,0.1147906631231308
1772563619344558000,10.02355810546875,-0.14744171500205994,0.0048197791911661625,0.15235933661460876
1772563619354556200,10.03355615234375,-0.13833051919937134,-0.060651905834674835,0.1846725344657898
1772563619364555000,10.043554931640625,-0.1156725063920021,-0.08558274805545807,0.21107882261276245
1772563619374553000,10.053552978515626,-0.06398188322782516,-0.05994077026844025,0.23103974759578705
1772563619384552000,10.063552001953125,-0.05424569547176361,-0.06767906248569489,0.19929170608520508
1772563619394550000,10.073550048828125,-0.07345560938119888,-0.11287316679954529,0.11817926913499832
1772563619404548000,10.083548095703126,-0.12007387727499008,-0.09988832473754883,0.03743886202573776
1772563619414547200,10.093547119140625,-0.13522379100322723,-0.06903906911611557,0.01943855918943882
1772563619424545000,10.103544921875,-0.10708124935626984,-0.07532219588756561,-0.0010653724893927574
1772563619434543000,10.113543212890624,-0.03506111726164818,-0.03683285787701607,-0.008884679526090622
1772563619444542200,10.123542236328126,0.015088871121406555,0.028167136013507843,-0.00983339548110962
1772563619454540000,10.1335400390625,0.04576795548200607,0.05510048195719719,0.00005359062924981117
1772563619464538600,10.14353857421875,0.06141745671629906,0.05036747828125954,0.015387674793601036
1772563619474537700,10.153537841796876,0.05741605907678604,0.040612317621707916,0.018215950578451157
1772563619484535800,10.163535888671875,0.0360480472445488,0.020786523818969727,-0.003371521830558777
1772563619494533600,10.17353369140625,0.009967711754143238,0.019931117072701454,-0.029010040685534477
1772563619504532500,10.183532470703126,-0.003222491592168808,0.007937232963740826,-0.023954272270202637
1772563619514530600,10.193530517578125,-0.005028648301959038,-0.024529632180929184,-0.005824272520840168
1772563619524528400,10.2035283203125,-0.006757878698408604,-0.04606461524963379,-0.021683938801288605
1772563619534527500,10.213527587890624,0.018589822575449944,-0.014566607773303986,-0.06886370480060577
1772563619544525600,10.223525634765625,0.037848204374313354,0.012311344966292381,-0.10125333070755005
1772563619554524700,10.233524658203125,0.017076190561056137,-0.0018170485273003578,-0.08213534206151962
1772563619564522500,10.2435224609375,-0.02597820945084095,0.048449162393808365,0.04203331843018532
1772563619574520600,10.2535205078125,-0.08563914149999619,-0.06707131117582321,0.13083003461360931
1772563619584519700,10.263519775390625,-0.09884748607873917,-0.049326956272125244,0.06108059734106064
1772563619594517800,10.273517822265624,-0.08008791506290436,0.027755308896303177,-0.030329208821058273
1772563619604515600,10.283515625,-0.06354522705078125,0.03885045275092125,-0.08253014087677002
1772563619614514700,10.2935146484375,-0.041479069739580154,0.014352032914757729,-0.09520971775054932
1772563619624512800,10.3035126953125,-0.025052055716514587,-0.012285761535167694,-0.1375415027141571
1772563619634510600,10.313510498046876,-0.02309063822031021,0.028881916776299477,-0.17228269577026367
1772563619644509400,10.323509521484375,-0.0408911406993866,0.06637942790985107,-0.16191399097442627
