time,seconds_elapsed,z,y,x
1772623510561673000,0.0796728515625,0.5664227538943291,1.1754267584085463,-0.09176867630546912
1772623510571703000,0.089703125,1.1955986088216304,1.2822609932303428,0.13461190232979134
1772623510581732000,0.099732177734375,1.7451929775118826,1.3406079682588576,0.28510248792339116
1772623510591762200,0.10976220703125,2.106670081922412,1.3045467670574784,0.4078489794850349
1772623510601792000,0.1197919921875,2.316501749882102,1.1434423051267861,0.531768350750953
1772623510611821800,0.12982177734375,2.482507720118761,0.9478355618745088,0.6294995339237153
1772623510621851000,0.139850830078125,2.517773094767332,0.8172416812807322,0.6157612236894667
1772623510631881000,0.149880859375,2.4361615640074015,0.6637134998232126,0.595143090813607
1772623510641911000,0.1599111328125,2.305263147509098,0.43760172819197174,0.581150294361636
1772623510651941000,0.169941162109375,2.202995782211423,0.27560411681383845,0.4977325909625739
1772623510661971200,0.17997119140625,2.0786369966149327,0.13049071248024702,0.40375867796409876
1772623510672000000,0.19,1.953511902821064,-0.034790450613200664,0.32319826369229704
1772623510682030000,0.200030029296875,1.7949626783311365,-0.20434242289364338,0.35816476499214767
1772623510692060000,0.210059814453125,1.6792600773990154,-0.3837520645827055,0.3677788349032402
1772623510702090000,0.220090087890625,1.629004638889432,-0.5106184490859508,0.32040286082010716
1772623510712118800,0.230118896484375,1.4625965175926685,-0.5394458996415138,0.3315716128272936
1772623510722148900,0.24014892578125,1.3006862922370432,-0.5747434229940176,0.37564072738476095
1772623510732179000,0.250178955078125,1.175399285879731,-0.598681932464242,0.2973893937729299
1772623510742209000,0.260208984375,1.0160153641313314,-0.5327671525299549,0.2652444526998326
1772623510752239000,0.270239013671875,0.7917927672475575,-0.49844198134094475,0.4030956474781036
1772623510762268200,0.28026806640625,0.619588526892662,-0.5595806329146027,0.622482056377083
1772623510772298000,0.290298095703125,0.4852303253293037,-0.6119473644897342,0.6424721204824745
1772623510782327800,0.300327880859375,0.46592707444429393,-0.5882967320501804,0.455352160144411
1772623510792358000,0.31035791015625,0.4829781624883413,-0.5892547634273767,0.3988720019010827
1772623510802387000,0.320386962890625,0.45390871987044806,-0.7018135133758187,0.5517619950529188
1772623510812417000,0.3304169921875,0.39068098706305027,-0.8571919988751411,0.6736760909110308
1772623510822447000,0.340447021484375,0.22190146045982836,-0.9550967850491404,0.6017176468983292
1772623510832477200,0.350477294921875,-0.04857259998917579,-0.9537933012351393,0.4093109052637592
1772623510842507000,0.360507080078125,-0.3278150733053684,-0.8864210159689188,0.20495536716021595
1772623510852536000,0.3705361328125,-0.5558709647417068,-0.8069099646195769,0.11223101583141833
1772623510862566000,0.38056591796875,-0.789242498242855,-0.7450263398975133,0.08458452782188541
1772623510872596000,0.390595947265625,-1.0527537339419126,-0.660264236152172,0.06977713618455454
1772623510882626000,0.4006259765625,-1.3790940585196017,-0.5850979360088706,0.11224429543809965
1772623510892654800,0.41065478515625,-1.5948147845178842,-0.5240227050602436,0.1690163858327083
1772623510902685000,0.420684814453125,-1.5487211418628692,-0.38274873275905846,0.12371937344809994
1772623510912715000,0.430715087890625,-1.3538257617503404,-0.2261789916485548,0.11780725419432855
1772623510922745000,0.4407451171875,-1.106039918449521,-0.14609715467393397,0.07612757379035465
1772623510932775000,0.45077490234375,-0.9273562529474496,-0.07175123100280761,0.06728771225530654
1772623510942804000,0.460803955078125,-0.69892977463305,-0.03202507755309343,0.09141131423516198
1772623510952833800,0.470833740234375,-0.47050680344998835,-0.03514934705346823,0.09093914841245859
1772623510962863900,0.48086376953125,-0.3213216196328401,-0.2301668922409415,0.13682057308889925
1772623510972894000,0.49089404296875,-0.3976379665941,-0.6041197396039962,0.28794373923130334
1772623510982923000,0.500923095703125,-0.6200356861382722,-0.8797235641568899,0.3386560911955312
1772623510992953000,0.510953125,-1.199939268374443,-0.7994269153878092,-0.14062599325384945
1772623511002983200,0.520983154296875,-2.1383657813906667,-0.4439668793097138,-1.049815342402458
1772623511013013000,0.531012939453125,-3.038410249042511,-0.20243395892381666,-1.6165905629962682
1772623511023042800,0.541042724609375,-3.4419793592512606,-0.13018909918516874,-1.7332608399167655
1772623511033071900,0.55107177734375,-3.5896278350204227,0.05110796368569135,-1.6908561149075627
1772623511043102000,0.56110205078125,-3.257611218371987,0.3352098597317934,-1.540582551331818
1772623511053132000,0.571132080078125,-2.67139713781476,0.7214820904418826,-1.1127394160881638
1772623511063162000,0.581162109375,-1.763916967204213,1.0573752562627197,-0.8311054445255547
1772623511073191000,0.59119091796875,-0.8424614627331495,1.4359098784580826,-0.8386682079300284
1772623511083221000,0.601220947265625,-0.11496844143867492,1.8123428521990774,-0.8250959019124507
1772623511093251000,0.6112509765625,0.5860439846873283,1.9231334234312176,-0.6529647267937659
1772623511103281000,0.621281005859375,1.1327981615155935,1.8728326844751835,-0.38260464811325073
1772623511113311000,0.63131103515625,1.3744248976647853,1.7292907672420144,-0.23409232205636799
1772623511123339800,0.64133984375,1.552494230660796,1.5433718897894024,-0.26645306130461394
1772623511133369900,0.651369873046875,1.7313304563760756,1.4031582401961087,-0.4706341196240857
1772623511143400000,0.66139990234375,1.7840321189939974,1.3815417439326643,-0.6953809961102903
1772623511153430000,0.671429931640625,1.727263937589526,1.303641050389409,-0.7720521478585899
1772623511163459000,0.681458984375,1.5997411350041626,1.0618544475033878,-0.8633077052764594
1772623511173489200,0.6914892578125,1.3489584479749201,0.7769064560219645,-0.9851156373463571
1772623511183519000,0.70151904296875,1.16794137108922,0.5376207300409674,-1.024716191655025
1772623511193548800,0.711548828125,1.0527701005548238,0.3546034192487597,-0.9482119939714669
1772623511203579000,0.721578857421875,0.9187398157715797,0.21652093646526335,-0.690054101999104
1772623511213608000,0.73160791015625,0.8034867121726273,0.10364712921828031,-0.2671032871079631
1772623511223638000,0.741637939453125,0.8157458897650242,0.04333177672624588,0.15532134848460555
1772623511233668000,0.751668212890625,0.9592273089826107,0.12877981690913437,0.32134781352002173
1772623511243698000,0.761697998046875,1.045546579042077,0.30645635119527576,0.3512914451565593
1772623511253728000,0.77172802734375,1.0879951431930064,0.44889001492559905,0.5300515003630891
1772623511263757000,0.781757080078125,1.1744342402398587,0.45634909875988955,0.7761926086641847
1772623511273787100,0.791787109375,1.1489736357688902,0.39387539919018744,0.9453231406621634
1772623511283817000,0.80181689453125,1.0883481944143771,0.3226148743137717,1.1090589740097523
1772623511293847000,0.811846923828125,1.1150047306716442,0.2380842412367463,1.1416855976525693
1772623511303875800,0.821875732421875,1.1266261948823928,0.17111878320574758,1.065233860808611
1772623511313906000,0.831906005859375,1.079937508943677,0.10226035103499889,0.9438570136323571
1772623511323936000,0.84193603515625,1.0177589929282664,-0.016538754607737065,0.908358707010746
1772623511333966000,0.851966064453125,0.9972533805161714,-0.1620402814760804,0.8779099388636649
1772623511343996200,0.86199609375,0.8988982202261686,-0.31560704137831924,0.7624016914598644
1772623511354025000,0.87202490234375,0.7352537184238433,-0.4584866953104734,0.5999290829811245
1772623511364055000,0.882054931640625,0.5676525879502297,-0.6137301562532782,0.4705748271849006
1772623511374084900,0.8920849609375,0.46870355342030523,-0.7527993119865656,0.4302210798887536
1772623511384115000,0.902114990234375,0.3874088335245848,-0.8462222765713929,0.3171532844396308
1772623511394144000,0.91214404296875,0.2614344294250011,-0.8805667369827628,0.19623168848389758
1772623511404174000,0.922174072265625,0.23268179767131805,-0.8932225126773119,0.1224090489013586
1772623511414204000,0.932203857421875,0.23570026870965957,-0.8683627967089415,0.017474807048565705
1772623511424234000,0.94223388671875,0.21832944719195366,-0.7969520497068763,-0.03468649704838171
1772623511434264000,0.95226416015625,0.29317338351309297,-0.7397972070723772,-0.08658725507957861
1772623511444293000,0.962293212890625,0.3948766851872206,-0.65982964412719,-0.12165932651259935
1772623511454323000,0.972322998046875,0.5112234292417764,-0.5862251864731312,-0.09081933055822737
1772623511464353000,0.98235302734375,0.643096828252077,-0.5930366200536489,0.011015095815435052
1772623511474378800,0.992378662109375,0.7646925788760185,-0.6779153359159826,0.073102298551891
1772623511484408800,1.002408935546875,0.8190478539198637,-0.7930056501686572,0.07361452239034696
1772623511494437600,1.012437744140625,0.8313590539604425,-0.9067813746914267,0.08572331346031278
1772623511504467700,1.0224677734375,0.8134604091763495,-1.0259557433873414,0.07044091558922082
1772623511514497800,1.032497802734375,0.6900748525261878,-1.1479860860362647,0.11112698184596374
1772623511524527900,1.04252783203125,0.43627194089293475,-1.2219140765562653,0.13835037647206336
1772623511534557000,1.052556884765625,0.08867255518734454,-1.281318743944168,0.0854540315322578
1772623511544587000,1.0625869140625,-0.24394845709502697,-1.2655989045038818,-0.04631481112502515
1772623511554616800,1.072616943359375,-0.5884177280813455,-1.1578344030946492,-0.17161314259395002
1772623511564646700,1.082646728515625,-0.8825164097458124,-1.070354857084155,-0.15853618234526365
1772623511574676700,1.0926767578125,-1.033955509969592,-1.0322262019589543,-0.03656041029463522
1772623511584705800,1.102705810546875,-1.035802014619112,-0.9857882759109139,0.08868611792181617
1772623511594735900,1.11273583984375,-1.0307248574852943,-0.9569412438720464,0.30152930658925325
1772623511604766000,1.122765869140625,-0.935483445301652,-0.9415916990488767,0.5099233429612592
1772623511614796000,1.132796142578125,-0.6971937446206807,-0.8157263082817197,0.6063972560819239
1772623511624824800,1.142824951171875,-0.5279103601485491,-0.5854878121092916,0.647372094418481
1772623511634855000,1.15285498046875,-0.48023850839138027,-0.4231435792505741,0.7726258560933172
1772623511644884700,1.162884765625,-0.3786690622299909,-0.4272562752664089,0.8758638199888169
1772623511654914800,1.172914794921875,-0.2857844423055649,-0.5854857662826776,1.0540902432426809
1772623511664945000,1.18294482421875,-0.3217904061883688,-0.8155927450299263,1.3035922428116202
1772623511674973700,1.1929736328125,-0.5597475139141083,-1.006668566854298,1.3786540596671402
1772623511685003800,1.203003662109375,-1.0124193854659795,-0.9829434078738093,1.0505229061499237
1772623511695033900,1.213033935546875,-1.6335592334538698,-0.6223346107304096,0.3895253142219037
1772623511705064000,1.22306396484375,-2.2278215959101915,-0.20092092401236294,-0.11183376014214008
1772623511715093800,1.23309375,-2.4836925459891557,-0.07065320663303136,-0.2379303658492863
1772623511725122800,1.243122802734375,-2.488089904165268,-0.003061433397233486,-0.1599990762383677
1772623511735152600,1.253152587890625,-2.423856209185719,0.2588835758984089,0.07543770096320658
1772623511745182700,1.2631826171875,-2.0243290678441523,0.557778551928699,0.2705827084552497
1772623511755212800,1.273212890625,-1.4208774367600678,0.8646256560072302,0.22236988168917596
1772623511765241900,1.283241943359375,-0.9586901333659886,1.1716349649101494,0.07214549101740121
1772623511775272000,1.29327197265625,-0.6865320653527974,1.4148708898216484,-0.04018748735114932
1772623511785302000,1.303302001953125,-0.4833838206797838,1.4707187415108083,-0.03818075063861906
1772623511795331800,1.313331787109375,-0.24301380659341812,1.345166946737468,-0.001971994192712009
1772623511805361700,1.323361572265625,-0.08254442769587039,1.2074623573556542,-0.1919026280373335
1772623511815390700,1.333390625,-0.12167816821038722,1.1901350827187298,-0.582038548438251
1772623511825420800,1.3434208984375,-0.1600952848881483,1.1427443859905004,-0.7015303855855017
1772623511835451000,1.353450927734375,-0.10961597449481486,0.959012204927206,-0.7045579897783696
1772623511845481000,1.36348095703125,-0.04795885200500488,0.8272218080252408,-0.725359662527591
1772623511855509800,1.373509765625,-0.0009358195453882217,0.8159332290306687,-0.6988357396740466
1772623511865539800,1.383539794921875,0.19982816033959389,0.8193746016561985,-0.6417709134105593
1772623511875570000,1.39356982421875,0.47863282676041125,0.8685477978870272,-0.6205760766252875
1772623511885599700,1.403599853515625,0.7319605220973491,0.9781494515955448,-0.6490490146547555
1772623511895629800,1.4136298828125,1.0383505300581455,1.1064610664710401,-0.5912879497554153
1772623511905658600,1.42365869140625,1.3099831128925084,1.204614858970046,-0.448438764026761
1772623511915688700,1.433688720703125,1.519627149325609,1.2003735681384802,-0.32856768177095796
1772623511925718800,1.44371875,1.7058990779995917,1.1204048361495136,-0.210069385705702
1772623511935748900,1.453748779296875,1.854601446735859,0.9777078453078866,-0.09191285228282213
1772623511945778000,1.46377783203125,2.01349787722826,0.8647913679629564,-0.06485537054184824
1772623511955808000,1.47380810546875,2.0772224536418915,0.8671674494445324,-0.10727074480922892
1772623511965837800,1.483837890625,2.133066505938768,0.8758686422944069,-0.09341569459382444
1772623511975867600,1.49386767578125,2.154479296323657,0.7728712091565132,-0.0150004756571725
1772623511985897700,1.503897705078125,2.1060592565476894,0.5946449320331215,0.07851787559352814
1772623511995926800,1.5139267578125,2.000861098495126,0.3990855350539088,0.12155801242943852
1772623512005956900,1.523956787109375,1.8417974947422742,0.24427374352663753,0.09323412748184054
1772623512015987000,1.533987060546875,1.6686761395424603,0.15847674377560614,0.06827054928019642
1772623512026016800,1.544016845703125,1.5089169547408818,0.09475216736197471,0.20721688235141336
1772623512036046800,1.554046875,1.3837772478997707,0.005805763669312,0.2628916424959898
1772623512046076000,1.564075927734375,1.2206839502394198,-0.03173047852069139,0.22724844751097262
1772623512056105700,1.574105712890625,1.063790091741085,-0.06978139223456382,0.22027933915071188
1772623512066135800,1.5841357421875,0.9625795420199632,-0.1506128785327077,0.21897848568521439
1772623512076166000,1.594165771484375,0.8755804730027914,-0.2477987027823925,0.26191295192325487
1772623512086194700,1.604194580078125,0.8145967197299003,-0.28902064774781466,0.297767542902939
1772623512096224800,1.614224853515625,0.7477040346741676,-0.3186465552046895,0.32037268487755205
1772623512106254800,1.6242548828125,0.6208429108679294,-0.3953516092225909,0.3846054300090298
1772623512116285000,1.634284912109375,0.47298576078414917,-0.48928135428577657,0.44068884401973335
1772623512126314800,1.644314697265625,0.40488603802621365,-0.5621580821871757,0.4957648345535621
1772623512136343800,1.65434375,0.4223421997398138,-0.6374450861006975,0.5981342719862237
1772623512146373600,1.66437353515625,0.3581079202383756,-0.6965212521865963,0.7451594647578894
1772623512156403700,1.67440380859375,0.18675240566730497,-0.7497475232005119,0.8115968803267926
1772623512166433800,1.684433837890625,-0.010688567274808883,-0.8010679605931044,0.7363679632760584
1772623512176464000,1.6944638671875,-0.32908114771842956,-0.8479244043141603,0.6531910828955471
1772623512186493000,1.704492919921875,-0.6743909611821174,-0.8825576185390352,0.4941859313316643
1772623512196522800,1.714522705078125,-0.9430945048272609,-0.8607946995422243,0.28419373904801903
1772623512206552800,1.724552734375,-1.1495938134938477,-0.7873977471590041,0.1638481346156448
1772623512216582700,1.734582763671875,-1.3330226276963948,-0.8057102334409951,0.12041008450333028
1772623512226612000,1.744612060546875,-1.3223586103409528,-0.8219470824927091,0.034272326756920664
1772623512236641800,1.754641845703125,-1.2240712545901535,-0.6670850220829248,-0.01997236405191943
1772623512246672000,1.764671875,-1.0044593663722277,-0.46306934692561624,0.022077857564343138
1772623512256701700,1.77470166015625,-0.6577478694170713,-0.35296646569669243,0.15460620421888305
1772623512266731800,1.784731689453125,-0.43312896669209,-0.26766309468150135,0.2990618022308685
1772623512276760800,1.7947607421875,-0.213634567373991,-0.16111147619336844,0.33011618985459207
1772623512286791000,1.804791015625,-0.04260872314870357,0.011230419066548347,0.2679326688705012
1772623512296821000,1.814821044921875,0.007591185781359672,0.1354153094008565,0.15996243402240798
1772623512306850800,1.824850830078125,-0.028795886373519895,0.15459288807958363,0.04217104411749169
1772623512316880600,1.834880615234375,0.007383680510520935,0.03695990360677242,-0.028243458388838915
1772623512326909700,1.84490966796875,0.0385252532273531,-0.14862258149832486,-0.04961465638801455
1772623512336939800,1.854939697265625,-0.027328736430406567,-0.272455005133152,-0.04792684943154454
1772623512346969900,1.864969970703125,-0.1232780046224594,-0.35894027940928935,-0.13331603556666521
1772623512357000000,1.875,-0.3664040394186973,-0.4171285567447543,-0.380335753333196
1772623512367028700,1.88502880859375,-0.8528665368914604,-0.404583255687356,-0.7875807025104761
1772623512377058800,1.895058837890625,-1.3549866222232578,-0.3009823036983609,-1.1600510562308133
1772623512387089000,1.9050888671875,-1.8077134388327598,-0.23583090935200451,-1.2553607113450764
1772623512397118700,1.91511865234375,-2.0963047552525995,-0.2176055168315768,-1.1500731214433908
1772623512407148800,1.925148681640625,-2.12724466791749,-0.07171586742848157,-0.9709094904046505
1772623512417177900,1.935177734375,-1.919376408985257,0.2349228545963764,-0.9533739798445254
1772623512427207700,1.945207763671875,-1.674741723191738,0.6348302274271845,-0.9291837606355547
1772623512437237800,1.95523779296875,-1.4581588274061679,0.9638616907849907,-0.7423418500538915
1772623512447267800,1.965267822265625,-1.0791472353488207,1.1187944783434272,-0.6740289229366928
1772623512457298000,1.9752978515625,-0.8201502622038126,1.2673568540871143,-0.8945810876794159
1772623512467327000,1.985326904296875,-0.5414999095618724,1.4155901440069079,-1.0678389287404715
1772623512477361200,1.995361083984375,-0.23087737859785556,1.4210378880187868,-1.1022800544593483
1772623512487391200,2.00539111328125,0.013331190738081932,1.3263859661608934,-0.9525419859997928
1772623512497421300,2.01542138671875,0.2358423075288534,1.1919941545888781,-0.8210276295602321
1772623512507451400,2.025451416015625,0.41510698778927324,1.0499141266018153,-0.6989984559550881
1772623512517480200,2.035480224609375,0.4169733661830425,0.9486158985972404,-0.3897158318253234
1772623512527510300,2.04551025390625,0.5703425576865673,0.8590800045788287,-0.15905775853395462
1772623512537540000,2.0555400390625,0.8320224863052368,0.8266305641338229,-0.15740085817240176
1772623512547570200,2.065570068359375,0.9737702135980129,0.8234203699156641,-0.22856026076190172
1772623512557599000,2.075598876953125,1.0725707795679569,0.7866779084518551,-0.14133910995926707
1772623512567629000,2.085629150390625,1.204486264154315,0.6743000680282711,-0.020659889658354223
1772623512577659100,2.0956591796875,1.4017787685364484,0.56683133469522,0.08672285502483136
1772623512587689200,2.105689208984375,1.5276789383560418,0.5007715933322906,0.055398212792095725
1772623512597719300,2.11571923828125,1.6148475187212228,0.4089154396727681,0.0974892093767412
1772623512607748400,2.125748291015625,1.703987106898427,0.30555969461649657,0.1707385334501974
1772623512617778200,2.135778076171875,1.691829051592946,0.2012427033126354,0.33263562532961366
1772623512627808000,2.14580810546875,1.6733417932659387,0.10009498969465494,0.49617264816947276
1772623512637838000,2.155838134765625,1.7243688006699085,0.04783931727856398,0.5572206623176112
1772623512647868200,2.1658681640625,1.7599392957448958,0.0497290765479207,0.47689895217251027
1772623512657897200,2.175897216796875,1.7342688479155302,0.04903320323824882,0.3381031334878877
1772623512667927300,2.18592724609375,1.6648375842928886,-0.0020005261674523353,0.2661328163743019
1772623512677957400,2.195957275390625,1.5471002626627683,-0.09555442365556954,0.22819677947806194
1772623512687987200,2.2059873046875,1.4034160143494605,-0.21882482949346302,0.17412149041937663
1772623512698017000,2.21601708984375,1.1964613631308079,-0.32800708874613044,0.0821944634807296
1772623512708046000,2.226046142578125,0.9895277547001838,-0.43037148467749353,-0.015456147002801297
1772623512718076200,2.236076171875,0.7724339867830275,-0.4779696866765618,-0.10195399763272144
1772623512728106200,2.246106201171875,0.6077145492255688,-0.4601867772266268,-0.18432115993238984
1772623512738136300,2.25613623046875,0.408320688650012,-0.44640608915537594,-0.3075215692739934
1772623512748165000,2.2661650390625,0.22277824329435825,-0.4384636057183146,-0.41349173461236055
1772623512758195200,2.2761953125,0.15072598351836203,-0.4472320185855031,-0.4798674465892836
1772623512768225300,2.286225341796875,0.10221709641516208,-0.4260729107007384,-0.49407907342370594
1772623512778255000,2.296255126953125,0.05966682545542717,-0.4123240790724754,-0.38944158146120605
1772623512788285200,2.30628515625,0.14763210915625094,-0.3862959038466215,-0.3023705797189846
1772623512798314000,2.31631396484375,0.32707974476814267,-0.30322979036420583,-0.3059853726826608
1772623512808344000,2.326343994140625,0.5156108505457639,-0.24572394233494996,-0.2800863037291914
1772623512818374100,2.3363740234375,0.6502034453868866,-0.2829100559130311,-0.22812829908542334
1772623512828404200,2.346404296875,0.6717647043317556,-0.41070115404576063,-0.15324602178158236
1772623512838434300,2.356434326171875,0.6581763239622116,-0.5731140682265162,-0.12061830216022208
1772623512848463400,2.36646337890625,0.5475029493689537,-0.7242118076667189,-0.11703968562162481
1772623512858493200,2.3764931640625,0.348571445608139,-0.8338225214645266,-0.10586471393620595
1772623512868523000,2.38652294921875,0.08703881650567054,-0.8839198468029499,-0.15013800016310996
1772623512878553000,2.396552978515625,-0.20798165617883205,-0.8740750368759036,-0.2469758420921862
1772623512888583200,2.406583251953125,-0.5382400309830904,-0.8152224504128098,-0.3341991848519072
1772623512898612200,2.4166123046875,-0.8923948296815156,-0.7163064413696527,-0.4315272305838763
1772623512908642300,2.426642333984375,-1.136141042202711,-0.6350292571306229,-0.5055141116842627
1772623512918672100,2.436672119140625,-1.146691662311554,-0.5715241686865687,-0.42380397938806563
1772623512928702200,2.4467021484375,-1.040236782196164,-0.5329521537080407,-0.3193968255827203
1772623512938731300,2.456731201171875,-0.7872089465886354,-0.5374480038225651,-0.07901467353398911
1772623512948761300,2.46676123046875,-0.5237415500313043,-0.5330480152979493,0.16013864910583941
1772623512958791200,2.476791259765625,-0.31610125463604927,-0.517718344219029,0.4024784288952127
1772623512968821200,2.4868212890625,-0.2549175948768854,-0.6142345986440777,0.5405754151280969
1772623512978851000,2.49685107421875,-0.21608020696043967,-0.7035115494653582,0.4988921362612396
1772623512988880100,2.506880126953125,-0.12422668364942073,-0.7029986315071582,0.4878638521706685
1772623512998910200,2.51691015625,-0.07186755085885524,-0.7402057878732681,0.6128798960994929
1772623513008940300,2.526940185546875,-0.057069210177659986,-0.9005246523842215,0.7871515173129737
1772623513018970400,2.536970458984375,-0.14942308422625064,-1.1248743827790022,0.9579669336579739
1772623513029000200,2.547000244140625,-0.4783604395598173,-1.263353171403706,0.8943822771716863
1772623513039029200,2.557029296875,-1.0562713866740465,-1.1367740794092416,0.47264849165379996
1772623513049059000,2.56705908203125,-1.8745517633527515,-0.8137868646517395,-0.16351062802327795
1772623513059089200,2.577089111328125,-2.542327690309286,-0.5743924175992607,-0.6855791485421359
1772623513069119200,2.587119140625,-2.884142062872648,-0.47347120621353384,-0.9605194676849991
1772623513079149300,2.5971494140625,-3.0065941380649805,-0.35066783336549995,-1.0083904222108424
1772623513089178000,2.60717822265625,-2.7274457727730272,-0.14485007722228765,-0.7771058510515838
1772623513099208200,2.617208251953125,-2.005892078399658,0.15249094736427068,-0.4155659105379134
1772623513109238300,2.62723828125,-1.159561665278673,0.4855126494020223,-0.09437035583700053
1772623513119268000,2.63726806640625,-0.4304442576527595,0.7777771013766527,0.038312711021793074
1772623513129298200,2.647298095703125,0.1996089646309614,1.020249640700221,0.19951262811701745
1772623513139327200,2.6573271484375,0.6753530842125416,1.038739237114787,0.4272843323171138
1772623513149357000,2.667357177734375,1.1339011543214321,0.922064576280117,0.5084478270485997
1772623513159387100,2.67738720703125,1.4107476724117993,0.7804644407644867,0.5528423011029139
1772623513169417200,2.687417236328125,1.5454045646607875,0.6433239150062203,0.48553928168062116
1772623513179446300,2.6974462890625,1.62348733677268,0.5880041788443923,0.3033472792640328
1772623513189476400,2.707476318359375,1.4988210926622152,0.5763169559210538,0.09512823413275182
1772623513199506200,2.717506103515625,1.3163783668875693,0.47821986204534767,0.0006520707005634904
1772623513209536000,2.727535888671875,1.0241074851721526,0.3214461227953434,-0.07601069681188091
1772623513219566000,2.737566162109375,0.541239797320962,0.19595248795002698,-0.20998145169392227
1772623513229595100,2.74759521484375,0.12425357165634632,0.09990355877578258,-0.28826248632427304
1772623513239625200,2.757625244140625,-0.20620354059040547,0.05826484970301389,-0.2922271704378538
1772623513249655300,2.7676552734375,-0.4697136072456836,0.056149172723293304,-0.26462504215985533
1772623513259685400,2.777685302734375,-0.5810211880892515,0.1362970606714487,-0.2608233117893338
1772623513269715000,2.78771484375,-0.6883972747027873,0.29268939938843247,-0.2332041775776073
1772623513279744300,2.797744140625,-0.639974896839261,0.43797231507003304,-0.09789174402933568
1772623513289774000,2.807774169921875,-0.42769466668367384,0.5247071801930666,0.08955169437574222
1772623513299804200,2.81780419921875,-0.13769523703157902,0.6437102839753032,0.28680196705134586
1772623513309834200,2.827834228515625,0.2208282782703638,0.766442929674685,0.31808113987427206
1772623513319864300,2.8378642578125,0.6240583657830954,0.8571119193762541,0.2965731454866007
1772623513329893000,2.84789306640625,1.0129401944696903,0.849950357183814,0.31530403984375294
1772623513339923200,2.857923095703125,1.3895587539106606,0.7934083857506513,0.38026414940170944
1772623513349953300,2.867953369140625,1.6782716508835553,0.7364008426323533,0.4547762234199792
1772623513359983000,2.877983154296875,1.7870131806313991,0.6165367381066084,0.5054167887896299
1772623513370012200,2.88801220703125,1.961747231724858,0.5004454301178455,0.5874534496264532
1772623513380042000,2.8980419921875,1.9436001651376484,0.42630408910810946,0.6268469735883176
1772623513390072000,2.908072021484375,1.81369952750504,0.3273687908425927,0.6716097329657524
1772623513400102100,2.91810205078125,1.6966349905699492,0.20889175676107405,0.7654661205317824
1772623513410132200,2.92813232421875,1.5672516548097133,0.08908844251185655,0.7844657122951001
1772623513420161300,2.938161376953125,1.391277832788229,0.02787818700671196,0.7160900221399963
1772623513430191400,2.94819140625,1.2220014625787734,0.023982640872895717,0.4890391430277377
1772623513440221200,2.95822119140625,1.0616589249312878,0.0038987610042095183,0.22042017239350825
1772623513450251000,2.9682509765625,0.9711270056128501,-0.05819616838097572,0.11522457162421196
1772623513460281000,2.978281005859375,0.9695698392987251,-0.16429302883893251,0.18505798630695788
1772623513470310100,2.98831005859375,0.9997726698607206,-0.2545084295541048,0.2738696211714297
1772623513480336000,2.9983359375,0.9883335764795541,-0.32080227193385363,0.34265436705145985
1772623513490366000,3.008365966796875,0.9139204327911138,-0.3976365052893758,0.37186866150014103
1772623513500396000,3.01839599609375,0.814959123301506,-0.47473143540769813,0.35334845075160265
1772623513510426000,3.028426025390625,0.7725906386494636,-0.48852381391674277,0.30473034938657656
1772623513520455000,3.038454833984375,0.6955553297638892,-0.47107057481259107,0.3311227730812505
1772623513530485000,3.048485107421875,0.605815437605977,-0.539730854062736,0.4320311249854043
1772623513540515000,3.05851513671875,0.5186217227995396,-0.7035901676595211,0.47911801646146923
1772623513550545000,3.068544921875,0.4064572328656912,-0.7969739692777394,0.4645897979585454
1772623513560575000,3.078574951171875,0.1614981374233961,-0.807142896592617,0.3918609540952369
1772623513570604000,3.08860400390625,-0.13624445370137692,-0.8174383728966116,0.27251411490924654
1772623513580633900,3.0986337890625,-0.3891898717224598,-0.7653621487006544,0.16425664235129953
1772623513590664000,3.108663818359375,-0.5945037699967622,-0.6457692623317242,0.0008430449617095291
1772623513600694000,3.118694091796875,-0.7943564802557229,-0.49398470967113967,-0.14231712467856705
1772623513610723000,3.12872314453125,-1.0033540354788302,-0.4353995419725775,-0.2090273475731723
1772623513620753200,3.138753173828125,-1.1517115363001822,-0.4703478134959936,-0.18357945645330473
1772623513630783000,3.148782958984375,-1.2152163324832916,-0.5076473243206739,-0.09115501965284346
1772623513640812800,3.158812744140625,-1.1899994736403225,-0.5048077169805765,0.013265011900383978
1772623513650843000,3.1688427734375,-1.1787298916071653,-0.48618368053138256,0.10939959179777652
1772623513660872000,3.178871826171875,-1.2176824303358793,-0.44326048460602757,0.15301069692205638
1772623513670902000,3.188902099609375,-1.201286006808281,-0.3963333137363195,0.14136543171061203
1772623513680932000,3.19893212890625,-1.0790987200319766,-0.3520528579831123,0.038534769974369554
1772623513690962200,3.208962158203125,-0.999023897320032,-0.299933963689208,-0.032239505755063146
1772623513700991700,3.21899169921875,-0.9205319598853587,-0.3449143844053149,-0.003704608405288309
1772623513711021000,3.22902099609375,-0.8760714713901281,-0.4957371062964201,0.0976147354525514
1772623513721051000,3.23905078125,-0.9931383464127779,-0.6112485685706138,0.055917391527723515
1772623513731081000,3.2490810546875,-1.3330395788311957,-0.5926102113351226,-0.2828801539651118
1772623513741111000,3.259111083984375,-1.7393173634767531,-0.41534897985160346,-0.7620756743758916
1772623513751141000,3.26914111328125,-2.0649398951739073,-0.1989452400252223,-1.1470349227912724
1772623513761170000,3.279169921875,-2.245948788753152,-0.10812164428383111,-1.2264385682433843
1772623513771200000,3.289199951171875,-2.1657617378383875,-0.12771657159179448,-1.0709237430132925
1772623513781230000,3.29922998046875,-1.826077947562933,-0.087149875664711,-0.8808055141746998
1772623513791260000,3.309260009765625,-1.3121446748405694,0.08474223000109195,-0.5849204605501145
1772623513801289000,3.3192890625,-0.7428343828111886,0.2919923570349812,-0.24190942554809153
1772623513811318800,3.32931884765625,-0.20104338134825228,0.5048191151574254,-0.01399588345820084
1772623513821348900,3.339348876953125,0.2499684480369091,0.6960013199657201,-0.007918755501601845
1772623513831379000,3.34937890625,0.4931809920728206,0.7573834249064326,-0.05905618274379521
1772623513841409000,3.359408935546875,0.6290583660274743,0.8078972220912575,-0.10225122701362706
1772623513851438000,3.36943798828125,0.5917126779735088,0.8795850324690342,-0.2768777717451565
1772623513861468200,3.37946826171875,0.449904744926095,0.9341717781811952,-0.5378740472149104
1772623513871498000,3.389498046875,0.2664204011440277,1.0003379025280474,-0.7746537817243486
1772623513881527800,3.39952783203125,0.0836941822528839,1.073872509816289,-0.9222470932401716
1772623513891558000,3.409557861328125,-0.17095745516419408,1.0668342817425727,-1.006844654073566
1772623513901587000,3.4195869140625,-0.2864385223001242,0.9535133152499794,-1.0857592008344827
1772623513911617000,3.429616943359375,-0.18858020561635494,0.8470663261801004,-1.1105946591444313
1772623513921647000,3.439647216796875,0.0755599756360054,0.8415957858145237,-1.0062836591899393
1772623513931677000,3.449677001953125,0.44173254438638687,0.8837333843201398,-0.7732147618971764
1772623513941706000,3.4597060546875,0.845584563189745,0.9407795058831572,-0.5032788999781013
1772623513951736000,3.469736083984375,1.2380278837502001,0.9518933128327131,-0.3380012805486098
1772623513961766000,3.479765869140625,1.6370049899935721,0.9483373739168047,-0.27784278085241093
1772623513971796000,3.4897958984375,1.9395470903545617,0.9146291655823587,-0.10605150521257892
1772623513981826000,3.499825927734375,2.110079013583064,0.7847346654295921,0.040843275245605035
1772623513991854800,3.509854736328125,2.2107301758557556,0.5759247417330742,0.15340831793751566
1772623514001885000,3.519885009765625,2.26098386079967,0.3818064834728837,0.24015578681379554
1772623514011915000,3.5299150390625,2.2664479714244603,0.25235505091249943,0.2967075855212286
1772623514021945000,3.539945068359375,2.1960066539764402,0.09723989252448081,0.3286764028424397
1772623514031975000,3.549974853515625,2.075765240570903,-0.10774988836199044,0.28033257010783996
1772623514042004000,3.56000390625,1.8825491918474435,-0.30139176128208633,0.19249770785365253
1772623514052033800,3.57003369140625,1.6947323718190193,-0.4702823470443487,0.15158360499469561
1772623514062063900,3.58006396484375,1.528691330268979,-0.6113990829572081,0.10898765912917442
1772623514072094000,3.590093994140625,1.3575082496553659,-0.7038704459056258,0.05365425976817496
1772623514082124000,3.6001240234375,1.1220745229274034,-0.7445859026536346,0.01106201739681419
1772623514092153000,3.610153076171875,0.9300000454545021,-0.7968670017719268,-0.025067362803104332
1772623514102183000,3.620182861328125,0.6700111386626958,-0.8214496543645858,-0.05974484086139127
1772623514112213000,3.630212890625,0.40376960121691224,-0.8529331723868846,-0.1409029287653975
1772623514122242800,3.640242919921875,0.20604981133341788,-0.8477659988820553,-0.19834440632155165
1772623514132272000,3.650272216796875,0.09628419923484324,-0.8109078020840883,-0.2182998009723611
1772623514142302000,3.660302001953125,0.04506605317294597,-0.772039726768434,-0.16678762213364243
1772623514152332000,3.67033203125,0.07814882308542728,-0.7630781294167042,-0.10015143258962779
1772623514162361900,3.68036181640625,0.19047522558271884,-0.7035401910379528,-0.04410394384225365
1772623514172392000,3.690391845703125,0.30040742641985413,-0.6268050341427326,0.014801998509583062
1772623514182421000,3.7004208984375,0.42136254105269905,-0.6349474240660667,0.02148916182303801
1772623514192451000,3.710451171875,0.548473840227723,-0.6985252854853868,0.04643624554760754
1772623514202481200,3.720481201171875,0.6288929463326931,-0.7962845257088541,0.09899864582531154
1772623514212511000,3.730510986328125,0.6115460902124643,-0.9050611267700791,0.14128699617953971
1772623514222541000,3.740541015625,0.5554056853175163,-1.0093848400756715,0.14228998094331471
1772623514232569900,3.75056982421875,0.40169221042096614,-1.1078361542165278,0.12206826350651681
1772623514242600000,3.760599853515625,0.153512399366498,-1.1669450535282493,0.09656372856227681
1772623514252630000,3.770630126953125,-0.17347732903063295,-1.1557567200377583,0.040326804490294306
1772623514262660000,3.78066015625,-0.5294874002069234,-1.1021937644153832,-0.07267385313990525
1772623514272689000,3.79068896484375,-0.873622909194231,-1.0549860230386257,-0.23777565021160987
1772623514282719000,3.800718994140625,-1.2333306658446788,-1.0146952214434741,-0.3497122862063348
1772623514292749000,3.8107490234375,-1.5466267999321222,-1.039886361323297,-0.36268125603590157
1772623514302779000,3.82077880859375,-1.603310225662589,-1.121672371867299,-0.28079145632386204
1772623514312809000,3.83080908203125,-1.5128624774962662,-1.1256088345333932,-0.11418952035489491
1772623514322838000,3.840838134765625,-1.304648181605339,-1.0807397652372717,0.1526852095610462
1772623514332867800,3.850867919921875,-0.9432324519932269,-0.9920920522302389,0.40076099398545917
1772623514342898000,3.86089794921875,-0.6188426769614219,-0.8252151443779469,0.498131892478466
1772623514352928000,3.870927978515625,-0.3699585170298815,-0.6729910312563181,0.5623625187180936
1772623514362958000,3.8809580078125,-0.1640507445156574,-0.673638389249146,0.6678919545516371
1772623514372987100,3.890987060546875,0.06807108118534087,-0.7775307254001498,0.7722086535945534
1772623514383017000,3.901016845703125,0.21870821737647056,-0.9517848840221762,0.9413932538673281
1772623514393047000,3.911047119140625,0.2314198149114847,-1.2216004805624485,1.13474885719195
1772623514403076900,3.921076904296875,-0.0004354688078165054,-1.488323371784389,1.145091241377592
1772623514413106000,3.93110595703125,-0.647507630431652,-1.4329840541392564,0.767892324765399
1772623514423136000,3.941135986328125,-1.6290636756002903,-1.0457625598803162,0.05914871986545622
1772623514433166000,3.951166015625,-2.423435353425145,-0.764160079434514,-0.4382433505637571
1772623514443196200,3.961196044921875,-2.696188464722037,-0.643852322794497,-0.6778157479990273
1772623514453226000,3.97122607421875,-2.620991477179527,-0.42027269998937844,-0.8508725135300308
1772623514463255000,3.981255126953125,-2.406335165542364,-0.06577712502926587,-0.7767166325382888
1772623514473284600,3.99128466796875,-1.783930412185192,0.3561152851164341,-0.48527043814398346
1772623514483312600,4.001312744140625,-0.9210311415791511,0.8050570302292704,-0.24779227304160595
1772623514493342700,4.0113427734375,-0.21592823126912117,1.30466513274014,-0.1983837336849421
1772623514503371500,4.02137158203125,0.18491057719290255,1.6650263848632574,-0.2629637761504389
1772623514513401600,4.031401611328125,0.515776854762435,1.7388880321487783,-0.34472364760618657
1772623514523431400,4.041431396484375,0.7851742258906363,1.60514533213526,-0.3374532182117924
1772623514533461500,4.05146142578125,0.9153928434312343,1.4169602633163332,-0.28053817568253725
1772623514543490600,4.061490478515625,0.9086322632551193,1.2682611094504594,-0.2944918822331354
1772623514553520600,4.071520751953125,0.7779366758525371,1.1349205604970454,-0.2539624861091375
1772623514563550500,4.081550537109375,0.6597481033235788,0.9835741069927811,-0.20162527288943527
1772623514573580500,4.09158056640625,0.542748448318243,0.8341279341518878,-0.18708059644205494
1772623514583610600,4.101610595703125,0.3322510099261999,0.7632263057157397,-0.16567808998916297
1772623514593639700,4.1116396484375,0.04636076915860176,0.7718763529002666,-0.20317149768443776
1772623514603669800,4.121669677734375,-0.13896949475109577,0.7971385121896862,-0.3517198631690815
1772623514613699600,4.131699462890625,-0.28167349985539913,0.8763260306730866,-0.5321124880135059
1772623514623729400,4.1417294921875,-0.29165421112179757,1.0172530892327427,-0.5887652994100004
1772623514633759500,4.151759521484375,-0.17955460311770438,1.1879998242557048,-0.5099057342393324
1772623514643788500,4.16178857421875,-0.012497078001499176,1.248172261145711,-0.32196627421192825
1772623514653818600,4.171818603515625,0.30627544167041776,1.2246315188214183,-0.20568232972789555
1772623514663848700,4.1818486328125,0.656661243224144,1.2185878547430038,-0.13709865937791763
1772623514673878800,4.191878662109375,1.011211763241887,1.2201283621832728,-0.11433514850381761
1772623514683907600,4.201907470703125,1.35078624792397,1.1785282315552235,-0.03207678947402164
1772623514693937700,4.211937744140625,1.6020809761285781,1.0427379513621329,0.17413917220653966
1772623514703967500,4.221967529296875,1.7823761684805153,0.8946183509498834,0.3667490534640848
1772623514713997600,4.23199755859375,1.956562522563338,0.8060156461283564,0.37923553700633345
1772623514724027600,4.242027587890625,2.10040692987442,0.7517553558915853,0.2896247145881876
1772623514734056400,4.252056396484375,2.1418618068128823,0.6760968883171677,0.28552069506915284
1772623514744086500,4.26208642578125,2.1055553986787796,0.4969105339899659,0.2826110364338383
1772623514754116600,4.27211669921875,1.9747271248072384,0.28074147970229385,0.2318876516189426
1772623514764146700,4.282146728515625,1.801368453720212,0.1252230012103915,0.24867250820854678
1772623514774175700,4.29217578125,1.5587240649610756,-0.03687953184694052,0.36501126988604665
1772623514784205600,4.30220556640625,1.358427118065953,-0.1589578052908182,0.549192254162766
1772623514794235400,4.3122353515625,1.2191361362755297,-0.1743950283974409,0.5515476216498763
1772623514804265500,4.322265380859375,1.051132270219922,-0.11377572452276945,0.45822840970046813
1772623514814295600,4.332295654296875,0.935507410699129,-0.11190963838994503,0.4660680903501808
1772623514824324600,4.34232470703125,0.8919085074692964,-0.16668021623641252,0.5033937585294246
1772623514834354700,4.352354736328125,0.8737193553060293,-0.22666209899038076,0.467183065854758
1772623514844384800,4.362384765625,0.762476071870327,-0.3024564679041505,0.518349481729418
1772623514854414300,4.372414306640625,0.6109019470900297,-0.455188238286972,0.6164294052746147
1772623514864444400,4.3824443359375,0.4335398855805397,-0.6431301459997892,0.7469006824020296
1772623514874473500,4.392473388671875,0.24224048413336274,-0.7695543396934866,0.8149134575288742
1772623514884503600,4.402503662109375,0.07705284454226494,-0.7533657136976718,0.7260040979109704
1772623514894533600,4.41253369140625,-0.071987377846241,-0.6500087995976209,0.5651812294006348
1772623514904563700,4.422563720703125,-0.2902186253607273,-0.613415391215682,0.4884134123448282
1772623514914592500,4.432592529296875,-0.49049569851160046,-0.6688520317554474,0.4521205943446606
1772623514924622600,4.44262255859375,-0.7209153964698314,-0.7123235092133283,0.3827582312397659
1772623514934652700,4.452652587890625,-0.9733318221807479,-0.7262038582667708,0.258887430089619
1772623514944682500,4.4626826171875,-1.1374755056768655,-0.7490019655302167,0.1356948661277536
1772623514954712600,4.472712646484375,-1.1831611520528793,-0.7393690447881818,0.061504014287330204
1772623514964741400,4.482741455078125,-1.1283639784604311,-0.6798688080713152,0.03903097882636357
1772623514974771500,4.492771484375,-1.0667056869268416,-0.6176897075340152,0.05245215396941639
1772623514984801500,4.502801513671875,-1.000217491018772,-0.6114437988817691,0.10970661192033439
1772623514994831600,4.51283154296875,-0.9826777426749467,-0.6299953546166419,0.10158779466883279
1772623515004861700,4.52286181640625,-1.012220648023486,-0.5896516537904739,0.01627666732216021
1772623515014890800,4.532890869140625,-1.1015969675660133,-0.5124634924307465,-0.11653398285550065
1772623515024920600,4.542920654296875,-1.07795481069386,-0.4343196377813816,-0.2853096278680488
1772623515034950400,4.552950439453125,-0.967941945835948,-0.4189209931194782,-0.38050493588764217
1772623515044980500,4.56298046875,-0.8772948757052421,-0.5281216648116708,-0.350296661965549
1772623515055009500,4.573009521484375,-0.8635188638091087,-0.7611199810862541,-0.2112433613885194
1772623515065039600,4.58303955078125,-0.9620715924978256,-0.8568743112280964,-0.21903544003684072
1772623515075069700,4.593069580078125,-1.2952443934440612,-0.6615355712622404,-0.6033429100126028
1772623515085099500,4.603099609375,-1.7002081728816032,-0.2603366973161697,-1.232243162868917
1772623515095129600,4.613129638671875,-1.9397808991104364,0.05120353301465511,-1.657604418168962
1772623515105158700,4.62315869140625,-1.9770541064500808,0.2142731575384736,-1.7556620568171142
1772623515115188500,4.6331884765625,-1.6619447854608296,0.33938188471943137,-1.527956586253643
1772623515125219600,4.643219482421875,-1.1451093615561723,0.4709127539023757,-1.0910556998074055
1772623515135248600,4.65324853515625,-0.6710194389224052,0.7057356552556157,-0.5846553798731416
1772623515145278500,4.663278564453125,-0.2795575306147337,0.9829033681243657,-0.23480996880643068
1772623515155308500,4.67330859375,0.03787643392980099,1.2418109094202519,-0.13754195529916322
1772623515165338600,4.683338623046875,0.23593524650931358,1.4239718956440686,-0.19041894708452745
1772623515175368400,4.693368408203125,0.4200771774172783,1.4892767269864677,-0.2470436283650808
1772623515185397500,4.7033974609375,0.4830675943374633,1.4728925784185527,-0.23747951680924742
1772623515195427600,4.713427490234375,0.5083393982380628,1.4118404360845684,-0.22666628197515382
1772623515205457400,4.72345751953125,0.5541010324597359,1.3886360861077904,-0.2608522090902552
1772623515215487500,4.733487548828125,0.5836223104983568,1.4055986190855503,-0.3436446201978251
1772623515225516500,4.7435166015625,0.5984761807590723,1.3980489343583582,-0.3970641487615183
1772623515235546600,4.753546630859375,0.6495914509683847,1.3590665850132704,-0.34239597184360027
1772623515245576700,4.76357666015625,0.5611287391394376,1.1986416297793387,-0.2341485092230141
1772623515255606500,4.7736064453125,0.5429892713367939,0.9367705625027417,-0.1375994485069066
1772623515265636400,4.78363623046875,0.6285457403302193,0.7569906261965632,0.009318192237056792
1772623515275665400,4.79366552734375,0.7570698289126158,0.670846420443058,0.18797710689036173
1772623515285695500,4.803695556640625,0.9473451480090618,0.6502844016686081,0.31683618131447583
1772623515295725600,4.8137255859375,1.1055571033686398,0.6555237636268139,0.4736800266586244
1772623515305755600,4.823755615234375,1.2541653640806674,0.6493237399429083,0.5744464858740568
1772623515315784400,4.833784423828125,1.3704939879566431,0.6392506742179394,0.621883505962044
1772623515325814500,4.843814453125,1.4361153379023075,0.6122793729230761,0.6766442200016229
1772623515335844600,4.8538447265625,1.456744868955016,0.5481096830904484,0.7235903147675097
1772623515345874400,4.86387451171875,1.4745418069303036,0.4892380996659398,0.7599168158415704
1772623515355904500,4.873904541015625,1.4242758470267056,0.4116466182023287,0.7732252102259546
1772623515365933600,4.88393359375,1.3345488143503665,0.28096389028131963,0.7713044712964445
1772623515375963400,4.89396337890625,1.2667203097492457,0.14625292975753545,0.7599818439017981
1772623515385993500,4.903993408203125,1.1338538080483673,0.07300795306563376,0.7465842368640005
1772623515396023600,4.9140234375,1.012541550540924,0.01225771628767252,0.6902011092543602
1772623515406053600,4.9240537109375,0.9761796128273009,-0.058659401978552336,0.5863570692244917
1772623515416082700,4.934082763671875,0.9396656994223594,-0.09340542892813682,0.47868316870816047
1772623515426112800,4.94411279296875,0.9261813639491796,-0.13053484388291836,0.4010189142692834
1772623515436142300,4.954142333984375,0.8552291743695736,-0.20586685598194598,0.35299817600920796
1772623515446172400,4.96417236328125,0.7719026563853025,-0.29356559770107266,0.24967565736910327
1772623515456201500,4.974201416015625,0.7204092005133629,-0.3796925600588322,0.08068104497678577
1772623515466231600,4.9842314453125,0.6725859575867652,-0.45562458387762306,-0.001547850496508181
1772623515476261600,4.99426171875,0.6176122583836317,-0.5770069840118288,-0.06772069684509188
1772623515486291700,5.004291748046875,0.6721703625231981,-0.6819178495556115,-0.06630905821518972
1772623515496321800,5.01432177734375,0.7158411619454622,-0.7574868852809071,-0.00999603669969365
1772623515506350800,5.024350830078125,0.8247644780009985,-0.8451783204764127,0.012703980484139173
1772623515516380700,5.034380615234375,0.8954384351611137,-0.9435705979064106,0.0836646182316821
1772623515526410500,5.044410400390625,0.9143798669964075,-1.1141802625462411,0.18341511447075753
1772623515536440600,5.054440673828125,0.9696657008886337,-1.3026742511838674,0.24795730914389713
1772623515546470700,5.064470703125,0.9644576108515263,-1.4089461759477853,0.29595274856593456
1772623515556499700,5.074499755859375,0.8763380133718252,-1.4563725285112856,0.2544110335942358
1772623515566529800,5.08452978515625,0.7446691970229149,-1.4957260492563247,0.15627497768132015
1772623515576559900,5.094559814453125,0.5379413402974605,-1.5592071723029017,0.045191058658948166
1772623515586589700,5.104589599609375,0.23669512496590614,-1.5869155557006596,-0.12376495702234096
1772623515596618800,5.11461865234375,-0.12964169443547724,-1.5827698341980576,-0.30050800071749834
1772623515606648600,5.124648681640625,-0.5102314955949783,-1.579400942286849,-0.46864901022147387
1772623515616678700,5.1346787109375,-0.8648398832798003,-1.5586930853009222,-0.5727731823669746
1772623515626708700,5.144708740234375,-1.15699386061728,-1.4540174898177385,-0.6483763760901987
1772623515636738800,5.15473876953125,-1.2614935150116682,-1.3141934240639208,-0.6476387825306504
1772623515646767600,5.164767578125,-1.1430997752994299,-1.2194953249767422,-0.4859484835360199
1772623515656797700,5.174797607421875,-1.0089356350034475,-1.176516599471867,-0.13449675151752308
1772623515666827800,5.184827880859375,-0.9170400261163711,-1.159977552603185,0.23994271031869574
1772623515676857600,5.194857666015625,-0.8287702065110206,-1.0351078948751091,0.41408831226602194
1772623515686887000,5.204886962890625,-0.7557756974488496,-0.7801347704187035,0.46919228678531943
1772623515696916500,5.21491650390625,-0.6492623651444912,-0.5807774424612522,0.5165231430850923
1772623515706946600,5.224946533203125,-0.5802993035554885,-0.46929333600699896,0.5992141396448016
1772623515716976600,5.2349765625,-0.562428131300211,-0.47342385994046926,0.8416984424713998
1772623515727006700,5.2450068359375,-0.6782260093003512,-0.5612456435173749,1.1206390102315693
1772623515737035800,5.255035888671875,-0.9037848232239484,-0.625716946645081,1.236910131766647
1772623515747065900,5.26506591796875,-1.3008990582048892,-0.5103244345754385,1.0333169928703456
1772623515757095700,5.275095703125,-1.7740116602391003,-0.14379559973329306,0.5187072456585243
1772623515767125500,5.28512548828125,-2.212764312031865,0.27696576055586336,-0.03814213566128164
1772623515777154600,5.295154541015625,-2.3839795413494107,0.4947665076985955,-0.3072124302595854
1772623515787184600,5.3051845703125,-2.1054484311729667,0.5645034762695431,-0.4628591382410377
1772623515797214700,5.315214599609375,-1.7809142792344093,0.6640341100797057,-0.686432112109661
1772623515807244800,5.325244873046875,-1.2771902658373118,0.8101628289356827,-0.57681259395089
1772623515817274600,5.335274658203125,-0.5590472566902637,0.8822577588096261,-0.3353605933140963
1772623515827303700,5.3453037109375,0.057625090494751924,0.8828642002701759,0.10591192321195267
1772623515837333800,5.355333740234375,0.4852168813258409,0.8859306021034717,0.6026994610099121
1772623515847363600,5.365363525390625,0.9305646935999393,0.8220514196500182,0.6685754067711531
1772623515857393700,5.3753935546875,1.2373784799307583,0.8053317555174231,0.5414441607866436
1772623515867422500,5.38542236328125,1.351017718592286,0.862889918255806,0.4188181903321296
1772623515877452500,5.39545263671875,1.2970084805071354,0.8684411226421594,0.2872772746792063
1772623515887482600,5.405482666015625,1.1560685624659062,0.8545598968058824,0.08470838253041729
1772623515897512700,5.4155126953125,0.8384890519708394,0.8582689804568886,-0.18262847587140277
1772623515907542800,5.425542724609375,0.2925678188353777,0.7593798594206571,-0.3597452025840059
1772623515917571800,5.43557177734375,-0.24213702375888824,0.5802101639673114,-0.5836926723208278
1772623515927601700,5.4456015625,-0.7097434295922518,0.4916103817552328,-0.8259544915031641
1772623515937631500,5.455631591796875,-1.053418919852376,0.4537140740811825,-0.9892733415476977
1772623515947661600,5.46566162109375,-1.176158579814434,0.48927258645743127,-1.0276351478416472
1772623515957691600,5.475691650390625,-1.049802482920885,0.6062801325082778,-0.9120202251929789
1772623515967720700,5.485720703125,-0.8539467333436012,0.7535995224535464,-0.7107625435069203
1772623515977750800,5.495750732421875,-0.5521171651661396,0.85829440715909,-0.5392411708496511
1772623515987780600,5.505780517578125,-0.1289770930469036,0.9190221398442983,-0.4088296976180747
1772623515997810700,5.515810791015625,0.30048399878740306,0.9950836352616548,-0.32961905398741365
1772623516007839700,5.52583984375,0.7219406478643416,1.059336619463563,-0.23251351016601546
1772623516017869800,5.535869873046875,1.2579881372392177,1.0294289724558592,-0.18210540184536947
1772623516027899600,5.545899658203125,1.7298597993016243,0.9651216277182102,-0.1670015571452677
1772623516037929700,5.5559296875,2.0484896956324574,0.9009104368314147,-0.06700658462583087
1772623516047959800,5.565959716796875,2.2773422904044387,0.7228101241752505,-0.01607542967861518
1772623516057988600,5.575988525390625,2.4443653287291527,0.49008653318881984,-0.020043892634881193
1772623516068018700,5.586018798828125,2.464234396803379,0.299223477332294,-0.1537035014918074
1772623516078048800,5.596048828125,2.348119707939029,0.14851064555644988,-0.2261106208537705
1772623516088078800,5.606078857421875,2.1928081501960754,-0.02090016468763351,-0.15040946491509674
1772623516098107600,5.616107666015625,1.9957021082967519,-0.21797961084097622,-0.017349009261408355
1772623516108137700,5.6261376953125,1.8200322376579046,-0.37569267676770685,0.0820526438572444
1772623516118167600,5.63616748046875,1.6572721174746752,-0.458133059567213,0.060007473852951076
1772623516128197600,5.64619775390625,1.527223595803976,-0.4927487381353974,0.021346556748263537
1772623516138227700,5.656227783203125,1.4241396534264086,-0.5265373182296753,-0.09199925192464142
1772623516148256800,5.6662568359375,1.2854676803171634,-0.564742545722425,-0.19547911655092612
1772623516158286600,5.67628662109375,1.1799404364407062,-0.6150993987798691,-0.07318928271559998
1772623516168316700,5.686316650390625,1.207451543700695,-0.6909861221522092,0.09711182743171229
1772623516178346800,5.6963466796875,1.2496633764863014,-0.7252984338596463,0.24446793265817685
1772623516188375800,5.706375732421875,1.2195581610798836,-0.7358905550226569,0.3870020062893629
1772623516198405600,5.716405517578125,1.1734253554582594,-0.8080833923131227,0.45621009214799846
1772623516208435700,5.726435791015625,1.0419015005379915,-0.9007873949736356,0.5023993041319772
1772623516218465800,5.7364658203125,0.841399386459589,-1.0140177605733274,0.5951367341380566
1772623516228495600,5.74649560546875,0.6560872427284717,-1.144576862114668,0.6268180397547781
1772623516238524700,5.756524658203125,0.4425982213050127,-1.2134332484588026,0.5950781358186156
1772623516248554800,5.7665546875,0.2113034940779209,-1.2525634818419813,0.5239313735149801
1772623516258584800,5.776584716796875,-0.017747838136553763,-1.2900854032456874,0.4456179344523698
1772623516268614700,5.78661474609375,-0.3273088773488998,-1.325448393049836,0.34037586419284344
1772623516278643700,5.796643798828125,-0.7541781991243361,-1.354380473023653,0.2257644925635308
1772623516288673500,5.806673583984375,-1.2522352728009223,-1.3674661645680666,0.06105075409449637
1772623516298703600,5.81670361328125,-1.6402221984744072,-1.3247110186859965,-0.09422175027970224
1772623516308733700,5.826733642578125,-1.9026205044955014,-1.1930506779044865,-0.148474989721179
1772623516318763800,5.836763671875,-2.022578424784541,-0.9731249014317989,-0.1577344740409404
1772623516328792600,5.84679248046875,-1.9934429311931132,-0.7506827582240104,-0.12408219714481383
1772623516338822700,5.85682275390625,-1.7848919506937264,-0.5831760280355811,-0.033562169193569566
1772623516348852700,5.866852783203125,-1.516035262313485,-0.4598509694010019,-0.02292474758410826
1772623516358882600,5.876882568359375,-1.250309273174405,-0.36669571584165095,-0.008978402356058358
1772623516368911600,5.88691162109375,-0.9955337171167135,-0.28141192630976436,0.03591718962080776
1772623516378941700,5.896941650390625,-0.7799006694018841,-0.16772563363611698,0.05250123097526375
1772623516388971500,5.906971435546875,-0.6419225237756967,-0.07304214759618044,-0.014845161797874606
1772623516399001600,5.917001708984375,-0.47134734592735766,-0.06760580176115036,-0.09302274062032811
1772623516409031700,5.92703173828125,-0.3517705339103937,-0.19447744696140287,-0.15004777372954411
1772623516419060700,5.937060791015625,-0.25751521015465256,-0.41146892354786396,-0.12844552518716082
1772623516429090800,5.9470908203125,-0.18395722199082373,-0.5663251387387513,-0.15509674594849346
1772623516439121000,5.957120849609375,-0.21006372314989566,-0.6110419400826096,-0.29898048062296584
1772623516449150700,5.967150634765625,-0.45155192761123175,-0.5476555095821619,-0.6825653536789119
1772623516459180500,5.9771806640625,-0.9469874206125736,-0.40349019975364203,-1.2170489547379315
1772623516469209600,5.987209716796875,-1.4272265135258435,-0.31971155408769847,-1.6187166152395307
1772623516479240400,5.997240478515625,-1.7571388513714075,-0.3277680192932486,-1.713603807158023
1772623516489270300,6.007270263671875,-1.9180898763060568,-0.25580840623676776,-1.555911053366959
1772623516499300400,6.01730029296875,-1.9516086995482445,-0.09496142619848251,-1.3576467813432216
1772623516509329400,6.027329345703125,-1.7981103287070987,0.17739742508381603,-1.1300392181962728
1772623516519359200,6.037359130859375,-1.6198188773930071,0.5522925217330455,-0.894912803851813
1772623516529389300,6.047389404296875,-1.341661276704073,0.9242416280582547,-0.7479998758155852
1772623516539419400,6.05741943359375,-0.9311375250518321,1.2681421592459081,-0.7536872738022357
1772623516549448200,6.0674482421875,-0.6036199733883142,1.5495564236432313,-0.8560611682143062
1772623516559478300,6.077478271484375,-0.32794717525243755,1.6661320080175994,-1.0503662542834877
1772623516569508400,6.08750830078125,-0.05258475823998451,1.6645593518733977,-1.179308568277955
1772623516579538400,6.097538330078125,0.13737141190469265,1.5987953785866498,-1.12986707649976
1772623516589568300,6.107568359375,0.3598702537357807,1.5216645003721117,-0.8344779166333377
1772623516599597300,6.117597412109375,0.6237357096999884,1.3797753187820314,-0.6938826473113149
1772623516609627100,6.127627197265625,0.861375422039628,1.2087541507318615,-0.6111793392593041
1772623516619657200,6.1376572265625,1.116864094802737,1.0494324805647135,-0.43174109253026544
1772623516629687300,6.147687255859375,1.486709799107909,0.9612050387963652,-0.31467951473724093
1772623516639716400,6.15771630859375,1.7656874840080736,0.9614166357204318,-0.20854597553070633
1772623516649746400,6.167746337890625,1.9747557663798332,0.94877518081218,-0.02028837119853124
1772623516659776300,6.1777763671875,2.1185230168014764,0.9075465138450265,0.1768977867322974
1772623516669806300,6.187806396484375,2.212240580418706,0.8784013756424188,0.3473784364312887
1772623516679836200,6.197836181640625,2.265102402034402,0.8147174235001206,0.41344215984959154
1772623516689865500,6.207865478515625,2.2876433196663855,0.7436530057176948,0.36827951443437484
1772623516699895300,6.217895263671875,2.2502146295040846,0.7091507243961095,0.3532355649616569
1772623516709925400,6.22792529296875,2.192944928318262,0.6118354285478591,0.35842191809099166
1772623516719955200,6.237955078125,2.120554814890027,0.4319023475065827,0.3567505508126691
1772623516729985300,6.2479853515625,2.0174241107612847,0.26402269235253334,0.33362036205064505
1772623516740014300,6.258014404296875,1.8987784421145915,0.1242494800031185,0.29092527579274025
1772623516750044400,6.26804443359375,1.6672405537813901,-0.013950783941149712,0.2968191013379954
1772623516760074500,6.278074462890625,1.4622668472468852,-0.14841536848843095,0.21985767967253922
1772623516770104300,6.288104248046875,1.2379729386925697,-0.1817608809903264,0.041034381937491704
1772623516780133000,6.298133056640625,0.9418617481619119,-0.16395108353346585,-0.18159188109897076
1772623516790163200,6.3081630859375,0.6669722093582153,-0.16771014380604027,-0.36508323914371427
1772623516800193300,6.318193359375,0.39704643044173715,-0.236622644251585,-0.53552832433898
1772623516810223400,6.328223388671875,0.1776017154842615,-0.2866878208860755,-0.6678212274029851
1772623516820253400,6.33825341796875,0.029084640187025067,-0.34503216556608673,-0.7856526570573449
1772623516830282200,6.3482822265625,0.05475158088505268,-0.3984434377580881,-0.8678541895996779
1772623516840312300,6.358312255859375,0.14398644613027572,-0.43520723427087066,-0.8555732385668903
1772623516850342400,6.36834228515625,0.2412584873586893,-0.46978170404583214,-0.8090606398474425
1772623516860372200,6.378372314453125,0.41314474780559535,-0.48323564438074823,-0.7168707972541452
1772623516870401300,6.3884013671875,0.6096662678152323,-0.5017734638512135,-0.6522197536453604
1772623516880431400,6.398431396484375,0.791989751124382,-0.5575333449959755,-0.5933952972982078
1772623516890461200,6.408461181640625,0.9172685741752385,-0.6862710763290524,-0.5151487129267305
1772623516900491300,6.4184912109375,0.8845669125348329,-0.8684452142953872,-0.43309002292118964
1772623516910521300,6.428521240234375,0.775495712441206,-1.0381801419273018,-0.39857144805192946
1772623516920550400,6.43855029296875,0.6257026258587837,-1.193061199298501,-0.4399925688512623
1772623516930580500,6.44858056640625,0.40308512608408925,-1.348041040869057,-0.46429322616476565
1772623516940610300,6.4586103515625,0.10196224487125873,-1.4745561277166008,-0.4324792706117034
1772623516950640000,6.46864013671875,-0.1663262882322073,-1.5105340345486997,-0.4948878325233236
1772623516960669200,6.478669189453125,-0.3827478559762239,-1.4824366518333554,-0.6222660755388438
1772623516970699300,6.48869921875,-0.6165875915110111,-1.4478937462404369,-0.668461644198373
1772623516980729300,6.498729248046875,-0.8814911583513021,-1.43376088373065,-0.5853802966142073
1772623516990759400,6.508759521484375,-1.0045493827432392,-1.4720748322948813,-0.4642926416428759
1772623517000789500,6.51878955078125,-1.0601415061056614,-1.5053238986849784,-0.33609259738307445
1772623517010818300,6.528818359375,-1.1068559110075236,-1.4973308541044592,-0.17273631967129185
1772623517020848400,6.538848388671875,-1.1382277853488922,-1.3960457778424025,-0.017973408787045626
1772623517030878200,6.548878173828125,-1.1649398511856794,-1.200588087671995,0.028708591682557016
1772623517040908300,6.558908203125,-1.1917840189695357,-0.9565396773338317,0.07222118660211563
1772623517050937300,6.568937255859375,-1.2727046448558568,-0.8339645602837205,0.15764484126241876
1772623517060967200,6.57896728515625,-1.3983464560002088,-0.8574538646817207,0.2793120862199925
1772623517070997200,6.588997314453125,-1.6038918249428271,-0.8743485931202769,0.3060361347555183
1772623517081027300,6.59902734375,-1.9360978266835212,-0.7662006453514099,0.23176923113735393
1772623517091057400,6.609057373046875,-2.3033880012869834,-0.4922071786046028,-0.04633079414544627
1772623517101086500,6.61908642578125,-2.6791584194660185,-0.14446370825320481,-0.5368221270091832
1772623517111116300,6.6291162109375,-2.8007997627973555,0.1721861201763153,-0.9015873131796717
1772623517121146000,6.63914599609375,-2.575471250498295,0.36871845384091134,-0.9747977300148457
1772623517131176200,6.64917626953125,-2.262377360984683,0.4168985473811626,-0.9754735834497957
1772623517141205200,6.659205322265625,-1.7617197494208812,0.4787719429701566,-0.8577272747956216
1772623517151235300,6.6692353515625,-1.1366501607686281,0.6840700591534375,-0.6466467758186161
1772623517161265400,6.679265380859375,-0.44179859535992144,0.9400839248344302,-0.35050179261621084
1772623517171295500,6.68929541015625,0.19852993722259998,1.1517679426625371,-0.13622436076141894
1772623517181324300,6.69932421875,0.7007295175313949,1.2479720623984931,-0.05336599001185968
1772623517191354400,6.709354248046875,1.012265656208992,1.2874682064846157,0.0033619507137686013
1772623517201384200,6.71938427734375,1.0993307761996984,1.222201953586936,0.003839980021677911
1772623517211414300,6.729414306640625,1.1208750840097665,1.1575991330340505,-0.104606329639256
1772623517221444400,6.7394443359375,1.011556631156802,1.1538201990172265,-0.24951610115952788
1772623517231473200,6.74947314453125,0.8067302241384983,1.216741057832539,-0.4118342497289181
1772623517241503200,6.759503173828125,0.5124509252101183,1.269307988154888,-0.6057756170522421
1772623517251533300,6.769533203125,0.16362112092673778,1.3289239602059124,-0.8036632377833127
1772623517261563400,6.7795634765625,-0.194001646143198,1.3706126459002494,-0.9054952073384076
1772623517271593200,6.78959326171875,-0.45846506800055503,1.3813696022361517,-0.9573719634395093
1772623517281622500,6.79962255859375,-0.6101584352463484,1.3791723844528196,-0.9272084419745952
1772623517291652000,6.809652099609375,-0.5370856002509594,1.358425656761229,-0.7571256507530808
1772623517301682200,6.81968212890625,-0.29077742828726766,1.358183372437954,-0.5058193417085335
1772623517311712300,6.829712158203125,0.08769348102211952,1.373226335529983,-0.24429792811982332
1772623517321741300,6.8397412109375,0.5692039090454578,1.3883373954221605,-0.06862086055520922
1772623517331771400,6.849771484375,1.0516975028872488,1.3727332913160324,0.07380565648169722
1772623517341801500,6.859801513671875,1.5029536624222992,1.2889599063470958,0.15050211163461208
1772623517351831300,6.869831298828125,1.845443742290139,1.1219368680223822,0.2620989212157205
1772623517361861000,6.879861083984375,2.116006065544486,0.8902075487703084,0.36825792365707455
1772623517371890400,6.889890380859375,2.266929617461562,0.6687111619800329,0.39846364029590037
1772623517381920300,6.899920166015625,2.274247831520438,0.47882338089644905,0.3897402721468359
1772623517391950300,6.909950439453125,2.2496406290084123,0.2687006210356951,0.31513167895153166
1772623517401980400,6.91998046875,2.1101555859506127,0.06087532446235418,0.35075755747556686
1772623517412009200,6.93000927734375,1.9523451971292494,-0.16080284863561392,0.4146044085619971
1772623517422039300,6.940039306640625,1.8088503339082,-0.3263426626652479,0.3895850085198879
1772623517432069400,6.9500693359375,1.6972779646486043,-0.39879268958717584,0.2829874867971055
1772623517442099500,6.960099365234375,1.5795131704896688,-0.4110588814422488,0.1569943414644338
1772623517452129300,6.97012939453125,1.4570774619102478,-0.43763592272251844,0.07226878860350698
1772623517462158000,6.980157958984375,1.3530682213813066,-0.5024719675093889,0.042249315251782535
1772623517472188200,6.990188232421875,1.23418640589118,-0.5765823288589715,0.018051757553149944
1772623517482218500,7.000218505859375,1.0912608669906854,-0.6553463612332939,0.0008658230490982532
1772623517492248600,7.01024853515625,1.0191565847665072,-0.7312664023533463,0.026143125108722597
1772623517502277400,7.02027734375,0.9288128814965486,-0.8140402548909187,0.088409839997394
1772623517512307500,7.030307373046875,0.8571288705110549,-0.9110364017874002,0.14528507110606878
1772623517522337500,7.040337646484375,0.8103121742784977,-0.955410965564847,0.16686592980055137
1772623517532367400,7.050367431640625,0.7028548391222953,-0.9269543941482901,0.15933200889807195
1772623517542397400,7.0603974609375,0.6070218907862901,-0.8990665625303983,0.13332291283202358
1772623517552426200,7.07042626953125,0.45709144155979153,-0.8841133235484361,0.09955996950250118
1772623517562456300,7.080456298828125,0.3303337781280279,-0.9204191471606492,0.01605150081375614
1772623517572486400,7.090486328125,0.179710085940361,-0.9789730429381132,-0.03924794147871435
1772623517582516500,7.1005166015625,0.055439563149213784,-1.0302987410277127,-0.031928814104385674
1772623517592545500,7.110545654296875,-0.07042611987888812,-1.0379767283096908,-0.014568112121894955
1772623517602575600,7.12057568359375,-0.1878939769178629,-0.9891834713071584,-0.09605501185515895
1772623517612605400,7.13060546875,-0.3955898018926382,-0.9102911363780498,-0.20688379620583727
1772623517622635300,7.14063525390625,-0.6080863051474094,-0.8793719742402434,-0.28945359580498187
1772623517632665300,7.150665283203125,-0.8347235619574784,-0.8793550231054424,-0.3827585965659469
1772623517642694400,7.1606943359375,-1.0720938097059727,-0.8372077799886465,-0.48605037300791587
1772623517652724500,7.170724365234375,-1.242511751165986,-0.7581494408428668,-0.5955327111857012
1772623517662754600,7.180754638671875,-1.2929840472966432,-0.6991971933975816,-0.6477506454072892
1772623517672784400,7.190784423828125,-1.2850064925462006,-0.689675624075532,-0.6236449626766145
1772623517682813400,7.2008134765625,-1.2516022355943917,-0.702396573960781,-0.5532420044776052
1772623517692843500,7.210843505859375,-1.2132529234558342,-0.7441916426390409,-0.5308909103292971
1772623517702873300,7.220873291015625,-1.248843292275071,-0.7536363473325968,-0.5610049666292966
1772623517712903400,7.2309033203125,-1.3252630996108055,-0.7299810387179255,-0.6349526116978377
1772623517722933500,7.24093359375,-1.363513627550006,-0.6685927962973713,-0.7509045842811465
1772623517732962300,7.25096240234375,-1.3455138604789971,-0.6603177199050784,-0.8105823695220052
1772623517742992400,7.260992431640625,-1.3761311170607804,-0.7717711389601231,-0.7758257481131702
1772623517753022500,7.2710224609375,-1.511113588002324,-0.8642591607823967,-0.7678747160434722
1772623517763052500,7.281052490234375,-1.8031155896484852,-0.8420309623613953,-0.8447804072000086
1772623517773081600,7.29108154296875,-2.2376094149529933,-0.7612845239982009,-1.0179568535879253
1772623517783111400,7.301111328125,-2.5262585990399122,-0.5519283645957708,-1.2530585718825458
1772623517793141200,7.311141357421875,-2.7649317460805176,-0.2638821148380637,-1.4710038420625031
1772623517803171300,7.32117138671875,-2.7874183031767603,-0.005278817185759544,-1.4972002134621143
1772623517813201400,7.331201416015625,-2.4625755236804485,0.16149638385772705,-1.2914758346907793
1772623517823230500,7.34123046875,-1.9956518394142388,0.34631899050623177,-0.8776590328425169
1772623517833260500,7.351260498046875,-1.5013444736599921,0.5777814755156636,-0.5117343379059807
1772623517843290400,7.361290283203125,-1.0767378361195326,0.8284396593824028,-0.320312004198879
1772623517853320400,7.371320556640625,-0.5979717383682728,1.0511065512567759,-0.2683620549974032
1772623517863349500,7.381349609375,-0.11753332349061965,1.221948271086812,-0.28032223137691614
1772623517873379600,7.391379638671875,0.3015507512360811,1.3801722091451287,-0.28553541771424934
1772623517883409400,7.401409423828125,0.595886164265871,1.4674232070967554,-0.2734334947764873
1772623517893439500,7.411439453125,0.8319570198535918,1.4736504110485313,-0.25271002009632065
1772623517903469300,7.42146923828125,0.983822236534953,1.4225064992666243,-0.294365260178782
1772623517913498400,7.431498291015625,1.0403174462169409,1.3738877220481633,-0.40540012502819295
1772623517923528400,7.441528564453125,1.0664520044267176,1.281798051893711,-0.4795123130086809
1772623517933558500,7.45155859375,1.0468085618019103,1.1134656845360993,-0.45854975060932335
1772623517943588600,7.461588623046875,1.0197434447437523,0.9325891851648688,-0.38871403437163676
1772623517953617400,7.471617431640625,1.0389467423856258,0.8191559904694556,-0.2520961077153683
1772623517963647500,7.4816474609375,1.1294511891752481,0.7442758137911558,-0.13060884070089085
1772623517973677300,7.49167724609375,1.2663871322721243,0.7380544550582766,-0.015155214127735234
1772623517983707400,7.501707275390625,1.402678347724676,0.7638584661394358,0.04519293095562607
1772623517993737500,7.511737548828125,1.529838162216544,0.8095268691197037,0.08137517385394312
1772623518003766500,7.5217666015625,1.6440169145822523,0.8567965698167681,0.13649835539720953
1772623518013796400,7.53179638671875,1.7261334722548722,0.8423752457544207,0.18177797825559971
1772623518023826400,7.541826416015625,1.765640137735009,0.8085089242488145,0.20970868090083822
1772623518033856500,7.5518564453125,1.7406214318126438,0.7631871427491307,0.1804869520643726
1772623518043885600,7.561885498046875,1.6940537419050932,0.7029016008734703,0.13654558293926528
1772623518053915400,7.571915283203125,1.6570102516680956,0.6263821325555443,0.07441834045336582
1772623518063945500,7.581945556640625,1.6226169836789368,0.5293135049447417,0.02495181469861418
1772623518073975300,7.591975341796875,1.5453800147414207,0.44130029044896363,-0.011560820064693689
1772623518084004400,7.60200439453125,1.4696569574981928,0.3477373328715563,-0.07416761709530838
1772623518094034400,7.612034423828125,1.4280641333937645,0.2725438524603844,-0.18406818981831893
1772623518104064500,7.622064453125,1.3069435990661382,0.19977292302101848,-0.27442014945996923
1772623518114094600,7.632094482421875,1.220972704052925,0.10728548572063445,-0.33489293926972896
1772623518124124400,7.64212451171875,1.1350970861077307,-0.0019043723165988922,-0.41445279819685965
1772623518134153500,7.652153564453125,1.0143518148332833,-0.11460165395289659,-0.5115488983364775
1772623518144183300,7.662183349609375,0.9735159465759992,-0.2252650916740298,-0.5575310069084167
1772623518154213400,7.67221337890625,0.9388701651304959,-0.2994526099130511,-0.5528358348295093
1772623518164243500,7.682243408203125,0.927004955291748,-0.3659016428545117,-0.5376453895581886
1772623518174272500,7.6922724609375,0.9977473015129565,-0.41528117531239983,-0.505503444159776
1772623518184302300,7.70230224609375,1.0435171190410852,-0.4507110928729176,-0.5042269944831729
1772623518194332400,7.71233251953125,1.0547124667942522,-0.4978156661361456,-0.5122772856762633
1772623518204362500,7.722362548828125,1.0517127004563809,-0.5454401716202497,-0.5066739492438733
1772623518214392300,7.732392333984375,0.9560083469361066,-0.5943564704805612,-0.4766607960350811
1772623518224421400,7.74242138671875,0.8728443260371684,-0.6632566959664226,-0.44719267295580356
1772623518234451500,7.752451416015625,0.7757599163353442,-0.7567258377805351,-0.40766346685029564
1772623518244481300,7.762481201171875,0.6586661533057689,-0.8623214707180857,-0.3441836589779705
1772623518254511400,7.772511474609375,0.502014871391654,-0.9622598085463047,-0.27198778948020186
1772623518264540400,7.78254052734375,0.2674076586157083,-1.0867962887972593,-0.21302443611901253
1772623518274570500,7.792570556640625,-0.010088847815990447,-1.2265806070625782,-0.20987221916578708
1772623518284600600,7.8026005859375,-0.3101554979741573,-1.3186559564307332,-0.26847685874979943
1772623518294630400,7.81263037109375,-0.5341875407218932,-1.339490070144832,-0.3810013045698404
1772623518304660200,7.82266015625,-0.7727963903546333,-1.2964689668029545,-0.4674290399724617
1772623518314689300,7.832689208984375,-1.0049462731063366,-1.2425710801377892,-0.5110431042388082
1772623518324719400,7.84271923828125,-1.2465724247336387,-1.1811407521411776,-0.5639333847640082
1772623518334749400,7.85274951171875,-1.346620360416174,-1.148022910915315,-0.6635659080460667
1772623518344779500,7.862779541015625,-1.2936252678096294,-1.0698287873834371,-0.6787332281701266
1772623518354808300,7.872808349609375,-1.1117249783486127,-0.9620461657956242,-0.5716043212506919
1772623518364838400,7.88283837890625,-0.8633499369829892,-0.9004609394982457,-0.3339611383123323
1772623518374868500,7.892868408203125,-0.6448439641803503,-0.9377055052652955,-0.0657779652794823
1772623518384898300,7.902898193359375,-0.5610749631255865,-1.0138055791273712,0.07431421335861087
1772623518394928400,7.912928466796875,-0.5867337205171584,-1.0776268939137459,0.09244650250179692
1772623518404957400,7.92295751953125,-0.735265408861637,-1.1379741028487682,0.20424100834578274
1772623518414987300,7.9329873046875,-0.9934721084117889,-1.162452710545063,0.24083649908695368
1772623518425017300,7.943017333984375,-1.7725643840402363,-0.980176281248033,-0.10536997095551341
1772623518435047400,7.95304736328125,-2.761499433544278,-0.6739747815966606,-0.6538263851244002
1772623518445076500,7.963076416015625,-3.558381632885337,-0.49485652406960723,-1.203652078352496
1772623518455106600,7.9731064453125,-3.825540869697928,-0.27567718205004926,-1.5140151546627283
1772623518465136600,7.98313671875,-3.8389714291572568,-0.02527268068343401,-1.3520083370648324
1772623518475166200,7.993166259765625,-3.3385949726223942,0.18427549415975808,-0.9882000132277607
1772623518485195800,8.00319580078125,-2.586776488366723,0.5166363942012191,-0.7952117819108069
1772623518495225900,8.013225830078126,-1.8133236799299717,0.9739058226764201,-0.6562601150773465
1772623518505254700,8.023254638671874,-1.1135580389946698,1.4196359122663735,-0.644220717715472
1772623518515284700,8.03328466796875,-0.579539425098896,1.6710998595580457,-0.6346146849803627
1772623518525314800,8.043314697265625,-0.11212357340157031,1.6864517424687742,-0.48726789557151495
1772623518535345000,8.053344970703124,0.26776889314353464,1.558449339672923,-0.3195997642762959
1772623518545374000,8.0633740234375,0.42735915111899375,1.4624322669416665,-0.24971672003185374
1772623518555403800,8.07340380859375,0.4447030846297741,1.3941919666692615,-0.34492304263580587
1772623518565433900,8.083433837890626,0.45913843721747394,1.3764485124468802,-0.43417138841710984
1772623518575463700,8.093463623046874,0.4429553641796112,1.4242410679742694,-0.4974514359336346
1772623518585493800,8.10349365234375,0.2965221094191074,1.4880790416345,-0.6333292482797056
1772623518595522800,8.113522705078125,0.24834172361791132,1.471752760733664,-0.7415730576384812
1772623518605553000,8.123552978515624,0.2740501653701067,1.4264417928889392,-0.7443418647646903
1772623518615582700,8.133582763671875,0.2666857740819454,1.4260180145189165,-0.6575581189986318
1772623518625612800,8.14361279296875,0.3665349723219871,1.417266845047474,-0.5355006691470742
1772623518635641900,8.153641845703126,0.5889683477014303,1.389468445278704,-0.4150968317214399
1772623518645672000,8.163671875,0.8806927014499902,1.3673787785455584,-0.280727305046469
1772623518655701800,8.17370166015625,1.206177870503068,1.3289806588292121,-0.1332942621262744
1772623518665731800,8.18373193359375,1.533400238612294,1.2732985190957784,-0.019767580461129544
1772623518675761700,8.19376171875,1.8557137918919324,1.153008005851507,0.06271328047923744
1772623518685790700,8.203790771484375,2.152356312820315,1.0046703787744045,0.15837145677022635
1772623518695820800,8.21382080078125,2.3458500094413757,0.8502043319448829,0.3207672736857086
1772623518705851000,8.223850830078124,2.402000935730338,0.6760574330896139,0.4235938803013414
1772623518715881000,8.233880859375,2.2965187000393867,0.48194969622343775,0.4144877233797684
1772623518725909800,8.24390966796875,2.1801538358062507,0.3144678082153201,0.3570660465026274
1772623518735939800,8.25393994140625,1.9907938779890537,0.2005743025317788,0.2436699689472094
1772623518745969700,8.2639697265625,1.7595353911191225,0.12781564805209636,0.08833645510077476
1772623518755999700,8.273999755859375,1.5213491508126258,0.07090016713142394,-0.0123905854197219
1772623518766028800,8.28402880859375,1.2602519905179739,-0.016664719074964522,-0.12388389809373765
1772623518776059000,8.294058837890624,1.0664315461605787,-0.10794248832464218,-0.26285697304140776
1772623518786088700,8.304088623046875,0.8987018208712338,-0.19069295998662708,-0.38108043422065674
1772623518796118800,8.314118896484375,0.839403828728199,-0.26976591217964885,-0.46568742046952244
1772623518806148900,8.32414892578125,0.8204512909770011,-0.3307394363194704,-0.44143443822264666
1772623518816178000,8.334177978515624,0.8382955752253531,-0.4022136039465666,-0.3883063303535804
1772623518826208000,8.3442080078125,0.9307377120792866,-0.45836891414970155,-0.37821806705947963
1772623518836237800,8.35423779296875,1.0254220749020575,-0.4685723282560706,-0.4065803477887064
1772623518846267600,8.364267578125,1.120918923151493,-0.4912567460119724,-0.40444757354371247
1772623518856296700,8.374296630859375,1.2245780350685118,-0.5240782346397638,-0.39993930233903224
1772623518866326800,8.384326904296875,1.269953300321102,-0.6083665833935141,-0.3577273234229535
1772623518876356900,8.39435693359375,1.278989424213767,-0.7509805721268057,-0.33816717516742645
1772623518886387000,8.404386962890625,1.212910393628478,-0.8781377562701702,-0.3060157312883064
1772623518896417000,8.4144169921875,1.1567360864639282,-1.012981695523858,-0.2558409750658087
1772623518906445800,8.42444580078125,1.09253921636343,-1.1174287429481744,-0.2673896480349824
1772623518916475600,8.4344755859375,0.980237948307395,-1.2281412805080414,-0.24206154736988245
1772623518926505700,8.444505615234375,0.8810814085066317,-1.3508464536786078,-0.26073095733076335
1772623518936535800,8.454535888671876,0.7368927178025245,-1.441386264042556,-0.33067638102062047
1772623518946564900,8.46456494140625,0.5583931766957044,-1.505475582115352,-0.36049846863672136
1772623518956594700,8.4745947265625,0.3907651582151651,-1.5993810695201158,-0.3309630890075117
1772623518966624800,8.484624755859375,0.21930033805072308,-1.6380387169554829,-0.2484446177368052
1772623518976654800,8.49465478515625,0.029206805261969563,-1.5919044500291346,-0.19854354562284424
1772623518986684700,8.5046845703125,-0.19480244113206863,-1.5082722270965576,-0.19896767105273902
1772623518996714000,8.5147138671875,-0.4952922851383686,-1.426544961002469,-0.24887404039632527
1772623519006743800,8.524743896484376,-0.7957353673934936,-1.352144384534657,-0.320069756408222
1772623519016773600,8.534773681640624,-1.0773743804574012,-1.2242933729082346,-0.40400918212644754
1772623519026803700,8.5448037109375,-1.3619266506195067,-1.0351514417558907,-0.5238299224345013
1772623519036832800,8.554832763671875,-1.5113812990278004,-0.8585241242617369,-0.5764069357594475
1772623519046862800,8.56486279296875,-1.547186771902442,-0.755801124151051,-0.579729358180426
1772623519056893000,8.574892822265625,-1.4993798955887556,-0.6779492381855845,-0.5093073664873838
1772623519066923000,8.584923095703125,-1.3913900609910488,-0.6020186756715178,-0.5055702623182907
1772623519076952600,8.59495263671875,-1.379945706912875,-0.5527145465373993,-0.4984549869529903
1772623519086982000,8.60498193359375,-1.4211960011899472,-0.5312789597988128,-0.38077257384788243
1772623519097013800,8.615013671875,-1.4578051916629076,-0.6207365278840065,-0.26108651103647423
1772623519107043800,8.6250439453125,-1.613711208167672,-0.7602820689573884,-0.2685420877394266
1772623519117073700,8.63507373046875,-2.157712871417403,-0.7081319027423858,-0.496993061174266
1772623519127103700,8.645103759765625,-2.8184108228117224,-0.45298575980663297,-0.9048762717224657
1772623519137132800,8.6551328125,-3.28539412831068,-0.22712854745835065,-1.3190489012710749
1772623519147163000,8.665162841796874,-3.4939217279344796,-0.1797086246356368,-1.4892089224472642
1772623519157192700,8.675192626953125,-3.420275476965308,-0.18184096048921344,-1.3407533680789172
1772623519167222800,8.685222900390626,-3.0035704063296316,0.013668752129375935,-0.9490636423647403
1772623519177251800,8.695251953125,-2.4378362192213534,0.39358255372345446,-0.4999597289601341
1772623519187282000,8.705281982421875,-1.7502648739486932,0.781646344025433,-0.09103084528390318
1772623519197312000,8.71531201171875,-1.013604795858264,1.1104536432385443,0.1236283889627084
1772623519207341800,8.725341796875,-0.32890111497640606,1.392064599251747,0.06548619752498343
1772623519217371600,8.73537158203125,0.16629647761583327,1.5820757144540547,0.13524725022441705
1772623519227400700,8.745400634765625,0.48585517922937865,1.6406740338951349,0.24703409335175527
1772623519237430800,8.7554306640625,0.6453185959547758,1.5521896947562694,0.17642865311689673
1772623519247460900,8.7654609375,0.8832049765318631,1.4957579056993127,-0.022148886107094586
1772623519257491000,8.775490966796875,1.041074402064085,1.519659005768597,-0.23064725963640956
1772623519267519700,8.785519775390625,1.1201450161695479,1.4736033570364118,-0.3310156229123473
1772623519277549800,8.7955498046875,1.0995189922481774,1.2933587258279322,-0.41557548208385703
1772623519287579600,8.80557958984375,1.0514479120403528,1.0766145020008087,-0.4737272998664528
1772623519297609700,8.815609619140625,1.0395365249723196,0.9175544053792953,-0.4556115782655775
1772623519307639800,8.825639892578126,0.9667997900635004,0.8242047982916235,-0.4142641072243452
1772623519317668900,8.8356689453125,0.9267448430508375,0.7796408494219184,-0.4177556391345337
1772623519327698700,8.84569873046875,0.9497048628777265,0.7742790301278233,-0.41473442814983424
1772623519337728800,8.855728759765626,1.0195452918231487,0.772724201901257,-0.40796259592734274
1772623519347758800,8.8657587890625,1.0490490342050791,0.7564630951911211,-0.3616457755083218
1772623519357788000,8.875787841796875,1.1024059458613396,0.7439169173508882,-0.3047478667769581
1772623519367818000,8.88581787109375,1.203316635853052,0.7339820910528302,-0.21879852600842714
1772623519377847800,8.895847900390624,1.3169576280802489,0.7516971959635614,-0.18521953354422002
1772623519387877600,8.905877685546875,1.4307973577499389,0.7640624642789363,-0.15356537166275083
1772623519397906700,8.91590673828125,1.5036656100839376,0.7544950099885464,-0.10822059287996962
1772623519407936800,8.925936767578126,1.6182026743680238,0.658664107479155,-0.16007754830205811
1772623519417966800,8.935966796875,1.6742080547064542,0.5683244958624244,-0.28597380913151427
1772623519427997000,8.945996826171875,1.7019032863616943,0.4848682140186429,-0.35319662119075657
1772623519438027000,8.956027099609376,1.7718220412403345,0.37273996444195506,-0.33072211985848843
1772623519448055800,8.966055908203124,1.8377391592621801,0.250699684920907,-0.29643505219016225
1772623519458086000,8.9760859375,1.8175562029331922,0.08836977284848689,-0.27516320464592425
1772623519468115700,8.98611572265625,1.7095657838135956,-0.09565817629098891,-0.31825149147249754
1772623519478145000,8.99614501953125,1.5860452026069163,-0.24274200391471384,-0.3201483015371486
1772623519488174000,9.006174072265624,1.4016887521654366,-0.3965031173452735,-0.30006708854958414
1772623519498204200,9.0162041015625,1.246014206328988,-0.5724640798851848,-0.3275038153991103
1772623519508234200,9.026234130859375,1.0254477938652038,-0.7073834224626422,-0.35206228339858353
1772623519518264300,9.036264404296874,0.8480617669582367,-0.7692860441461205,-0.3953331237178296
1772623519528294100,9.046294189453125,0.716352618598938,-0.8257438444271683,-0.5334795385830104
1772623519538323200,9.0563232421875,0.5622720639556646,-0.8868202444195746,-0.6049212287126109
1772623519548353300,9.066353271484376,0.39991643292009826,-0.9363608126580715,-0.60104003989771
1772623519558383000,9.076383056640625,0.3309270678460598,-0.9714017309010028,-0.514971091337502
1772623519568413200,9.0864130859375,0.3262672593414783,-0.977956851632893,-0.4302001832311973
1772623519578442000,9.09644189453125,0.2875035211831331,-0.9542349075227975,-0.2906217993341386
1772623519588472000,9.10647216796875,0.15454934119880198,-0.9582149170696734,-0.15431458259485661
1772623519598502100,9.116502197265625,-0.04948913031220436,-1.0659522382110356,-0.08310699348207563
1772623519608532200,9.1265322265625,-0.19972353092134,-1.233062078036368,-0.04152447157595306
1772623519618562300,9.136562255859374,-0.22353286105394363,-1.3566735523968934,-0.10938486915268003
1772623519628591400,9.14659130859375,-0.20570669698417185,-1.3411831377983092,-0.26902433656472713
1772623519638621200,9.15662109375,-0.2369447158128023,-1.2222583599492907,-0.4489408683300018
1772623519648651000,9.166651123046876,-0.27967560403645036,-1.1047113001942634,-0.5763976199418306
1772623519658681000,9.17668115234375,-0.45122751796245575,-1.0042822562396525,-0.6680754944249987
1772623519668710100,9.186710205078125,-0.7320435242056846,-0.9092126934915781,-0.6694903296589851
1772623519678740200,9.196740234375,-0.991144542247057,-0.8492170744732022,-0.584474945272319
1772623519688770300,9.206770263671874,-1.2070055534988642,-0.7604299529954791,-0.5918606716094538
1772623519698800000,9.216800048828125,-1.3797639206051826,-0.6035746729418635,-0.6226527367688716
1772623519708829200,9.2268291015625,-1.4019465263187885,-0.4740224103555083,-0.6462671288512647
1772623519718859300,9.236859375,-1.2065753453880548,-0.4147469223052263,-0.684517291464284
1772623519728889300,9.246889404296875,-0.8727584013193845,-0.36613866648077964,-0.6493173102021217
1772623519738919200,9.256919189453125,-0.6745370916545391,-0.27767303204238414,-0.46640499415434894
1772623519748949200,9.26694921875,-0.6079869364261626,-0.2661389538541436,-0.16183409137949348
1772623519758978000,9.27697802734375,-0.5042126736968755,-0.3633542964592576,0.05150171224363148
1772623519769008000,9.287008056640625,-0.43120530515313144,-0.4621554469510913,0.17540172122195363
1772623519779038200,9.2970380859375,-0.40670974632203577,-0.5983849953442811,0.23182466938532886
1772623519789068300,9.307068359375,-0.3855132290363312,-0.7061836912840604,0.2537272891137749
1772623519799097300,9.317097412109375,-0.6265513516426086,-0.6483776912644506,0.2754302215516567
1772623519809127200,9.327127197265625,-0.9185860865145922,-0.42586598995178937,0.14468947983309627
1772623519819157200,9.3371572265625,-1.087318851366639,-0.13787293168604373,-0.03227086900770664
1772623519829187000,9.34718701171875,-1.2972796986639499,0.11803338196724653,-0.13957725138589738
1772623519839217200,9.357217041015625,-1.5088585025519132,0.28664719661474225,-0.1800361030243337
1772623519849246200,9.36724609375,-1.5909055021196603,0.40526305464506146,-0.213125448808074
1772623519859276300,9.3772763671875,-1.5958452966094017,0.5514581167355179,-0.16543752269893883
1772623519869306000,9.38730615234375,-1.4483102180868386,0.7804547961533069,-0.07212671325169503
1772623519879336200,9.397336181640625,-1.2523808187514542,1.0001251365602015,-0.03540405246689916
1772623519889365200,9.407365234375,-1.0181500380724668,1.1738245839089154,-0.09590155659280716
1772623519899395300,9.417395263671875,-0.8686755159199238,1.3116951775074004,-0.07864822397492825
1772623519909425200,9.427425048828125,-0.6981120285093784,1.404291920401156,-0.07289243692718446
1772623519919455200,9.437455322265626,-0.5066857858121395,1.4656117737606167,-0.1278071724846959
1772623519929484000,9.447484130859374,-0.35571605666577816,1.538536724717915,-0.13394867091439663
1772623519939514000,9.45751416015625,-0.19872692109942436,1.5759098853006959,-0.21985314962789415
1772623519949544200,9.467544189453125,-0.09746610249578952,1.5488851002529263,-0.33339901091754437
1772623519959574300,9.47757421875,-0.05505787035524845,1.4482982353881,-0.3822006704222411
1772623519969604400,9.487604248046875,0.03435702763199806,1.3041601058274506,-0.3600640227422118
1772623519979633200,9.497633056640625,0.22440204510390757,1.2210481073766946,-0.3219545837741345
1772623519989663200,9.507663330078126,0.49332419993579385,1.1920868013083934,-0.2983330312985927
1772623519999693000,9.517693115234374,0.7383136905163526,1.1359466886743903,-0.22303557905629276
1772623520009723100,9.52772314453125,1.0197744244039058,1.070339951775968,-0.12541779313012957
1772623520019752200,9.537752197265625,1.3797341099888085,1.01598993742913,-0.035005554668605325
1772623520029782300,9.5477822265625,1.6848995445907116,0.9468129408285021,0.03000876929461956
1772623520039812000,9.55781201171875,1.9183499885469675,0.8677227452397346,0.10634374789111316
1772623520049842200,9.56784228515625,2.0974919192105532,0.7975432935982942,0.24912235260158777
1772623520059871200,9.577871337890626,2.1815993584394455,0.6954416402563453,0.3735056881174445
1772623520069901300,9.5879013671875,2.1663024205863475,0.5738786228582262,0.4612944462075829
1772623520079931100,9.59793115234375,2.0559704067766664,0.4814683424472809,0.5606663823246956
1772623520089961200,9.607961181640626,1.868528849801421,0.38762422984093425,0.5554848149683326
1772623520099991000,9.617990966796874,1.6814415130913256,0.2966325840562582,0.4342250913657248
1772623520110020000,9.62802001953125,1.5063023883283138,0.259938930170238,0.3979835651613772
1772623520120050200,9.63805029296875,1.3495698578715323,0.21423428683280943,0.37456973715238273
1772623520130080300,9.648080322265624,1.2495493947178125,0.1351616269007325,0.30557737640365956
1772623520140110300,9.6581103515625,1.1460001729160547,0.08932137448489666,0.27834062910564245
1772623520150139100,9.66813916015625,1.1085264745682477,0.03745411686450243,0.24119250945039092
1772623520160169200,9.678169189453126,1.0642746603876352,-0.014660101254284382,0.29369660366959865
1772623520170199000,9.688198974609374,1.0537444985449314,-0.09689180973917245,0.37957982039935884
1772623520180229000,9.69822900390625,1.0430565157920122,-0.20729425843656063,0.4341360248427838
1772623520190259200,9.70825927734375,0.9885831673264502,-0.2573848617732525,0.42048816937096417
1772623520200288300,9.718288330078124,0.9322714975178241,-0.2885924854636192,0.4478698780976236
1772623520210318000,9.728318115234375,0.8693032924294471,-0.33007425040900706,0.5364249443851411
1772623520220348200,9.73834814453125,0.8213549618184566,-0.4257821110606193,0.5665611394517124
1772623520230378200,9.748378173828126,0.7678799767404795,-0.5090276727631687,0.5391941899027675
1772623520240407300,9.7584072265625,0.683105013513565,-0.5733262496724725,0.5386582563951611
1772623520250437400,9.768437255859375,0.5711427681535483,-0.6189663033410906,0.5713758462570607
1772623520260467200,9.77846728515625,0.4862497315049171,-0.6672869743958115,0.5605363262042403
1772623520270497000,9.7884970703125,0.3874187703967094,-0.714295393808186,0.5165596026379615
1772623520280526000,9.798526123046875,0.2803051341116428,-0.7787550064980984,0.5020437321599572
1772623520290556200,9.80855615234375,0.08277648288607597,-0.8754661989733576,0.4831486967496574
1772623520300586200,9.818586181640624,-0.25416765329241753,-0.9712357266843319,0.41338695906363426
1772623520310616300,9.8286162109375,-0.5557300949662923,-1.013003907355666,0.24489004879407583
1772623520320646400,9.838646484375,-0.5825596497029065,-0.9149784174114465,0.10233904229439794
1772623520330675200,9.84867529296875,-0.5683002382040023,-0.670629855082929,0.08040076673068106
1772623520340705300,9.858705322265624,-0.6470405974417924,-0.466622655493021,-0.054267669825628397
1772623520350735000,9.868735107421875,-0.46919455180764197,-0.30806963161081075,-0.3502910359423607
1772623520360765200,9.87876513671875,-0.8489286129206418,-0.3012503069847822,-0.33232692470662295
1772623520370794200,9.888794189453124,-1.0062345593512059,-0.5323796145170927,-0.1688544915355742
1772623520380824000,9.898823974609375,-0.9711170687407255,-0.7280529932647943,-0.04792414601780474
1772623520390854100,9.908854248046875,-0.9553840775579213,-0.6883820771336555,-0.14883783168420195
1772623520400884200,9.91888427734375,-0.892315919226408,-0.5722662192255258,-0.32446780870407815
1772623520410914300,9.928914306640625,-0.846468360286951,-0.5722755715757608,-0.2899083173025399
1772623520420943400,9.938943359375,-1.0676029280275106,-0.7197498598217964,-0.11145941040441393
1772623520430973200,9.94897314453125,-1.5014438423812388,-1.0030454079210758,0.03668386314436793
1772623520441003000,9.9590029296875,-2.058093974801898,-1.1619327783241868,-0.051433907704427836
1772623520451033000,9.969033203125,-2.720344416335225,-1.096237194098532,-0.2950133853565901
1772623520461062100,9.979062255859375,-3.0501287438869475,-0.7797618454530835,-0.5176273049347102
1772623520471092200,9.98909228515625,-2.578887780943513,0.056850598990917205,-0.7520928442176431
1772623520481126000,9.9991259765625,-1.740457181161642,0.647927317148447,-1.153823121626675
