time,seconds_elapsed,z,y,x
1772623510561673000,0.0796728515625,-0.06450187414884567,0.452960342168808,-0.1485222429037094
1772623510571703000,0.089703125,0.006051534786820412,0.3960646092891693,-0.06407647579908371
1772623510581732000,0.099732177734375,0.083103708922863,0.2995236814022064,0.020264502614736557
1772623510591762200,0.10976220703125,0.16054952144622803,0.185747891664505,0.08444968611001968
1772623510601792000,0.1197919921875,0.22861938178539276,0.08631184697151184,0.12981130182743073
1772623510611821800,0.12982177734375,0.2739676535129547,0.014499600045382977,0.1421898901462555
1772623510621851000,0.139850830078125,0.3037942349910736,-0.03592709079384804,0.11863821744918823
1772623510631881000,0.149880859375,0.3135249614715576,-0.048417218029499054,0.06990250945091248
1772623510641911000,0.1599111328125,0.31884169578552246,-0.04109352454543114,0.006159746088087559
1772623510651941000,0.169941162109375,0.3208828270435333,-0.022808322682976723,-0.05266343802213669
1772623510661971200,0.17997119140625,0.30534595251083374,-0.0071755675598979,-0.11019250750541687
1772623510672000000,0.19,0.27946653962135315,-0.005721507593989372,-0.1590464562177658
1772623510682030000,0.200030029296875,0.23391103744506836,-0.03452865406870842,-0.20615218579769135
1772623510692060000,0.210059814453125,0.19880411028862,-0.05751853436231613,-0.23727655410766602
1772623510702090000,0.220090087890625,0.16287007927894592,-0.13121166825294495,-0.2483033835887909
1772623510712118800,0.230118896484375,0.12676167488098145,-0.23892760276794434,-0.23267853260040283
1772623510722148900,0.24014892578125,0.10571818798780441,-0.33611220121383667,-0.18802157044410706
1772623510732179000,0.250178955078125,0.09760389477014542,-0.38848817348480225,-0.11539870500564575
1772623510742209000,0.260208984375,0.08204996585845947,-0.42452871799468994,-0.031350936740636826
1772623510752239000,0.270239013671875,0.05279221385717392,-0.3948141932487488,0.05057546868920326
1772623510762268200,0.28026806640625,0.01939404383301735,-0.28897592425346375,0.1234600692987442
1772623510772298000,0.290298095703125,0.009586370550096035,-0.10766534507274628,0.18145452439785004
1772623510782327800,0.300327880859375,0.015312167815864086,0.08407106250524521,0.2154814749956131
1772623510792358000,0.31035791015625,0.018468085676431656,0.19029219448566437,0.22369512915611267
1772623510802387000,0.320386962890625,0.010949450545012951,0.16533011198043823,0.2117452621459961
1772623510812417000,0.3304169921875,0.0029827747493982315,0.06396840512752533,0.18720029294490814
1772623510822447000,0.340447021484375,0.0032698633149266243,-0.04074683040380478,0.16476821899414062
1772623510832477200,0.350477294921875,-0.008738983422517776,-0.11881657689809799,0.1486952006816864
1772623510842507000,0.360507080078125,-0.039303284138441086,-0.16900624334812164,0.14245568215847015
1772623510852536000,0.3705361328125,-0.10318447649478912,-0.20641182363033295,0.1315031498670578
1772623510862566000,0.38056591796875,-0.19431811571121216,-0.22801458835601807,0.10796265304088593
1772623510872596000,0.390595947265625,-0.2963905930519104,-0.22991962730884552,0.05308997258543968
1772623510882626000,0.4006259765625,-0.40086665749549866,-0.17657597362995148,-0.024213338270783424
1772623510892654800,0.41065478515625,-0.4744071960449219,-0.04361893981695175,-0.09711132943630219
1772623510902685000,0.420684814453125,-0.5147029161453247,0.14535364508628845,-0.1494552344083786
1772623510912715000,0.430715087890625,-0.49657079577445984,0.34602150321006775,-0.16646237671375275
1772623510922745000,0.4407451171875,-0.4275219440460205,0.47722959518432617,-0.15008100867271423
1772623510932775000,0.45077490234375,-0.34601035714149475,0.5160031914710999,-0.10334178060293198
1772623510942804000,0.460803955078125,-0.2679600417613983,0.4985872209072113,-0.045926958322525024
1772623510952833800,0.470833740234375,-0.19485536217689514,0.45756995677948,0.011484667658805847
1772623510962863900,0.48086376953125,-0.12282246351242065,0.37956756353378296,0.049384646117687225
1772623510972894000,0.49089404296875,-0.05360697582364082,0.26035261154174805,0.05680534988641739
1772623510982923000,0.500923095703125,-0.004899358842521906,0.03012685850262642,0.03235912695527077
1772623510992953000,0.510953125,0.02444223314523697,-0.36135923862457275,-0.03819122537970543
1772623511002983200,0.520983154296875,-0.00617985799908638,-0.8398597240447998,-0.12921380996704102
1772623511013013000,0.531012939453125,-0.12619930505752563,-1.1992007493972778,-0.19248349964618683
1772623511023042800,0.541042724609375,-0.3205197751522064,-1.337762713432312,-0.21647219359874725
1772623511033071900,0.55107177734375,-0.5649228096008301,-1.1812467575073242,-0.19112816452980042
1772623511043102000,0.56110205078125,-0.8363285064697266,-0.7895040512084961,-0.12838542461395264
1772623511053132000,0.571132080078125,-1.0583314895629883,-0.21112322807312012,-0.04633096605539322
1772623511063162000,0.581162109375,-1.1357303857803345,0.389779657125473,0.02370857447385788
1772623511073191000,0.59119091796875,-1.0549979209899902,0.8439571857452393,0.05064210668206215
1772623511083221000,0.601220947265625,-0.8547662496566772,1.07057785987854,0.03965310379862785
1772623511093251000,0.6112509765625,-0.5843135118484497,1.0832875967025757,0.015570475719869137
1772623511103281000,0.621281005859375,-0.2817627191543579,0.9016376733779907,-0.012525874190032482
1772623511113311000,0.63131103515625,0.02901630848646164,0.5625490546226501,-0.008247443474829197
1772623511123339800,0.64133984375,0.31375348567962646,0.18439163267612457,0.05611370503902435
1772623511133369900,0.651369873046875,0.5239680409431458,-0.14026081562042236,0.17105554044246674
1772623511143400000,0.66139990234375,0.6191630363464355,-0.3841746747493744,0.3076767921447754
1772623511153430000,0.671429931640625,0.6268553137779236,-0.5430200695991516,0.4370932877063751
1772623511163459000,0.681458984375,0.5645738244056702,-0.6024354696273804,0.5155355930328369
1772623511173489200,0.6914892578125,0.4406680166721344,-0.5772836208343506,0.5258985757827759
1772623511183519000,0.70151904296875,0.2715272009372711,-0.4866386651992798,0.4659324288368225
1772623511193548800,0.711548828125,0.06644999235868454,-0.37550652027130127,0.3416838049888611
1772623511203579000,0.721578857421875,-0.15913332998752594,-0.2998519539833069,0.159604012966156
1772623511213608000,0.73160791015625,-0.3747490346431732,-0.2595136761665344,-0.05448770895600319
1772623511223638000,0.741637939453125,-0.5330126881599426,-0.21694624423980713,-0.25377097725868225
1772623511233668000,0.751668212890625,-0.6090471744537354,-0.15695293247699738,-0.42784714698791504
1772623511243698000,0.761697998046875,-0.6280296444892883,-0.11013403534889221,-0.5582368969917297
1772623511253728000,0.77172802734375,-0.6121664047241211,-0.07655376195907593,-0.630977988243103
1772623511263757000,0.781757080078125,-0.5521992444992065,-0.055305738002061844,-0.6462551951408386
1772623511273787100,0.791787109375,-0.46828770637512207,-0.058019623160362244,-0.6156712174415588
1772623511283817000,0.80181689453125,-0.36244890093803406,-0.06782884150743484,-0.5335233211517334
1772623511293847000,0.811846923828125,-0.23664727807044983,-0.06119433045387268,-0.4185096025466919
1772623511303875800,0.821875732421875,-0.10418137162923813,-0.0608755499124527,-0.275377482175827
1772623511313906000,0.831906005859375,0.004553409293293953,-0.07432281970977783,-0.13240227103233337
1772623511323936000,0.84193603515625,0.0745716467499733,-0.09242378920316696,-0.010564244352281094
1772623511333966000,0.851966064453125,0.10661571472883224,-0.11287901550531387,0.06931307166814804
1772623511343996200,0.86199609375,0.11109994351863861,-0.1328282356262207,0.10078897327184677
1772623511354025000,0.87202490234375,0.0926562249660492,-0.14023154973983765,0.07212803512811661
1772623511364055000,0.882054931640625,0.04424848034977913,-0.1335717886686325,-0.006098783574998379
1772623511374084900,0.8920849609375,-0.02024994045495987,-0.10005161911249161,-0.10297992825508118
1772623511384115000,0.902114990234375,-0.09643658250570297,-0.06776665151119232,-0.215891033411026
1772623511394144000,0.91214404296875,-0.17845387756824493,-0.010367074981331825,-0.31964901089668274
1772623511404174000,0.922174072265625,-0.2533890902996063,0.06042107567191124,-0.38460057973861694
1772623511414204000,0.932203857421875,-0.31152015924453735,0.10722429305315018,-0.4134397506713867
1772623511424234000,0.94223388671875,-0.33997470140457153,0.1478995531797409,-0.39475634694099426
1772623511434264000,0.95226416015625,-0.3367388844490051,0.1890207678079605,-0.33713769912719727
1772623511444293000,0.962293212890625,-0.3088979423046112,0.2248663753271103,-0.23590455949306488
1772623511454323000,0.972322998046875,-0.26129958033561707,0.26509276032447815,-0.11945278942584991
1772623511464353000,0.98235302734375,-0.18435636162757874,0.3002512753009796,-0.0019650389440357685
1772623511474378800,0.992378662109375,-0.08393193036317825,0.31262582540512085,0.10370992124080658
1772623511484408800,1.002408935546875,0.00964861549437046,0.2860029935836792,0.18105824291706085
1772623511494437600,1.012437744140625,0.08880095928907394,0.2419883757829666,0.21789827942848206
1772623511504467700,1.0224677734375,0.1487542986869812,0.17009900510311127,0.21575044095516205
1772623511514497800,1.032497802734375,0.19852975010871887,0.03851761668920517,0.18839497864246368
1772623511524527900,1.04252783203125,0.2449723482131958,-0.12147737294435501,0.14427652955055237
1772623511534557000,1.052556884765625,0.2743423879146576,-0.24829202890396118,0.10703889280557632
1772623511544587000,1.0625869140625,0.26952871680259705,-0.2974451780319214,0.08015987277030945
1772623511554616800,1.072616943359375,0.21442386507987976,-0.2760915160179138,0.0733533427119255
1772623511564646700,1.082646728515625,0.12613314390182495,-0.1882985532283783,0.07904878258705139
1772623511574676700,1.0926767578125,0.027181224897503853,-0.034514956176280975,0.0954841673374176
1772623511584705800,1.102705810546875,-0.04919610172510147,0.13927201926708221,0.11773806810379028
1772623511594735900,1.11273583984375,-0.07553859800100327,0.3005680441856384,0.13841409981250763
1772623511604766000,1.122765869140625,-0.04278837889432907,0.42272722721099854,0.17062635719776154
1772623511614796000,1.132796142578125,0.037958692759275436,0.48022305965423584,0.20285633206367493
1772623511624824800,1.142824951171875,0.12357239425182343,0.48904743790626526,0.2301502674818039
1772623511634855000,1.15285498046875,0.22238680720329285,0.48631736636161804,0.23052938282489777
1772623511644884700,1.162884765625,0.329184889793396,0.5063235759735107,0.2157597541809082
1772623511654914800,1.172914794921875,0.4104662239551544,0.5352674722671509,0.17855730652809143
1772623511664945000,1.18294482421875,0.4584782123565674,0.5118385553359985,0.10287453234195709
1772623511674973700,1.1929736328125,0.46751755475997925,0.3721480667591095,0.0006559779867529869
1772623511685003800,1.203003662109375,0.44730469584465027,0.1015264168381691,-0.11734230071306229
1772623511695033900,1.213033935546875,0.3711208999156952,-0.2215556502342224,-0.22474405169487
1772623511705064000,1.22306396484375,0.2553200125694275,-0.455826997756958,-0.2958296835422516
1772623511715093800,1.23309375,0.13020698726177216,-0.510768473148346,-0.28688740730285645
1772623511725122800,1.243122802734375,-0.003995290957391262,-0.4561707377433777,-0.21816691756248474
1772623511735152600,1.253152587890625,-0.12745265662670135,-0.2913045883178711,-0.09841009229421616
1772623511745182700,1.2631826171875,-0.19665810465812683,0.001193854957818985,0.05581489950418472
1772623511755212800,1.273212890625,-0.17113244533538818,0.3277566134929657,0.20440112054347992
1772623511765241900,1.283241943359375,-0.0629362016916275,0.5751591920852661,0.2934151291847229
1772623511775272000,1.29327197265625,0.088272824883461,0.6462207436561584,0.3183765411376953
1772623511785302000,1.303302001953125,0.23984210193157196,0.5647080540657043,0.28220710158348083
1772623511795331800,1.313331787109375,0.3835255205631256,0.4192097783088684,0.2204221487045288
1772623511805361700,1.323361572265625,0.49451571702957153,0.2403246909379959,0.1324387639760971
1772623511815390700,1.333390625,0.5312408208847046,0.058205194771289825,0.036410458385944366
1772623511825420800,1.3434208984375,0.47521668672561646,-0.06130734831094742,-0.0477619431912899
1772623511835451000,1.353450927734375,0.3532685339450836,-0.1369272917509079,-0.1092725321650505
1772623511845481000,1.36348095703125,0.20062732696533203,-0.19064059853553772,-0.15156406164169312
1772623511855509800,1.373509765625,0.04025717079639435,-0.2090897560119629,-0.17031511664390564
1772623511865539800,1.383539794921875,-0.07213567942380905,-0.16337019205093384,-0.1640622764825821
1772623511875570000,1.39356982421875,-0.11961539089679718,-0.08853526413440704,-0.14832425117492676
1772623511885599700,1.403599853515625,-0.11280621588230133,-0.0010394975543022156,-0.1283332258462906
1772623511895629800,1.4136298828125,-0.07697418332099915,0.05772927775979042,-0.11177662760019302
1772623511905658600,1.42365869140625,-0.026622863486409187,0.05291108414530754,-0.10356743633747101
1772623511915688700,1.433688720703125,0.04524851217865944,-0.02545139566063881,-0.08911535143852234
1772623511925718800,1.44371875,0.1388903111219406,-0.14699992537498474,-0.06485261768102646
1772623511935748900,1.453748779296875,0.2337571531534195,-0.22657814621925354,-0.011161605827510357
1772623511945778000,1.46377783203125,0.30988335609436035,-0.23754717409610748,0.06677979975938797
1772623511955808000,1.47380810546875,0.3578796684741974,-0.20119734108448029,0.15799787640571594
1772623511965837800,1.483837890625,0.3701312839984894,-0.13667774200439453,0.24455006420612335
1772623511975867600,1.49386767578125,0.3542695939540863,-0.08283192664384842,0.2890813648700714
1772623511985897700,1.503897705078125,0.33110541105270386,-0.047433722764253616,0.28277286887168884
1772623511995926800,1.5139267578125,0.3205025792121887,-0.05821841210126877,0.23266476392745972
1772623512005956900,1.523956787109375,0.3281479775905609,-0.10242928564548492,0.1553151160478592
1772623512015987000,1.533987060546875,0.32211849093437195,-0.18308304250240326,0.06895086169242859
1772623512026016800,1.544016845703125,0.308217853307724,-0.2555527091026306,-0.0014567258767783642
1772623512036046800,1.554046875,0.2815960943698883,-0.2948647439479828,-0.047229718416929245
1772623512046076000,1.564075927734375,0.24997983872890472,-0.2907315194606781,-0.0752035602927208
1772623512056105700,1.574105712890625,0.21687878668308258,-0.23605644702911377,-0.08225356787443161
1772623512066135800,1.5841357421875,0.184644415974617,-0.16172681748867035,-0.07619194686412811
1772623512076166000,1.594165771484375,0.15725979208946228,-0.07834646105766296,-0.05405321344733238
1772623512086194700,1.604194580078125,0.1341097205877304,-0.015591735020279884,-0.02913108840584755
1772623512096224800,1.614224853515625,0.10669904202222824,0.027982179075479507,0.0016241641715168953
1772623512106254800,1.6242548828125,0.09119278937578201,0.03680230304598808,0.04375111311674118
1772623512116285000,1.634284912109375,0.09195849299430847,0.03932228311896324,0.10349579900503159
1772623512126314800,1.644314697265625,0.10208410024642944,0.044824372977018356,0.16868145763874054
1772623512136343800,1.65434375,0.1085670068860054,0.03043365851044655,0.22341880202293396
1772623512146373600,1.66437353515625,0.11292792856693268,-0.027278106659650803,0.24600747227668762
1772623512156403700,1.67440380859375,0.11475026607513428,-0.11058511584997177,0.22738845646381378
1772623512166433800,1.684433837890625,0.11768879741430283,-0.20914684236049652,0.16989533603191376
1772623512176464000,1.6944638671875,0.11578970402479172,-0.2909277081489563,0.09370628744363785
1772623512186493000,1.704492919921875,0.09036476910114288,-0.3266252875328064,0.01807917281985283
1772623512196522800,1.714522705078125,0.03185252100229263,-0.31417298316955566,-0.053967732936143875
1772623512206552800,1.724552734375,-0.05934769660234451,-0.2668241262435913,-0.11495678871870041
1772623512216582700,1.734582763671875,-0.15682446956634521,-0.14245639741420746,-0.14535310864448547
1772623512226612000,1.744612060546875,-0.24782389402389526,0.033031534403562546,-0.13965608179569244
1772623512236641800,1.754641845703125,-0.32344484329223633,0.21352945268154144,-0.10436371713876724
1772623512246672000,1.764671875,-0.36153602600097656,0.3841589689254761,-0.023583654314279556
1772623512256701700,1.77470166015625,-0.3515026569366455,0.5046735405921936,0.06811057031154633
1772623512266731800,1.784731689453125,-0.29914331436157227,0.5550592541694641,0.1579403281211853
1772623512276760800,1.7947607421875,-0.2172025442123413,0.5494707822799683,0.23403330147266388
1772623512286791000,1.804791015625,-0.1235804557800293,0.504068911075592,0.29313868284225464
1772623512296821000,1.814821044921875,-0.03249736502766609,0.417148232460022,0.3225182294845581
1772623512306850800,1.824850830078125,0.056175779551267624,0.33620092272758484,0.33921703696250916
1772623512316880600,1.834880615234375,0.1395796835422516,0.2941458225250244,0.34629711508750916
1772623512326909700,1.84490966796875,0.19284610450267792,0.2616499364376068,0.3382091224193573
1772623512336939800,1.854939697265625,0.22400476038455963,0.22319984436035156,0.31761476397514343
1772623512346969900,1.864969970703125,0.23682281374931335,0.1461825668811798,0.2884925603866577
1772623512357000000,1.875,0.23445609211921692,-0.03456852585077286,0.23700013756752014
1772623512367028700,1.88502880859375,0.20066136121749878,-0.3113947808742523,0.18642112612724304
1772623512377058800,1.895058837890625,0.09800221771001816,-0.6182423830032349,0.12748439610004425
1772623512387089000,1.9050888671875,-0.06846931576728821,-0.8761881589889526,0.08462081849575043
1772623512397118700,1.91511865234375,-0.2833576202392578,-0.9798058271408081,0.059138115495443344
1772623512407148800,1.925148681640625,-0.4920346438884735,-0.88238525390625,0.04970280081033707
1772623512417177900,1.935177734375,-0.6666379570960999,-0.6246322393417358,0.02897048369050026
1772623512427207700,1.945207763671875,-0.7957733273506165,-0.3535730540752411,-0.02151559293270111
1772623512437237800,1.95523779296875,-0.8516154885292053,-0.07431592047214508,-0.0924302488565445
1772623512447267800,1.965267822265625,-0.8025385141372681,0.16787834465503693,-0.18889686465263367
1772623512457298000,1.9752978515625,-0.6744557023048401,0.33398690819740295,-0.298977792263031
1772623512467327000,1.985326904296875,-0.5153041481971741,0.3899761438369751,-0.3937378525733948
1772623512477361200,1.995361083984375,-0.3557074964046478,0.3439222574234009,-0.46452876925468445
1772623512487391200,2.00539111328125,-0.21213701367378235,0.22044691443443298,-0.4949825406074524
1772623512497421300,2.01542138671875,-0.07475031912326813,0.051621824502944946,-0.46580442786216736
1772623512507451400,2.025451416015625,0.01163356564939022,-0.13305428624153137,-0.3999452590942383
1772623512517480200,2.035480224609375,0.047947920858860016,-0.29385748505592346,-0.2883009612560272
1772623512527510300,2.04551025390625,0.05259034410119057,-0.32318979501724243,-0.147259920835495
1772623512537540000,2.0555400390625,0.06152433156967163,-0.24786999821662903,-0.00986617524176836
1772623512547570200,2.065570068359375,0.07260867208242416,-0.13533493876457214,0.08821191638708115
1772623512557599000,2.075598876953125,0.08884603530168533,-0.038211971521377563,0.13622938096523285
1772623512567629000,2.085629150390625,0.11348187178373337,0.028002465143799782,0.14138472080230713
1772623512577659100,2.0956591796875,0.14222180843353271,0.09169922769069672,0.11891981214284897
1772623512587689200,2.105689208984375,0.17176905274391174,0.12352585792541504,0.07616675645112991
1772623512597719300,2.11571923828125,0.18980886042118073,0.1580294370651245,0.021323708817362785
1772623512607748400,2.125748291015625,0.19028477370738983,0.15901720523834229,-0.041508786380290985
1772623512617778200,2.135778076171875,0.16015727818012238,0.12626415491104126,-0.08994691073894501
1772623512627808000,2.14580810546875,0.1278531402349472,0.08617611974477768,-0.11569009721279144
1772623512637838000,2.155838134765625,0.09560398012399673,0.05310443043708801,-0.11667612195014954
1772623512647868200,2.1658681640625,0.08787388354539871,0.02962067723274231,-0.11321134865283966
1772623512657897200,2.175897216796875,0.08897396177053452,-0.003263382241129875,-0.10618212819099426
1772623512667927300,2.18592724609375,0.09278015047311783,-0.04383131489157677,-0.1189916655421257
1772623512677957400,2.195957275390625,0.0956662967801094,-0.08169199526309967,-0.13778379559516907
1772623512687987200,2.2059873046875,0.08626160770654678,-0.12382560223340988,-0.17121312022209167
1772623512698017000,2.21601708984375,0.0661352276802063,-0.15297217667102814,-0.20687438547611237
1772623512708046000,2.226046142578125,0.02795002982020378,-0.18247760832309723,-0.2378442883491516
1772623512718076200,2.236076171875,-0.018978726118803024,-0.20700663328170776,-0.2515760064125061
1772623512728106200,2.246106201171875,-0.07306992262601852,-0.2115025818347931,-0.2626265287399292
1772623512738136300,2.25613623046875,-0.12884336709976196,-0.19255538284778595,-0.26496952772140503
1772623512748165000,2.2661650390625,-0.18234601616859436,-0.1292395144701004,-0.2610946297645569
1772623512758195200,2.2761953125,-0.23634962737560272,-0.04506295919418335,-0.25309255719184875
1772623512768225300,2.286225341796875,-0.28452515602111816,0.04221709072589874,-0.24251580238342285
1772623512778255000,2.296255126953125,-0.3116031289100647,0.12757831811904907,-0.21379414200782776
1772623512788285200,2.30628515625,-0.30387914180755615,0.2197636365890503,-0.17457616329193115
1772623512798314000,2.31631396484375,-0.26097822189331055,0.28733667731285095,-0.12040833383798599
1772623512808344000,2.326343994140625,-0.1933256834745407,0.32181689143180847,-0.06210614740848541
1772623512818374100,2.3363740234375,-0.11457308381795883,0.29264378547668457,-0.011447841301560402
1772623512828404200,2.346404296875,-0.04391142725944519,0.21948358416557312,0.03019440919160843
1772623512838434300,2.356434326171875,0.003536098636686802,0.13124823570251465,0.06279423087835312
1772623512848463400,2.36646337890625,0.020601369440555573,0.044336769729852676,0.07920382916927338
1772623512858493200,2.3764931640625,0.02600816823542118,-0.0407324880361557,0.07659725844860077
1772623512868523000,2.38652294921875,0.016939837485551834,-0.1098598912358284,0.05664272606372833
1772623512878553000,2.396552978515625,-0.003241525962948799,-0.15147536993026733,0.029205169528722763
1772623512888583200,2.406583251953125,-0.023088466376066208,-0.17072629928588867,-0.004976768512278795
1772623512898612200,2.4166123046875,-0.04330871254205704,-0.16940948367118835,-0.025151271373033524
1772623512908642300,2.426642333984375,-0.07644588500261307,-0.10254735499620438,-0.017872851341962814
1772623512918672100,2.436672119140625,-0.10418735444545746,0.03503795713186264,0.009849794209003448
1772623512928702200,2.4467021484375,-0.12409741431474686,0.22967082262039185,0.04668610543012619
1772623512938731300,2.456731201171875,-0.12445922195911407,0.4331666827201843,0.09689021855592728
1772623512948761300,2.46676123046875,-0.10574784874916077,0.559838593006134,0.1318492740392685
1772623512958791200,2.476791259765625,-0.059527430683374405,0.5756291151046753,0.14304499328136444
1772623512968821200,2.4868212890625,0.02510036900639534,0.49290603399276733,0.13789790868759155
1772623512978851000,2.49685107421875,0.1258855164051056,0.3931417465209961,0.12364313006401062
1772623512988880100,2.506880126953125,0.21155062317848206,0.3161228895187378,0.10464014112949371
1772623512998910200,2.51691015625,0.26737162470817566,0.2704322338104248,0.08228477835655212
1772623513008940300,2.526940185546875,0.30827057361602783,0.22426767647266388,0.059011947363615036
1772623513018970400,2.536970458984375,0.3483719229698181,0.11797399818897247,0.02069358341395855
1772623513029000200,2.547000244140625,0.3864588439464569,-0.08904735743999481,-0.03973620384931564
1772623513039029200,2.557029296875,0.389560729265213,-0.40647146105766296,-0.12720826268196106
1772623513049059000,2.56705908203125,0.34389445185661316,-0.7282524108886719,-0.22165274620056152
1772623513059089200,2.577089111328125,0.26234087347984314,-0.918704628944397,-0.28639718890190125
1772623513069119200,2.587119140625,0.15421095490455627,-0.9490846395492554,-0.3049628734588623
1772623513079149300,2.5971494140625,0.011038175784051418,-0.8056548833847046,-0.2515830099582672
1772623513089178000,2.60717822265625,-0.1551944762468338,-0.48525288701057434,-0.11576791852712631
1772623513099208200,2.617208251953125,-0.2930809259414673,-0.026255909353494644,0.05823862552642822
1772623513109238300,2.62723828125,-0.3367128372192383,0.428081750869751,0.2184559851884842
1772623513119268000,2.63726806640625,-0.2700428366661072,0.7604778409004211,0.33190852403640747
1772623513129298200,2.647298095703125,-0.11596671491861343,0.9193002581596375,0.38206037878990173
1772623513139327200,2.6573271484375,0.10870598256587982,0.9148963093757629,0.38731664419174194
1772623513149357000,2.667357177734375,0.3578958213329315,0.7910326719284058,0.3696151673793793
1772623513159387100,2.67738720703125,0.5979078412055969,0.5649461150169373,0.3440951704978943
1772623513169417200,2.687417236328125,0.7953671216964722,0.29687976837158203,0.35026806592941284
1772623513179446300,2.6974462890625,0.9202252626419067,0.02866026759147644,0.37797921895980835
1772623513189476400,2.707476318359375,0.9463055729866028,-0.2095610797405243,0.4207530617713928
1772623513199506200,2.717506103515625,0.8837758302688599,-0.3863048851490021,0.4506206810474396
1772623513209536000,2.727535888671875,0.7601361870765686,-0.5489715933799744,0.4550263583660126
1772623513219566000,2.737566162109375,0.5853739976882935,-0.6996771693229675,0.42727500200271606
1772623513229595100,2.74759521484375,0.36360400915145874,-0.7927687764167786,0.3797048032283783
1772623513239625200,2.757625244140625,0.12275955080986023,-0.822688102722168,0.31138375401496887
1772623513249655300,2.7676552734375,-0.10922414064407349,-0.7466694712638855,0.22957223653793335
1772623513259685400,2.777685302734375,-0.2963816821575165,-0.5947609543800354,0.12360905110836029
1772623513269715000,2.78771484375,-0.43715476989746094,-0.40358513593673706,-0.0014625894837081432
1772623513279744300,2.797744140625,-0.5209504961967468,-0.18526117503643036,-0.1312197744846344
1772623513289774000,2.807774169921875,-0.5663794875144958,0.021588146686553955,-0.24614422023296356
1772623513299804200,2.81780419921875,-0.5523717403411865,0.23191356658935547,-0.3387359380722046
1772623513309834200,2.827834228515625,-0.4898468554019928,0.40072283148765564,-0.3984876871109009
1772623513319864300,2.8378642578125,-0.38941383361816406,0.5184178352355957,-0.4114866554737091
1772623513329893000,2.84789306640625,-0.26794517040252686,0.5654093623161316,-0.38694241642951965
1772623513339923200,2.857923095703125,-0.15295399725437164,0.5824692845344543,-0.3295289874076843
1772623513349953300,2.867953369140625,-0.05143589898943901,0.5155499577522278,-0.2633635401725769
1772623513359983000,2.877983154296875,0.03804418072104454,0.41763240098953247,-0.18621870875358582
1772623513370012200,2.88801220703125,0.0987490713596344,0.3013899326324463,-0.1110597774386406
1772623513380042000,2.8980419921875,0.12950533628463745,0.14916887879371643,-0.05201112478971481
1772623513390072000,2.908072021484375,0.12185646593570709,-0.00029890425503253937,-0.007363227196037769
1772623513400102100,2.91810205078125,0.08632997423410416,-0.11738649010658264,0.008760432712733746
1772623513410132200,2.92813232421875,0.04304855316877365,-0.198391854763031,0.006989431567490101
1772623513420161300,2.938161376953125,0.017355557531118393,-0.20792147517204285,-0.00959001574665308
1772623513430191400,2.94819140625,0.031025297939777374,-0.17507244646549225,-0.03897054120898247
1772623513440221200,2.95822119140625,0.06899309158325195,-0.11202576756477356,-0.059576667845249176
1772623513450251000,2.9682509765625,0.1066770851612091,-0.04494313523173332,-0.05592920631170273
1772623513460281000,2.978281005859375,0.1264524608850479,0.0030245352536439896,-0.03142587095499039
1772623513470310100,2.98831005859375,0.13205201923847198,0.014954697340726852,0.01452350988984108
1772623513480336000,2.9983359375,0.13314107060432434,-0.005209282971918583,0.08055811375379562
1772623513490366000,3.008365966796875,0.14626485109329224,-0.048944778740406036,0.1561969518661499
1772623513500396000,3.01839599609375,0.17281953990459442,-0.06959483027458191,0.24159647524356842
1772623513510426000,3.028426025390625,0.19699013233184814,-0.06438195705413818,0.3151172995567322
1772623513520455000,3.038454833984375,0.20558950304985046,-0.05250714719295502,0.3600267171859741
1772623513530485000,3.048485107421875,0.21841874718666077,-0.04746338725090027,0.3753305673599243
1772623513540515000,3.05851513671875,0.23728299140930176,-0.056874729692935944,0.3642137348651886
1772623513550545000,3.068544921875,0.253781259059906,-0.09944429248571396,0.3245411515235901
1772623513560575000,3.078574951171875,0.26402413845062256,-0.16895365715026855,0.27541255950927734
1772623513570604000,3.08860400390625,0.26055216789245605,-0.23799636960029602,0.2280498445034027
1772623513580633900,3.0986337890625,0.23584207892417908,-0.28333181142807007,0.19865471124649048
1772623513590664000,3.108663818359375,0.18628598749637604,-0.3081277012825012,0.18223179876804352
1772623513600694000,3.118694091796875,0.10935022681951523,-0.30977293848991394,0.15458594262599945
1772623513610723000,3.12872314453125,0.01105694193392992,-0.2916514575481415,0.12474441528320312
1772623513620753200,3.138753173828125,-0.09051480889320374,-0.24913834035396576,0.08569149672985077
1772623513630783000,3.148782958984375,-0.17522011697292328,-0.17898908257484436,0.04323964565992355
1772623513640812800,3.158812744140625,-0.241516575217247,-0.1084054708480835,0.003146211616694927
1772623513650843000,3.1688427734375,-0.2675181031227112,-0.07537055015563965,-0.03358650207519531
1772623513660872000,3.178871826171875,-0.25285691022872925,-0.06823315471410751,-0.054228514432907104
1772623513670902000,3.188902099609375,-0.199670672416687,-0.05831528082489967,-0.04729390889406204
1772623513680932000,3.19893212890625,-0.12827178835868835,-0.044013429433107376,-0.002581448759883642
1772623513690962200,3.208962158203125,-0.061944153159856796,-0.047861963510513306,0.06774891167879105
1772623513700991700,3.21899169921875,-0.004958050791174173,-0.06584858894348145,0.14447450637817383
1772623513711021000,3.22902099609375,0.043428122997283936,-0.12153422087430954,0.20949986577033997
1772623513721051000,3.23905078125,0.07743459194898605,-0.23785066604614258,0.23341359198093414
1772623513731081000,3.2490810546875,0.09697606414556503,-0.40121030807495117,0.21802397072315216
1772623513741111000,3.259111083984375,0.0722794383764267,-0.5445034503936768,0.16187654435634613
1772623513751141000,3.26914111328125,-0.01087351143360138,-0.6094914674758911,0.07051840424537659
1772623513761170000,3.279169921875,-0.15796193480491638,-0.5357488393783569,-0.03827245160937309
1772623513771200000,3.289199951171875,-0.32621538639068604,-0.3270832896232605,-0.13774630427360535
1772623513781230000,3.29922998046875,-0.49146604537963867,-0.01581096090376377,-0.2039594203233719
1772623513791260000,3.309260009765625,-0.6292675733566284,0.3003648519515991,-0.23461933434009552
1772623513801289000,3.3192890625,-0.7111996412277222,0.5278908610343933,-0.24226857721805573
1772623513811318800,3.32931884765625,-0.7012811899185181,0.6318545341491699,-0.22020003199577332
1772623513821348900,3.339348876953125,-0.6085048913955688,0.5968791246414185,-0.1940746307373047
1772623513831379000,3.34937890625,-0.464487761259079,0.4463950991630554,-0.14966535568237305
1772623513841409000,3.359408935546875,-0.27936339378356934,0.1954210251569748,-0.0945582240819931
1772623513851438000,3.36943798828125,-0.09422098845243454,-0.10458353161811829,-0.02318604290485382
1772623513861468200,3.37946826171875,0.04476314038038254,-0.3538420796394348,0.07815615087747574
1772623513871498000,3.389498046875,0.10927822440862656,-0.48611170053482056,0.1856738179922104
1772623513881527800,3.39952783203125,0.10210080444812775,-0.5166910290718079,0.26653650403022766
1772623513891558000,3.409557861328125,0.0487624891102314,-0.4483466148376465,0.2964068055152893
1772623513901587000,3.4195869140625,-0.026621604338288307,-0.2836045026779175,0.2865721583366394
1772623513911617000,3.429616943359375,-0.11778240650892258,-0.04571177810430527,0.23398829996585846
1772623513921647000,3.439647216796875,-0.21542426943778992,0.2082057148218155,0.14821428060531616
1772623513931677000,3.449677001953125,-0.2974052131175995,0.3967425227165222,0.045410722494125366
1772623513941706000,3.4597060546875,-0.33187341690063477,0.4938720166683197,-0.05783349648118019
1772623513951736000,3.469736083984375,-0.3112320601940155,0.523838996887207,-0.1371847689151764
1772623513961766000,3.479765869140625,-0.2614680826663971,0.5080482959747314,-0.19603951275348663
1772623513971796000,3.4897958984375,-0.1953684240579605,0.45064735412597656,-0.2362002432346344
1772623513981826000,3.499825927734375,-0.12785013020038605,0.3603413701057434,-0.2589516341686249
1772623513991854800,3.509854736328125,-0.0690603107213974,0.27852481603622437,-0.2577579915523529
1772623514001885000,3.519885009765625,-0.035460248589515686,0.20646877586841583,-0.2409224957227707
1772623514011915000,3.5299150390625,-0.025543969124555588,0.15558749437332153,-0.22413073480129242
1772623514021945000,3.539945068359375,-0.024564970284700394,0.11834029853343964,-0.2064891755580902
1772623514031975000,3.549974853515625,-0.018264196813106537,0.07819288223981857,-0.19624878466129303
1772623514042004000,3.56000390625,-0.017664112150669098,0.025617703795433044,-0.19780458509922028
1772623514052033800,3.57003369140625,-0.017098989337682724,-0.029981374740600586,-0.20107334852218628
1772623514062063900,3.58006396484375,-0.021612660959362984,-0.08925484120845795,-0.1962479054927826
1772623514072094000,3.590093994140625,-0.03635512292385101,-0.1701749861240387,-0.18646958470344543
1772623514082124000,3.6001240234375,-0.06413885951042175,-0.2449484020471573,-0.17986498773097992
1772623514092153000,3.610153076171875,-0.10490626841783524,-0.29556283354759216,-0.178905189037323
1772623514102183000,3.620182861328125,-0.1488337218761444,-0.3221176564693451,-0.18828071653842926
1772623514112213000,3.630212890625,-0.19859914481639862,-0.292050302028656,-0.20384156703948975
1772623514122242800,3.640242919921875,-0.24512352049350739,-0.22488591074943542,-0.21173179149627686
1772623514132272000,3.650272216796875,-0.2943110466003418,-0.12461842596530914,-0.2134000062942505
1772623514142302000,3.660302001953125,-0.32957783341407776,-0.0016632359474897385,-0.19316977262496948
1772623514152332000,3.67033203125,-0.34807589650154114,0.137819305062294,-0.14795275032520294
1772623514162361900,3.68036181640625,-0.3440172076225281,0.2601306140422821,-0.0835331380367279
1772623514172392000,3.690391845703125,-0.30547380447387695,0.35373541712760925,-0.016100039705634117
1772623514182421000,3.7004208984375,-0.23202379047870636,0.4065115749835968,0.05570764094591141
1772623514192451000,3.710451171875,-0.14045286178588867,0.40409553050994873,0.126544788479805
1772623514202481200,3.720481201171875,-0.043170683085918427,0.3298739790916443,0.1956101357936859
1772623514212511000,3.730510986328125,0.06013200432062149,0.20938432216644287,0.2628142237663269
1772623514222541000,3.740541015625,0.14794404804706573,0.06818757951259613,0.3251298666000366
1772623514232569900,3.75056982421875,0.2190946638584137,-0.07335809618234634,0.38101470470428467
1772623514242600000,3.760599853515625,0.26271721720695496,-0.1997094303369522,0.42708849906921387
1772623514252630000,3.770630126953125,0.2753525674343109,-0.27824872732162476,0.439970463514328
1772623514262660000,3.78066015625,0.26263678073883057,-0.29300475120544434,0.4218549132347107
1772623514272689000,3.79068896484375,0.22399911284446716,-0.26568737626075745,0.3763295114040375
1772623514282719000,3.800718994140625,0.159859761595726,-0.20655223727226257,0.30757802724838257
1772623514292749000,3.8107490234375,0.0866105780005455,-0.09203046560287476,0.23253227770328522
1772623514302779000,3.82077880859375,0.019468514248728752,0.09490363299846649,0.18344104290008545
1772623514312809000,3.83080908203125,-0.028535230085253716,0.30039048194885254,0.16506655514240265
1772623514322838000,3.840838134765625,-0.039980966597795486,0.5022029280662537,0.18429210782051086
1772623514332867800,3.850867919921875,-0.005257341545075178,0.6477409601211548,0.22800789773464203
1772623514342898000,3.86089794921875,0.07335299998521805,0.7058103084564209,0.2753369212150574
1772623514352928000,3.870927978515625,0.18139050900936127,0.7235594987869263,0.32527095079421997
1772623514362958000,3.8809580078125,0.3058215081691742,0.7459241151809692,0.3601751923561096
1772623514372987100,3.890987060546875,0.42455029487609863,0.767309844493866,0.377702534198761
1772623514383017000,3.901016845703125,0.5293641686439514,0.7628101110458374,0.3663063645362854
1772623514393047000,3.911047119140625,0.6190418004989624,0.7046360373497009,0.3155377507209778
1772623514403076900,3.921076904296875,0.6908519864082336,0.5120482444763184,0.2133399397134781
1772623514413106000,3.93110595703125,0.7099894285202026,0.1272749900817871,0.056938085705041885
1772623514423136000,3.941135986328125,0.6510509252548218,-0.360732764005661,-0.12213032692670822
1772623514433166000,3.951166015625,0.5230511426925659,-0.7395610809326172,-0.25748202204704285
1772623514443196200,3.961196044921875,0.3698815405368805,-0.8837827444076538,-0.29902520775794983
1772623514453226000,3.97122607421875,0.19623783230781555,-0.8267141580581665,-0.23352742195129395
1772623514463255000,3.981255126953125,0.0236147902905941,-0.6013590097427368,-0.05357329919934273
1772623514473284600,3.99128466796875,-0.12776833772659302,-0.22082263231277466,0.19665971398353577
1772623514483312600,4.001312744140625,-0.20435738563537598,0.21023155748844147,0.4449225068092346
1772623514493342700,4.0113427734375,-0.18719545006752014,0.5557085871696472,0.6094614267349243
1772623514503371500,4.02137158203125,-0.06976140290498734,0.7385214567184448,0.6497288346290588
1772623514513401600,4.031401611328125,0.11368165910243988,0.7499179244041443,0.5917108058929443
1772623514523431400,4.041431396484375,0.3093929588794708,0.6235572099685669,0.4612642228603363
1772623514533461500,4.05146142578125,0.47025614976882935,0.41850391030311584,0.28335040807724
1772623514543490600,4.061490478515625,0.5603711605072021,0.1434415727853775,0.11410176753997803
1772623514553520600,4.071520751953125,0.5474079847335815,-0.13112235069274902,-0.019743384793400764
1772623514563550500,4.081550537109375,0.4353162944316864,-0.32815229892730713,-0.10796531289815903
1772623514573580500,4.09158056640625,0.2476920783519745,-0.4587457776069641,-0.16108472645282745
1772623514583610600,4.101610595703125,0.016596294939517975,-0.5521115660667419,-0.213776096701622
1772623514593639700,4.1116396484375,-0.2076948583126068,-0.5724368095397949,-0.25937342643737793
1772623514603669800,4.121669677734375,-0.38721269369125366,-0.5314702391624451,-0.3138120770454407
1772623514613699600,4.131699462890625,-0.5147631764411926,-0.4387131631374359,-0.3757303059101105
1772623514623729400,4.1417294921875,-0.597186803817749,-0.3316284716129303,-0.429918497800827
1772623514633759500,4.151759521484375,-0.6405883431434631,-0.24916955828666687,-0.47631797194480896
1772623514643788500,4.16178857421875,-0.6264209151268005,-0.16982480883598328,-0.4965258538722992
1772623514653818600,4.171818603515625,-0.5619492530822754,-0.08664470165967941,-0.48043370246887207
1772623514663848700,4.1818486328125,-0.4624582529067993,0.00648068729788065,-0.43053239583969116
1772623514673878800,4.191878662109375,-0.3363115191459656,0.10134167969226837,-0.3447554111480713
1772623514683907600,4.201907470703125,-0.2182282954454422,0.1667587161064148,-0.24045635759830475
1772623514693937700,4.211937744140625,-0.12438489496707916,0.19506332278251648,-0.12444214522838593
1772623514703967500,4.221967529296875,-0.053448401391506195,0.20542436838150024,-0.00807627197355032
1772623514713997600,4.23199755859375,0.0022124629467725754,0.20812320709228516,0.08881405740976334
1772623514724027600,4.242027587890625,0.03732466697692871,0.18836632370948792,0.15066124498844147
1772623514734056400,4.252056396484375,0.05364478379487991,0.14524228870868683,0.1676711142063141
1772623514744086500,4.26208642578125,0.07052773237228394,0.08534266799688339,0.15215568244457245
1772623514754116600,4.27211669921875,0.07338370382785797,0.0032259635627269745,0.11524374783039093
1772623514764146700,4.282146728515625,0.05401114001870155,-0.09889759123325348,0.058656223118305206
1772623514774175700,4.29217578125,0.008173610083758831,-0.2054365575313568,0.017843546345829964
1772623514784205600,4.30220556640625,-0.03995544835925102,-0.2557215988636017,0.007863754406571388
1772623514794235400,4.3122353515625,-0.060009051114320755,-0.2450103461742401,0.028773294761776924
1772623514804265500,4.322265380859375,-0.0585111640393734,-0.1804255247116089,0.07165919244289398
1772623514814295600,4.332295654296875,-0.04265869781374931,-0.08839999884366989,0.1324772834777832
1772623514824324600,4.34232470703125,-0.00015624938532710075,0.01644732616841793,0.1991586685180664
1772623514834354700,4.352354736328125,0.0421517938375473,0.08156374841928482,0.2501952350139618
1772623514844384800,4.362384765625,0.07519850134849548,0.08538313210010529,0.2787022292613983
1772623514854414300,4.372414306640625,0.08813028037548065,0.04100660979747772,0.29379332065582275
1772623514864444400,4.3824443359375,0.09414918720722198,-0.03946126252412796,0.3065343499183655
1772623514874473500,4.392473388671875,0.1078610047698021,-0.11687323451042175,0.3341611623764038
1772623514884503600,4.402503662109375,0.1266079843044281,-0.1656491756439209,0.35875287652015686
1772623514894533600,4.41253369140625,0.13944070041179657,-0.19826063513755798,0.37612518668174744
1772623514904563700,4.422563720703125,0.1349583864212036,-0.23144540190696716,0.36578136682510376
1772623514914592500,4.432592529296875,0.11099951714277267,-0.2551374137401581,0.32592475414276123
1772623514924622600,4.44262255859375,0.08112991601228714,-0.2773207426071167,0.26431095600128174
1772623514934652700,4.452652587890625,0.035906244069337845,-0.28791186213493347,0.1891499012708664
1772623514944682500,4.4626826171875,-0.003382085356861353,-0.26712384819984436,0.12177354842424393
1772623514954712600,4.472712646484375,-0.0496973879635334,-0.21295008063316345,0.08259791880846024
1772623514964741400,4.482741455078125,-0.0955115333199501,-0.12368368357419968,0.08000344038009644
1772623514974771500,4.492771484375,-0.13133904337882996,-0.03933950513601303,0.11152462661266327
1772623514984801500,4.502801513671875,-0.14164100587368011,0.0329771563410759,0.15837004780769348
1772623514994831600,4.51283154296875,-0.1282101571559906,0.08800365030765533,0.2135470062494278
1772623515004861700,4.52286181640625,-0.09501806646585464,0.10950876772403717,0.2613297402858734
1772623515014890800,4.532890869140625,-0.04899624362587929,0.1199888363480568,0.30641970038414
1772623515024920600,4.542920654296875,0.004255739040672779,0.1481681913137436,0.34715911746025085
1772623515034950400,4.552950439453125,0.06616704165935516,0.17682912945747375,0.3778741657733917
1772623515044980500,4.56298046875,0.1197107657790184,0.17276476323604584,0.39572492241859436
1772623515055009500,4.573009521484375,0.16377568244934082,0.11243244260549545,0.3922335207462311
1772623515065039600,4.58303955078125,0.19432315230369568,-0.042133577167987823,0.3608691394329071
1772623515075069700,4.593069580078125,0.2103295475244522,-0.27420809864997864,0.31156206130981445
1772623515085099500,4.603099609375,0.1966242641210556,-0.490347295999527,0.2435082197189331
1772623515095129600,4.613129638671875,0.1311938613653183,-0.6449413895606995,0.18643376231193542
1772623515105158700,4.62315869140625,0.009612880647182465,-0.6812756061553955,0.18034331500530243
1772623515115188500,4.6331884765625,-0.1622009575366974,-0.555343747138977,0.21990057826042175
1772623515125219600,4.643219482421875,-0.3568228781223297,-0.33055540919303894,0.2763819694519043
1772623515135248600,4.65324853515625,-0.5312674045562744,-0.09189888089895248,0.31173303723335266
1772623515145278500,4.663278564453125,-0.6446071863174438,0.12143329530954361,0.2840428948402405
1772623515155308500,4.67330859375,-0.6753414273262024,0.2642383873462677,0.19166500866413116
1772623515165338600,4.683338623046875,-0.6177588701248169,0.3068118989467621,0.06478655338287354
1772623515175368400,4.693368408203125,-0.49851658940315247,0.23005026578903198,-0.07717245072126389
1772623515185397500,4.7033974609375,-0.34075218439102173,0.05097116157412529,-0.2103840857744217
1772623515195427600,4.713427490234375,-0.17630600929260254,-0.17045389115810394,-0.2943274676799774
1772623515205457400,4.72345751953125,-0.04466604068875313,-0.3630853295326233,-0.30819499492645264
1772623515215487500,4.733487548828125,0.03131341189146042,-0.4787730574607849,-0.25366783142089844
1772623515225516500,4.7435166015625,0.05367814749479294,-0.5055699348449707,-0.16766159236431122
1772623515235546600,4.753546630859375,0.029043111950159073,-0.47486716508865356,-0.0828913226723671
1772623515245576700,4.76357666015625,-0.020763253793120384,-0.38796141743659973,-0.0417291522026062
1772623515255606500,4.7736064453125,-0.08125908672809601,-0.25947055220603943,-0.043551020324230194
1772623515265636400,4.78363623046875,-0.14673160016536713,-0.12171591818332672,-0.08952450752258301
1772623515275665400,4.79366552734375,-0.1997639238834381,-0.01449359580874443,-0.1684856414794922
1772623515285695500,4.803695556640625,-0.23854854702949524,0.04941438138484955,-0.26346153020858765
1772623515295725600,4.8137255859375,-0.25010907649993896,0.05222774296998978,-0.3539102077484131
1772623515305755600,4.823755615234375,-0.23016734421253204,0.019285989925265312,-0.41840699315071106
1772623515315784400,4.833784423828125,-0.19587062299251556,-0.031120993196964264,-0.453188419342041
1772623515325814500,4.843814453125,-0.15456639230251312,-0.09060097485780716,-0.45194074511528015
1772623515335844600,4.8538447265625,-0.11677827686071396,-0.14068278670310974,-0.42090877890586853
1772623515345874400,4.86387451171875,-0.08551689982414246,-0.17190676927566528,-0.36552420258522034
1772623515355904500,4.873904541015625,-0.06935657560825348,-0.18700583279132843,-0.30181074142456055
1772623515365933600,4.88393359375,-0.05745875462889671,-0.16330315172672272,-0.2425234317779541
1772623515375963400,4.89396337890625,-0.05594315007328987,-0.13153430819511414,-0.19906730949878693
1772623515385993500,4.903993408203125,-0.052720051258802414,-0.10207358002662659,-0.1767612248659134
1772623515396023600,4.9140234375,-0.043767303228378296,-0.06376773864030838,-0.16981543600559235
1772623515406053600,4.9240537109375,-0.01785651221871376,-0.025597255676984787,-0.17593778669834137
1772623515416082700,4.934082763671875,0.007772684097290039,0.007164685055613518,-0.18722425401210785
1772623515426112800,4.94411279296875,0.03059442713856697,0.025419674813747406,-0.21103602647781372
1772623515436142300,4.954142333984375,0.0430564247071743,0.019753798842430115,-0.2391243875026703
1772623515446172400,4.96417236328125,0.05825173854827881,0.015361960045993328,-0.2708928883075714
1772623515456201500,4.974201416015625,0.05806957930326462,0.014537977986037731,-0.2899230420589447
1772623515466231600,4.9842314453125,0.05734050273895264,0.029212195426225662,-0.29608017206192017
1772623515476261600,4.99426171875,0.04128909856081009,0.0654413104057312,-0.2834834158420563
1772623515486291700,5.004291748046875,0.007661923766136169,0.12167319655418396,-0.2534038722515106
1772623515496321800,5.01432177734375,-0.03025003895163536,0.1882796585559845,-0.2203764021396637
1772623515506350800,5.024350830078125,-0.05881234630942345,0.2401672750711441,-0.17753100395202637
1772623515516380700,5.034380615234375,-0.06400631368160248,0.24789871275424957,-0.13647891581058502
1772623515526410500,5.044410400390625,-0.040144532918930054,0.22287854552268982,-0.08419061452150345
1772623515536440600,5.054440673828125,0.00723470002412796,0.16776177287101746,-0.032008640468120575
1772623515546470700,5.064470703125,0.06223543733358383,0.08998695760965347,0.029476303607225418
1772623515556499700,5.074499755859375,0.11835303157567978,0.004654219374060631,0.07910403609275818
1772623515566529800,5.08452978515625,0.16726824641227722,-0.07322782278060913,0.11691448092460632
1772623515576559900,5.094559814453125,0.1957336962223053,-0.1460873782634735,0.1295890063047409
1772623515586589700,5.104589599609375,0.19351638853549957,-0.2295801043510437,0.11288545280694962
1772623515596618800,5.11461865234375,0.1583845019340515,-0.29973679780960083,0.07436709105968475
1772623515606648600,5.124648681640625,0.09245476871728897,-0.35232114791870117,0.019861837849020958
1772623515616678700,5.1346787109375,0.00218958780169487,-0.3748999536037445,-0.040979672223329544
1772623515626708700,5.144708740234375,-0.09931527823209763,-0.3389487564563751,-0.09678123891353607
1772623515636738800,5.15473876953125,-0.20607981085777283,-0.19838018715381622,-0.12711277604103088
1772623515646767600,5.164767578125,-0.30581673979759216,0.012471414171159267,-0.13658055663108826
1772623515656797700,5.174797607421875,-0.37542882561683655,0.20552662014961243,-0.14192631840705872
1772623515666827800,5.184827880859375,-0.38771888613700867,0.337248831987381,-0.13832999765872955
1772623515676857600,5.194857666015625,-0.3511033356189728,0.39260396361351013,-0.13975585997104645
1772623515686887000,5.204886962890625,-0.2866156995296478,0.40437349677085876,-0.13609647750854492
1772623515696916500,5.21491650390625,-0.20380471646785736,0.3881668150424957,-0.1272830069065094
1772623515706946600,5.224946533203125,-0.11693280935287476,0.3485592007637024,-0.12196408212184906
1772623515716976600,5.2349765625,-0.0419941172003746,0.28134632110595703,-0.1265316605567932
1772623515727006700,5.2450068359375,0.027048377320170403,0.17799288034439087,-0.15153862535953522
1772623515737035800,5.255035888671875,0.0944625735282898,0.00712074339389801,-0.21030740439891815
1772623515747065900,5.26506591796875,0.17404183745384216,-0.22258085012435913,-0.2919563949108124
1772623515757095700,5.275095703125,0.22928965091705322,-0.4455156624317169,-0.3657075762748718
1772623515767125500,5.28512548828125,0.23144391179084778,-0.6039273738861084,-0.4224236309528351
1772623515777154600,5.295154541015625,0.1696505844593048,-0.5321291089057922,-0.43469732999801636
1772623515787184600,5.3051845703125,0.09637605398893356,-0.2653166651725769,-0.40115347504615784
1772623515797214700,5.315214599609375,0.021302079781889915,0.1321696937084198,-0.33633852005004883
1772623515807244800,5.325244873046875,-0.02676304057240486,0.5733815431594849,-0.2446662187576294
1772623515817274600,5.335274658203125,-0.047661133110523224,0.9175799489021301,-0.1598173975944519
1772623515827303700,5.3453037109375,-0.03719425946474075,1.0820982456207275,-0.09256132692098618
1772623515837333800,5.355333740234375,0.06443170458078384,1.0797075033187866,-0.023159876465797424
1772623515847363600,5.365363525390625,0.2527104318141937,0.9412024021148682,0.03812478855252266
1772623515857393700,5.3753935546875,0.47395679354667664,0.6939311027526855,0.10089762508869171
1772623515867422500,5.38542236328125,0.6753697991371155,0.37681278586387634,0.15625375509262085
1772623515877452500,5.39545263671875,0.8200126886367798,0.05520946532487869,0.20629775524139404
1772623515887482600,5.405482666015625,0.9118320345878601,-0.23291094601154327,0.2438192069530487
1772623515897512700,5.4155126953125,0.9194833040237427,-0.4963071942329407,0.2522081434726715
1772623515907542800,5.425542724609375,0.8654006719589233,-0.7076203227043152,0.21587513387203217
1772623515917571800,5.43557177734375,0.7535327076911926,-0.8216121196746826,0.1440451592206955
1772623515927601700,5.4456015625,0.5854533314704895,-0.8201061487197876,0.05433487892150879
1772623515937631500,5.455631591796875,0.37024086713790894,-0.7133733034133911,-0.02822604402899742
1772623515947661600,5.46566162109375,0.1315898448228836,-0.5002196431159973,-0.09156296402215958
1772623515957691600,5.475691650390625,-0.09686862677335739,-0.2290094643831253,-0.14384934306144714
1772623515967720700,5.485720703125,-0.26557010412216187,0.04118244722485542,-0.19642139971256256
1772623515977750800,5.495750732421875,-0.3460790514945984,0.2795518636703491,-0.25597473978996277
1772623515987780600,5.505780517578125,-0.34510037302970886,0.4603666067123413,-0.311100572347641
1772623515997810700,5.515810791015625,-0.2716794013977051,0.5536219477653503,-0.33892711997032166
1772623516007839700,5.52583984375,-0.14957766234874725,0.5729519128799438,-0.3235592246055603
1772623516017869800,5.535869873046875,0.007023393176496029,0.5380892753601074,-0.25345632433891296
1772623516027899600,5.545899658203125,0.15512312948703766,0.46238973736763,-0.14302802085876465
1772623516037929700,5.5559296875,0.2672129273414612,0.3593749403953552,-0.01619017869234085
1772623516047959800,5.565959716796875,0.3459194302558899,0.2571750283241272,0.11131098866462708
1772623516057988600,5.575988525390625,0.405577689409256,0.172838032245636,0.22889859974384308
1772623516068018700,5.586018798828125,0.43836215138435364,0.07931371033191681,0.30574822425842285
1772623516078048800,5.596048828125,0.4293854236602783,-0.019514063373208046,0.3435872197151184
1772623516088078800,5.606078857421875,0.3736334443092346,-0.11404488235712051,0.3338315486907959
1772623516098107600,5.616107666015625,0.28699952363967896,-0.19600020349025726,0.28890082240104675
1772623516108137700,5.6261376953125,0.1798402965068817,-0.257344514131546,0.2080959975719452
1772623516118167600,5.63616748046875,0.06474114209413528,-0.2821404039859772,0.10448677837848663
1772623516128197600,5.64619775390625,-0.026950115337967873,-0.254565954208374,-0.00996004231274128
1772623516138227700,5.656227783203125,-0.08631250262260437,-0.20859207212924957,-0.11184246093034744
1772623516148256800,5.6662568359375,-0.12321419268846512,-0.1743595004081726,-0.18374787271022797
1772623516158286600,5.67628662109375,-0.15510128438472748,-0.14019247889518738,-0.20744308829307556
1772623516168316700,5.686316650390625,-0.1709929257631302,-0.10897921025753021,-0.16978132724761963
1772623516178346800,5.6963466796875,-0.18524083495140076,-0.10587343573570251,-0.09073258936405182
1772623516188375800,5.706375732421875,-0.18381591141223907,-0.12193232774734497,0.0018936973065137863
1772623516198405600,5.716405517578125,-0.1642395555973053,-0.15594755113124847,0.09459487348794937
1772623516208435700,5.726435791015625,-0.13884210586547852,-0.2027934342622757,0.16997689008712769
1772623516218465800,5.7364658203125,-0.11769234389066696,-0.2421933114528656,0.22125259041786194
1772623516228495600,5.74649560546875,-0.09758392721414566,-0.2621687352657318,0.24938756227493286
1772623516238524700,5.756524658203125,-0.09290209412574768,-0.27480247616767883,0.2506248652935028
1772623516248554800,5.7665546875,-0.11569450795650482,-0.2830841839313507,0.22394147515296936
1772623516258584800,5.776584716796875,-0.1620873212814331,-0.2954518795013428,0.16768485307693481
1772623516268614700,5.78661474609375,-0.24108938872814178,-0.3208460509777069,0.0803115963935852
1772623516278643700,5.796643798828125,-0.33613917231559753,-0.34683290123939514,-0.02868279442191124
1772623516288673500,5.806673583984375,-0.44751501083374023,-0.35701847076416016,-0.13601569831371307
1772623516298703600,5.81670361328125,-0.5645002722740173,-0.3208117187023163,-0.21734890341758728
1772623516308733700,5.826733642578125,-0.6753147840499878,-0.2346164733171463,-0.2533109188079834
1772623516318763800,5.836763671875,-0.7735005021095276,-0.10476073622703552,-0.2485760748386383
1772623516328792600,5.84679248046875,-0.8299282789230347,0.051351457834243774,-0.20036786794662476
1772623516338822700,5.85682275390625,-0.8273141384124756,0.21461895108222961,-0.11493338644504547
1772623516348852700,5.866852783203125,-0.756138026714325,0.3492752015590668,-0.008331785909831524
1772623516358882600,5.876882568359375,-0.6429570913314819,0.43833982944488525,0.10260885208845139
1772623516368911600,5.88691162109375,-0.5142036080360413,0.4471706748008728,0.2051648050546646
1772623516378941700,5.896941650390625,-0.39942216873168945,0.3915577530860901,0.2823493182659149
1772623516388971500,5.906971435546875,-0.29838496446609497,0.31506046652793884,0.32991263270378113
1772623516399001600,5.917001708984375,-0.22226357460021973,0.26047447323799133,0.3496741056442261
1772623516409031700,5.92703173828125,-0.16076625883579254,0.22551459074020386,0.35277581214904785
1772623516419060700,5.937060791015625,-0.10426703095436096,0.19388049840927124,0.32952454686164856
1772623516429090800,5.9470908203125,-0.06576760113239288,0.16414599120616913,0.2826269567012787
1772623516439121000,5.957120849609375,-0.03992961347103119,0.0884120836853981,0.20461870729923248
1772623516449150700,5.967150634765625,-0.028993848711252213,-0.08456097543239594,0.09435538202524185
1772623516459180500,5.9771806640625,-0.06971064954996109,-0.32543060183525085,-0.03784553334116936
1772623516469209600,5.987209716796875,-0.1769353598356247,-0.5464434027671814,-0.16727448999881744
1772623516479240400,5.997240478515625,-0.35691070556640625,-0.6773062944412231,-0.26929646730422974
1772623516489270300,6.007270263671875,-0.5877070426940918,-0.7099198698997498,-0.31742778420448303
1772623516499300400,6.01730029296875,-0.81894451379776,-0.6264428496360779,-0.31622350215911865
1772623516509329400,6.027329345703125,-1.0163166522979736,-0.47233885526657104,-0.28252360224723816
1772623516519359200,6.037359130859375,-1.1452949047088623,-0.30585506558418274,-0.23937904834747314
1772623516529389300,6.047389404296875,-1.168634295463562,-0.1450221985578537,-0.19496265053749084
1772623516539419400,6.05741943359375,-1.0968029499053955,-0.004323672503232956,-0.15920810401439667
1772623516549448200,6.0674482421875,-0.9207245707511902,0.08975920081138611,-0.1444677859544754
1772623516559478300,6.077478271484375,-0.6713610887527466,0.14436066150665283,-0.13737258315086365
1772623516569508400,6.08750830078125,-0.41919583082199097,0.12544523179531097,-0.1337377279996872
1772623516579538400,6.097538330078125,-0.24019332230091095,0.05875435099005699,-0.11997263878583908
1772623516589568300,6.107568359375,-0.13470715284347534,-0.003715524449944496,-0.08141724020242691
1772623516599597300,6.117597412109375,-0.07535355538129807,-0.03743700310587883,-0.018083807080984116
1772623516609627100,6.127627197265625,-0.055891409516334534,-0.051571428775787354,0.06338722258806229
1772623516619657200,6.1376572265625,-0.0551057793200016,-0.029291419312357903,0.15497653186321259
1772623516629687300,6.147687255859375,-0.06212178245186806,0.013242664746940136,0.24563737213611603
1772623516639716400,6.15771630859375,-0.07650497555732727,0.04609036073088646,0.31140440702438354
1772623516649746400,6.167746337890625,-0.08006928116083145,0.04850493371486664,0.3449946939945221
1772623516659776300,6.1777763671875,-0.07153438776731491,-0.00022691860795021057,0.3503252863883972
1772623516669806300,6.187806396484375,-0.04214194416999817,-0.06699706614017487,0.3351338505744934
1772623516679836200,6.197836181640625,0.009649878367781639,-0.11913430690765381,0.30291011929512024
1772623516689865500,6.207865478515625,0.05540724843740463,-0.13614124059677124,0.2588946521282196
1772623516699895300,6.217895263671875,0.0817541629076004,-0.12599113583564758,0.2030753493309021
1772623516709925400,6.22792529296875,0.08790607005357742,-0.10056327283382416,0.14009346067905426
1772623516719955200,6.237955078125,0.07729789614677429,-0.07815010845661163,0.07187896966934204
1772623516729985300,6.2479853515625,0.054751165211200714,-0.058713845908641815,0.00022349320352077484
1772623516740014300,6.258014404296875,0.028886541724205017,-0.07892483472824097,-0.07694745808839798
1772623516750044400,6.26804443359375,-0.005177635699510574,-0.1355707049369812,-0.15206444263458252
1772623516760074500,6.278074462890625,-0.034909963607788086,-0.20214015245437622,-0.2144058644771576
1772623516770104300,6.288104248046875,-0.061086609959602356,-0.2636781334877014,-0.26482775807380676
1772623516780133000,6.298133056640625,-0.10201886296272278,-0.3052692413330078,-0.3018811047077179
1772623516790163200,6.3081630859375,-0.1490485966205597,-0.31871670484542847,-0.32457470893859863
1772623516800193300,6.318193359375,-0.20827649533748627,-0.29298630356788635,-0.352754145860672
1772623516810223400,6.328223388671875,-0.2773718237876892,-0.22158271074295044,-0.37115493416786194
1772623516820253400,6.33825341796875,-0.3396463990211487,-0.08776207268238068,-0.3692132234573364
1772623516830282200,6.3482822265625,-0.3915503919124603,0.08693534135818481,-0.3325329124927521
1772623516840312300,6.358312255859375,-0.429871141910553,0.2379903793334961,-0.2753348648548126
1772623516850342400,6.36834228515625,-0.4392955005168915,0.33257579803466797,-0.2045721411705017
1772623516860372200,6.378372314453125,-0.4131179749965668,0.369377464056015,-0.11893925815820694
1772623516870401300,6.3884013671875,-0.3496687412261963,0.35496535897254944,-0.02796420268714428
1772623516880431400,6.398431396484375,-0.26341989636421204,0.3039453327655792,0.05464944988489151
1772623516890461200,6.408461181640625,-0.17746701836585999,0.215066060423851,0.11870613694190979
1772623516900491300,6.4184912109375,-0.10871484875679016,0.1064053550362587,0.15592248737812042
1772623516910521300,6.428521240234375,-0.06221755966544151,0.008667287416756153,0.16299062967300415
1772623516920550400,6.43855029296875,-0.0353475958108902,-0.062113407999277115,0.1498231589794159
1772623516930580500,6.44858056640625,-0.03461156785488129,-0.11932412534952164,0.11130128800868988
1772623516940610300,6.4586103515625,-0.05509527027606964,-0.15619266033172607,0.06965397298336029
1772623516950640000,6.46864013671875,-0.07608984410762787,-0.13949692249298096,0.027485281229019165
1772623516960669200,6.478669189453125,-0.1027962863445282,-0.09174218028783798,-0.023579232394695282
1772623516970699300,6.48869921875,-0.15036633610725403,-0.06298933178186417,-0.08220193535089493
1772623516980729300,6.498729248046875,-0.19974373281002045,-0.03610445559024811,-0.14186127483844757
1772623516990759400,6.508759521484375,-0.2536895275115967,0.01101912185549736,-0.19477596879005432
1772623517000789500,6.51878955078125,-0.30048444867134094,0.06198829784989357,-0.22869691252708435
1772623517010818300,6.528818359375,-0.33027902245521545,0.08027077466249466,-0.23486611247062683
1772623517020848400,6.538848388671875,-0.3446555733680725,0.06679251790046692,-0.21091845631599426
1772623517030878200,6.548878173828125,-0.34022650122642517,0.03061315417289734,-0.16696277260780334
1772623517040908300,6.558908203125,-0.3279991149902344,0.003742924891412258,-0.12551146745681763
1772623517050937300,6.568937255859375,-0.30166539549827576,-0.04469548165798187,-0.1036723405122757
1772623517060967200,6.57896728515625,-0.2649119198322296,-0.1072683110833168,-0.10356661677360535
1772623517070997200,6.588997314453125,-0.23167569935321808,-0.2054610401391983,-0.13499408960342407
1772623517081027300,6.59902734375,-0.20935575664043427,-0.323971688747406,-0.2011992186307907
1772623517091057400,6.609057373046875,-0.19699867069721222,-0.4367711544036865,-0.2802441418170929
1772623517101086500,6.61908642578125,-0.20153668522834778,-0.5284878015518188,-0.33041197061538696
1772623517111116300,6.6291162109375,-0.23754774034023285,-0.49801141023635864,-0.33627334237098694
1772623517121146000,6.63914599609375,-0.2853403091430664,-0.33459773659706116,-0.29283425211906433
1772623517131176200,6.64917626953125,-0.31003016233444214,-0.08317319303750992,-0.19912521541118622
1772623517141205200,6.659205322265625,-0.3111172914505005,0.19408637285232544,-0.07339899241924286
1772623517151235300,6.6692353515625,-0.28227949142456055,0.3901616036891937,0.07060524076223373
1772623517161265400,6.679265380859375,-0.23217637836933136,0.4776770770549774,0.21081854403018951
1772623517171295500,6.68929541015625,-0.15812388062477112,0.4617345929145813,0.32780054211616516
1772623517181324300,6.69932421875,-0.057956524193286896,0.37997686862945557,0.404435396194458
1772623517191354400,6.709354248046875,0.05095575004816055,0.20501099526882172,0.4265493154525757
1772623517201384200,6.71938427734375,0.16189317405223846,-0.02514977939426899,0.40732288360595703
1772623517211414300,6.729414306640625,0.24215874075889587,-0.24948430061340332,0.3685404658317566
1772623517221444400,6.7394443359375,0.25502902269363403,-0.43407386541366577,0.3096180260181427
1772623517231473200,6.74947314453125,0.20447911322116852,-0.5809807777404785,0.23945964872837067
1772623517241503200,6.759503173828125,0.10485665500164032,-0.6986269950866699,0.15440599620342255
1772623517251533300,6.769533203125,-0.021254679188132286,-0.7809799313545227,0.047600455582141876
1772623517261563400,6.7795634765625,-0.15435601770877838,-0.8034399747848511,-0.06758152693510056
1772623517271593200,6.78959326171875,-0.278377503156662,-0.7633135318756104,-0.1771448254585266
1772623517281622500,6.79962255859375,-0.39183083176612854,-0.6507353186607361,-0.25533416867256165
1772623517291652000,6.809652099609375,-0.49632906913757324,-0.4575113356113434,-0.29589301347732544
1772623517301682200,6.81968212890625,-0.5687819719314575,-0.22790370881557465,-0.3007974922657013
1772623517311712300,6.829712158203125,-0.5906909108161926,0.009686308912932873,-0.2756504416465759
1772623517321741300,6.8397412109375,-0.5562930107116699,0.20135481655597687,-0.23318500816822052
1772623517331771400,6.849771484375,-0.47283804416656494,0.3236200511455536,-0.18909862637519836
1772623517341801500,6.859801513671875,-0.3653363287448883,0.3555505573749542,-0.1450909674167633
1772623517351831300,6.869831298828125,-0.256591260433197,0.3159679174423218,-0.11258029192686081
1772623517361861000,6.879861083984375,-0.1614503562450409,0.2157049924135208,-0.08412175625562668
1772623517371890400,6.889890380859375,-0.09694518148899078,0.08328719437122345,-0.0716060921549797
1772623517381920300,6.899920166015625,-0.04818696156144142,-0.04850811883807182,-0.06593143194913864
1772623517391950300,6.909950439453125,-0.02315208688378334,-0.1567012518644333,-0.07271823287010193
1772623517401980400,6.91998046875,-0.03787297382950783,-0.2486780434846878,-0.08330083638429642
1772623517412009200,6.93000927734375,-0.07386654615402222,-0.3029809594154358,-0.09546583145856857
1772623517422039300,6.940039306640625,-0.1156155914068222,-0.29909223318099976,-0.1090942919254303
1772623517432069400,6.9500693359375,-0.1530779004096985,-0.2575368881225586,-0.12650687992572784
1772623517442099500,6.960099365234375,-0.17858299612998962,-0.20228402316570282,-0.1541811227798462
1772623517452129300,6.97012939453125,-0.20008991658687592,-0.1562476009130478,-0.18947161734104156
1772623517462158000,6.980157958984375,-0.20843732357025146,-0.13381099700927734,-0.22981449961662292
1772623517472188200,6.990188232421875,-0.20460693538188934,-0.15145793557167053,-0.2688350975513458
1772623517482218500,7.000218505859375,-0.2025696039199829,-0.17516672611236572,-0.2872151732444763
1772623517492248600,7.01024853515625,-0.1998778134584427,-0.20049042999744415,-0.27947840094566345
1772623517502277400,7.02027734375,-0.19739334285259247,-0.21537378430366516,-0.23579244315624237
1772623517512307500,7.030307373046875,-0.19680441915988922,-0.21167978644371033,-0.16934409737586975
1772623517522337500,7.040337646484375,-0.19837860763072968,-0.19352954626083374,-0.08774244040250778
1772623517532367400,7.050367431640625,-0.20451073348522186,-0.17811131477355957,-0.015247197821736336
1772623517542397400,7.0603974609375,-0.21743425726890564,-0.1768588274717331,0.03799445182085037
1772623517552426200,7.07042626953125,-0.219437375664711,-0.1674477905035019,0.06609874218702316
1772623517562456300,7.080456298828125,-0.21916599571704865,-0.16225142776966095,0.0656191036105156
1772623517572486400,7.090486328125,-0.22274120151996613,-0.16286803781986237,0.05767326429486275
1772623517582516500,7.1005166015625,-0.23258957266807556,-0.17411775887012482,0.0439891442656517
1772623517592545500,7.110545654296875,-0.2581924498081207,-0.18141892552375793,0.03336086869239807
1772623517602575600,7.12057568359375,-0.27760210633277893,-0.19821573793888092,0.01986583322286606
1772623517612605400,7.13060546875,-0.30549561977386475,-0.2265809327363968,-0.0005283951759338379
1772623517622635300,7.14063525390625,-0.326998770236969,-0.24580176174640656,-0.019275717437267303
1772623517632665300,7.150665283203125,-0.3542254865169525,-0.2313685268163681,-0.03774414584040642
1772623517642694400,7.1606943359375,-0.39062875509262085,-0.19875039160251617,-0.04732593148946762
1772623517652724500,7.170724365234375,-0.4354257881641388,-0.13525745272636414,-0.054564252495765686
1772623517662754600,7.180754638671875,-0.48272353410720825,-0.04922190308570862,-0.05227819085121155
1772623517672784400,7.190784423828125,-0.5273797512054443,0.034615010023117065,-0.04928932338953018
1772623517682813400,7.2008134765625,-0.5572750568389893,0.10090961307287216,-0.05025924742221832
1772623517692843500,7.210843505859375,-0.5665809512138367,0.1392277628183365,-0.05388667434453964
1772623517702873300,7.220873291015625,-0.5586689710617065,0.14766332507133484,-0.05964123457670212
1772623517712903400,7.2309033203125,-0.5446497201919556,0.12672601640224457,-0.059347301721572876
1772623517722933500,7.24093359375,-0.520927906036377,0.09439124166965485,-0.055243901908397675
1772623517732962300,7.25096240234375,-0.49753451347351074,0.037066228687763214,-0.05385551601648331
1772623517742992400,7.260992431640625,-0.4813651144504547,-0.059762582182884216,-0.07377676665782928
1772623517753022500,7.2710224609375,-0.47671666741371155,-0.20126044750213623,-0.11105477809906006
1772623517763052500,7.281052490234375,-0.5010768175125122,-0.41640710830688477,-0.16953539848327637
1772623517773081600,7.29108154296875,-0.5713682770729065,-0.5951908826828003,-0.23951420187950134
1772623517783111400,7.301111328125,-0.6791679859161377,-0.6619816422462463,-0.3016425669193268
1772623517793141200,7.311141357421875,-0.8133711814880371,-0.6038504242897034,-0.34535109996795654
1772623517803171300,7.32117138671875,-0.9406558871269226,-0.42921870946884155,-0.3473202586174011
1772623517813201400,7.331201416015625,-1.0505108833312988,-0.18456783890724182,-0.2930009961128235
1772623517823230500,7.34123046875,-1.123059630393982,0.06610406935214996,-0.20861127972602844
1772623517833260500,7.351260498046875,-1.129608392715454,0.2630781829357147,-0.10887564718723297
1772623517843290400,7.361290283203125,-1.0577945709228516,0.3805616497993469,-0.000698575284332037
1772623517853320400,7.371320556640625,-0.9081963896751404,0.4121902287006378,0.12379861623048782
1772623517863349500,7.381349609375,-0.7018794417381287,0.36331188678741455,0.26796936988830566
1772623517873379600,7.391379638671875,-0.4750235080718994,0.2406691014766693,0.41084176301956177
1772623517883409400,7.401409423828125,-0.26138925552368164,0.09209932386875153,0.5477551817893982
1772623517893439500,7.411439453125,-0.08826170116662979,-0.03994026780128479,0.6608074903488159
1772623517903469300,7.42146923828125,0.027485139667987823,-0.1412205547094345,0.7329877018928528
1772623517913498400,7.431498291015625,0.08328171074390411,-0.19578389823436737,0.750877857208252
1772623517923528400,7.441528564453125,0.07919667661190033,-0.1951173096895218,0.7084845900535583
1772623517933558500,7.45155859375,0.019126832485198975,-0.17069022357463837,0.6102816462516785
1772623517943588600,7.461588623046875,-0.07864074409008026,-0.14108572900295258,0.4652472138404846
1772623517953617400,7.471617431640625,-0.19081085920333862,-0.11613277345895767,0.2976837754249573
1772623517963647500,7.4816474609375,-0.2953316867351532,-0.10669665783643723,0.13015978038311005
1772623517973677300,7.49167724609375,-0.37723320722579956,-0.0993303507566452,-0.010193947702646255
1772623517983707400,7.501707275390625,-0.41806453466415405,-0.09665227681398392,-0.10897671431303024
1772623517993737500,7.511737548828125,-0.4323073625564575,-0.09056638181209564,-0.16094861924648285
1772623518003766500,7.5217666015625,-0.42227494716644287,-0.08023465424776077,-0.17465324699878693
1772623518013796400,7.53179638671875,-0.3969399631023407,-0.06713654100894928,-0.1533513069152832
1772623518023826400,7.541826416015625,-0.3613441288471222,-0.07402081042528152,-0.11533387750387192
1772623518033856500,7.5518564453125,-0.3235645294189453,-0.08737310767173767,-0.07277035713195801
1772623518043885600,7.561885498046875,-0.2768324613571167,-0.09675728529691696,-0.028109949082136154
1772623518053915400,7.571915283203125,-0.24262437224388123,-0.10276715457439423,0.0038620401173830032
1772623518063945500,7.581945556640625,-0.21568569540977478,-0.1071147695183754,0.024765724316239357
1772623518073975300,7.591975341796875,-0.20484177768230438,-0.10791728645563126,0.02430298738181591
1772623518084004400,7.60200439453125,-0.19424505531787872,-0.10172197222709656,0.015542784705758095
1772623518094034400,7.612034423828125,-0.1888359785079956,-0.10933742672204971,-0.00983767956495285
1772623518104064500,7.622064453125,-0.1802145391702652,-0.12135574221611023,-0.04631819203495979
1772623518114094600,7.632094482421875,-0.17635419964790344,-0.12331170588731766,-0.07854627817869186
1772623518124124400,7.64212451171875,-0.17842134833335876,-0.11258795857429504,-0.10483194142580032
1772623518134153500,7.652153564453125,-0.19900669157505035,-0.07626862078905106,-0.12536552548408508
1772623518144183300,7.662183349609375,-0.23850776255130768,-0.03603598102927208,-0.13203701376914978
1772623518154213400,7.67221337890625,-0.28556403517723083,0.0019016023725271225,-0.13386546075344086
1772623518164243500,7.682243408203125,-0.3344724774360657,0.033546082675457,-0.12906643748283386
1772623518174272500,7.6922724609375,-0.37049198150634766,0.04617614299058914,-0.11686372011899948
1772623518184302300,7.70230224609375,-0.37875762581825256,0.02040020376443863,-0.09622395783662796
1772623518194332400,7.71233251953125,-0.3605697751045227,-0.03270387649536133,-0.07499463856220245
1772623518204362500,7.722362548828125,-0.32287833094596863,-0.11557639390230179,-0.03882332146167755
1772623518214392300,7.732392333984375,-0.27673080563545227,-0.20982301235198975,0.00611573550850153
1772623518224421400,7.74242138671875,-0.23025862872600555,-0.2831787168979645,0.06830320507287979
1772623518234451500,7.752451416015625,-0.195980966091156,-0.32912787795066833,0.14381913840770721
1772623518244481300,7.762481201171875,-0.18274106085300446,-0.344847708940506,0.20752355456352234
1772623518254511400,7.772511474609375,-0.1840832233428955,-0.32467785477638245,0.24461179971694946
1772623518264540400,7.78254052734375,-0.20221589505672455,-0.28180307149887085,0.23141610622406006
1772623518274570500,7.792570556640625,-0.21911968290805817,-0.22622962296009064,0.18106843531131744
1772623518284600600,7.8026005859375,-0.2415757179260254,-0.1599709689617157,0.0987759605050087
1772623518294630400,7.81263037109375,-0.27234137058258057,-0.08880358934402466,0.0008496660739183426
1772623518304660200,7.82266015625,-0.31997278332710266,-0.033679619431495667,-0.10411962866783142
1772623518314689300,7.832689208984375,-0.3719167113304138,-0.01946217566728592,-0.20351098477840424
1772623518324719400,7.84271923828125,-0.41791242361068726,0.003015703521668911,-0.28038737177848816
1772623518334749400,7.85274951171875,-0.4348074793815613,0.05191949009895325,-0.3047514855861664
1772623518344779500,7.862779541015625,-0.4339086413383484,0.13281993567943573,-0.27213016152381897
1772623518354808300,7.872808349609375,-0.4085361957550049,0.2083764374256134,-0.18347018957138062
1772623518364838400,7.88283837890625,-0.37423548102378845,0.2665177583694458,-0.07344674319028854
1772623518374868500,7.892868408203125,-0.32771557569503784,0.282701700925827,0.021178368479013443
1772623518384898300,7.902898193359375,-0.26225826144218445,0.2588059604167938,0.07117336243391037
1772623518394928400,7.912928466796875,-0.1952480524778366,0.16951395571231842,0.06920881569385529
1772623518404957400,7.92295751953125,-0.15049362182617188,0.03869203105568886,0.008737745694816113
1772623518414987300,7.9329873046875,-0.12068970501422882,-0.24385054409503937,-0.12075592577457428
1772623518425017300,7.943017333984375,-0.1285977065563202,-0.6625335812568665,-0.302058607339859
1772623518435047400,7.95304736328125,-0.17708063125610352,-1.0382516384124756,-0.5066940188407898
1772623518445076500,7.963076416015625,-0.2616536021232605,-1.206330418586731,-0.6603288650512695
1772623518455106600,7.9731064453125,-0.3992176055908203,-1.1877670288085938,-0.7168439030647278
1772623518465136600,7.98313671875,-0.5923031568527222,-0.9427351355552673,-0.6496284008026123
1772623518475166200,7.993166259765625,-0.7570251822471619,-0.5129222869873047,-0.46336624026298523
1772623518485195800,8.00319580078125,-0.8448533415794373,-0.035791948437690735,-0.20849455893039703
1772623518495225900,8.013225830078126,-0.8143337965011597,0.3618328869342804,0.03184732794761658
1772623518505254700,8.023254638671874,-0.6646380424499512,0.5910593867301941,0.21672824025154114
1772623518515284700,8.03328466796875,-0.4488321542739868,0.5848293304443359,0.3385978937149048
1772623518525314800,8.043314697265625,-0.20309562981128693,0.40898823738098145,0.39421242475509644
1772623518535345000,8.053344970703124,0.018993213772773743,0.11554219573736191,0.41517800092697144
1772623518545374000,8.0633740234375,0.19113275408744812,-0.22325371205806732,0.41793784499168396
1772623518555403800,8.07340380859375,0.27784430980682373,-0.49657130241394043,0.4399782717227936
1772623518565433900,8.083433837890626,0.2790755033493042,-0.6369580030441284,0.49062439799308777
1772623518575463700,8.093463623046874,0.22894597053527832,-0.6938745975494385,0.5406390428543091
1772623518585493800,8.10349365234375,0.16380584239959717,-0.6958131194114685,0.5936726927757263
1772623518595522800,8.113522705078125,0.09828360378742218,-0.6368562579154968,0.6329708099365234
1772623518605553000,8.123552978515624,0.03282470628619194,-0.5558533072471619,0.6377045512199402
1772623518615582700,8.133582763671875,-0.037185560911893845,-0.45014581084251404,0.5992114543914795
1772623518625612800,8.14361279296875,-0.09001388400793076,-0.30755430459976196,0.5264685750007629
1772623518635641900,8.153641845703126,-0.13134963810443878,-0.14346927404403687,0.4222075045108795
1772623518645672000,8.163671875,-0.16045105457305908,0.011989817023277283,0.3119185268878937
1772623518655701800,8.17370166015625,-0.18142299354076385,0.13820619881153107,0.194380521774292
1772623518665731800,8.18373193359375,-0.18767209351062775,0.21201437711715698,0.09389359503984451
1772623518675761700,8.19376171875,-0.17891645431518555,0.24011200666427612,0.017181895673274994
1772623518685790700,8.203790771484375,-0.17235416173934937,0.19841834902763367,-0.041607119143009186
1772623518695820800,8.21382080078125,-0.17641913890838623,0.11551030725240707,-0.09146589785814285
1772623518705851000,8.223850830078124,-0.181087926030159,0.012970886193215847,-0.14252881705760956
1772623518715881000,8.233880859375,-0.1891343742609024,-0.10180412232875824,-0.19288665056228638
1772623518725909800,8.24390966796875,-0.20307469367980957,-0.1971530020236969,-0.22953814268112183
1772623518735939800,8.25393994140625,-0.22256523370742798,-0.2648613452911377,-0.27374473214149475
1772623518745969700,8.2639697265625,-0.2549293041229248,-0.3101465404033661,-0.3027007579803467
1772623518755999700,8.273999755859375,-0.28760385513305664,-0.32100361585617065,-0.336801677942276
1772623518766028800,8.28402880859375,-0.3177635967731476,-0.29531288146972656,-0.36622217297554016
1772623518776059000,8.294058837890624,-0.3433111906051636,-0.23916104435920715,-0.39781254529953003
1772623518786088700,8.304088623046875,-0.36875903606414795,-0.15108098089694977,-0.40860289335250854
1772623518796118800,8.314118896484375,-0.3964020013809204,-0.06166050583124161,-0.3988112509250641
1772623518806148900,8.32414892578125,-0.4271697402000427,0.0068980492651462555,-0.3680970072746277
1772623518816178000,8.334177978515624,-0.447251558303833,0.0661507099866867,-0.30878379940986633
1772623518826208000,8.3442080078125,-0.44827741384506226,0.10662596672773361,-0.2378166913986206
1772623518836237800,8.35423779296875,-0.424799382686615,0.11666025221347809,-0.16468749940395355
1772623518846267600,8.364267578125,-0.398829847574234,0.10595887154340744,-0.09601229429244995
1772623518856296700,8.374296630859375,-0.37024399638175964,0.08175735175609589,-0.044935062527656555
1772623518866326800,8.384326904296875,-0.34309256076812744,0.0636792778968811,-0.006623094901442528
1772623518876356900,8.39435693359375,-0.32446399331092834,0.04976801201701164,0.01268264465034008
1772623518886387000,8.404386962890625,-0.31493866443634033,0.04012523964047432,0.015239812433719635
1772623518896417000,8.4144169921875,-0.3098185956478119,0.0372871533036232,0.0168332327157259
1772623518906445800,8.42444580078125,-0.309436172246933,0.017710790038108826,0.005731312558054924
1772623518916475600,8.4344755859375,-0.3090614378452301,-0.022798769176006317,-0.00432817917317152
1772623518926505700,8.444505615234375,-0.3052341938018799,-0.07209734618663788,-0.006821963470429182
1772623518936535800,8.454535888671876,-0.3072933256626129,-0.1258009970188141,0.0014362214133143425
1772623518946564900,8.46456494140625,-0.31625354290008545,-0.17764103412628174,0.018379252403974533
1772623518956594700,8.4745947265625,-0.33259764313697815,-0.22649569809436798,0.04725078120827675
1772623518966624800,8.484624755859375,-0.3596665561199188,-0.27969446778297424,0.07864492386579514
1772623518976654800,8.49465478515625,-0.3873196840286255,-0.3244360089302063,0.09678146988153458
1772623518986684700,8.5046845703125,-0.4163627624511719,-0.356514036655426,0.0901254341006279
1772623518996714000,8.5147138671875,-0.4360840618610382,-0.3626851737499237,0.06282749027013779
1772623519006743800,8.524743896484376,-0.4560311436653137,-0.3467693328857422,0.01554013229906559
1772623519016773600,8.534773681640624,-0.47860682010650635,-0.32730811834335327,-0.03742334991693497
1772623519026803700,8.5448037109375,-0.5063348412513733,-0.2832077741622925,-0.06875330954790115
1772623519036832800,8.554832763671875,-0.5191295146942139,-0.22391310334205627,-0.07275951653718948
1772623519046862800,8.56486279296875,-0.5255333781242371,-0.1593993604183197,-0.040994927287101746
1772623519056893000,8.574892822265625,-0.4977452754974365,-0.07265464216470718,0.018679000437259674
1772623519066923000,8.584923095703125,-0.43950405716896057,-0.0037711849436163902,0.09644570201635361
1772623519076952600,8.59495263671875,-0.372572124004364,0.020654931664466858,0.17484571039676666
1772623519086982000,8.60498193359375,-0.3117031753063202,0.007159097120165825,0.2498813271522522
1772623519097013800,8.615013671875,-0.24739192426204681,-0.05916951224207878,0.3013617694377899
1772623519107043800,8.6250439453125,-0.19320271909236908,-0.24642916023731232,0.29649004340171814
1772623519117073700,8.63507373046875,-0.17821913957595825,-0.5429868102073669,0.22191300988197327
1772623519127103700,8.645103759765625,-0.2254747897386551,-0.7901899814605713,0.08897679299116135
1772623519137132800,8.6551328125,-0.34980452060699463,-0.8820445537567139,-0.06277790665626526
1772623519147163000,8.665162841796874,-0.5398543477058411,-0.8048999905586243,-0.18715925514698029
1772623519157192700,8.675192626953125,-0.7632954120635986,-0.555130660533905,-0.27060192823410034
1772623519167222800,8.685222900390626,-0.9837513566017151,-0.19315139949321747,-0.29717814922332764
1772623519177251800,8.695251953125,-1.1585441827774048,0.1878739297389984,-0.28849533200263977
1772623519187282000,8.705281982421875,-1.2336750030517578,0.5292224884033203,-0.26299238204956055
1772623519197312000,8.71531201171875,-1.1839357614517212,0.7822569608688354,-0.22486922144889832
1772623519207341800,8.725341796875,-1.037156105041504,0.8779866695404053,-0.17867615818977356
1772623519217371600,8.73537158203125,-0.8289436101913452,0.8347333073616028,-0.14344531297683716
1772623519227400700,8.745400634765625,-0.5865914225578308,0.647781491279602,-0.0958264023065567
1772623519237430800,8.7554306640625,-0.3476147949695587,0.40739205479621887,-0.01999303139746189
1772623519247460900,8.7654609375,-0.15637320280075073,0.19284780323505402,0.09591865539550781
1772623519257491000,8.775490966796875,-0.031723201274871826,0.016561605036258698,0.22935335338115692
1772623519267519700,8.785519775390625,0.02228863537311554,-0.10831402242183685,0.3544204831123352
1772623519277549800,8.7955498046875,0.02138347364962101,-0.18465767800807953,0.44805458188056946
1772623519287579600,8.80557958984375,-0.030753763392567635,-0.17757101356983185,0.4894869923591614
1772623519297609700,8.815609619140625,-0.1187400296330452,-0.14594455063343048,0.4704546630382538
1772623519307639800,8.825639892578126,-0.23046442866325378,-0.1123461127281189,0.39693063497543335
1772623519317668900,8.8356689453125,-0.3375186324119568,-0.08787497133016586,0.2757042646408081
1772623519327698700,8.84569873046875,-0.4333852529525757,-0.06840407103300095,0.13625769317150116
1772623519337728800,8.855728759765626,-0.5087705254554749,-0.05601899325847626,-0.01520553044974804
1772623519347758800,8.8657587890625,-0.5597658157348633,-0.04088770970702171,-0.14439786970615387
1772623519357788000,8.875787841796875,-0.5893441438674927,-0.018164722248911858,-0.23657026886940002
1772623519367818000,8.88581787109375,-0.6045500040054321,0.0081784687936306,-0.2814892828464508
1772623519377847800,8.895847900390624,-0.5996783971786499,0.0581306517124176,-0.28474900126457214
1772623519387877600,8.905877685546875,-0.5853567123413086,0.09908527135848999,-0.26542216539382935
1772623519397906700,8.91590673828125,-0.544940710067749,0.13686755299568176,-0.22705964744091034
1772623519407936800,8.925936767578126,-0.4689745604991913,0.16702066361904144,-0.17929105460643768
1772623519417966800,8.935966796875,-0.3768666088581085,0.16827121376991272,-0.12512663006782532
1772623519427997000,8.945996826171875,-0.2890062630176544,0.14413312077522278,-0.066320039331913
1772623519438027000,8.956027099609376,-0.2260228842496872,0.09586445242166519,-0.014636263251304626
1772623519448055800,8.966055908203124,-0.19227343797683716,0.04446837306022644,0.021005088463425636
1772623519458086000,8.9760859375,-0.17876455187797546,-0.004993705078959465,0.023232482373714447
1772623519468115700,8.98611572265625,-0.18341709673404694,-0.04718563333153725,0.004091009497642517
1772623519478145000,8.99614501953125,-0.20856314897537231,-0.08065508306026459,-0.03805205225944519
1772623519488174000,9.006174072265624,-0.24550199508666992,-0.10146315395832062,-0.10542602837085724
1772623519498204200,9.0162041015625,-0.2769980728626251,-0.12447808682918549,-0.19607989490032196
1772623519508234200,9.026234130859375,-0.3096444308757782,-0.16037777066230774,-0.29239553213119507
1772623519518264300,9.036264404296874,-0.33439901471138,-0.19186341762542725,-0.36420202255249023
1772623519528294100,9.046294189453125,-0.34704503417015076,-0.21151435375213623,-0.40320587158203125
1772623519538323200,9.0563232421875,-0.35857880115509033,-0.19901004433631897,-0.39329370856285095
1772623519548353300,9.066353271484376,-0.3888685405254364,-0.18117749691009521,-0.33459895849227905
1772623519558383000,9.076383056640625,-0.43385040760040283,-0.10757576674222946,-0.25201189517974854
1772623519568413200,9.0864130859375,-0.4988773465156555,0.0005166130140423775,-0.17462868988513947
1772623519578442000,9.09644189453125,-0.5902098417282104,0.10495948046445847,-0.14668112993240356
1772623519588472000,9.10647216796875,-0.6717768907546997,0.1578618288040161,-0.1682940125465393
1772623519598502100,9.116502197265625,-0.7247655987739563,0.15471655130386353,-0.22668208181858063
1772623519608532200,9.1265322265625,-0.7367681860923767,0.11607807874679565,-0.3003280460834503
1772623519618562300,9.136562255859374,-0.711607038974762,0.062018658965826035,-0.3445958197116852
1772623519628591400,9.14659130859375,-0.6613646149635315,-0.01863783970475197,-0.3596133887767792
1772623519638621200,9.15662109375,-0.5981776118278503,-0.08390233665704727,-0.31426793336868286
1772623519648651000,9.166651123046876,-0.5507744550704956,-0.11278964579105377,-0.22327516973018646
1772623519658681000,9.17668115234375,-0.5252054929733276,-0.1292102187871933,-0.1046987920999527
1772623519668710100,9.186710205078125,-0.519656240940094,-0.11486802995204926,0.019173884764313698
1772623519678740200,9.196740234375,-0.5295229554176331,-0.07255034893751144,0.13254259526729584
1772623519688770300,9.206770263671874,-0.5454643368721008,-0.002702822908759117,0.22685284912586212
1772623519698800000,9.216800048828125,-0.5528361797332764,0.1076754704117775,0.2877495586872101
1772623519708829200,9.2268291015625,-0.5307865738868713,0.29180774092674255,0.3271273076534271
1772623519718859300,9.236859375,-0.4677904546260834,0.5517801642417908,0.3477342426776886
1772623519728889300,9.246889404296875,-0.3720223903656006,0.7886776328086853,0.34238314628601074
1772623519738919200,9.256919189453125,-0.2732536792755127,0.9062110781669617,0.3156241178512573
1772623519748949200,9.26694921875,-0.1929149031639099,0.9331385493278503,0.26458466053009033
1772623519758978000,9.27697802734375,-0.13425526022911072,0.915443480014801,0.19672538340091705
1772623519769008000,9.287008056640625,-0.08790934085845947,0.8724433183670044,0.12737800180912018
1772623519779038200,9.2970380859375,-0.04596893489360809,0.8100765943527222,0.08245626837015152
1772623519789068300,9.307068359375,-0.015536991879343987,0.6578356623649597,0.0664951428771019
1772623519799097300,9.317097412109375,-0.005797982215881348,0.39431771636009216,0.06488358229398727
1772623519809127200,9.327127197265625,-0.01483328826725483,0.08728933334350586,0.07164295017719269
1772623519819157200,9.3371572265625,-0.04523835331201553,-0.18062126636505127,0.08977216482162476
1772623519829187000,9.34718701171875,-0.095328688621521,-0.36666011810302734,0.09320684522390366
1772623519839217200,9.357217041015625,-0.1352178007364273,-0.45530346035957336,0.09002422541379929
1772623519849246200,9.36724609375,-0.16551898419857025,-0.4540102481842041,0.08184459060430527
1772623519859276300,9.3772763671875,-0.20117130875587463,-0.38718628883361816,0.07860472053289413
1772623519869306000,9.38730615234375,-0.24272353947162628,-0.28167665004730225,0.08284340798854828
1772623519879336200,9.397336181640625,-0.26991820335388184,-0.1670844405889511,0.096171535551548
1772623519889365200,9.407365234375,-0.27355608344078064,-0.09894772619009018,0.11531007289886475
1772623519899395300,9.417395263671875,-0.24709439277648926,-0.10365059226751328,0.13551300764083862
1772623519909425200,9.427425048828125,-0.18952111899852753,-0.18091581761837006,0.1675226092338562
1772623519919455200,9.437455322265626,-0.12652209401130676,-0.28716039657592773,0.21241478621959686
1772623519929484000,9.447484130859374,-0.06977546215057373,-0.40158045291900635,0.2625301480293274
1772623519939514000,9.45751416015625,-0.011612923815846443,-0.47855207324028015,0.30545422434806824
1772623519949544200,9.467544189453125,0.03011002391576767,-0.5174430012702942,0.32988446950912476
1772623519959574300,9.47757421875,0.050904009491205215,-0.5108578205108643,0.3289664387702942
1772623519969604400,9.487604248046875,0.03578631207346916,-0.44400283694267273,0.3230523467063904
1772623519979633200,9.497633056640625,-0.00020379340276122093,-0.3137194514274597,0.3120724856853485
1772623519989663200,9.507663330078126,-0.0559043362736702,-0.15541182458400726,0.2854304909706116
1772623519999693000,9.517693115234374,-0.11743222177028656,-0.009401491843163967,0.24895769357681274
1772623520009723100,9.52772314453125,-0.15665392577648163,0.11065220832824707,0.20855432748794556
1772623520019752200,9.537752197265625,-0.16740529239177704,0.1907346546649933,0.1642354130744934
1772623520029782300,9.5477822265625,-0.14669522643089294,0.21707996726036072,0.13286656141281128
1772623520039812000,9.55781201171875,-0.1042972207069397,0.17048417031764984,0.11669930815696716
1772623520049842200,9.56784228515625,-0.0660204067826271,0.05987776443362236,0.10534677654504776
1772623520059871200,9.577871337890626,-0.023343224078416824,-0.06807378679513931,0.10309290140867233
1772623520069901300,9.5879013671875,0.0015749074518680573,-0.2037900686264038,0.09689386188983917
1772623520079931100,9.59793115234375,0.0049695903435349464,-0.29769134521484375,0.07844433188438416
1772623520089961200,9.607961181640626,0.0009104004129767418,-0.3279927968978882,0.05249715968966484
1772623520099991000,9.617990966796874,-0.0004505966790020466,-0.31944721937179565,0.023282941430807114
1772623520110020000,9.62802001953125,-0.0017715245485305786,-0.3000849783420563,-0.006619030609726906
1772623520120050200,9.63805029296875,-0.004712403751909733,-0.2588788568973541,-0.02393416315317154
1772623520130080300,9.648080322265624,-0.0035185087472200394,-0.2013591080904007,-0.023049460723996162
1772623520140110300,9.6581103515625,-0.008143403567373753,-0.13517433404922485,0.009666808880865574
1772623520150139100,9.66813916015625,-0.02560601755976677,-0.06919770687818527,0.06339768320322037
1772623520160169200,9.678169189453126,-0.05779847502708435,-0.020718388259410858,0.11334792524576187
1772623520170199000,9.688198974609374,-0.07972455024719238,0.005380325019359589,0.15590497851371765
1772623520180229000,9.69822900390625,-0.08114565908908844,-0.006848745979368687,0.17051440477371216
1772623520190259200,9.70825927734375,-0.07327441871166229,-0.04463553801178932,0.17655499279499054
1772623520200288300,9.718288330078124,-0.07054058462381363,-0.07183314114809036,0.17788496613502502
1772623520210318000,9.728318115234375,-0.082905113697052,-0.05726031959056854,0.16653430461883545
1772623520220348200,9.73834814453125,-0.08156324177980423,-0.019306214526295662,0.16147378087043762
1772623520230378200,9.748378173828126,-0.07514875382184982,0.0281880684196949,0.14996333420276642
1772623520240407300,9.7584072265625,-0.06642821431159973,0.05331318825483322,0.14448601007461548
1772623520250437400,9.768437255859375,-0.05818359553813934,0.06442203372716904,0.15111780166625977
1772623520260467200,9.77846728515625,-0.043925441801548004,0.06297722458839417,0.16461437940597534
1772623520270497000,9.7884970703125,-0.022464625537395477,0.0486811101436615,0.18662141263484955
1772623520280526000,9.798526123046875,-0.006033914163708687,0.019654134288430214,0.21156157553195953
1772623520290556200,9.80855615234375,-0.006388114299625158,-0.014218077063560486,0.21417254209518433
1772623520300586200,9.818586181640624,-0.01965900883078575,-0.028199872002005577,0.188996359705925
1772623520310616300,9.8286162109375,-0.030499672517180443,-0.019763244315981865,0.18091952800750732
1772623520320646400,9.838646484375,-0.04210807755589485,-0.03094068542122841,0.21147190034389496
1772623520330675200,9.84867529296875,-0.06160720810294151,-0.06486562639474869,0.248096764087677
1772623520340705300,9.858705322265624,-0.0670902207493782,-0.044987473636865616,0.26764044165611267
1772623520350735000,9.868735107421875,-0.07507224380970001,-0.0696057379245758,0.26533573865890503
1772623520360765200,9.87876513671875,-0.07056145370006561,-0.15299077332019806,0.21360436081886292
1772623520370794200,9.888794189453124,-0.059635043144226074,-0.1905011385679245,0.1407964676618576
1772623520380824000,9.898823974609375,-0.04686392471194267,-0.1736421436071396,0.06235392391681671
1772623520390854100,9.908854248046875,-0.0523657500743866,-0.09011927992105484,-0.02275111898779869
1772623520400884200,9.91888427734375,-0.0873769000172615,0.027898618951439857,-0.08619020879268646
1772623520410914300,9.928914306640625,-0.13913463056087494,0.04371539503335953,-0.10074518620967865
1772623520420943400,9.938943359375,-0.17777076363563538,-0.09672169387340546,-0.10885577648878098
1772623520430973200,9.94897314453125,-0.20631664991378784,-0.25434035062789917,-0.17983993887901306
1772623520441003000,9.9590029296875,-0.25837287306785583,-0.2964054048061371,-0.3413165807723999
1772623520451033000,9.969033203125,-0.3576006591320038,-0.2207535356283188,-0.5419836044311523
1772623520461062100,9.979062255859375,-0.4935944080352783,-0.08027860522270203,-0.6729298233985901
1772623520471092200,9.98909228515625,-0.5967045426368713,0.11596786975860596,-0.6771019101142883
1772623520481126000,9.9991259765625,-0.5536068081855774,0.2361692488193512,-0.6048220992088318
