time,seconds_elapsed,z,y,x
1772567348584685600,0.087685546875,0.5896799564361572,-1.591694951057434,-0.11119885742664337
1772567348594714600,0.097714599609375,0.40337374806404114,-1.2778240442276,-0.6511420011520386
1772567348604742700,0.10774267578125,0.319783091545105,-0.7871736288070679,-1.0736960172653198
1772567348614771700,0.117771728515625,0.30269917845726013,-0.3098006844520569,-1.4322773218154907
1772567348624800800,0.12780078125,0.3372628390789032,0.14491067826747894,-1.7439385652542114
1772567348634829800,0.137829833984375,0.3663075566291809,0.5289222598075867,-1.9699509143829346
1772567348644857600,0.147857666015625,0.3256763815879822,0.8382487893104553,-2.0468645095825195
1772567348654886700,0.15788671875,0.23736035823822021,1.046307921409607,-1.9477717876434326
1772567348664915500,0.16791552734375,0.07854178547859192,1.0942296981811523,-1.7316160202026367
1772567348674944500,0.177944580078125,-0.14122065901756287,0.9578425884246826,-1.4718328714370728
1772567348684973800,0.187973876953125,-0.3552394509315491,0.6791684031486511,-1.2188228368759155
1772567348695001600,0.198001708984375,-0.542792022228241,0.28578516840934753,-1.0103408098220825
1772567348705030700,0.20803076171875,-0.6387181282043457,-0.15715037286281586,-0.871584951877594
1772567348715059700,0.218059814453125,-0.5809866189956665,-0.551602303981781,-0.7828822731971741
1772567348725088500,0.228088623046875,-0.42705681920051575,-0.8310717344284058,-0.7297719120979309
1772567348735116800,0.23811669921875,-0.24385608732700348,-0.8783047795295715,-0.6944022178649902
1772567348745145600,0.2481455078125,-0.09933289140462875,-0.6980181932449341,-0.66739422082901
1772567348755174700,0.258174560546875,-0.007398971822112799,-0.33820226788520813,-0.6216506958007812
1772567348765203700,0.26820361328125,0.06340590119361877,0.16383399069309235,-0.5438968539237976
1772567348775231500,0.2782314453125,0.11705980449914932,0.669745922088623,-0.4203350245952606
1772567348785260800,0.2882607421875,0.15154550969600677,1.113875389099121,-0.2944698631763458
1772567348795289900,0.298289794921875,0.18643106520175934,1.5002704858779907,-0.16632282733917236
1772567348805318700,0.308318603515625,0.17460264265537262,1.7424602508544922,-0.05988101288676262
1772567348815347700,0.31834765625,0.12821277976036072,1.799554705619812,0.03271816298365593
1772567348825375500,0.32837548828125,0.07744857668876648,1.7588491439819336,0.14058899879455566
1772567348835404500,0.338404541015625,0.03736161068081856,1.6694231033325195,0.2638246715068817
1772567348845433600,0.34843359375,-0.016543027013540268,1.472477674484253,0.36726096272468567
1772567348855462700,0.358462646484375,-0.09842617809772491,1.2420940399169922,0.40885981917381287
1772567348865490700,0.36849072265625,-0.13321900367736816,1.079084038734436,0.42222175002098083
1772567348875519700,0.378519775390625,-0.09129925072193146,1.0070264339447021,0.4303100109100342
1772567348885548500,0.388548583984375,-0.019795171916484833,0.9660948514938354,0.4241548180580139
1772567348895577600,0.39857763671875,0.04555880278348923,0.9078366160392761,0.4107716381549835
1772567348905605600,0.408605712890625,0.11092190444469452,0.7678020596504211,0.41920697689056396
1772567348915634700,0.418634765625,0.18211111426353455,0.6154199838638306,0.4785864055156708
1772567348925663700,0.428663818359375,0.22547970712184906,0.4901753067970276,0.6348379850387573
1772567348935692500,0.438692626953125,0.21128985285758972,0.5791794657707214,0.8708582520484924
1772567348945721600,0.4487216796875,0.15814469754695892,0.7808522582054138,1.106559157371521
1772567348955749600,0.45874951171875,0.0874771848320961,0.8604405522346497,1.2451701164245605
1772567348965778700,0.46877880859375,0.07882533967494965,0.7597696781158447,1.2380595207214355
1772567348975807700,0.478807861328125,0.18502235412597656,0.6188421249389648,1.1136025190353394
1772567348985836800,0.4888369140625,0.41554832458496094,0.5342053771018982,0.9664254188537598
1772567348995864600,0.498864501953125,0.7011369466781616,0.45287349820137024,0.8490511178970337
1772567349005893600,0.5088935546875,0.8637004494667053,0.43348580598831177,0.7888331413269043
1772567349015922400,0.51892236328125,0.8551367521286011,0.5037503838539124,0.7600651383399963
1772567349025951700,0.52895166015625,0.6610988974571228,0.53958660364151,0.6571582555770874
1772567349035979800,0.538979736328125,0.3503269553184509,0.5618447661399841,0.4240794777870178
1772567349046008600,0.549008544921875,0.008840966038405895,0.6091071367263794,0.06105485558509827
1772567349056037600,0.55903759765625,-0.2924480438232422,0.6343645453453064,-0.4065797030925751
1772567349066066700,0.569066650390625,-0.5172881484031677,0.5735704898834229,-0.9197406768798828
1772567349076094700,0.5790947265625,-0.6622634530067444,0.3431625962257385,-1.3963173627853394
1772567349086123800,0.589123779296875,-0.7463673949241638,-0.05258982256054878,-1.7500805854797363
1772567349096152600,0.599152587890625,-0.7576554417610168,-0.47532299160957336,-1.940686583518982
1772567349106181600,0.609181640625,-0.6710307002067566,-0.8320054411888123,-1.978323221206665
1772567349116210400,0.61921044921875,-0.468029648065567,-1.0693647861480713,-1.8810096979141235
1772567349126238500,0.629238525390625,-0.17705421149730682,-1.1205323934555054,-1.6547795534133911
1772567349136267500,0.639267578125,0.12604175508022308,-1.0911036729812622,-1.3344041109085083
1772567349146296600,0.649296630859375,0.3879295289516449,-1.1061939001083374,-0.9684273600578308
1772567349156325600,0.65932568359375,0.5749801397323608,-1.124279260635376,-0.6051114797592163
1772567349166353400,0.669353515625,0.6467477083206177,-1.1024701595306396,-0.29039645195007324
1772567349176382500,0.679382568359375,0.5854701995849609,-1.0146925449371338,-0.08270874619483948
1772567349186411500,0.68941162109375,0.4394797086715698,-0.9328442215919495,-0.019030654802918434
1772567349196440600,0.699440673828125,0.2634178698062897,-0.8622576594352722,-0.057549551129341125
1772567349206468600,0.709468505859375,0.14620371162891388,-0.7205862402915955,-0.15666040778160095
1772567349216497400,0.719497314453125,0.15944229066371918,-0.5323449373245239,-0.25649404525756836
1772567349226526500,0.7295263671875,0.2504385709762573,-0.3276384770870209,-0.3258172869682312
1772567349236555500,0.739555419921875,0.37098920345306396,-0.12152153253555298,-0.34504103660583496
1772567349246583600,0.74958349609375,0.4878997504711151,0.13690094649791718,-0.2769281268119812
1772567349256612600,0.759612548828125,0.5577653646469116,0.37559688091278076,-0.15468476712703705
1772567349266641700,0.7696416015625,0.5489018559455872,0.5543162822723389,-0.03666534647345543
1772567349276670500,0.77967041015625,0.47876325249671936,0.6401464939117432,0.041275788098573685
1772567349286698500,0.789698486328125,0.36262741684913635,0.6332361102104187,0.059734977781772614
1772567349296727300,0.799727294921875,0.2122749388217926,0.6059027314186096,0.003489814233034849
1772567349306756600,0.809756591796875,0.012948394753038883,0.6471222639083862,-0.12090577185153961
1772567349316785700,0.81978564453125,-0.20478393137454987,0.7746429443359375,-0.29273292422294617
1772567349326814500,0.829814453125,-0.3862297832965851,0.9979717135429382,-0.48492178320884705
1772567349336842500,0.839842529296875,-0.4890885055065155,1.2293298244476318,-0.6624014973640442
1772567349346871600,0.84987158203125,-0.5138816237449646,1.3432517051696777,-0.7629051208496094
1772567349356900400,0.859900390625,-0.47843682765960693,1.3392244577407837,-0.7225238680839539
1772567349366929400,0.869929443359375,-0.3637878894805908,1.1197277307510376,-0.49004682898521423
1772567349376957400,0.87995751953125,-0.17563396692276,0.6103245615959167,-0.05925256758928299
1772567349386986500,0.889986572265625,0.05706493556499481,-0.0955730453133583,0.4553881883621216
1772567349397015600,0.900015625,0.2206599861383438,-0.37723028659820557,1.0160558223724365
1772567349407044600,0.910044677734375,0.17390954494476318,-0.15339966118335724,1.4970853328704834
1772567349417072600,0.92007275390625,-0.005437040701508522,0.3821446895599365,1.8378362655639648
1772567349427101700,0.930101806640625,-0.05758025869727135,0.9782829284667969,2.0588653087615967
1772567349437130500,0.940130615234375,0.14165295660495758,1.4138224124908447,2.077160596847534
1772567349447159600,0.95015966796875,0.5501912236213684,1.3984177112579346,1.763886570930481
1772567349457187300,0.960187255859375,1.0215717554092407,1.0829317569732666,1.1876802444458008
1772567349467216400,0.97021630859375,1.3869240283966064,0.9485543966293335,0.5421888828277588
1772567349477245700,0.98024560546875,1.6319040060043335,0.9056248068809509,-0.032024629414081573
1772567349487274800,0.990274658203125,1.694743275642395,0.6093067526817322,-0.5092846751213074
1772567349497302500,1.000302490234375,1.5830702781677246,0.03449727222323418,-0.8911798000335693
1772567349507331600,1.01033154296875,1.3352664709091187,-0.6701939105987549,-1.1856958866119385
1772567349517360400,1.0203603515625,0.9927325248718262,-1.4277313947677612,-1.3819732666015625
1772567349527389400,1.030389404296875,0.6118695139884949,-2.102708339691162,-1.4419227838516235
1772567349537418500,1.04041845703125,0.2360953390598297,-2.369624376296997,-1.3272966146469116
1772567349547446500,1.050446533203125,-0.12460268288850784,-2.194392204284668,-1.0548808574676514
1772567349557475600,1.0604755859375,-0.48077595233917236,-1.7136507034301758,-0.7343810796737671
1772567349567504600,1.070504638671875,-0.7836554050445557,-1.147800087928772,-0.46856266260147095
1772567349577533400,1.080533447265625,-0.9659311771392822,-0.6957789063453674,-0.34423965215682983
1772567349587561700,1.090561767578125,-1.0123722553253174,-0.43372148275375366,-0.377321720123291
1772567349597590500,1.100590576171875,-0.9029902815818787,-0.3456563353538513,-0.5338191986083984
1772567349607619600,1.11061962890625,-0.6866804361343384,-0.3268886208534241,-0.768147885799408
1772567349617648600,1.120648681640625,-0.4774326682090759,-0.31444844603538513,-0.9960580468177795
1772567349627676400,1.130676513671875,-0.35596367716789246,-0.3111313581466675,-1.1724807024002075
1772567349637705500,1.14070556640625,-0.26687002182006836,-0.3711334466934204,-1.2516030073165894
1772567349647734500,1.150734619140625,-0.2023731917142868,-0.432188481092453,-1.2069361209869385
1772567349657763600,1.160763671875,-0.15548130869865417,-0.45457130670547485,-1.0491092205047607
1772567349667791600,1.17079150390625,-0.07538982480764389,-0.4716707766056061,-0.7588786482810974
1772567349677820400,1.1808203125,0.011152785271406174,-0.44981926679611206,-0.3820064067840576
1772567349687849500,1.190849365234375,0.07230430096387863,-0.3904671370983124,0.0064649032428860664
1772567349697878500,1.20087841796875,0.11249300092458725,-0.29593026638031006,0.3559401035308838
1772567349707906600,1.210906494140625,0.15522581338882446,-0.19448302686214447,0.6311641931533813
1772567349717935600,1.220935546875,0.20326285064220428,-0.1343158334493637,0.8128202557563782
1772567349727964700,1.230964599609375,0.25513097643852234,-0.13011863827705383,0.9052196741104126
1772567349737993500,1.240993408203125,0.3067294657230377,-0.16856002807617188,0.9189929962158203
1772567349748021500,1.251021484375,0.33975088596343994,-0.23955711722373962,0.872477650642395
1772567349758050600,1.261050537109375,0.3565293252468109,-0.31316980719566345,0.7681456208229065
1772567349768079600,1.27107958984375,0.35593974590301514,-0.35933980345726013,0.6160967350006104
1772567349778108700,1.281108642578125,0.3443579077720642,-0.30157583951950073,0.44508323073387146
1772567349788137500,1.291137451171875,0.2978265583515167,-0.08992208540439606,0.2949941158294678
1772567349798165500,1.30116552734375,0.2359413206577301,0.22307977080345154,0.22719934582710266
1772567349808194600,1.311194580078125,0.20363092422485352,0.5354411602020264,0.2889922857284546
1772567349818223400,1.321223388671875,0.19074149429798126,0.794872522354126,0.4816504120826721
1772567349828252700,1.331252685546875,0.17929622530937195,1.016843557357788,0.7351993918418884
1772567349838280400,1.341280517578125,0.15290936827659607,1.1660327911376953,0.9658432602882385
1772567349848309500,1.3513095703125,0.07980471104383469,1.2522052526474,1.104981541633606
1772567349858338600,1.361338623046875,-0.05735287815332413,1.26386296749115,1.1132993698120117
1772567349868367400,1.371367431640625,-0.22493702173233032,1.1896897554397583,0.9756489396095276
1772567349878395600,1.381395751953125,-0.3255389928817749,0.947198212146759,0.7554340362548828
1772567349888424700,1.3914248046875,-0.3048606216907501,0.511880099773407,0.5692062377929688
1772567349898453500,1.40145361328125,-0.12918172776699066,-0.022016312927007675,0.5557181239128113
1772567349908482600,1.411482666015625,0.13667309284210205,-0.613960862159729,0.7754988074302673
1772567349918510300,1.42151025390625,0.40780365467071533,-0.9530643224716187,1.1978514194488525
1772567349928539400,1.431539306640625,0.6295956969261169,-0.8035697937011719,1.7135850191116333
1772567349938568700,1.441568603515625,0.8280248641967773,-0.404704213142395,2.116975784301758
1772567349948597500,1.451597412109375,1.017506718635559,-0.028905268758535385,2.2202470302581787
1772567349958625500,1.46162548828125,1.1567811965942383,0.2625257670879364,1.947015643119812
1772567349968654600,1.471654541015625,1.1644871234893799,0.5147765874862671,1.3847142457962036
1772567349978683400,1.481683349609375,0.9946080446243286,0.7305285930633545,0.6920942068099976
1772567349988712400,1.49171240234375,0.7656574249267578,0.9298858642578125,0.034591641277074814
1772567349998740500,1.501740478515625,0.524088978767395,1.1719890832901,-0.5747707486152649
1772567350008769500,1.51176953125,0.2748720943927765,1.2449722290039062,-1.1093223094940186
1772567350018798600,1.521798583984375,0.03282642364501953,1.1856415271759033,-1.5488148927688599
1772567350028827400,1.531827392578125,-0.16746334731578827,1.0646408796310425,-1.8718122243881226
1772567350038856400,1.5418564453125,-0.26159143447875977,0.8122158646583557,-2.0416324138641357
1772567350048884700,1.551884765625,-0.25390952825546265,0.39547857642173767,-2.040494680404663
1772567350058913500,1.56191357421875,-0.21299859881401062,-0.11788514256477356,-1.8701351881027222
1772567350068942600,1.571942626953125,-0.17447319626808167,-0.5465694665908813,-1.5527559518814087
1772567350078971600,1.5819716796875,-0.0922960415482521,-0.8520223498344421,-1.1595733165740967
1772567350088999400,1.59199951171875,0.05158943310379982,-1.080142617225647,-0.7697863578796387
1772567350099028500,1.602028564453125,0.19083493947982788,-1.2599126100540161,-0.4422375559806824
1772567350109057500,1.6120576171875,0.292432963848114,-1.3777391910552979,-0.21043643355369568
1772567350119086800,1.6220869140625,0.34401386976242065,-1.4261983633041382,-0.09704117476940155
1772567350129114600,1.632114501953125,0.32552725076675415,-1.4166326522827148,-0.08224605023860931
1772567350139143700,1.642143798828125,0.269128680229187,-1.3326293230056763,-0.1483161598443985
1772567350149172500,1.65217236328125,0.20609639585018158,-1.1492375135421753,-0.2367388755083084
1772567350159201500,1.662201416015625,0.1270841360092163,-0.9321074485778809,-0.29769277572631836
1772567350169229800,1.672229736328125,0.02665395848453045,-0.6656436920166016,-0.27253568172454834
1772567350179258600,1.682258544921875,-0.07125582545995712,-0.3040849566459656,-0.17068281769752502
1772567350189287700,1.69228759765625,-0.14725688099861145,0.043089162558317184,-0.04873861372470856
1772567350199316700,1.702316650390625,-0.18724584579467773,0.33579587936401367,0.07598813623189926
1772567350209344500,1.712344482421875,-0.2065584361553192,0.549621045589447,0.20253124833106995
1772567350219373800,1.722373779296875,-0.20857444405555725,0.666394829750061,0.31589189171791077
1772567350229402600,1.732402587890625,-0.22229033708572388,0.7147616147994995,0.40336644649505615
1772567350239431700,1.742431640625,-0.24091914296150208,0.6805213689804077,0.4572978615760803
1772567350249459700,1.752459716796875,-0.26582008600234985,0.5668283700942993,0.4702262282371521
1772567350259488500,1.762488525390625,-0.28383132815361023,0.4263721704483032,0.4503611922264099
1772567350269517600,1.772517578125,-0.2949524521827698,0.28038492798805237,0.4141586422920227
1772567350279546600,1.782546630859375,-0.3039829730987549,0.23670989274978638,0.378118097782135
1772567350289575700,1.79257568359375,-0.322015643119812,0.33001992106437683,0.38517019152641296
1772567350299603700,1.802603759765625,-0.3568340837955475,0.5215680599212646,0.4431232213973999
1772567350309632500,1.812632568359375,-0.3986075520515442,0.759398341178894,0.5484147071838379
1772567350319661600,1.82266162109375,-0.4224790632724762,0.9419068694114685,0.6651937365531921
1772567350329689900,1.83268994140625,-0.4124263823032379,0.9817556738853455,0.7745792865753174
1772567350339718700,1.84271875,-0.3651121258735657,0.8551141023635864,0.8807145357131958
1772567350349747700,1.852747802734375,-0.2793025076389313,0.5970627069473267,0.9644520282745361
1772567350359776800,1.86277685546875,-0.19279398024082184,0.40753084421157837,1.00786554813385
1772567350369805600,1.8728056640625,-0.15266412496566772,0.42680633068084717,1.0323677062988281
1772567350379833600,1.88283349609375,-0.17539368569850922,0.6991627216339111,1.0431199073791504
1772567350389862700,1.892862548828125,-0.21779674291610718,1.0758734941482544,1.0439542531967163
1772567350399891700,1.9028916015625,-0.18701885640621185,1.1680610179901123,0.9866533875465393
1772567350409920800,1.912920654296875,-0.0048688300885260105,0.918008029460907,0.8847278356552124
1772567350419948500,1.922948486328125,0.35081201791763306,0.4936745762825012,0.7382614016532898
1772567350429977600,1.9329775390625,0.7939090132713318,-0.09941530227661133,0.5533106923103333
1772567350440006700,1.943006591796875,1.1701327562332153,-0.72303706407547,0.39097797870635986
1772567350450035500,1.953035400390625,1.3754034042358398,-1.1848922967910767,0.31161630153656006
1772567350460063700,1.963063720703125,1.3856874704360962,-1.3591713905334473,0.32200583815574646
1772567350470092800,1.9730927734375,1.26975417137146,-1.238740086555481,0.3705354630947113
1772567350480121600,1.98312158203125,1.0649189949035645,-0.8657500147819519,0.36931678652763367
1772567350490150700,1.993150634765625,0.8192880749702454,-0.345585435628891,0.23802773654460907
1772567350500178700,2.0031787109375,0.5778526067733765,0.14901234209537506,-0.07319964468479156
1772567350510207700,2.013207763671875,0.3627174496650696,0.4908531904220581,-0.5275466442108154
1772567350520236800,2.02323681640625,0.19973625242710114,0.5337175130844116,-1.0783029794692993
1772567350530265600,2.033265625,0.08425069600343704,0.25262293219566345,-1.6475752592086792
1772567350540293600,2.043293701171875,-0.016992036253213882,-0.21609392762184143,-2.097297430038452
1772567350550322700,2.05332275390625,-0.13606573641300201,-0.6869467496871948,-2.3383872509002686
1772567350560351500,2.0633515625,-0.26894015073776245,-1.0591647624969482,-2.3511548042297363
1772567350570380800,2.073380859375,-0.35442233085632324,-1.322182059288025,-2.171544075012207
1772567350580408600,2.08340869140625,-0.3630237877368927,-1.4620568752288818,-1.8560216426849365
1772567350590437600,2.093437744140625,-0.32071009278297424,-1.4616961479187012,-1.4777405261993408
1772567350600466700,2.103466796875,-0.2520311772823334,-1.2822542190551758,-1.1049896478652954
1772567350610495500,2.11349560546875,-0.16363085806369781,-0.9413445591926575,-0.7918621897697449
1772567350620523800,2.123523681640625,-0.06951981782913208,-0.5565124154090881,-0.5980029702186584
1772567350630552800,2.133552734375,0.01004160288721323,-0.2031087577342987,-0.5275168418884277
1772567350640581600,2.14358154296875,0.04317665100097656,0.09849822521209717,-0.5438289642333984
1772567350650610700,2.153610595703125,0.003530639223754406,0.3262510299682617,-0.598493754863739
1772567350660639700,2.1636396484375,-0.09098175168037415,0.47710683941841125,-0.6698281168937683
1772567350670667800,2.173667724609375,-0.18207640945911407,0.5315696001052856,-0.7181828618049622
1772567350680696800,2.18369677734375,-0.2718971073627472,0.49857866764068604,-0.7191058993339539
1772567350690725600,2.1937255859375,-0.35218265652656555,0.44109871983528137,-0.651537299156189
1772567350700754700,2.203754638671875,-0.4341273307800293,0.38180238008499146,-0.4860500991344452
1772567350710782700,2.21378271484375,-0.48184412717819214,0.4210470914840698,-0.22804513573646545
1772567350720811500,2.2238115234375,-0.502026379108429,0.5501760840415955,0.09068705141544342
1772567350730840600,2.233840576171875,-0.5108470916748047,0.6642485857009888,0.39126092195510864
1772567350740870000,2.243869873046875,-0.4914640188217163,0.7122403383255005,0.6366733312606812
1772567350750897700,2.253897705078125,-0.46918565034866333,0.7239682674407959,0.8021138906478882
1772567350760926700,2.2639267578125,-0.4861569106578827,0.6788706183433533,0.8833954334259033
1772567350770955500,2.27395556640625,-0.5292585492134094,0.5637915134429932,0.8821702599525452
1772567350780984600,2.283984619140625,-0.5430966019630432,0.4408985674381256,0.8148521780967712
1772567350791012900,2.294012939453125,-0.6022748947143555,0.4213338792324066,0.6623331308364868
1772567350801041700,2.304041748046875,-0.6582936644554138,0.4738852083683014,0.4707496166229248
1772567350811070700,2.31407080078125,-0.6116350889205933,0.5444700121879578,0.3568793833255768
1772567350821099800,2.324099853515625,-0.5117332339286804,0.6432466506958008,0.381521612405777
1772567350831127600,2.33412744140625,-0.37908121943473816,0.8359470963478088,0.5509832501411438
1772567350841156600,2.344156494140625,-0.2343629002571106,1.0284457206726074,0.8115801811218262
1772567350851185700,2.354185546875,-0.15702949464321136,1.0543851852416992,1.0819154977798462
1772567350861214700,2.364214599609375,-0.1516142189502716,0.9417547583580017,1.2823983430862427
1772567350871242800,2.37424267578125,-0.08972746133804321,0.7841024398803711,1.344808578491211
1772567350881271600,2.384271484375,0.1432272344827652,0.4752180576324463,1.2158015966415405
1772567350891300600,2.394300537109375,0.5075442790985107,0.09386159479618073,0.9179902076721191
1772567350901329700,2.40432958984375,0.8780086040496826,-0.2787410020828247,0.5574660897254944
1772567350911357700,2.414357666015625,1.1387842893600464,-0.6560012698173523,0.21182340383529663
1772567350921386800,2.42438671875,1.2510913610458374,-1.0555473566055298,-0.05352569743990898
1772567350931415600,2.43441552734375,1.229297161102295,-1.3370909690856934,-0.2062056064605713
1772567350941444600,2.444444580078125,1.0816776752471924,-1.3761035203933716,-0.2804444134235382
1772567350951473700,2.4544736328125,0.8658526539802551,-1.1600897312164307,-0.3262092173099518
1772567350961501700,2.464501708984375,0.6885873079299927,-0.7921803593635559,-0.4011830687522888
1772567350971530800,2.47453076171875,0.5978891849517822,-0.5119609236717224,-0.5399726629257202
1772567350981559800,2.484559814453125,0.5768115520477295,-0.38485199213027954,-0.72662752866745
1772567350991588600,2.494588623046875,0.5994313955307007,-0.366864949464798,-0.8941776156425476
1772567351001616600,2.50461669921875,0.6201406717300415,-0.3792201578617096,-0.9882907867431641
1772567351011645400,2.5146455078125,0.6140285134315491,-0.3991963565349579,-1.0060231685638428
1772567351021674800,2.5246748046875,0.5775395035743713,-0.4572005271911621,-0.9682869911193848
1772567351031703800,2.534703857421875,0.5047251582145691,-0.5352004766464233,-0.9039407968521118
1772567351041731600,2.544731689453125,0.41494518518447876,-0.6542142629623413,-0.8255660533905029
1772567351051760600,2.5547607421875,0.30717211961746216,-0.8025744557380676,-0.735107958316803
1772567351061789700,2.564789794921875,0.20480075478553772,-0.9474855661392212,-0.6212330460548401
1772567351071818500,2.574818603515625,0.1293478161096573,-0.9893566370010376,-0.4858728051185608
1772567351081846800,2.5848466796875,0.09516241401433945,-0.9172342419624329,-0.3355911672115326
1772567351091875600,2.59487548828125,0.09876781702041626,-0.777267336845398,-0.190347358584404
1772567351101904600,2.604904541015625,0.12063902616500854,-0.5910955667495728,-0.06335557997226715
1772567351111933700,2.61493359375,0.09464665502309799,-0.3398275673389435,0.03149097040295601
1772567351121960700,2.624960693359375,-0.0002633417025208473,-0.03338669240474701,0.08399146050214767
1772567351131989800,2.63498974609375,-0.16495707631111145,0.27851420640945435,0.10775822401046753
1772567351142018600,2.6450185546875,-0.34396278858184814,0.5123445391654968,0.11385073512792587
1772567351152047600,2.655047607421875,-0.49287140369415283,0.6564099788665771,0.11917788535356522
1772567351162075600,2.66507568359375,-0.5954960584640503,0.7512150406837463,0.11910731345415115
1772567351172104700,2.675104736328125,-0.6450571417808533,0.7913721203804016,0.10019131004810333
1772567351182133800,2.6851337890625,-0.6476185917854309,0.7950161099433899,0.07538503408432007
1772567351192162800,2.695162841796875,-0.5975099205970764,0.7931391000747681,0.0653161033987999
1772567351202190600,2.705190673828125,-0.5146462321281433,0.7873571515083313,0.09382124990224838
1772567351212219600,2.7152197265625,-0.4175773561000824,0.7681763172149658,0.16902375221252441
1772567351222248400,2.72524853515625,-0.3124019205570221,0.7151221632957458,0.2942913770675659
1772567351232277500,2.735277587890625,-0.1898375004529953,0.6140204071998596,0.4729060232639313
1772567351242305800,2.745305908203125,-0.06308034807443619,0.4865996241569519,0.6879797577857971
1772567351252334600,2.75533447265625,0.025399520993232727,0.35621950030326843,0.886073887348175
1772567351262363600,2.76536376953125,0.08212857693433762,0.3130664527416229,1.0243645906448364
1772567351272392700,2.775392822265625,0.14639802277088165,0.40082645416259766,1.0665192604064941
1772567351282421500,2.78542138671875,0.22533437609672546,0.5285804271697998,1.009137511253357
1772567351292449800,2.79544970703125,0.26027563214302063,0.6472418308258057,0.8913484215736389
1772567351302478600,2.805478515625,0.2642964720726013,0.6822829246520996,0.766353189945221
1772567351312507600,2.815507568359375,0.32561343908309937,0.5276618599891663,0.6756131052970886
1772567351322536700,2.82553662109375,0.509158730506897,0.2692342698574066,0.6846151351928711
1772567351332564500,2.835564453125,0.775287389755249,0.04471442475914955,0.7934491634368896
1772567351342593800,2.84559375,1.0404075384140015,-0.018818212673068047,0.9593603610992432
1772567351352622800,2.855622802734375,1.2622202634811401,0.08602026104927063,1.0846203565597534
1772567351362651600,2.865651611328125,1.4225153923034668,0.23638339340686798,1.0742619037628174
1772567351372679700,2.8756796875,1.5291677713394165,0.3663940131664276,0.8987410664558411
1772567351382708500,2.88570849609375,1.515364646911621,0.4320757985115051,0.5727198719978333
1772567351392737500,2.895737548828125,1.331312894821167,0.4392696022987366,0.15729904174804688
1772567351402766600,2.9057666015625,1.00232994556427,0.39015185832977295,-0.2842618525028229
1772567351412794600,2.915794677734375,0.5965170860290527,0.2920355796813965,-0.7206505537033081
1772567351422823700,2.92582373046875,0.1748841106891632,0.09979026019573212,-1.1249895095825195
1772567351432852700,2.935852783203125,-0.21666327118873596,-0.17745178937911987,-1.4610871076583862
1772567351442881500,2.945881591796875,-0.561737596988678,-0.39229273796081543,-1.6707061529159546
1772567351452909800,2.955909912109375,-0.8491969704627991,-0.4684463441371918,-1.7219188213348389
1772567351462938600,2.965938720703125,-1.0426831245422363,-0.39210817217826843,-1.6258972883224487
1772567351472967700,2.9759677734375,-1.105796456336975,-0.22732672095298767,-1.4400084018707275
1772567351482996700,2.985996826171875,-1.0270293951034546,-0.044708188623189926,-1.233464002609253
1772567351493024500,2.9960244140625,-0.8420470952987671,0.07651769369840622,-1.0590729713439941
1772567351503053600,3.006053466796875,-0.5993391275405884,0.12460532039403915,-0.9310497641563416
1772567351513082600,3.01608251953125,-0.3772701323032379,0.04688562825322151,-0.8377931118011475
1772567351523111700,3.026111572265625,-0.19874487817287445,-0.16718325018882751,-0.7565209269523621
1772567351533139700,3.0361396484375,-0.0713263750076294,-0.46840140223503113,-0.667089581489563
1772567351543168500,3.04616845703125,0.007415046915411949,-0.8007516264915466,-0.5561950206756592
1772567351553197600,3.056197509765625,0.00975174829363823,-1.079851746559143,-0.42582619190216064
1772567351563226600,3.0662265625,-0.03134748339653015,-1.1419506072998047,-0.2753109931945801
1772567351573254700,3.076254638671875,-0.03418254852294922,-0.9944395422935486,-0.1203087642788887
1772567351583283700,3.08628369140625,0.028068311512470245,-0.741121768951416,0.018839800730347633
1772567351593312800,3.096312744140625,0.12232410907745361,-0.41663211584091187,0.13204216957092285
1772567351603341600,3.106341552734375,0.2023766040802002,-0.08326957374811172,0.2255484163761139
1772567351613369600,3.11636962890625,0.24266062676906586,0.21632127463817596,0.3032227158546448
1772567351623398700,3.126398681640625,0.24489422142505646,0.43011799454689026,0.36980918049812317
1772567351633427700,3.136427734375,0.22141721844673157,0.5765032768249512,0.43389758467674255
1772567351643456800,3.146456787109375,0.17752352356910706,0.6251839995384216,0.487517386674881
1772567351653484500,3.156484619140625,0.10685493797063828,0.5609866976737976,0.5311516523361206
1772567351663513600,3.166513671875,0.044134560972452164,0.4353662133216858,0.5667384266853333
1772567351673542700,3.176542724609375,0.004511245526373386,0.3313007354736328,0.6062639355659485
1772567351683571500,3.186571533203125,0.012928965501487255,0.27980372309684753,0.6545470952987671
1772567351693600800,3.196600830078125,0.0653521716594696,0.32509493827819824,0.7099073529243469
1772567351703628500,3.206628662109375,0.18481625616550446,0.4608597159385681,0.7612842321395874
1772567351713657600,3.21665771484375,0.3336784839630127,0.6063501238822937,0.818394124507904
1772567351723686700,3.226686767578125,0.451633095741272,0.6450828909873962,0.8606020212173462
1772567351733715700,3.2367158203125,0.5019211173057556,0.577280580997467,0.9009842872619629
1772567351743743700,3.24674365234375,0.5652111172676086,0.5035829544067383,0.9382418990135193
1772567351753772800,3.256772705078125,0.7067963480949402,0.38162681460380554,0.993005633354187
1772567351763801600,3.266801513671875,0.9267396330833435,0.2160511612892151,1.084380030632019
1772567351773830700,3.27683056640625,1.1766575574874878,0.19249236583709717,1.2011516094207764
1772567351783858400,3.2868583984375,1.3846365213394165,0.31151407957077026,1.3246543407440186
1772567351793887500,3.296887451171875,1.4797730445861816,0.3750903904438019,1.4049766063690186
1772567351803916800,3.306916748046875,1.4969562292099,0.38154616951942444,1.4061601161956787
1772567351813945900,3.31694580078125,1.465910792350769,0.3222636282444,1.2991636991500854
1772567351823973600,3.3269736328125,1.38723886013031,0.18840114772319794,1.0845541954040527
1772567351834002700,3.337002685546875,1.2655895948410034,-0.02519541047513485,0.7903710007667542
1772567351844031500,3.347031494140625,1.0882658958435059,-0.32979366183280945,0.46215876936912537
1772567351854060500,3.357060546875,0.8675141334533691,-0.6485164165496826,0.1523185819387436
1772567351864088800,3.3670888671875,0.6408727765083313,-0.870190441608429,-0.09425631165504456
1772567351874117600,3.37711767578125,0.45949605107307434,-0.937991201877594,-0.2851398289203644
1772567351884146700,3.387146728515625,0.33892807364463806,-0.8497737646102905,-0.4434724748134613
1772567351894175700,3.39717578125,0.2894352078437805,-0.6471237540245056,-0.5893334150314331
1772567351904203800,3.407203857421875,0.3243982791900635,-0.477667897939682,-0.7490530610084534
1772567351914232800,3.41723291015625,0.450360506772995,-0.41349756717681885,-0.9213293790817261
1772567351924261600,3.42726171875,0.62306809425354,-0.431012898683548,-1.076136827468872
1772567351934290700,3.437290771484375,0.7872945070266724,-0.4155336618423462,-1.1862499713897705
1772567351944318700,3.447318603515625,0.8583431243896484,-0.29178324341773987,-1.2599217891693115
1772567351954347500,3.457347412109375,0.7786432504653931,0.001887533813714981,-1.3171606063842773
1772567351964376600,3.46737646484375,0.5747162103652954,0.39914193749427795,-1.3902952671051025
1772567351974406000,3.477406005859375,0.2727549076080322,0.804560124874115,-1.4863179922103882
1772567351984433700,3.48743359375,-0.09820160269737244,1.2191879749298096,-1.5692378282546997
1772567351994462700,3.497462646484375,-0.48735886812210083,1.5782867670059204,-1.6195690631866455
1772567352004491500,3.507491455078125,-0.8341701030731201,1.7656896114349365,-1.6153836250305176
1772567352014520600,3.5175205078125,-1.1272070407867432,1.717531442642212,-1.5375922918319702
1772567352024549600,3.527549560546875,-1.3061888217926025,1.5445878505706787,-1.3758902549743652
1772567352034577700,3.53757763671875,-1.3095334768295288,1.2410842180252075,-1.1473404169082642
1772567352044606700,3.547606689453125,-1.1436244249343872,0.849777340888977,-0.8576115965843201
1772567352054635800,3.5576357421875,-0.8665315508842468,0.3995148539543152,-0.4943975508213043
1772567352064664600,3.56766455078125,-0.5451684594154358,-0.020044323056936264,-0.07652705162763596
1772567352074692600,3.577692626953125,-0.2525849938392639,-0.31115785241127014,0.3551199436187744
1772567352084721700,3.5877216796875,-0.03869851678609848,-0.3822525441646576,0.7663732767105103
1772567352094750700,3.597750732421875,0.06182229891419411,-0.23722559213638306,1.0880855321884155
1772567352104779800,3.60777978515625,0.08153741806745529,0.005225404165685177,1.2741928100585938
1772567352114807600,3.6178076171875,0.0376012921333313,0.2627395689487457,1.2991490364074707
1772567352124836900,3.6278369140625,-0.05061564967036247,0.5102564096450806,1.1951818466186523
1772567352134865700,3.63786572265625,-0.1602221131324768,0.7503137588500977,1.0077041387557983
1772567352144894700,3.647894775390625,-0.2442333847284317,0.9560144543647766,0.7954243421554565
1772567352154922800,3.6579228515625,-0.2573257088661194,1.0847049951553345,0.6191117763519287
1772567352164951800,3.667951904296875,-0.21716046333312988,1.0836519002914429,0.5064752101898193
1772567352174980900,3.67798095703125,-0.16174757480621338,0.9737854599952698,0.4807090163230896
1772567352185009700,3.688009765625,-0.1508275419473648,0.8625377416610718,0.5363038778305054
1772567352195038000,3.698037841796875,-0.23238718509674072,0.7597930431365967,0.657217264175415
1772567352205067000,3.70806689453125,-0.38489392399787903,0.6400788426399231,0.8345592617988586
1772567352215095800,3.718095703125,-0.5047869086265564,0.475868821144104,1.021460771560669
1772567352225124900,3.728124755859375,-0.481610506772995,0.19272099435329437,1.1454987525939941
1772567352235152600,3.738152587890625,-0.280061274766922,-0.23055550456047058,1.173500895500183
1772567352245181700,3.748181640625,0.06368543952703476,-0.6650859117507935,1.1290322542190552
1772567352255210800,3.758210693359375,0.42061927914619446,-0.9637876749038696,1.0804897546768188
1772567352265239800,3.76823974609375,0.622946560382843,-1.126179575920105,1.0525046586990356
1772567352275267800,3.778267822265625,0.6448479890823364,-1.1431515216827393,1.0719472169876099
1772567352285297000,3.788296875,0.5979846119880676,-1.0875217914581299,1.0797308683395386
1772567352295325700,3.79832568359375,0.6163636445999146,-0.8895209431648254,1.011966347694397
1772567352305354800,3.808354736328125,0.7356200218200684,-0.6074035167694092,0.8260830044746399
1772567352315382800,3.8183828125,0.8677945137023926,-0.42615029215812683,0.48739132285118103
1772567352325411800,3.828411865234375,0.8966932892799377,-0.34026017785072327,0.05002276599407196
1772567352335441000,3.83844091796875,0.7814931869506836,-0.23417112231254578,-0.38317418098449707
1772567352345469700,3.8484697265625,0.5364046096801758,-0.06928736716508865,-0.7288367748260498
1772567352355498800,3.858498779296875,0.2425035834312439,0.16102971136569977,-0.970629870891571
1772567352365527000,3.868527099609375,-0.026375290006399155,0.3728407621383667,-1.1485825777053833
1772567352375555800,3.878555908203125,-0.24049820005893707,0.45292747020721436,-1.301872730255127
1772567352385585000,3.8885849609375,-0.3908810615539551,0.312220960855484,-1.4492789506912231
1772567352395614000,3.898614013671875,-0.4980486035346985,0.08729830384254456,-1.5621336698532104
1772567352405641700,3.908641845703125,-0.5686351656913757,-0.0848473608493805,-1.6030640602111816
1772567352415670800,3.9186708984375,-0.5995799899101257,-0.1826305091381073,-1.5752503871917725
1772567352425699600,3.928699462890625,-0.5733653903007507,-0.1942773163318634,-1.4890638589859009
1772567352435729000,3.93872900390625,-0.5219098329544067,-0.17935216426849365,-1.3883824348449707
1772567352445757000,3.9487568359375,-0.4924771189689636,-0.1933675855398178,-1.2891929149627686
1772567352455785700,3.95878564453125,-0.5059323310852051,-0.21790476143360138,-1.2018181085586548
1772567352465814800,3.968814697265625,-0.5294744372367859,-0.280084490776062,-1.1485530138015747
1772567352475843800,3.97884375,-0.5755926370620728,-0.3524019122123718,-1.1253407001495361
1772567352485871900,3.988871826171875,-0.6496918797492981,-0.32984039187431335,-1.0798139572143555
1772567352495901000,3.99890087890625,-0.7100898623466492,-0.2427503764629364,-1.0038844347000122
1772567352505928700,4.0089287109375,-0.7124987244606018,-0.13408248126506805,-0.8988158702850342
1772567352515957000,4.01895703125,-0.6667553782463074,-0.009320718236267567,-0.7749157547950745
1772567352525985800,4.02898583984375,-0.6014013886451721,0.12225062400102615,-0.6054116487503052
1772567352536014800,4.039014892578125,-0.5203295946121216,0.3215968608856201,-0.35615572333335876
1772567352546044000,4.0490439453125,-0.4309176802635193,0.5210295915603638,-0.07414720207452774
1772567352556071700,4.05907177734375,-0.33745092153549194,0.6755589246749878,0.201127290725708
1772567352566100700,4.069100830078125,-0.28793901205062866,0.8270853757858276,0.4454275667667389
1772567352576129800,4.0791298828125,-0.30144190788269043,0.9152230620384216,0.6250960230827332
1772567352586158800,4.089158935546875,-0.35341668128967285,0.9112567901611328,0.7173919081687927
1772567352596187000,4.099186767578125,-0.39586806297302246,0.8207734227180481,0.7467975616455078
1772567352606215700,4.109215576171875,-0.42728856205940247,0.6772247552871704,0.7290169596672058
1772567352616244700,4.11924462890625,-0.44249728322029114,0.48937320709228516,0.6931983828544617
1772567352626273800,4.129273681640625,-0.3952797055244446,0.36958634853363037,0.6736792922019958
1772567352636302600,4.139302490234375,-0.2795392572879791,0.3153121769428253,0.6814237833023071
1772567352646331000,4.149330810546875,-0.14651116728782654,0.2538818418979645,0.7023212909698486
1772567352656360000,4.15935986328125,-0.06834037601947784,0.18947167694568634,0.7338108420372009
1772567352666388700,4.169388671875,-0.07141899317502975,0.17067082226276398,0.7848069071769714
1772567352676416800,4.179416748046875,-0.0879911333322525,0.12505891919136047,0.8512455821037292
1772567352686445800,4.18944580078125,-0.03092917427420616,-0.00440478790551424,0.9255509972572327
1772567352696475000,4.199474853515625,0.11919896304607391,-0.1746940314769745,0.971497654914856
1772567352706504000,4.20950390625,0.3154606223106384,-0.3952367901802063,0.9576238989830017
1772567352716532700,4.21953271484375,0.509723424911499,-0.6385537981987,0.8715628981590271
1772567352726560800,4.229560791015625,0.6595088839530945,-0.8729218244552612,0.718180775642395
1772567352736589800,4.23958984375,0.7426154017448425,-1.1485906839370728,0.48488789796829224
1772567352746618600,4.24961865234375,0.6996396780014038,-1.3834974765777588,0.19057373702526093
1772567352756648000,4.25964794921875,0.5521792769432068,-1.5368688106536865,-0.1207628920674324
1772567352766675700,4.26967578125,0.39794254302978516,-1.6032390594482422,-0.39925816655158997
1772567352776704800,4.279704833984375,0.29246655106544495,-1.611820936203003,-0.6161497831344604
1772567352786733800,4.28973388671875,0.23987337946891785,-1.4870572090148926,-0.7551385760307312
1772567352796762600,4.2997626953125,0.239961177110672,-1.213809847831726,-0.8388829827308655
1772567352806791000,4.309791015625,0.280083566904068,-0.899772047996521,-0.8965465426445007
1772567352816820000,4.319820068359375,0.3265751302242279,-0.5933593511581421,-0.9355449080467224
1772567352826848800,4.329848876953125,0.34032371640205383,-0.3074452877044678,-0.9510591626167297
1772567352836877800,4.3398779296875,0.33260950446128845,-0.09840378165245056,-0.9651557803153992
1772567352846905600,4.349905517578125,0.3309583365917206,-0.002927592024207115,-0.9792412519454956
1772567352856935000,4.359934814453125,0.32506653666496277,-0.03415501490235329,-0.9725660085678101
1772567352866964000,4.3699638671875,0.3101493716239929,-0.09983708709478378,-0.9244171380996704
1772567352876993000,4.379992919921875,0.2991260588169098,-0.13687607645988464,-0.85647052526474
1772567352887020800,4.390020751953125,0.3161202073097229,-0.16789178550243378,-0.7756110429763794
1772567352897049900,4.4000498046875,0.35181060433387756,-0.24680644273757935,-0.6990496516227722
1772567352907078700,4.41007861328125,0.39006611704826355,-0.3693656325340271,-0.6406167149543762
1772567352917107700,4.420107666015625,0.41061481833457947,-0.49078893661499023,-0.6000590324401855
1772567352927135700,4.4301357421875,0.3723191022872925,-0.5469158291816711,-0.5698851346969604
1772567352937164800,4.440164794921875,0.2919626832008362,-0.45645612478256226,-0.5155307650566101
1772567352947193900,4.45019384765625,0.19275139272212982,-0.26503345370292664,-0.43470627069473267
1772567352957223000,4.460222900390625,0.08783204108476639,-0.06904029846191406,-0.33839449286460876
1772567352967251000,4.4702509765625,-0.030551593750715256,0.1695067584514618,-0.22151048481464386
1772567352977280000,4.480280029296875,-0.14590683579444885,0.4337465167045593,-0.0761050209403038
1772567352987308800,4.490308837890625,-0.2432003617286682,0.6557015180587769,0.07735458016395569
1772567352997337900,4.500337890625,-0.2953455448150635,0.719775915145874,0.21210511028766632
1772567353007365600,4.51036572265625,-0.28445079922676086,0.6888401508331299,0.3393823504447937
1772567353017394700,4.520394775390625,-0.2522796094417572,0.61432945728302,0.45875948667526245
1772567353027423700,4.530423828125,-0.23408515751361847,0.5287679433822632,0.5753971338272095
1772567353037453000,4.540453125,-0.22345726191997528,0.463789165019989,0.671658992767334
1772567353047480800,4.550480712890625,-0.2080058604478836,0.40236708521842957,0.7304621338844299
1772567353057510000,4.560510009765625,-0.1906987726688385,0.35009199380874634,0.7316818833351135
1772567353067538700,4.57053857421875,-0.16993170976638794,0.31625568866729736,0.6978704333305359
1772567353077567700,4.580567626953125,-0.13916459679603577,0.3058168590068817,0.6484662890434265
1772567353087596800,4.5905966796875,-0.12455983459949493,0.33068305253982544,0.6075398921966553
1772567353097624800,4.600624755859375,-0.1144673153758049,0.3688366413116455,0.6001645922660828
1772567353107654000,4.61065380859375,-0.09635542333126068,0.39529383182525635,0.6185721158981323
1772567353117683000,4.620682861328125,-0.05884589999914169,0.3618758022785187,0.685211181640625
1772567353127711000,4.6307109375,-0.04476017504930496,0.343208909034729,0.8248039484024048
1772567353137739800,4.64073974609375,-0.07094867527484894,0.37575453519821167,1.02195405960083
1772567353147771000,4.65077099609375,-0.11249584704637527,0.39966490864753723,1.223252534866333
1772567353157800000,4.660800048828125,-0.11670973896980286,0.3431292176246643,1.3604271411895752
1772567353167828000,4.670827880859375,-0.035770680755376816,0.13726580142974854,1.3590567111968994
1772567353177857000,4.68085693359375,0.19208386540412903,-0.17886294424533844,1.2595542669296265
1772567353187886000,4.690885986328125,0.5371496677398682,-0.49710404872894287,1.1019213199615479
1772567353197915000,4.700914794921875,0.9253705143928528,-1.0222975015640259,0.8814647793769836
1772567353207943000,4.71094287109375,1.2540383338928223,-1.6127623319625854,0.6552899479866028
1772567353217972000,4.720971923828125,1.3943616151809692,-2.0353446006774902,0.4807816743850708
1772567353228000800,4.731000732421875,1.329299807548523,-2.246652364730835,0.33708256483078003
1772567353238030000,4.741030029296875,1.1234253644943237,-2.1161444187164307,0.2006765902042389
1772567353248057900,4.751057861328125,0.829757571220398,-1.57487952709198,0.027076050639152527
1772567353258087000,4.7610869140625,0.5210511684417725,-0.7396664619445801,-0.24160417914390564
1772567353268116000,4.771115966796875,0.26430776715278625,0.1156119704246521,-0.5987700819969177
1772567353278144800,4.781144775390625,0.10377244651317596,0.7752044796943665,-0.9930432438850403
1772567353288173000,4.791173095703125,0.05144000053405762,1.1530671119689941,-1.352306604385376
1772567353298202000,4.8012021484375,0.05744904652237892,1.2366403341293335,-1.598491907119751
1772567353308231000,4.81123095703125,0.05558856204152107,1.0452791452407837,-1.6925175189971924
1772567353318260000,4.821260009765625,0.011818675324320793,0.6513429880142212,-1.681765079498291
1772567353328287700,4.831287841796875,-0.08671535551548004,0.12141627073287964,-1.6002449989318848
1772567353338316800,4.84131689453125,-0.18625107407569885,-0.4447565972805023,-1.4892542362213135
1772567353348346000,4.85134619140625,-0.21406912803649902,-0.9292553663253784,-1.370408296585083
1772567353358375000,4.861375,-0.1723819077014923,-1.2292512655258179,-1.2335782051086426
1772567353368403000,4.87140283203125,-0.10762156546115875,-1.4589853286743164,-1.092552900314331
1772567353378432000,4.881431884765625,-0.012692722491919994,-1.6112843751907349,-0.9167071580886841
1772567353388460800,4.891460693359375,0.09300867468118668,-1.6278804540634155,-0.7469133138656616
1772567353398489900,4.90148974609375,0.15680846571922302,-1.4953349828720093,-0.6169008612632751
1772567353408518000,4.911517822265625,0.16319552063941956,-1.212773084640503,-0.5556824803352356
1772567353418547000,4.921546875,0.12028414011001587,-0.8593807816505432,-0.5664072632789612
1772567353428576000,4.931575927734375,0.014082065783441067,-0.5346961617469788,-0.5796487331390381
1772567353438604800,4.941604736328125,-0.15114453434944153,-0.203072652220726,-0.5315526127815247
1772567353448632800,4.9516328125,-0.3512589931488037,0.12335339188575745,-0.42304638028144836
1772567353458662100,4.961662109375,-0.5397884845733643,0.4238595962524414,-0.2898407578468323
1772567353468691000,4.97169091796875,-0.6864716410636902,0.6781046390533447,-0.15485656261444092
1772567353478720000,4.981719970703125,-0.7625037431716919,0.8490647077560425,-0.04187999293208122
1772567353488747800,4.991747802734375,-0.7778669595718384,0.980229914188385,0.0608045719563961
1772567353498776800,5.00177685546875,-0.7604113221168518,1.080225944519043,0.14744813740253448
1772567353508806000,5.011805908203125,-0.7232838869094849,1.1656513214111328,0.2291446030139923
1772567353518835000,5.0218349609375,-0.669791579246521,1.2455999851226807,0.29563775658607483
1772567353528863000,5.031863037109375,-0.5962889194488525,1.2518914937973022,0.3333422541618347
1772567353538892000,5.04189208984375,-0.5072106719017029,1.2542085647583008,0.36697956919670105
1772567353548920800,5.0519208984375,-0.3980562388896942,1.2787386178970337,0.407258003950119
1772567353558950000,5.061949951171875,-0.28191331028938293,1.2610902786254883,0.4500322937965393
1772567353568978000,5.07197802734375,-0.1844235062599182,1.163159966468811,0.5229427218437195
1772567353579007000,5.082007080078125,-0.12144654989242554,1.0271867513656616,0.6482173800468445
1772567353589036000,5.0920361328125,-0.09095947444438934,0.8441812992095947,0.8021445870399475
1772567353599065000,5.102065185546875,-0.1110939159989357,0.6329681873321533,0.9647379517555237
1772567353609092900,5.1120927734375,-0.20024268329143524,0.5308213233947754,1.1450802087783813
1772567353619122000,5.122121826171875,-0.3521408438682556,0.5600625276565552,1.3136179447174072
1772567353629151000,5.13215087890625,-0.5157931447029114,0.6375653147697449,1.4204126596450806
1772567353639180000,5.142179931640625,-0.5975325703620911,0.7108081579208374,1.4437881708145142
1772567353649207800,5.152207763671875,-0.5204681158065796,0.7358437776565552,1.4230464696884155
1772567353659236900,5.16223681640625,-0.25701460242271423,0.6767814755439758,1.372043251991272
1772567353669266000,5.172265869140625,0.15235428512096405,0.5623592734336853,1.3457701206207275
1772567353679295000,5.182294921875,0.6080545783042908,0.5001351833343506,1.323974847793579
1772567353689323000,5.192322998046875,0.991117000579834,0.3828490674495697,1.1947081089019775
1772567353699352000,5.20235205078125,1.2236955165863037,0.2805212438106537,0.9188047051429749
1772567353709380900,5.212380859375,1.24452805519104,0.16113118827342987,0.5115247964859009
1772567353719410000,5.222409912109375,1.0421404838562012,0.00006659235805273056,0.03913251310586929
1772567353729439000,5.23243896484375,0.6963457465171814,-0.1625276505947113,-0.3793387711048126
1772567353739467000,5.242467041015625,0.3205658793449402,-0.3024398386478424,-0.6597282290458679
1772567353749496000,5.25249609375,0.0069480473175644875,-0.36616209149360657,-0.7934690117835999
1772567353759525000,5.262525146484375,-0.20525531470775604,-0.40672409534454346,-0.8473733067512512
1772567353769554000,5.272553955078125,-0.3284086585044861,-0.4729563891887665,-0.8560258746147156
1772567353779582000,5.28258203125,-0.3970302939414978,-0.5546891093254089,-0.8734571933746338
1772567353789610800,5.29261083984375,-0.42367520928382874,-0.6790936589241028,-0.9357306957244873
1772567353799640000,5.30264013671875,-0.3973939120769501,-0.8310099244117737,-1.018860936164856
1772567353809669000,5.312669189453125,-0.3102366328239441,-0.9206575155258179,-1.0696053504943848
1772567353819697000,5.32269677734375,-0.16921959817409515,-0.9705064296722412,-1.086076021194458
1772567353829726000,5.332725830078125,0.01661311648786068,-1.0338006019592285,-1.0639667510986328
1772567353839755000,5.342755126953125,0.2034883201122284,-1.151039719581604,-1.0220855474472046
1772567353849783800,5.35278369140625,0.3310662508010864,-1.2964891195297241,-0.9547376036643982
1772567353859812000,5.36281201171875,0.3501630425453186,-1.4387242794036865,-0.8677719235420227
1772567353869841000,5.3728408203125,0.2704969644546509,-1.588187336921692,-0.7710744142532349
1772567353879870000,5.382869873046875,0.13675346970558167,-1.6938155889511108,-0.6704840660095215
1772567353889899000,5.39289892578125,-0.0110674062743783,-1.707553744316101,-0.577194333076477
1772567353899926800,5.4029267578125,-0.16047415137290955,-1.6169071197509766,-0.4852914810180664
1772567353909956000,5.4129560546875,-0.33226215839385986,-1.3700324296951294,-0.391891747713089
1772567353919985200,5.422985107421875,-0.5016771554946899,-0.9499793648719788,-0.3162471354007721
1772567353930014000,5.433013916015625,-0.6382603049278259,-0.3945392966270447,-0.2640816867351532
1772567353940042000,5.4430419921875,-0.7087314128875732,0.22353391349315643,-0.24731743335723877
1772567353950070800,5.45307080078125,-0.7284276485443115,0.8265604376792908,-0.26139968633651733
1772567353960099800,5.463099853515625,-0.7254416346549988,1.3285611867904663,-0.2935384213924408
1772567353970129000,5.47312890625,-0.7350543141365051,1.6553655862808228,-0.32771265506744385
1772567353980157000,5.483156982421875,-0.7321799993515015,1.8258157968521118,-0.3473037779331207
1772567353990186000,5.49318603515625,-0.6893638372421265,1.80886709690094,-0.34303367137908936
1772567354000215000,5.503215087890625,-0.602392852306366,1.6136000156402588,-0.30232957005500793
1772567354010243800,5.513243896484375,-0.48783883452415466,1.2777225971221924,-0.1965211033821106
1772567354020272000,5.523272216796875,-0.35824325680732727,0.8570526838302612,-0.0449572429060936
1772567354030301000,5.533301025390625,-0.23815332353115082,0.49943381547927856,0.13662800192832947
1772567354040330000,5.543330078125,-0.1561473160982132,0.2307410091161728,0.3329104483127594
1772567354050359000,5.553359130859375,-0.09857377409934998,0.03971833363175392,0.5389421582221985
1772567354060386800,5.56338671875,-0.033493589609861374,-0.11157125234603882,0.7416563034057617
1772567354070416000,5.573415771484375,0.07269064337015152,-0.2563832998275757,0.938134491443634
1772567354080445000,5.58344482421875,0.19854696094989777,-0.3240707218647003,1.127617359161377
1772567354090474000,5.593473876953125,0.2823140025138855,-0.2668907940387726,1.27240788936615
1772567354100502000,5.603501953125,0.26022642850875854,-0.187469482421875,1.3166391849517822
1772567354110530800,5.61353076171875,0.11175734549760818,-0.13773494958877563,1.2431575059890747
1772567354120560000,5.62356005859375,-0.1511603146791458,0.004680057056248188,1.0945581197738647
1772567354130589200,5.633589111328125,-0.3981003165245056,0.12524563074111938,0.8839476704597473
1772567354140617200,5.6436171875,-0.4480198323726654,0.10744719207286835,0.6727153658866882
1772567354150646300,5.653646240234375,-0.21890676021575928,0.06867076456546783,0.5837250351905823
1772567354160675000,5.663675048828125,0.19211971759796143,0.1620490401983261,0.6939727067947388
1772567354170704100,5.6737041015625,0.6222575306892395,0.37531575560569763,0.9161221385002136
1772567354180732200,5.683732177734375,0.9862317442893982,0.5571058392524719,1.093550443649292
1772567354190761200,5.69376123046875,1.2680654525756836,0.7137734293937683,1.1231567859649658
1772567354200790300,5.703790283203125,1.4250200986862183,0.7400942444801331,0.9417662024497986
1772567354210819300,5.7138193359375,1.4205307960510254,0.6101972460746765,0.5753628611564636
1772567354220847000,5.72384716796875,1.2806456089019775,0.3741210103034973,0.11416088044643402
1772567354230876200,5.733876220703125,1.0807982683181763,0.07065248489379883,-0.33930808305740356
1772567354240905000,5.743905029296875,0.8509553670883179,-0.2976493835449219,-0.7182329297065735
1772567354250934000,5.75393408203125,0.5935891270637512,-0.695285975933075,-1.00351083278656
1772567354260962300,5.76396240234375,0.305458664894104,-0.9833092093467712,-1.1755059957504272
1772567354270991000,5.7739912109375,0.0039020245894789696,-1.1302111148834229,-1.2360455989837646
1772567354281020200,5.784020263671875,-0.26920655369758606,-1.0370795726776123,-1.1665434837341309
1772567354291049200,5.79404931640625,-0.4618910551071167,-0.6837260127067566,-1.0054150819778442
1772567354301077200,5.8040771484375,-0.5607886910438538,-0.187750443816185,-0.8622714877128601
1772567354311106300,5.814106201171875,-0.5753910541534424,0.2842133939266205,-0.8011907935142517
1772567354321135000,5.824135009765625,-0.5701932311058044,0.6488873362541199,-0.8237727284431458
1772567354331164200,5.8341640625,-0.5934399962425232,0.9034078121185303,-0.8919773697853088
1772567354341192200,5.844192138671875,-0.659704327583313,1.0014835596084595,-0.991268515586853
1772567354351221000,5.854220947265625,-0.7766472101211548,0.9385879635810852,-1.0808866024017334
1772567354361250000,5.86425,-0.9117538332939148,0.7009382247924805,-1.1396912336349487
1772567354371279400,5.874279296875,-1.0477888584136963,0.318423330783844,-1.1443309783935547
1772567354381307100,5.88430712890625,-1.120578408241272,-0.11033894121646881,-1.0695701837539673
1772567354391336200,5.894336181640625,-1.101434588432312,-0.4250737130641937,-0.9292402863502502
1772567354401365000,5.904364990234375,-1.0059680938720703,-0.6607541441917419,-0.7332119941711426
1772567354411394000,5.91439404296875,-0.8707264065742493,-0.7294751405715942,-0.4978533089160919
1772567354421422300,5.92442236328125,-0.7109140157699585,-0.6093347668647766,-0.24967792630195618
1772567354431451100,5.934451171875,-0.5575186014175415,-0.407901793718338,-0.04033908620476723
1772567354441480200,5.944480224609375,-0.4472391605377197,-0.16379716992378235,0.11326035857200623
1772567354451509200,5.95450927734375,-0.41925734281539917,0.12351477146148682,0.2052725851535797
1772567354461537000,5.964537109375,-0.4741477966308594,0.3582817316055298,0.22037017345428467
1772567354471566000,5.974566162109375,-0.5990691781044006,0.5056661367416382,0.17464475333690643
1772567354481595100,5.98459521484375,-0.766523003578186,0.6003694534301758,0.06310112029314041
1772567354491624200,5.994624267578125,-0.9342046976089478,0.6684315800666809,-0.09663181751966476
1772567354501652200,6.00465234375,-1.0975703001022339,0.688934326171875,-0.281046062707901
1772567354511681000,6.014680908203125,-1.2967076301574707,0.6879436373710632,-0.4909074008464813
1772567354521710000,6.0247099609375,-1.4669783115386963,0.653852105140686,-0.6853334307670593
1772567354531739100,6.0347392578125,-1.5528827905654907,0.5867795944213867,-0.7409037351608276
1772567354541767200,6.04476708984375,-1.5837970972061157,0.4932044744491577,-0.5661795735359192
1772567354551796200,6.054796142578125,-1.5978477001190186,0.36394447088241577,-0.17052623629570007
1772567354561825000,6.064824951171875,-1.633431315422058,0.33895477652549744,0.3965226709842682
1772567354571854000,6.07485400390625,-1.6757519245147705,0.38456806540489197,0.99753737449646
1772567354581882000,6.084882080078125,-1.679709792137146,0.4724087715148926,1.5027512311935425
1772567354591911200,6.0949111328125,-1.6601085662841797,0.5518266558647156,1.8894575834274292
1772567354601940200,6.104940185546875,-1.591627836227417,0.4669792056083679,2.1212713718414307
1772567354611969300,6.11496923828125,-1.4587703943252563,0.31852129101753235,2.2247350215911865
1772567354621997000,6.1249970703125,-1.304397463798523,0.21225734055042267,2.2072322368621826
1772567354632026000,6.135026123046875,-1.1258175373077393,0.1058289110660553,2.0561609268188477
1772567354642055200,6.14505517578125,-0.9354552030563354,-0.058443088084459305,1.7653783559799194
1772567354652084200,6.155084228515625,-0.693695068359375,-0.23878276348114014,1.3845365047454834
1772567354662112300,6.1651123046875,-0.4030846953392029,-0.2541421949863434,1.090265154838562
1772567354672141000,6.17514111328125,-0.11047707498073578,-0.2715584635734558,0.9352068305015564
1772567354682170000,6.185170166015625,0.15396226942539215,-0.4115689694881439,0.8933359980583191
1772567354692199200,6.19519921875,0.393907755613327,-0.670423150062561,0.9307906627655029
1772567354702227200,6.205227294921875,0.5717681050300598,-0.9428335428237915,0.974190890789032
1772567354712256300,6.21525634765625,0.6806769967079163,-1.1725387573242188,0.9418268799781799
1772567354722285300,6.225285400390625,0.745430588722229,-1.29470694065094,0.7724960446357727
1772567354732314000,6.235314208984375,0.770089328289032,-1.2544993162155151,0.4658980369567871
1772567354742342100,6.245342041015625,0.7217204570770264,-1.1104532480239868,0.043124720454216
1772567354752371200,6.25537109375,0.5855503678321838,-0.9694178104400635,-0.46474114060401917
1772567354762400300,6.265400146484375,0.3558598458766937,-0.8430603742599487,-0.981561005115509
1772567354772429300,6.27542919921875,0.08332924544811249,-0.7010611295700073,-1.4249762296676636
1772567354782457000,6.28545703125,-0.15394698083400726,-0.5293521881103516,-1.7291852235794067
1772567354792486100,6.295486083984375,-0.3347228765487671,-0.3289754092693329,-1.8536895513534546
1772567354802515200,6.30551513671875,-0.443037211894989,-0.1338527649641037,-1.8070368766784668
1772567354812544000,6.3155439453125,-0.48649919033050537,0.02139514870941639,-1.6154762506484985
1772567354822572300,6.325572265625,-0.46470481157302856,0.09316212683916092,-1.339474081993103
1772567354832601000,6.33560107421875,-0.37464016675949097,0.02126823551952839,-1.0066421031951904
1772567354842630100,6.345630126953125,-0.2515445649623871,-0.21025043725967407,-0.642689049243927
1772567354852659200,6.3556591796875,-0.15250562131404877,-0.4936597943305969,-0.29908883571624756
1772567354862687200,6.365687255859375,-0.09669621288776398,-0.7754147052764893,-0.054586343467235565
1772567354872716300,6.37571630859375,-0.09030303359031677,-1.0161770582199097,0.0437636598944664
1772567354882745300,6.385745361328125,-0.11382173746824265,-1.1792598962783813,0.015209829434752464
1772567354892774100,6.395774169921875,-0.15270841121673584,-1.2718948125839233,-0.07071280479431152
1772567354902802200,6.40580224609375,-0.18528907001018524,-1.304673194885254,-0.17279088497161865
1772567354912831000,6.4158310546875,-0.1473134607076645,-1.1766409873962402,-0.24265038967132568
1772567354922860000,6.425860107421875,-0.009071435779333115,-0.9076007008552551,-0.24448855221271515
1772567354932889300,6.435889404296875,0.16218793392181396,-0.5314233899116516,-0.15151412785053253
1772567354942917000,6.445917236328125,0.28921371698379517,-0.15033744275569916,0.00743477139621973
1772567354952946200,6.4559462890625,0.3121757507324219,0.16990980505943298,0.157274067401886
1772567354962975200,6.465975341796875,0.24436496198177338,0.36095234751701355,0.2765984833240509
1772567354973004000,6.476004150390625,0.12539196014404297,0.4375922679901123,0.34728968143463135
1772567354983032300,6.4860322265625,-0.01359681598842144,0.4234134256839752,0.3692021667957306
1772567354993061000,6.49606103515625,-0.16524147987365723,0.3583505153656006,0.36596935987472534
1772567355003090200,6.506090087890625,-0.3002024292945862,0.2675619125366211,0.3435482978820801
1772567355013119200,6.516119140625,-0.4054950475692749,0.1338302046060562,0.31739553809165955
1772567355023147000,6.52614697265625,-0.4509377181529999,0.05666003376245499,0.32884714007377625
1772567355033176000,6.536176025390625,-0.41642847657203674,0.08111557364463806,0.3382459878921509
1772567355043205400,6.546205322265625,-0.29834917187690735,0.1501740962266922,0.3198716938495636
1772567355053234200,6.556234130859375,-0.11214201152324677,0.29157382249832153,0.26307177543640137
1772567355063262200,6.56626220703125,0.0832032710313797,0.4362461566925049,0.19893042743206024
1772567355073291000,6.576291015625,0.21203236281871796,0.47653552889823914,0.15527482330799103
1772567355083320000,6.586320068359375,0.22616010904312134,0.39639973640441895,0.1353132128715515
1772567355093349000,6.59634912109375,0.141117662191391,0.3077585697174072,0.17227734625339508
1772567355103377200,6.606377197265625,0.026086440309882164,0.22055867314338684,0.2617620527744293
1772567355113406200,6.61640625,-0.09775134921073914,0.07147838175296783,0.37921571731567383
1772567355123435300,6.626435302734375,-0.24872881174087524,-0.08585415780544281,0.48963963985443115
1772567355133464300,6.63646435546875,-0.38004398345947266,-0.23271632194519043,0.5859174728393555
1772567355143492000,6.6464921875,-0.40155163407325745,-0.29075634479522705,0.68000727891922
1772567355153521400,6.656521484375,-0.2733614444732666,-0.2031753659248352,0.791936993598938
1772567355163550500,6.666550537109375,-0.01721399649977684,-0.003857477568089962,0.8641147613525391
1772567355173578200,6.676578125,0.2594152092933655,0.17265257239341736,0.841773509979248
1772567355183607300,6.686607177734375,0.42862844467163086,0.25754886865615845,0.7220414280891418
1772567355193636000,6.696635986328125,0.466874897480011,0.19524529576301575,0.4640634059906006
1772567355203665200,6.7066650390625,0.3979511260986328,0.026070475578308105,0.10926057398319244
1772567355213694200,6.716694091796875,0.2604457437992096,-0.20240557193756104,-0.2505894601345062
1772567355223722200,6.72672216796875,0.1114027202129364,-0.46677786111831665,-0.5552148818969727
1772567355233751300,6.736751220703125,-0.030675265938043594,-0.716626763343811,-0.7690362334251404
1772567355243780400,6.7467802734375,-0.19258874654769897,-0.8622239828109741,-0.856528103351593
1772567355253808400,6.756808349609375,-0.3422781229019165,-0.805438220500946,-0.8277432918548584
1772567355263837400,6.76683740234375,-0.4213685989379883,-0.6066482663154602,-0.7562307715415955
1772567355273866200,6.7768662109375,-0.38619330525398254,-0.35840731859207153,-0.6925849318504333
1772567355283895300,6.786895263671875,-0.2794092297554016,-0.13582678139209747,-0.6600930690765381
1772567355293923300,6.79692333984375,-0.15857520699501038,0.0007699467241764069,-0.6562804579734802
1772567355303952100,6.8069521484375,-0.06743419170379639,0.020938869565725327,-0.668101966381073
1772567355313981200,6.816981201171875,-0.02149599976837635,-0.09281352162361145,-0.7019147872924805
1772567355324010500,6.827010498046875,-0.019545845687389374,-0.31507599353790283,-0.7350819706916809
1772567355334038300,6.837038330078125,-0.03326405584812164,-0.6350123882293701,-0.7413446307182312
1772567355344067300,6.8470673828125,-0.04904910922050476,-0.9721537828445435,-0.678370475769043
1772567355354096000,6.85709619140625,-0.05784526467323303,-1.246590495109558,-0.5663496255874634
1772567355364125200,6.867125244140625,-0.06806536763906479,-1.3403620719909668,-0.42388394474983215
1772567355374153500,6.877153564453125,-0.07093359529972076,-1.195310115814209,-0.27330589294433594
1772567355384182300,6.887182373046875,-0.08288896828889847,-0.8625843524932861,-0.1704636961221695
1772567355394211300,6.89721142578125,-0.10138382017612457,-0.41249603033065796,-0.12287379801273346
1772567355404240400,6.907240478515625,-0.10966191440820694,0.06938662379980087,-0.12272654473781586
1772567355414268200,6.91726806640625,-0.11670171469449997,0.5217780470848083,-0.14255057275295258
1772567355424297200,6.927297119140625,-0.13141664862632751,0.8984602689743042,-0.1413625329732895
1772567355434326300,6.937326171875,-0.15084467828273773,1.1443277597427368,-0.11861035227775574
1772567355444355300,6.947355224609375,-0.1851898431777954,1.2162656784057617,-0.057943470776081085
1772567355454383400,6.95738330078125,-0.23126812279224396,1.1149688959121704,0.03443359583616257
1772567355464412200,6.967412109375,-0.297380656003952,0.903069257736206,0.16462695598602295
1772567355474441200,6.977441162109375,-0.3265441358089447,0.6944262981414795,0.3052932620048523
1772567355484470300,6.98747021484375,-0.32631176710128784,0.5545812249183655,0.4324452877044678
1772567355494498300,6.997498291015625,-0.3032322824001312,0.5018623471260071,0.5271078944206238
1772567355504527400,7.00752734375,-0.26037657260894775,0.538087010383606,0.5999680757522583
1772567355514556200,7.01755615234375,-0.20366722345352173,0.6242573261260986,0.6488546133041382
1772567355524585200,7.027585205078125,-0.1508633941411972,0.6880950331687927,0.6624490022659302
1772567355534613200,7.03761328125,-0.09082616120576859,0.6707078218460083,0.6520525813102722
1772567355544642300,7.047642333984375,-0.0010422905907034874,0.5995410680770874,0.6516491174697876
1772567355554671400,7.05767138671875,0.09415320307016373,0.49452170729637146,0.6776930093765259
1772567355564700400,7.067700439453125,0.18104679882526398,0.330681711435318,0.6934244632720947
1772567355574728200,7.077728271484375,0.2758582830429077,0.12924127280712128,0.6708557605743408
1772567355584757200,7.08775732421875,0.3234129548072815,0.016321945935487747,0.5782396197319031
1772567355594786000,7.0977861328125,0.3139249086380005,0.12489928305149078,0.4370742738246918
1772567355604815400,7.1078154296875,0.3361413776874542,0.3888033926486969,0.33412107825279236
1772567355614843400,7.117843505859375,0.37450289726257324,0.5759226679801941,0.3266061842441559
1772567355624872200,7.1278720703125,0.3935985863208771,0.6338185667991638,0.4185943007469177
1772567355634901200,7.1379013671875,0.38768503069877625,0.5928612947463989,0.5806068778038025
1772567355644930300,7.147930419921875,0.35392460227012634,0.5412586331367493,0.7466321587562561
1772567355654958300,7.157958251953125,0.28689044713974,0.5022744536399841,0.8473550081253052
1772567355664987400,7.1679873046875,0.1833353191614151,0.40222644805908203,0.8450581431388855
1772567355675016200,7.17801611328125,0.04091693088412285,0.2751558721065521,0.7428255081176758
1772567355685045200,7.188045166015625,-0.09849882125854492,0.061098434031009674,0.5442208647727966
1772567355695073300,7.1980732421875,-0.20409396290779114,-0.1492374986410141,0.2689259350299835
1772567355705102000,7.20810205078125,-0.28144633769989014,-0.2672652304172516,-0.062343865633010864
1772567355715131400,7.21813134765625,-0.3207434117794037,-0.34435999393463135,-0.4200708568096161
1772567355725160400,7.228160400390625,-0.32889506220817566,-0.41804051399230957,-0.7630326747894287
1772567355735188200,7.238188232421875,-0.3203199505805969,-0.47660237550735474,-1.058029294013977
1772567355745217300,7.24821728515625,-0.29515960812568665,-0.45604610443115234,-1.2790613174438477
1772567355755246000,7.25824609375,-0.22571797668933868,-0.30151912569999695,-1.3906155824661255
1772567355765274400,7.2682744140625,-0.1366623193025589,-0.07037059217691422,-1.4052363634109497
1772567355775303400,7.278303466796875,-0.0853930115699768,0.1285233348608017,-1.345008373260498
1772567355785332200,7.288332275390625,-0.08794953674077988,0.28578177094459534,-1.237921118736267
1772567355795361300,7.298361328125,-0.12596270442008972,0.3815642297267914,-1.1132962703704834
1772567355805389000,7.30838916015625,-0.20898859202861786,0.38510552048683167,-1.0062824487686157
1772567355815418400,7.31841845703125,-0.3115852475166321,0.3107522130012512,-0.9221164584159851
1772567355825447400,7.328447509765625,-0.40294596552848816,0.13794226944446564,-0.8575259447097778
1772567355835476500,7.3384765625,-0.46424955129623413,-0.08781629055738449,-0.7952284812927246
1772567355845504300,7.348504150390625,-0.4535668194293976,-0.26879653334617615,-0.7188236713409424
1772567355855533300,7.358533203125,-0.3685570955276489,-0.35244321823120117,-0.6261648535728455
1772567355865562000,7.36856201171875,-0.28011947870254517,-0.3624691665172577,-0.5264915227890015
1772567355875591200,7.378591064453125,-0.2086583375930786,-0.29610690474510193,-0.4403369426727295
1772567355885619200,7.388619140625,-0.1461412012577057,-0.12756888568401337,-0.3677315413951874
1772567355895648300,7.398648193359375,-0.09466283023357391,0.08127914369106293,-0.2905805706977844
1772567355905677300,7.40867724609375,-0.08917032182216644,0.26580289006233215,-0.20188744366168976
1772567355915706400,7.418706298828125,-0.1377069652080536,0.4180006980895996,-0.09492132067680359
1772567355925734400,7.428734375,-0.2107129693031311,0.5620696544647217,-0.006818278692662716
1772567355935763500,7.438763427734375,-0.26229068636894226,0.7050307989120483,0.06125930696725845
1772567355945792300,7.448792236328125,-0.28586843609809875,0.8184167742729187,0.12813898921012878
1772567355955821300,7.4588212890625,-0.29197028279304504,0.9036981463432312,0.2294568121433258
1772567355965849300,7.468849365234375,-0.257106214761734,0.9480209350585938,0.3410968482494354
1772567355975878100,7.478878173828125,-0.17631123960018158,0.9448131322860718,0.4580085575580597
1772567355985907200,7.4889072265625,-0.05620889365673065,0.9417093992233276,0.5560359954833984
1772567355995936500,7.4989365234375,0.08795946836471558,0.9722415208816528,0.6479374170303345
1772567356005964300,7.50896435546875,0.23202921450138092,1.0211819410324097,0.7098769545555115
1772567356015993300,7.518993408203125,0.367727667093277,1.081080436706543,0.7418109178543091
1772567356026022100,7.529022216796875,0.4784150719642639,1.0572867393493652,0.7045236229896545
1772567356036051200,7.53905126953125,0.49568143486976624,0.9880273938179016,0.5973151922225952
1772567356046079500,7.54907958984375,0.44721511006355286,0.954940140247345,0.4770355224609375
1772567356056108300,7.5591083984375,0.3899976313114166,0.8639740347862244,0.3936290442943573
1772567356066137300,7.569137451171875,0.32984456419944763,0.6194875240325928,0.3728971779346466
1772567356076166400,7.57916650390625,0.29655319452285767,0.3964349925518036,0.4416983425617218
1772567356086194200,7.589194091796875,0.31344595551490784,0.271232932806015,0.6201257705688477
1772567356096223200,7.59922314453125,0.38723814487457275,0.14123952388763428,0.866813063621521
1772567356106252300,7.609252197265625,0.5048580169677734,0.02838807739317417,1.128877878189087
1772567356116281300,7.61928125,0.6432888507843018,-0.03613285720348358,1.3614331483840942
1772567356126313200,7.629313232421875,0.7620869874954224,0.009338101372122765,1.4915589094161987
1772567356136342000,7.639342041015625,0.8350709080696106,0.17038585245609283,1.4361544847488403
1772567356146371000,7.64937109375,0.8247374892234802,0.29506513476371765,1.138520359992981
1772567356156400000,7.659400146484375,0.7450562715530396,0.19052913784980774,0.623470664024353
1772567356166428200,7.66942822265625,0.6182818412780762,-0.2034308910369873,0.027858978137373924
1772567356176457200,7.679457275390625,0.4562617838382721,-0.7956023216247559,-0.4771461486816406
1772567356186486300,7.689486328125,0.26219990849494934,-1.3216872215270996,-0.7661850452423096
1772567356196514000,7.69951416015625,0.027404172345995903,-1.6317228078842163,-0.8323092460632324
1772567356206543000,7.709543212890625,-0.2524026334285736,-1.49886953830719,-0.7180152535438538
1772567356216572200,7.719572265625,-0.4882175624370575,-0.9222849607467651,-0.5029343366622925
1772567356226601200,7.729601318359375,-0.5828651189804077,-0.16648747026920319,-0.3145124316215515
1772567356236629200,7.739629150390625,-0.5220388174057007,0.44520679116249084,-0.26436296105384827
1772567356246658000,7.749657958984375,-0.3990706205368042,0.8440064191818237,-0.3385887145996094
1772567356256687000,7.75968701171875,-0.2644504904747009,1.0776631832122803,-0.4809093773365021
1772567356266716200,7.769716064453125,-0.12886130809783936,1.1201850175857544,-0.6553977727890015
1772567356276744200,7.779744140625,-0.04247714579105377,0.9428404569625854,-0.8112504482269287
1772567356286773200,7.789773193359375,-0.08938253670930862,0.3968425691127777,-0.9330717921257019
1772567356296802000,7.799802001953125,-0.20941786468029022,-0.5305101275444031,-0.9999467134475708
1772567356306831000,7.8098310546875,-0.2773891091346741,-1.6377047300338745,-0.9608174562454224
1772567356316859100,7.819859130859375,-0.2675894796848297,-2.600625991821289,-0.8156014084815979
1772567356326888200,7.82988818359375,-0.215223491191864,-3.1750600337982178,-0.595764696598053
1772567356336917200,7.839917236328125,-0.10835350304841995,-3.205414295196533,-0.3044883608818054
1772567356346946300,7.8499462890625,0.07060286402702332,-2.793242931365967,0.0007935981266200542
1772567356356974000,7.85997412109375,0.24801813066005707,-2.144575357437134,0.28350865840911865
1772567356367003100,7.870003173828125,0.3350521922111511,-1.4244768619537354,0.5068650245666504
1772567356377032000,7.880031982421875,0.287885457277298,-0.7380989789962769,0.6238504648208618
1772567356387061000,7.89006103515625,0.14714626967906952,-0.11471059918403625,0.6035411953926086
1772567356397089300,7.90008935546875,-0.04266254976391792,0.32709556818008423,0.4195612072944641
1772567356407118000,7.9101181640625,-0.2444339245557785,0.5674154758453369,0.11194616556167603
1772567356417147100,7.920147216796875,-0.40526407957077026,0.6235186457633972,-0.2237391620874405
1772567356427176200,7.93017626953125,-0.49787741899490356,0.5261915922164917,-0.4995996952056885
1772567356437204200,7.940204345703125,-0.5155890583992004,0.3604077100753784,-0.6559805274009705
1772567356447233300,7.9502333984375,-0.48740336298942566,0.16388437151908875,-0.6718437075614929
1772567356457262000,7.960261962890625,-0.41659629344940186,0.06148475408554077,-0.5700971484184265
1772567356467291100,7.970291015625,-0.30790337920188904,0.12327338010072708,-0.36906978487968445
1772567356477319200,7.980319091796875,-0.1888696700334549,0.23735493421554565,-0.13766078650951385
1772567356487348000,7.990347900390625,-0.10469667613506317,0.2970721125602722,0.08048101514577866
1772567356497377300,8.000377197265625,-0.04867389425635338,0.31897687911987305,0.25344613194465637
1772567356507404000,8.010404052734375,-0.023828066885471344,0.2924931049346924,0.35985231399536133
1772567356517432300,8.020432373046875,-0.04017294943332672,0.1556985080242157,0.37506455183029175
1772567356527461000,8.030461181640625,-0.12910276651382446,-0.11763318628072739,0.28070497512817383
1772567356537490200,8.040490234375,-0.24455666542053223,-0.4895566999912262,0.09448076784610748
1772567356547519200,8.050519287109376,-0.3164873719215393,-0.8510448336601257,-0.12287893146276474
1772567356557547000,8.060547119140624,-0.29307231307029724,-1.0568903684616089,-0.2972051799297333
1772567356567576000,8.070576171875,-0.13007418811321259,-1.1196719408035278,-0.343585729598999
1772567356577605000,8.080605224609375,0.0997273176908493,-0.9840003848075867,-0.20925429463386536
1772567356587634200,8.09063427734375,0.24345232546329498,-0.5891115069389343,0.11242666840553284
1772567356597662200,8.100662109375,0.27262699604034424,-0.002304202876985073,0.5254102349281311
1772567356607691000,8.11069091796875,0.2580563426017761,0.680014967918396,0.9391297698020935
1772567356617720000,8.120719970703124,0.25948405265808105,1.177536964416504,1.2305928468704224
1772567356627749000,8.1307490234375,0.2684556841850281,1.2379173040390015,1.2793503999710083
1772567356637777200,8.140777099609375,0.34144654870033264,0.9575993418693542,1.148464560508728
1772567356647806200,8.15080615234375,0.4856324791908264,0.5425600409507751,0.9357704520225525
1772567356657835300,8.160835205078126,0.6230830550193787,0.07307560741901398,0.6799759864807129
1772567356667864000,8.170864013671874,0.6988339424133301,-0.3905123472213745,0.3927333354949951
1772567356677892000,8.18089208984375,0.7229422330856323,-0.7601463198661804,0.10270312428474426
1772567356687921200,8.190921142578125,0.7193495631217957,-0.987623929977417,-0.14461742341518402
1772567356697950200,8.2009501953125,0.7031916379928589,-1.041255235671997,-0.2976621091365814
1772567356707979300,8.210979248046876,0.6778512001037598,-0.9806525111198425,-0.3156433701515198
1772567356718007000,8.221007080078126,0.5691303610801697,-0.8532841801643372,-0.2348846048116684
1772567356728036000,8.2310361328125,0.3975663483142853,-0.5747283101081848,-0.11463397741317749
1772567356738065200,8.241065185546875,0.23229746520519257,-0.16067416965961456,-0.0636403039097786
1772567356748094200,8.25109423828125,0.1194857805967331,0.24530918896198273,-0.15243889391422272
1772567356758122200,8.261122314453125,0.0475013367831707,0.6065834760665894,-0.36886146664619446
1772567356768151000,8.271151123046875,-0.037443459033966064,0.871823251247406,-0.675780177116394
1772567356778180000,8.28118017578125,-0.14049741625785828,0.9902423024177551,-1.0477843284606934
1772567356788208000,8.2912080078125,-0.24986065924167633,0.9559232592582703,-1.4140549898147583
1772567356798237200,8.3012373046875,-0.36294299364089966,0.8178439140319824,-1.7196681499481201
1772567356808266200,8.311266357421875,-0.4411218762397766,0.6025790572166443,-1.9012221097946167
1772567356818295300,8.32129541015625,-0.4485046863555908,0.3701583445072174,-1.907434105873108
1772567356828323000,8.331322998046875,-0.3935074806213379,0.19114217162132263,-1.7592705488204956
1772567356838352100,8.34135205078125,-0.2807937264442444,0.10039469599723816,-1.4958401918411255
1772567356848381000,8.351380859375,-0.14940910041332245,0.06465786695480347,-1.1728224754333496
1772567356858410200,8.36141015625,-0.03544897958636284,0.06949284672737122,-0.8304838538169861
1772567356868438300,8.371438232421875,0.048472605645656586,0.09187916666269302,-0.5047891736030579
1772567356878467000,8.381467041015625,0.0649770125746727,0.10761898756027222,-0.241840660572052
1772567356888496000,8.39149609375,0.03248182684183121,0.13792423903942108,-0.05842636898159981
1772567356898525200,8.401525146484374,-0.00901687890291214,0.19014082849025726,0.053265806287527084
1772567356908553200,8.41155322265625,-0.008341079577803612,0.26522189378738403,0.12277637422084808
1772567356918582300,8.421582275390625,0.03660961985588074,0.36038756370544434,0.18315237760543823
1772567356928611000,8.431611083984375,0.08950256556272507,0.4430138170719147,0.2513630986213684
1772567356938640100,8.44164013671875,0.12983961403369904,0.5106173157691956,0.3442879915237427
1772567356948668200,8.451668212890626,0.17483557760715485,0.5828771591186523,0.4670671820640564
1772567356958697000,8.461697021484374,0.22005951404571533,0.6172678470611572,0.6048485040664673
1772567356968726300,8.471726318359375,0.23122957348823547,0.5697461366653442,0.7431790232658386
1772567356978755300,8.48175537109375,0.23361149430274963,0.4744153618812561,0.8745575547218323
1772567356988783000,8.491783203125,0.23137487471103668,0.3553484380245209,0.9645894765853882
1772567356998812200,8.501812255859376,0.20033146440982819,0.2247001677751541,0.9838345646858215
1772567357008841000,8.511841064453124,0.1344071626663208,0.11370532214641571,0.9148304462432861
1772567357018870000,8.5218701171875,0.03529442846775055,0.044388823211193085,0.7597774863243103
1772567357028898300,8.531898193359375,-0.05167420953512192,-0.0006033256649971008,0.5523274540901184
1772567357038927000,8.541927001953125,-0.06631946563720703,-0.055731289088726044,0.3411344885826111
1772567357048956200,8.5519560546875,0.013858937658369541,-0.136536106467247,0.16953082382678986
1772567357058984000,8.56198388671875,0.15329806506633759,-0.23692981898784637,0.1073305755853653
1772567357069013000,8.572012939453124,0.25498518347740173,-0.2292257398366928,0.19529372453689575
1772567357079042300,8.582042236328125,0.24763990938663483,0.05284029245376587,0.42938530445098877
1772567357089071400,8.5920712890625,0.1454649269580841,0.4386743903160095,0.7125121355056763
1772567357099099100,8.60209912109375,0.0064156875014305115,0.6850026249885559,0.9288905262947083
1772567357109128200,8.612128173828125,-0.08351795375347137,0.7162709832191467,1.0182040929794312
1772567357119158300,8.622158203125,-0.0650009959936142,0.45107635855674744,0.9588728547096252
1772567357129183700,8.632183837890626,0.06638898700475693,0.06365299224853516,0.8086841106414795
1772567357139212500,8.642212646484374,0.20771841704845428,-0.2707923650741577,0.6445460915565491
1772567357149240800,8.65224072265625,0.2922155261039734,-0.5077639818191528,0.5079650282859802
1772567357159269600,8.66226953125,0.32720014452934265,-0.5915536880493164,0.38899630308151245
1772567357169298700,8.672298583984375,0.3493884205818176,-0.5268645286560059,0.2772875130176544
1772567357179327700,8.68232763671875,0.3642568588256836,-0.37850669026374817,0.13956506550312042
1772567357189355500,8.69235546875,0.32612988352775574,-0.2694568932056427,-0.040960200130939484
1772567357199384600,8.702384521484374,0.19491781294345856,-0.20760153234004974,-0.2631325423717499
1772567357209414000,8.712413818359375,-0.013362031430006027,-0.25130051374435425,-0.5506267547607422
1772567357219441700,8.722441650390625,-0.261728435754776,-0.31253668665885925,-0.8485332727432251
1772567357229470700,8.732470703125,-0.49400031566619873,-0.2923203110694885,-1.1195118427276611
1772567357239499500,8.74249951171875,-0.6490934491157532,-0.24590860307216644,-1.347253441810608
1772567357249528600,8.752528564453126,-0.7399020195007324,-0.25709518790245056,-1.4928419589996338
1772567357259556900,8.762556884765624,-0.766008198261261,-0.2991030812263489,-1.5424995422363281
1772567357269585700,8.772585693359375,-0.7250072956085205,-0.33999285101890564,-1.5032694339752197
1772567357279614700,8.78261474609375,-0.6066609025001526,-0.38939768075942993,-1.404338002204895
1772567357289643800,8.792643798828125,-0.44618505239486694,-0.42580413818359375,-1.2519093751907349
1772567357299671600,8.802671630859376,-0.2790226936340332,-0.4373401701450348,-1.045676589012146
1772567357309700600,8.81270068359375,-0.13465516269207,-0.4681086838245392,-0.8057690858840942
1772567357319729700,8.822729736328125,-0.06995658576488495,-0.5279776453971863,-0.5591380000114441
1772567357329758700,8.8327587890625,-0.10103707760572433,-0.5341705083847046,-0.32862216234207153
1772567357339786800,8.842786865234375,-0.19959747791290283,-0.45501792430877686,-0.1248200386762619
1772567357349815600,8.852815673828125,-0.28813672065734863,-0.303303599357605,0.044028256088495255
1772567357359844600,8.8628447265625,-0.2947043478488922,-0.06655366718769073,0.20636309683322906
1772567357369873700,8.872873779296874,-0.23385874927043915,0.22671440243721008,0.38615089654922485
1772567357379901700,8.882901611328125,-0.14035916328430176,0.44053909182548523,0.6076700091362
1772567357389930800,8.8929306640625,-0.07446788996458054,0.6226439476013184,0.8702783584594727
1772567357399959600,8.90295947265625,-0.06516733765602112,0.7555162310600281,1.1046340465545654
1772567357409988600,8.912988525390626,-0.11750692129135132,0.7700752019882202,1.2568620443344116
1772567357420016600,8.9230166015625,-0.19766061007976532,0.6643426418304443,1.2979589700698853
1772567357430045700,8.933045654296874,-0.22223347425460815,0.4752034544944763,1.2485928535461426
1772567357440074800,8.94307470703125,-0.19518828392028809,0.270390123128891,1.1415561437606812
1772567357450102500,8.9531025390625,-0.1568538248538971,0.15577462315559387,1.0245230197906494
1772567357460131600,8.963131591796875,-0.11680493503808975,0.1620149463415146,0.9172635078430176
1772567357470160600,8.97316064453125,-0.0983385294675827,0.18310269713401794,0.8159063458442688
1772567357480189400,8.983189453125,-0.09690575301647186,0.24057051539421082,0.7461248636245728
1772567357490217700,8.9932177734375,-0.10237465053796768,0.3205623924732208,0.7136966586112976
1772567357500246800,9.003246826171875,-0.10283457487821579,0.392914354801178,0.7151363492012024
1772567357510275600,9.013275634765625,-0.07651975005865097,0.4191495180130005,0.7413424253463745
1772567357520304600,9.0233046875,-0.027814269065856934,0.3777080774307251,0.7749709486961365
1772567357530332700,9.033332763671876,0.01655818335711956,0.22955110669136047,0.7850708365440369
1772567357540361700,9.04336181640625,0.08941401541233063,0.0026710880920290947,0.7415920495986938
1772567357550390800,9.053390869140625,0.1738753467798233,-0.20269691944122314,0.6856368184089661
1772567357560419600,9.063419677734375,0.23380525410175323,-0.27134066820144653,0.6903548836708069
1772567357570447600,9.073447509765625,0.28988420963287354,-0.1594509482383728,0.8214877247810364
1772567357580476700,9.0834765625,0.3403545618057251,0.11716704815626144,1.0525832176208496
1772567357590505500,9.09350537109375,0.36200466752052307,0.41615796089172363,1.3023386001586914
1772567357600534800,9.10353466796875,0.38710975646972656,0.6480457782745361,1.4191555976867676
1772567357610562600,9.1135625,0.4805658459663391,0.7127950191497803,1.3236702680587769
1772567357620591600,9.123591552734375,0.5790782570838928,0.531839907169342,1.0060713291168213
1772567357630620700,9.13362060546875,0.5824065208435059,0.15581026673316956,0.5346481204032898
1772567357640649500,9.1436494140625,0.48357343673706055,-0.4108448922634125,-0.007900675758719444
1772567357650677800,9.153677734375,0.3556549549102783,-1.0846284627914429,-0.5382570028305054
1772567357660706800,9.163706787109374,0.27172890305519104,-1.738242506980896,-0.9778948426246643
1772567357670735600,9.173735595703125,0.1910029798746109,-2.202004909515381,-1.2545567750930786
1772567357680763600,9.183763671875,0.028290757909417152,-2.189862012863159,-1.3014705181121826
1772567357690792400,9.19379248046875,-0.199848473072052,-1.7023431062698364,-1.1783205270767212
1772567357700821800,9.20382177734375,-0.3951641917228699,-0.9048926830291748,-0.9904274344444275
1772567357710850800,9.213850830078124,-0.4544273316860199,-0.09218954294919968,-0.8628795742988586
1772567357720878600,9.223878662109374,-0.3681318461894989,0.5028019547462463,-0.8661022782325745
1772567357730907600,9.23390771484375,-0.26426616311073303,0.8625900149345398,-0.9886688590049744
1772567357740936700,9.243936767578125,-0.15736952424049377,1.0421640872955322,-1.1958526372909546
1772567357750965500,9.253965576171876,-0.07322186976671219,0.9281112551689148,-1.4327658414840698
1772567357760993800,9.263993896484376,-0.09328852593898773,0.4861431121826172,-1.6242620944976807
1772567357771022600,9.274022705078124,-0.2028261423110962,-0.1866971105337143,-1.6957168579101562
1772567357781051600,9.2840517578125,-0.2561972141265869,-0.9714174866676331,-1.622299075126648
1772567357791080700,9.294080810546875,-0.20249268412590027,-1.6664402484893799,-1.4207991361618042
1772567357801108500,9.3041083984375,-0.09132353961467743,-1.9595049619674683,-1.1187330484390259
1772567357811137800,9.3141376953125,0.05801497399806976,-1.6664823293685913,-0.7610813975334167
1772567357821166800,9.324166748046874,0.1607421636581421,-0.9232898354530334,-0.43061190843582153
1772567357831195600,9.334195556640625,0.19370129704475403,-0.06282876431941986,-0.20190584659576416
1772567357841223700,9.3442236328125,0.18228457868099213,0.6628751158714294,-0.11319274455308914
1772567357851252500,9.35425244140625,0.17263278365135193,1.1547085046768188,-0.14902925491333008
1772567357861281500,9.364281494140625,0.09130252152681351,1.3234484195709229,-0.2520677447319031
1772567357871309800,9.374309814453126,0.0017582960426807404,1.2508983612060547,-0.3486087918281555
1772567357881338600,9.384338623046874,-0.037636514753103256,0.9947149157524109,-0.4074721038341522
1772567357891367700,9.39436767578125,-0.05575299263000488,0.6206852793693542,-0.41529422998428345
1772567357901396700,9.404396728515625,-0.06585143506526947,0.2758704125881195,-0.3720599412918091
1772567357911424500,9.414424560546875,-0.05875203385949135,0.05506185442209244,-0.2979521155357361
1772567357921453800,9.424453857421875,-0.02332160621881485,-0.000721251592040062,-0.18753930926322937
1772567357931482600,9.434482666015626,0.05257905274629593,0.13384874165058136,-0.019330531358718872
1772567357941511700,9.44451171875,0.14235875010490417,0.4060578942298889,0.2005445659160614
1772567357951539700,9.454539794921875,0.20919674634933472,0.7413536310195923,0.44908684492111206
1772567357961568500,9.464568603515625,0.20807422697544098,1.0298078060150146,0.6725820302963257
1772567357971597600,9.47459765625,0.10716531425714493,1.2301907539367676,0.807392418384552
1772567357981626600,9.484626708984376,-0.036779873073101044,1.3773163557052612,0.8097663521766663
1772567357991654700,9.494654541015626,-0.17821605503559113,1.370977759361267,0.6756619215011597
1772567358001683700,9.50468359375,-0.2880235016345978,1.144148588180542,0.4537665545940399
1772567358011712500,9.51471240234375,-0.3303896188735962,0.7656168341636658,0.20991788804531097
1772567358021740800,9.52474072265625,-0.29024168848991394,0.2818482518196106,-0.0034383400343358517
1772567358031769900,9.534769775390625,-0.2148643434047699,-0.16683125495910645,-0.1461811065673828
1772567358041798700,9.544798583984376,-0.08598732948303223,-0.3276965618133545,-0.11736995726823807
1772567358051827700,9.55482763671875,0.1049182116985321,-0.04359796643257141,0.13744783401489258
1772567358061855500,9.56485546875,0.29563888907432556,0.5179846882820129,0.5733601450920105
1772567358071884500,9.574884521484375,0.3888383209705353,1.0578246116638184,1.0588407516479492
1772567358081913600,9.58491357421875,0.4011296033859253,1.5221360921859741,1.4495192766189575
1772567358091942700,9.594942626953125,0.4075752794742584,1.6815698146820068,1.590898036956787
1772567358101970700,9.604970703125,0.4058825969696045,1.4937560558319092,1.4680107831954956
1772567358111999700,9.614999755859374,0.40607956051826477,1.1285954713821411,1.196568250656128
1772567358122028500,9.625028564453125,0.3930700421333313,0.5185737013816833,0.8365832567214966
1772567358132056800,9.635056884765625,0.37697556614875793,-0.2515240013599396,0.4699890613555908
1772567358142084900,9.6450849609375,0.3850494623184204,-0.9901288151741028,0.15501829981803894
1772567358152114000,9.655114013671875,0.3910658061504364,-1.693106770515442,-0.1483246237039566
1772567358162143000,9.66514306640625,0.38981518149375916,-2.218904733657837,-0.3910728394985199
1772567358172171800,9.675171875,0.32460111379623413,-2.4278604984283447,-0.5347282290458679
1772567358182200000,9.685199951171874,0.13084708154201508,-2.2837367057800293,-0.5787492394447327
1772567358192228900,9.695228759765625,-0.11646288633346558,-1.8260911703109741,-0.5492351055145264
1772567358202258000,9.7052578125,-0.28968098759651184,-1.2455790042877197,-0.488946795463562
1772567358212286000,9.715285888671875,-0.3476356863975525,-0.6612368226051331,-0.42380040884017944
1772567358222314800,9.725314697265626,-0.33377954363822937,-0.20194990932941437,-0.4042344391345978
1772567358232343800,9.73534375,-0.26457923650741577,0.15120993554592133,-0.44153764843940735
1772567358242372900,9.745372802734375,-0.16862982511520386,0.31633442640304565,-0.5351471900939941
1772567358252401000,9.75540087890625,-0.062079064548015594,0.25217318534851074,-0.6543502807617188
1772567358262430000,9.765429931640625,0.03282560408115387,-0.013208149001002312,-0.7638528347015381
1772567358272458800,9.775458740234376,0.06900990009307861,-0.4069536626338959,-0.8174837231636047
1772567358282487800,9.78548779296875,0.08461256325244904,-0.719532310962677,-0.8027969002723694
1772567358292516000,9.79551611328125,0.11923052370548248,-0.8294377326965332,-0.7256546020507812
1772567358302545000,9.805544921875,0.13009674847126007,-0.7144541144371033,-0.6018857955932617
1772567358312574000,9.815573974609375,0.10288930684328079,-0.3630754053592682,-0.4404182434082031
1772567358322603000,9.82560302734375,0.040925003588199615,0.09707168489694595,-0.28018996119499207
1772567358332630800,9.835630859375,-0.027008086442947388,0.5495681762695312,-0.15096090734004974
1772567358342659800,9.845659912109374,-0.08050327003002167,0.9162799119949341,-0.0513184629380703
1772567358352689000,9.85568896484375,-0.15077441930770874,1.0978829860687256,0.03752637654542923
1772567358362717000,9.865717041015625,-0.24802745878696442,1.109650731086731,0.10179058462381363
1772567358372746000,9.87574609375,-0.3012196123600006,0.9682289361953735,0.15506470203399658
1772567358382774800,9.88577490234375,-0.2713086009025574,0.7409353256225586,0.22722944617271423
1772567358392803800,9.895803955078126,-0.2218279242515564,0.5303515195846558,0.33797165751457214
1772567358402832000,9.905831787109374,-0.1388201266527176,0.39927712082862854,0.4779822826385498
1772567358412861000,9.91586083984375,-0.00690667936578393,0.4122133255004883,0.6440311074256897
1772567358422890000,9.925889892578125,0.15237964689731598,0.5359888076782227,0.811296820640564
1772567358432918800,9.935918701171875,0.2701976001262665,0.7206200361251831,0.9474026560783386
1772567358442946800,9.94594677734375,0.34219110012054443,1.0257991552352905,1.0967884063720703
1772567358452975900,9.955975830078126,0.36864590644836426,1.595322608947754,1.3831579685211182
1772567358463005000,9.9660048828125,0.23156291246414185,1.9601346254348755,1.839098334312439
1772567358473034000,9.976033935546875,0.03957609832286835,1.291974663734436,1.9539949893951416
1772567358483061800,9.986061767578125,-0.06891202926635742,0.4153786301612854,1.6841228008270264
1772567358493090800,9.9960908203125,-0.09775660187005997,0.15254631638526917,1.339328646659851
1772567358503120000,10.006119873046876,-0.10034438967704773,0.01953713968396187,0.9119448065757751
1772567358513149000,10.01614892578125,-0.02196548879146576,0.1281818002462387,0.4840761423110962
1772567358523177000,10.026177001953124,0.1294834315776825,0.48695701360702515,0.2951136827468872
