time,seconds_elapsed,z,y,x
1772609207936177000,0.079177001953125,0.04835239797830582,-0.14376747608184814,-0.006184360943734646
1772609207946174700,0.0891748046875,0.05075643211603165,-0.1541370302438736,0.029789084568619728
1772609207956172800,0.0991728515625,0.034758854657411575,-0.14660674333572388,0.030607040971517563
1772609207966171000,0.1091708984375,0.006692065857350826,-0.10883885622024536,0.02397177368402481
1772609207976168700,0.119168701171875,-0.033764392137527466,-0.06342986226081848,0.02864789217710495
1772609207986166800,0.129166748046875,-0.09965978562831879,-0.04089578986167908,0.0543692372739315
1772609207996164900,0.139164794921875,-0.1613386869430542,-0.022364001721143723,0.1010078564286232
1772609208006163700,0.149163818359375,-0.20285364985466003,0.01773335039615631,0.14775300025939941
1772609208016161800,0.159161865234375,-0.21618780493736267,0.06737463921308517,0.1953132301568985
1772609208026159900,0.169159912109375,-0.20815731585025787,0.0906679779291153,0.2119276225566864
1772609208036157700,0.17915771484375,-0.191763773560524,0.10259511321783066,0.19760778546333313
1772609208046155800,0.18915576171875,-0.16688692569732666,0.1467204988002777,0.1607709378004074
1772609208056153900,0.19915380859375,-0.12968233227729797,0.19039535522460938,0.11393360793590546
1772609208066151700,0.209151611328125,-0.08344905823469162,0.21532253921031952,0.07900252193212509
1772609208076149800,0.219149658203125,-0.0402742475271225,0.22469359636306763,0.07906671613454819
1772609208086147800,0.22914794921875,-0.01145884394645691,0.20865842700004578,0.10013791918754578
1772609208096145700,0.239145751953125,0.018631070852279663,0.17796112596988678,0.12957963347434998
1772609208106143700,0.249143798828125,0.04447012394666672,0.14963574707508087,0.15374727547168732
1772609208116142800,0.259142822265625,0.06258875876665115,0.11074170470237732,0.1584150344133377
1772609208126140700,0.269140625,0.048575740307569504,0.040801502764225006,0.14600443840026855
1772609208136138800,0.279138671875,0.01945079304277897,-0.058144353330135345,0.11922658979892731
1772609208146136800,0.28913671875,-0.01694689504802227,-0.1536274552345276,0.08367471396923065
1772609208156134700,0.299134765625,-0.05465501546859741,-0.2426566183567047,0.028529604896903038
1772609208166132700,0.3091328125,-0.0952804759144783,-0.316713809967041,-0.025034818798303604
1772609208176130800,0.319130859375,-0.12711137533187866,-0.3961726427078247,-0.051761727780103683
1772609208186128600,0.329128662109375,-0.12995004653930664,-0.48511505126953125,-0.023972176015377045
1772609208196126700,0.339126708984375,-0.11442981660366058,-0.5868355631828308,0.07962346076965332
1772609208206124800,0.349124755859375,-0.07974400371313095,-0.7072769999504089,0.2509440779685974
1772609208216122600,0.35912255859375,-0.024934515357017517,-0.7903853058815002,0.4417495131492615
1772609208226121700,0.369121826171875,0.056732915341854095,-0.7889676690101624,0.5968181490898132
1772609208236119800,0.379119873046875,0.17241103947162628,-0.6731577515602112,0.6381456255912781
1772609208246117600,0.38911767578125,0.26869285106658936,-0.5633910298347473,0.5803901553153992
1772609208256115700,0.39911572265625,0.31766626238822937,-0.5360279083251953,0.4927733540534973
1772609208266113800,0.40911376953125,0.30921685695648193,-0.585968017578125,0.4022301435470581
1772609208276111600,0.419111572265625,0.2713589370250702,-0.5630350112915039,0.2768353223800659
1772609208286109700,0.429109619140625,0.2299387902021408,-0.26135367155075073,0.08195054531097412
1772609208296107800,0.439107666015625,0.1801949143409729,0.24325814843177795,-0.17009058594703674
1772609208306105600,0.449105712890625,0.09969101846218109,0.6936026811599731,-0.39545738697052
1772609208316103700,0.459103759765625,0.006466817110776901,0.8540881872177124,-0.5309613347053528
1772609208326101800,0.469101806640625,-0.061447255313396454,0.809362530708313,-0.5170953273773193
1772609208336100900,0.479100830078125,-0.0888952761888504,0.7622373700141907,-0.2902068793773651
1772609208346098700,0.4890986328125,-0.056949589401483536,0.7464792132377625,0.12069491297006607
1772609208356096800,0.4990966796875,0.012508410029113293,0.7348495125770569,0.612643301486969
1772609208366094600,0.509094482421875,0.08074711263179779,0.7621402740478516,1.026901125907898
1772609208376092700,0.5190927734375,0.17789167165756226,0.8198458552360535,1.2500478029251099
1772609208386090800,0.5290908203125,0.300335556268692,0.8375385999679565,1.2287331819534302
1772609208396088600,0.539088623046875,0.42784005403518677,0.7490922212600708,0.9767040014266968
1772609208406086700,0.549086669921875,0.5281906127929688,0.4728246331214905,0.6160843372344971
1772609208416084700,0.559084716796875,0.6138213276863098,0.09082886576652527,0.26679474115371704
1772609208426082600,0.56908251953125,0.6433813571929932,-0.3964182734489441,-0.04865323007106781
1772609208436081700,0.57908154296875,0.6468453407287598,-0.631460428237915,-0.3126697242259979
1772609208446079700,0.589079833984375,0.6484728455543518,-0.7648059725761414,-0.5213299989700317
1772609208456077800,0.599077880859375,0.6059837937355042,-0.7662549018859863,-0.6773742437362671
1772609208466075600,0.60907568359375,0.49126362800598145,-0.6916837692260742,-0.8303723335266113
1772609208476073700,0.61907373046875,0.2685411870479584,-0.5867674350738525,-0.9036083817481995
1772609208486071600,0.629071533203125,0.05262778699398041,-0.36530935764312744,-0.8800795674324036
1772609208496069600,0.639069580078125,-0.036991775035858154,-0.056517571210861206,-0.741843044757843
1772609208506067700,0.649067626953125,-0.04594585299491882,0.19867956638336182,-0.47100913524627686
1772609208516065500,0.6590654296875,-0.009509336203336716,0.28892701864242554,-0.07396590709686279
1772609208526063600,0.669063720703125,0.0071316929534077644,0.1795073002576828,0.35694634914398193
1772609208536061400,0.6790615234375,0.002089887857437134,-0.08530082553625107,0.7486491203308105
1772609208546060500,0.689060546875,-0.023586980998516083,-0.33334845304489136,1.0941388607025146
1772609208556058600,0.69905859375,-0.0828854888677597,-0.5056304335594177,1.3975788354873657
1772609208566056700,0.709056640625,-0.17398689687252045,-0.5900787115097046,1.621565818786621
1772609208576054500,0.719054443359375,-0.2738623321056366,-0.6267707347869873,1.7367666959762573
1772609208586052600,0.729052490234375,-0.36758989095687866,-0.6333231925964355,1.747317910194397
1772609208596050400,0.739050537109375,-0.4496179521083832,-0.6338049173355103,1.6724357604980469
1772609208606048500,0.749048583984375,-0.5098623633384705,-0.6699938178062439,1.5294479131698608
1772609208616046600,0.759046630859375,-0.571881115436554,-0.6140556931495667,1.3971349000930786
1772609208626044400,0.76904443359375,-0.7066373229026794,-0.47509437799453735,1.2402416467666626
1772609208636042500,0.77904248046875,-0.7923445701599121,-0.22583834826946259,1.1222988367080688
1772609208646040600,0.78904052734375,-0.772324800491333,0.1337839961051941,0.9607067108154297
1772609208656039700,0.799039794921875,-0.6221274733543396,0.28964200615882874,0.7677220106124878
1772609208666037500,0.80903759765625,-0.44437846541404724,0.07057597488164902,0.5361170172691345
1772609208676035600,0.81903564453125,-0.3198279142379761,-0.27243295311927795,0.2663230895996094
1772609208686033700,0.82903369140625,-0.23769259452819824,-0.42645207047462463,-0.01964554563164711
1772609208696031500,0.839031494140625,-0.15474572777748108,-0.4514981806278229,-0.2860858738422394
1772609208706029600,0.849029541015625,-0.0648520439863205,-0.4102516770362854,-0.5546174645423889
1772609208716027600,0.859027587890625,0.03391975164413452,-0.23591914772987366,-0.7992662787437439
1772609208726025500,0.869025390625,0.10685255378484726,0.11714808642864227,-0.9527732729911804
1772609208736023600,0.8790234375,0.11841915547847748,0.42243215441703796,-0.9850780367851257
1772609208746021600,0.889021728515625,0.1190125122666359,0.33882221579551697,-0.9655154943466187
1772609208756019700,0.899019775390625,0.11710377782583237,0.021792959421873093,-0.8445160984992981
1772609208766018600,0.9090185546875,0.05705562233924866,0.013940096832811832,-0.5673878192901611
1772609208776016600,0.9190166015625,-0.06358595937490463,0.38815999031066895,-0.2171843945980072
1772609208786014500,0.929014404296875,-0.17933973670005798,0.8032664060592651,0.04357876628637314
1772609208796012500,0.939012451171875,-0.30510446429252625,1.0839766263961792,0.05008251219987869
1772609208806010600,0.9490107421875,-0.4690060317516327,1.0685299634933472,-0.0714481770992279
1772609208816008400,0.959008544921875,-0.5839152932167053,0.952562689781189,-0.0064604333601891994
1772609208826006500,0.969006591796875,-0.589318573474884,0.8102007508277893,0.288751482963562
1772609208836004600,0.979004638671875,-0.4982912242412567,0.6348904371261597,0.5361253619194031
1772609208846002700,0.989002685546875,-0.32274895906448364,0.3959316611289978,0.46935057640075684
1772609208856000800,0.999000732421875,-0.158888041973114,0.1677262932062149,0.06601627171039581
1772609208865998600,1.00899853515625,-0.0817655622959137,0.01221819594502449,-0.4476105570793152
1772609208875997400,1.01899755859375,-0.07803899049758911,-0.2947899401187897,-0.8338448405265808
1772609208885995500,1.02899560546875,-0.04817463830113411,-0.6401466727256775,-0.9425464272499084
1772609208895993600,1.03899365234375,0.007772588636726141,-0.8703267574310303,-0.8099091649055481
1772609208905991700,1.04899169921875,0.06079798936843872,-0.97524094581604,-0.583374559879303
1772609208915989800,1.05898974609375,0.10723291337490082,-0.9651154279708862,-0.3870029151439667
1772609208925987800,1.06898779296875,0.17155064642429352,-0.880935549736023,-0.250205397605896
1772609208935985700,1.078985595703125,0.268814355134964,-0.8313446044921875,-0.121312715113163
1772609208945983700,1.088983642578125,0.32999569177627563,-0.8320383429527283,0.03558262437582016
1772609208955981800,1.09898193359375,0.33654382824897766,-0.8236274123191833,0.23519566655158997
1772609208965979600,1.108979736328125,0.2765209674835205,-0.7609099745750427,0.446153461933136
1772609208975977700,1.118977783203125,0.18345651030540466,-0.6062865853309631,0.6016219854354858
1772609208985976600,1.1289765625,0.14294476807117462,-0.4210658371448517,0.6620085835456848
1772609208995974700,1.138974609375,0.1624143123626709,-0.28821587562561035,0.6541109085083008
1772609209005972700,1.14897265625,0.2137744426727295,-0.273857980966568,0.6753386855125427
1772609209015970800,1.158970703125,0.2622928321361542,-0.3220425546169281,0.7215226888656616
1772609209025968600,1.16896875,0.2759647071361542,-0.34561818838119507,0.7752594351768494
1772609209035966700,1.178966796875,0.23073358833789825,-0.25485414266586304,0.8546877503395081
1772609209045964800,1.18896484375,0.07674134522676468,-0.06319870054721832,0.896164059638977
1772609209055962600,1.198962646484375,-0.1105244979262352,0.050605252385139465,0.8409500122070312
1772609209065960700,1.208960693359375,-0.26388901472091675,0.10925284773111343,0.706851601600647
1772609209075958800,1.218958740234375,-0.37995293736457825,0.16004177927970886,0.49671879410743713
1772609209085957600,1.22895751953125,-0.4400538206100464,0.24304024875164032,0.24371157586574554
1772609209095955700,1.238955810546875,-0.4428856670856476,0.4062504172325134,-0.03747398033738136
1772609209105953800,1.248953857421875,-0.38171258568763733,0.5772589445114136,-0.3193189799785614
1772609209115951600,1.25895166015625,-0.28913334012031555,0.6737641096115112,-0.5767858028411865
1772609209125949700,1.26894970703125,-0.2117602676153183,0.6949540972709656,-0.7796071171760559
1772609209135947800,1.27894775390625,-0.13844165205955505,0.6026128530502319,-0.9369938373565674
1772609209145945600,1.288945556640625,-0.043044302612543106,0.4578236937522888,-1.0911920070648193
1772609209155943700,1.298943603515625,0.025411684066057205,0.40536803007125854,-1.2078217267990112
1772609209165941800,1.308941650390625,0.03820577636361122,0.40720269083976746,-1.2856981754302979
1772609209175939600,1.318939697265625,0.01375160925090313,0.43995678424835205,-1.331882119178772
1772609209185937700,1.328937744140625,-0.05545888468623161,0.3901602029800415,-1.333298921585083
1772609209195936800,1.338936767578125,-0.11259960383176804,0.24469557404518127,-1.2993634939193726
1772609209205934600,1.3489345703125,-0.11937495321035385,0.032498087733983994,-1.2432725429534912
1772609209215932700,1.3589326171875,-0.04365439713001251,-0.16532301902770996,-1.1601533889770508
1772609209225930800,1.3689306640625,0.03938163071870804,-0.0978342592716217,-1.001680612564087
1772609209235928600,1.378928466796875,-0.02854866534471512,0.15360939502716064,-0.8227993845939636
1772609209245926700,1.3889267578125,-0.19854916632175446,0.2514587342739105,-0.7981449365615845
1772609209255924700,1.3989248046875,-0.3182052671909332,0.2590487599372864,-1.0536350011825562
1772609209265922600,1.408922607421875,-0.3308374285697937,0.5017932057380676,-1.4375081062316895
1772609209275920600,1.418920654296875,-0.255593478679657,1.0264943838119507,-1.5274664163589478
1772609209285918700,1.428918701171875,-0.07886665314435959,1.3719285726547241,-1.130979299545288
1772609209295916500,1.43891650390625,0.14757958054542542,1.351100206375122,-0.44989481568336487
1772609209305915600,1.44891552734375,0.3406941592693329,1.062929630279541,0.1491726189851761
1772609209315913700,1.458913818359375,0.429058313369751,0.6921898126602173,0.313419908285141
1772609209325911600,1.46891162109375,0.43572738766670227,0.32551753520965576,0.06681998074054718
1772609209335909600,1.47890966796875,0.33337706327438354,-0.09527765959501266,-0.3945505619049072
1772609209345907700,1.48890771484375,0.1114792749285698,-0.39417538046836853,-0.8309023380279541
1772609209355905500,1.498905517578125,-0.10889848321676254,-0.4157901704311371,-1.0262223482131958
1772609209365903600,1.508903564453125,-0.26915234327316284,-0.2982451617717743,-0.9633440971374512
1772609209375901700,1.518901611328125,-0.3687148094177246,-0.2583487927913666,-0.697063148021698
1772609209385899500,1.5288994140625,-0.3361068069934845,-0.3010648488998413,-0.3182290196418762
1772609209395897600,1.538897705078125,-0.16801264882087708,-0.41047510504722595,0.09607028216123581
1772609209405896700,1.548896728515625,0.03252498060464859,-0.5539838075637817,0.42226409912109375
1772609209415894500,1.55889453125,0.18516620993614197,-0.6787889003753662,0.6461665630340576
1772609209425892600,1.568892578125,0.2547857463359833,-0.7734144926071167,0.8047074675559998
1772609209435890700,1.578890625,0.2529407739639282,-0.9321964979171753,0.9170880317687988
1772609209445888500,1.588888427734375,0.19462820887565613,-1.093794345855713,0.99342280626297
1772609209455886600,1.598886474609375,0.09589629620313644,-1.174841284751892,1.0453547239303589
1772609209465884700,1.608884765625,-0.012498350813984871,-1.1794682741165161,1.0837534666061401
1772609209475882500,1.618882568359375,-0.10366624593734741,-1.1087478399276733,1.1187161207199097
1772609209485880600,1.628880615234375,-0.16855815052986145,-0.9110090732574463,1.1744407415390015
1772609209495878700,1.638878662109375,-0.22685974836349487,-0.6102136969566345,1.234593152999878
1772609209505876500,1.64887646484375,-0.28848904371261597,-0.2951124906539917,1.2841838598251343
1772609209515875600,1.65887548828125,-0.3277997374534607,-0.0818834975361824,1.3193647861480713
1772609209525873700,1.668873779296875,-0.35590142011642456,0.07817275077104568,1.3385778665542603
1772609209535871500,1.67887158203125,-0.3615254759788513,0.2962534725666046,1.3517429828643799
1772609209545869600,1.68886962890625,-0.35395437479019165,0.5114997029304504,1.366806149482727
1772609209555867600,1.69886767578125,-0.3498837947845459,0.723909318447113,1.3370062112808228
1772609209565865500,1.708865478515625,-0.34948378801345825,0.9340668320655823,1.2162411212921143
1772609209575863600,1.718863525390625,-0.3186323642730713,1.0371508598327637,1.0361922979354858
1772609209585861600,1.728861572265625,-0.2604185938835144,1.1048837900161743,0.8399057388305664
1772609209595859500,1.738859375,-0.14997456967830658,1.0330088138580322,0.6504966616630554
1772609209605857500,1.748857421875,0.0006551574915647507,0.7640189528465271,0.48543235659599304
1772609209615855600,1.758855712890625,0.12494881451129913,0.48016127943992615,0.33342060446739197
1772609209625854500,1.7688544921875,0.19837349653244019,0.27818766236305237,0.2381039559841156
1772609209635852500,1.7788525390625,0.2326633781194687,0.11791819334030151,0.23661364614963531
1772609209645850600,1.7888505859375,0.2637541890144348,-0.011753251776099205,0.3211972415447235
1772609209655848400,1.798848388671875,0.33674827218055725,-0.06864695996046066,0.44348782300949097
1772609209665846500,1.808846435546875,0.38512617349624634,-0.05085331201553345,0.4938063621520996
1772609209675844600,1.8188447265625,0.34545794129371643,-0.05809323489665985,0.4016222655773163
1772609209685842400,1.828842529296875,0.23007620871067047,-0.11167124658823013,0.17017868161201477
1772609209695840500,1.838840576171875,0.0006230790168046951,-0.17289498448371887,-0.23132817447185516
1772609209705838600,1.848838623046875,-0.27024784684181213,-0.10186581313610077,-0.7150200009346008
1772609209715836400,1.85883642578125,-0.41354966163635254,0.0654047429561615,-1.1290513277053833
1772609209725835500,1.86883544921875,-0.32094645500183105,-0.2813604176044464,-1.3262016773223877
1772609209735833600,1.87883349609375,-0.04329518973827362,-0.8841077089309692,-1.262187123298645
1772609209745831400,1.88883154296875,0.07505302876234055,-0.46512937545776367,-0.7820587754249573
1772609209755829500,1.89882958984375,0.1732073277235031,0.46193957328796387,-0.058540523052215576
1772609209765827600,1.90882763671875,0.21830050647258759,1.1577407121658325,0.3113328516483307
1772609209775825400,1.918825439453125,0.12422744929790497,1.3573004007339478,0.10120844841003418
1772609209785823500,1.928823486328125,0.04407694935798645,1.2559924125671387,-0.3140939474105835
1772609209795821600,1.938821533203125,0.059732984751462936,1.0840401649475098,-0.5293959379196167
1772609209805819400,1.9488193359375,0.029029132798314095,0.8075864315032959,-0.5493435859680176
1772609209815817500,1.9588173828125,0.014668630436062813,0.12676650285720825,-0.6286283731460571
1772609209825815600,1.968815673828125,-0.01104525476694107,-0.44602513313293457,-0.809160590171814
1772609209835814400,1.978814453125,0.007892371155321598,-0.4958105683326721,-0.8887152075767517
1772609209845812500,1.9888125,0.11076255887746811,-0.2194034904241562,-0.810684859752655
1772609209855810600,1.998810546875,0.21290214359760284,0.2102908194065094,-0.5923868417739868
1772609209865808400,2.008808349609375,0.27541878819465637,0.7005712985992432,-0.2977501451969147
1772609209875806500,2.018806396484375,0.3362096846103668,1.0270520448684692,-0.04431108757853508
1772609209885804500,2.028804443359375,0.33328554034233093,1.020121693611145,0.06145688518881798
1772609209895802600,2.038802734375,0.16902102530002594,0.6497600078582764,0.025555459782481194
1772609209905800700,2.04880078125,0.009954676032066345,0.15300507843494415,-0.042138367891311646
1772609209915798800,2.058798828125,-0.0629005953669548,-0.3137997090816498,-0.005423664581030607
1772609209925796600,2.068796630859375,-0.09725670516490936,-0.6775329113006592,0.15923160314559937
1772609209935795500,2.07879541015625,-0.11196944862604141,-0.9495658278465271,0.36272335052490234
1772609209945793500,2.08879345703125,-0.08364353328943253,-1.1155500411987305,0.543277382850647
1772609209955791400,2.098791259765625,0.02486119419336319,-1.1260424852371216,0.674179196357727
1772609209965789400,2.10878955078125,0.18704718351364136,-0.978885293006897,0.7321224212646484
1772609209975787500,2.11878759765625,0.32055172324180603,-0.6558499932289124,0.7427652478218079
1772609209985785600,2.12878564453125,0.39358943700790405,-0.2136947065591812,0.733109176158905
1772609209995783700,2.13878369140625,0.419878751039505,0.1652379184961319,0.726104736328125
1772609210005781800,2.14878173828125,0.39865440130233765,0.38476067781448364,0.6876675486564636
1772609210015779600,2.158779541015625,0.33034834265708923,0.3960980176925659,0.6072844862937927
1772609210025777700,2.168777587890625,0.20916971564292908,0.26883992552757263,0.5023143887519836
1772609210035775700,2.178775634765625,0.09481632709503174,0.11182241886854172,0.39194658398628235
1772609210045774300,2.1887744140625,0.016903690993785858,-0.02187518961727619,0.2735041081905365
1772609210055772400,2.1987724609375,-0.03533158078789711,-0.13774339854717255,0.14697642624378204
1772609210065770800,2.208770751953125,-0.07187147438526154,-0.2615596354007721,0.024898456409573555
1772609210075768600,2.2187685546875,-0.08275052905082703,-0.40832850337028503,-0.07731079310178757
1772609210085766700,2.2287666015625,-0.07831184566020966,-0.5258500576019287,-0.16234633326530457
1772609210095764700,2.2387646484375,-0.07734240591526031,-0.530053436756134,-0.2266499251127243
1772609210105762600,2.248762451171875,-0.06673876196146011,-0.4506089389324188,-0.27332425117492676
1772609210115760600,2.2587607421875,-0.0560423843562603,-0.3466632068157196,-0.2905927896499634
1772609210125758700,2.2687587890625,-0.04184693470597267,-0.22651389241218567,-0.27689987421035767
1772609210135756500,2.278756591796875,-0.029947634786367416,-0.1479368656873703,-0.20986750721931458
1772609210145755600,2.288755615234375,-0.04976901039481163,-0.15540090203285217,-0.16507500410079956
1772609210155753700,2.298753662109375,-0.10776761174201965,-0.283081591129303,-0.17537522315979004
1772609210165751600,2.30875146484375,-0.1324671059846878,-0.4694131314754486,-0.24227142333984375
1772609210175749600,2.31874951171875,-0.0552368126809597,-0.5426592826843262,-0.3841765820980072
1772609210185747700,2.328747802734375,0.04494837671518326,-0.4797612428665161,-0.5690281987190247
1772609210195745500,2.33874560546875,0.0450914092361927,-0.3131182789802551,-0.701138973236084
1772609210205743600,2.34874365234375,-0.11517415940761566,-0.03136010095477104,-0.8025755882263184
1772609210215741700,2.35874169921875,-0.3354937732219696,0.26604077219963074,-0.9860107898712158
1772609210225739500,2.368739501953125,-0.4125901758670807,0.47710853815078735,-1.1979306936264038
1772609210235737600,2.378737548828125,-0.27796289324760437,0.7103392481803894,-1.09938645362854
1772609210245735700,2.388735595703125,-0.06699581444263458,0.8887172937393188,-0.6245447397232056
1772609210255734800,2.39873486328125,0.03972511738538742,0.8692818880081177,-0.1145581379532814
1772609210265732600,2.408732666015625,0.1262056827545166,0.7278539538383484,0.20865242183208466
1772609210275730700,2.418730712890625,0.29474136233329773,0.4853045344352722,0.36025941371917725
1772609210285728800,2.428728759765625,0.4629029333591461,0.15723317861557007,0.48644983768463135
1772609210295726600,2.4387265625,0.5646114349365234,-0.18772730231285095,0.6370116472244263
1772609210305724700,2.448724609375,0.665962278842926,-0.5376666188240051,0.7939940690994263
1772609210315722500,2.458722412109375,0.726048469543457,-0.7501214146614075,0.8997087478637695
1772609210325720600,2.468720458984375,0.689055860042572,-0.8786857724189758,0.8469786643981934
1772609210335718700,2.47871875,0.5544309020042419,-0.8760180473327637,0.6038692593574524
1772609210345716500,2.488716552734375,0.40643081068992615,-0.7063912153244019,0.28740212321281433
1772609210355715600,2.498715576171875,0.26972585916519165,-0.4471099376678467,0.07889997959136963
1772609210365713700,2.508713623046875,0.10729514807462692,-0.12981079518795013,0.05562235042452812
1772609210375711700,2.518711669921875,-0.10117398947477341,0.15070652961730957,0.2237115055322647
1772609210385709600,2.52870947265625,-0.3146156966686249,0.23789548873901367,0.507149338722229
1772609210395707600,2.538707763671875,-0.4852459132671356,0.19080094993114471,0.790910005569458
1772609210405705700,2.548705810546875,-0.617965042591095,0.1204165369272232,0.9719727635383606
1772609210415703600,2.55870361328125,-0.6770430207252502,0.004810785409063101,0.9932906627655029
1772609210425701600,2.56870166015625,-0.639927864074707,-0.168819859623909,0.9528659582138062
1772609210435699500,2.578699462890625,-0.557822048664093,-0.35529813170433044,0.859361469745636
1772609210445697500,2.588697509765625,-0.4036119878292084,-0.5581556558609009,0.6881527304649353
1772609210455695600,2.598695556640625,-0.2549755871295929,-0.6862766742706299,0.45588067173957825
1772609210465694700,2.60869482421875,-0.17957884073257446,-0.6949939727783203,0.20971883833408356
1772609210475692500,2.618692626953125,-0.14359676837921143,-0.6076393127441406,-0.040936119854450226
1772609210485690600,2.628690673828125,-0.08651085197925568,-0.4557339549064636,-0.2703906297683716
1772609210495688700,2.638688720703125,0.01889689825475216,-0.21066448092460632,-0.39402446150779724
1772609210505686500,2.6486865234375,0.09740369021892548,0.131178081035614,-0.3997635841369629
1772609210515684600,2.6586845703125,0.11769415438175201,0.4741748869419098,-0.31340351700782776
1772609210525682700,2.6686826171875,0.09869542717933655,0.6859744787216187,-0.22809022665023804
1772609210535680800,2.6786806640625,0.10931599140167236,0.7306863069534302,-0.20266103744506836
1772609210545678600,2.6886787109375,0.0974004715681076,0.6748936176300049,-0.2660730183124542
1772609210555676700,2.6986767578125,0.052030500024557114,0.6073229908943176,-0.39416223764419556
1772609210565675800,2.70867578125,-0.023419518023729324,0.5125051736831665,-0.5292832851409912
1772609210575673900,2.718673828125,-0.07830405235290527,0.38627901673316956,-0.5795828104019165
1772609210585671700,2.728671630859375,-0.11067744344472885,0.274433970451355,-0.5240846872329712
1772609210595669800,2.738669677734375,-0.11434151232242584,0.19001276791095734,-0.35935959219932556
1772609210605667600,2.74866748046875,-0.11882734298706055,0.10655755549669266,-0.16494029760360718
1772609210615665700,2.758665771484375,-0.10015496611595154,0.07242537289857864,0.005515732802450657
1772609210625663700,2.768663818359375,-0.05366948992013931,0.06636135280132294,0.07551293075084686
1772609210635661600,2.77866162109375,0.021167945116758347,0.07362336665391922,0.04784861207008362
1772609210645659600,2.78865966796875,0.12804512679576874,0.1297723948955536,-0.0636076107621193
1772609210655657700,2.79865771484375,0.2558954954147339,0.21198976039886475,-0.2704462707042694
1772609210665656800,2.80865673828125,0.3367450535297394,0.34739580750465393,-0.5047911405563354
1772609210675654700,2.818654541015625,0.3219085931777954,0.5577453374862671,-0.6907815337181091
1772609210685652700,2.82865283203125,0.14423608779907227,0.7778534293174744,-0.8901162147521973
1772609210695650800,2.83865087890625,-0.1560368686914444,0.8398621082305908,-1.225998878479004
1772609210705648600,2.848648681640625,-0.42900824546813965,0.6924521327018738,-1.649273157119751
1772609210715646700,2.858646728515625,-0.557722270488739,0.17695695161819458,-1.880223035812378
1772609210725644500,2.86864453125,-0.41916924715042114,-0.3414800763130188,-1.6279844045639038
1772609210735642600,2.878642578125,-0.2090459167957306,-0.3197585940361023,-0.9040933847427368
1772609210745640700,2.888640625,-0.09910503774881363,0.007209139410406351,-0.23157334327697754
1772609210755638500,2.898638427734375,-0.02461152896285057,0.21822261810302734,0.03379883989691734
1772609210765636600,2.90863671875,0.021330662071704865,0.28278058767318726,-0.09178464859724045
1772609210775635700,2.9186357421875,0.0781610831618309,0.07976749539375305,-0.49922260642051697
1772609210785633800,2.9286337890625,0.1518869698047638,-0.1624792218208313,-0.9514515995979309
1772609210795631600,2.938631591796875,0.29468443989753723,-0.1973641961812973,-1.0742048025131226
1772609210805629700,2.948629638671875,0.44898825883865356,-0.01055915281176567,-0.7108889222145081
1772609210815627800,2.958627685546875,0.4893342852592468,0.23685020208358765,-0.06350322812795639
1772609210825625600,2.96862548828125,0.4694279730319977,0.40771886706352234,0.5196733474731445
1772609210835623700,2.978623779296875,0.4204219877719879,0.47097477316856384,0.814570963382721
1772609210845621500,2.98862158203125,0.35762277245521545,0.46473339200019836,0.7646564245223999
1772609210855619600,2.99861962890625,0.2181805521249771,0.4869050681591034,0.4874514043331146
1772609210865617700,3.00861767578125,0.0405636802315712,0.5323833227157593,0.18050743639469147
1772609210875616800,3.01861669921875,-0.10726045072078705,0.5034825801849365,-0.022099174559116364
1772609210885614600,3.028614501953125,-0.24827775359153748,0.3005638122558594,-0.08885317295789719
1772609210895612700,3.03861279296875,-0.32519853115081787,-0.037292998284101486,0.005318279843777418
1772609210905610800,3.04861083984375,-0.3002777397632599,-0.3351507782936096,0.16873890161514282
1772609210915608600,3.058608642578125,-0.20076026022434235,-0.5389898419380188,0.3639558255672455
1772609210925606700,3.068606689453125,-0.07763805985450745,-0.7159174680709839,0.5601759552955627
1772609210935604700,3.078604736328125,-0.0037139831110835075,-0.9402801394462585,0.7459654808044434
1772609210945602600,3.0886025390625,0.0075368075631558895,-1.2063133716583252,0.8902395963668823
1772609210955600600,3.0986005859375,-0.01587110571563244,-1.4251476526260376,1.0002061128616333
1772609210965598500,3.108598388671875,-0.05799512565135956,-1.5051745176315308,1.0468257665634155
1772609210975597600,3.11859765625,-0.11343436688184738,-1.519002079963684,0.9736066460609436
1772609210985595600,3.128595703125,-0.16535188257694244,-1.28546142578125,0.8535052537918091
1772609210995593700,3.13859375,-0.21704387664794922,-0.9424276351928711,0.6477333307266235
1772609211005591600,3.148591552734375,-0.24945935606956482,-0.5759359002113342,0.4087980091571808
1772609211015589600,3.158589599609375,-0.2782697379589081,-0.2659219801425934,0.19550159573554993
1772609211025587700,3.168587646484375,-0.2930358946323395,-0.0655667781829834,0.04129311442375183
1772609211035585500,3.17858544921875,-0.29325729608535767,0.014689593575894833,-0.07026037573814392
1772609211045583600,3.18858349609375,-0.3044321835041046,-0.005773603450506926,-0.14412689208984375
1772609211055581700,3.198581787109375,-0.3142545521259308,-0.07466783374547958,-0.17679060995578766
1772609211065579800,3.208579833984375,-0.2998068928718567,-0.20344871282577515,-0.15728136897087097
1772609211075577900,3.218577880859375,-0.23932823538780212,-0.2761226296424866,-0.0963050127029419
1772609211085576700,3.22857666015625,-0.1589692234992981,-0.23107632994651794,-0.04364393651485443
1772609211095574500,3.238574462890625,-0.060454316437244415,-0.09513107687234879,-0.040498197078704834
1772609211105572600,3.248572509765625,0.03988400101661682,0.09518533200025558,-0.11645527929067612
1772609211115570700,3.25857080078125,0.12566328048706055,0.21823178231716156,-0.23587362468242645
1772609211125568500,3.268568603515625,0.17836111783981323,0.26430580019950867,-0.35684746503829956
1772609211135566600,3.278566650390625,0.20483514666557312,0.3377268314361572,-0.5664206147193909
1772609211145564700,3.288564697265625,0.13526912033557892,-0.06524296849966049,-0.9507725834846497
1772609211155562800,3.298562744140625,0.07680495083332062,-0.8125264048576355,-1.4811092615127563
1772609211165560800,3.308560791015625,0.023106569424271584,-1.3907948732376099,-1.844420075416565
1772609211175559000,3.318558837890625,-0.07404680550098419,-1.3458822965621948,-1.813429832458496
1772609211185557500,3.3285576171875,-0.18344493210315704,-0.5820099711418152,-1.5138133764266968
1772609211195555600,3.3385556640625,-0.2788149416446686,0.3253230154514313,-1.1689300537109375
1772609211205553700,3.3485537109375,-0.34885767102241516,1.2962534427642822,-0.7362990379333496
1772609211215551500,3.358551513671875,-0.4077453911304474,2.065894603729248,-0.22406898438930511
1772609211225549800,3.3685498046875,-0.3950897753238678,2.383941173553467,0.2184288054704666
1772609211235548000,3.3785478515625,-0.3289247453212738,2.3384721279144287,0.5239021182060242
1772609211245545700,3.388545654296875,-0.20146267116069794,2.0530805587768555,0.631722092628479
1772609211255543800,3.398543701171875,-0.09680885821580887,1.5165303945541382,0.49032968282699585
1772609211265542000,3.4085419921875,-0.03074115887284279,0.6425005793571472,0.16061462461948395
1772609211275539700,3.418539794921875,0.04074573516845703,-0.3715372383594513,-0.2911657392978668
1772609211285538600,3.42853857421875,0.1735386699438095,-1.0511411428451538,-0.6952831149101257
1772609211295536600,3.43853662109375,0.3450218141078949,-1.165048360824585,-0.9014676213264465
1772609211305534700,3.44853466796875,0.5271652936935425,-1.060226559638977,-0.8052761554718018
1772609211315532800,3.45853271484375,0.6756651401519775,-0.9481815695762634,-0.3939821124076843
1772609211325531000,3.46853076171875,0.6874610781669617,-0.972119152545929,0.10305005311965942
1772609211335528700,3.47852880859375,0.633187472820282,-1.0625039339065552,0.4588404893875122
1772609211345526800,3.48852685546875,0.554068386554718,-0.8974809050559998,0.5428029894828796
1772609211355524900,3.49852490234375,0.4281627833843231,-0.49898165464401245,0.35913702845573425
1772609211365522700,3.508522705078125,0.2974976897239685,-0.09924940764904022,0.08250758051872253
1772609211375520800,3.518520751953125,0.11643388867378235,0.37261539697647095,-0.2518044710159302
1772609211385519600,3.52851953125,-0.047033075243234634,0.806206464767456,-0.5017054080963135
1772609211395517700,3.538517578125,-0.19553792476654053,1.0803090333938599,-0.52008455991745
1772609211405515800,3.548515869140625,-0.3136192858219147,1.1602762937545776,-0.2838664650917053
1772609211415513900,3.558513916015625,-0.37708938121795654,1.0564690828323364,0.09525354951620102
1772609211425511700,3.56851171875,-0.3573782742023468,0.7461659908294678,0.5139253735542297
1772609211435509800,3.578509765625,-0.269902765750885,0.2769165337085724,0.9101733565330505
1772609211445507800,3.5885078125,-0.1951170414686203,-0.18494144082069397,1.2180724143981934
1772609211455505700,3.598505615234375,-0.1550302654504776,-0.5377600789070129,1.4243056774139404
1772609211465503700,3.608503662109375,-0.155094712972641,-0.7799152135848999,1.5298243761062622
1772609211475501800,3.618501708984375,-0.19615063071250916,-0.9303394556045532,1.526198148727417
1772609211485499600,3.628499755859375,-0.24994409084320068,-0.9636369347572327,1.413507342338562
1772609211495498800,3.638498779296875,-0.21003615856170654,-0.8239054679870605,1.247294306755066
1772609211505496800,3.648496826171875,-0.1555284559726715,-0.6069694757461548,1.0077905654907227
1772609211515494700,3.65849462890625,-0.032831206917762756,-0.3517879247665405,0.7012477517127991
1772609211525492500,3.668492431640625,0.17643652856349945,-0.17078271508216858,0.3842913806438446
1772609211535490600,3.678490478515625,0.41012048721313477,-0.06670738011598587,0.08107633888721466
1772609211545488400,3.68848828125,0.5918479561805725,0.011863332241773605,-0.20427817106246948
1772609211555486500,3.698486572265625,0.6856060028076172,0.1075439304113388,-0.46537402272224426
1772609211565484500,3.708484619140625,0.7011868357658386,0.19564290344715118,-0.6849234104156494
1772609211575482400,3.718482421875,0.6174818873405457,0.17428728938102722,-0.7860470414161682
1772609211585480400,3.72848046875,0.5086456537246704,0.05220932513475418,-0.8777817487716675
1772609211595479600,3.7384794921875,0.42144206166267395,-0.12258574366569519,-0.8769402503967285
1772609211605477400,3.748477294921875,0.3667125105857849,-0.1825108677148819,-0.7655225992202759
1772609211615475500,3.758475341796875,0.33065149188041687,-0.15280547738075256,-0.6030513048171997
1772609211625473500,3.7684736328125,0.30643242597579956,-0.0903109461069107,-0.4990183711051941
1772609211635471400,3.778471435546875,0.2669415771961212,-0.05171126499772072,-0.5625515580177307
1772609211645469400,3.788469482421875,0.18527546525001526,-0.15343870222568512,-0.8266604542732239
1772609211655467500,3.798467529296875,0.159658744931221,-0.3372896611690521,-1.1577657461166382
1772609211665465300,3.80846533203125,0.0674116387963295,-0.4142228066921234,-1.2372797727584839
1772609211675463400,3.81846337890625,0.024287324398756027,-0.10572326928377151,-0.9880074262619019
1772609211685461500,3.82846142578125,-0.15746302902698517,0.5592440366744995,-0.43692511320114136
1772609211695460600,3.838460693359375,-0.3292137086391449,1.6393425464630127,0.37644416093826294
1772609211705458400,3.84845849609375,-0.3644835352897644,2.2541487216949463,1.1622618436813354
1772609211715456500,3.85845654296875,-0.48049890995025635,2.2215077877044678,1.4785828590393066
1772609211725454600,3.86845458984375,-0.7541173696517944,1.8767911195755005,1.0697349309921265
1772609211735452400,3.878452392578125,-0.8805497288703918,1.3843512535095215,0.16851158440113068
1772609211745450500,3.888450439453125,-0.6497623324394226,0.8257923722267151,-0.7882130742073059
1772609211755448300,3.8984482421875,-0.2573085129261017,0.11953888833522797,-1.4601644277572632
1772609211765446400,3.9084462890625,0.08326209336519241,-0.38999703526496887,-1.6384408473968506
1772609211775444500,3.918444580078125,0.2945827841758728,-0.7493023872375488,-1.3441635370254517
1772609211785442300,3.9284423828125,0.419797420501709,-0.7613934278488159,-0.8039594888687134
1772609211795441400,3.93844140625,0.5558198094367981,-0.4781019389629364,-0.2658253610134125
1772609211805439500,3.948439453125,0.7141433954238892,-0.18338878452777863,0.119822196662426
1772609211815437600,3.9584375,0.7946400046348572,-0.03265634924173355,0.31220391392707825
1772609211825435400,3.968435302734375,0.8348140716552734,0.009370462037622929,0.3417927026748657
1772609211835433500,3.97843359375,0.7351812124252319,-0.007055413909256458,0.22874514758586884
1772609211845431600,3.988431640625,0.5750996470451355,0.016926884651184082,0.05172589048743248
1772609211855429400,3.998429443359375,0.4073469638824463,0.09061264246702194,-0.059475742280483246
1772609211865427500,4.008427490234375,0.18508143723011017,0.1791403740644455,-0.03968445956707001
1772609211875425300,4.01842529296875,-0.09534763544797897,0.26804319024086,0.0823475569486618
1772609211885423400,4.02842333984375,-0.3437339961528778,0.31430551409721375,0.22084283828735352
1772609211895422500,4.03842236328125,-0.5120047330856323,0.33324551582336426,0.3612064719200134
1772609211905420500,4.048420654296875,-0.5820807218551636,0.291533499956131,0.5209697484970093
1772609211915418400,4.05841845703125,-0.622580885887146,0.1528252214193344,0.681328535079956
1772609211925416400,4.06841650390625,-0.640282392501831,-0.028493709862232208,0.8044052124023438
1772609211935414500,4.07841455078125,-0.6194665431976318,-0.2600668668746948,0.8833392858505249
1772609211945412400,4.088412353515625,-0.5500555038452148,-0.5528275966644287,0.9008426666259766
1772609211955410400,4.098410400390625,-0.43033382296562195,-0.8134442567825317,0.8799277544021606
1772609211965408500,4.108408447265625,-0.3012155294418335,-0.9473096132278442,0.844855785369873
1772609211975406300,4.11840625,-0.18119341135025024,-0.9828922748565674,0.7757704257965088
1772609211985404400,4.128404296875,-0.08591856062412262,-0.9081459045410156,0.6326153874397278
1772609211995403500,4.138403564453125,0.01711461879312992,-0.7487655878067017,0.4578312933444977
1772609212005401300,4.1484013671875,0.12585628032684326,-0.6285145282745361,0.24516722559928894
1772609212015399400,4.1583994140625,0.20041581988334656,-0.5855610966682434,0.023803450167179108
1772609212025397500,4.1683974609375,0.2531623840332031,-0.5474161505699158,-0.19304630160331726
1772609212035395300,4.178395263671875,0.29346978664398193,-0.5051050186157227,-0.3807009756565094
1772609212045393400,4.188393310546875,0.32296136021614075,-0.4987911880016327,-0.5368985533714294
1772609212055391500,4.1983916015625,0.3084585666656494,-0.5082922577857971,-0.6644831895828247
1772609212065389300,4.208389404296875,0.2690664231777191,-0.49407172203063965,-0.764431893825531
1772609212075387400,4.218387451171875,0.21422411501407623,-0.3936424255371094,-0.8258450031280518
1772609212085385500,4.228385498046875,0.17887625098228455,-0.24778081476688385,-0.8254066705703735
1772609212095384300,4.23838427734375,0.2102373093366623,-0.04963276535272598,-0.7021933197975159
1772609212105382400,4.24838232421875,0.32096996903419495,0.21189764142036438,-0.44883057475090027
1772609212115380500,4.25838037109375,0.45576974749565125,0.3469808101654053,-0.07704399526119232
1772609212125378300,4.26837841796875,0.5103395581245422,0.3250877559185028,0.30234646797180176
1772609212135376400,4.27837646484375,0.48976314067840576,0.3360306918621063,0.5886269807815552
1772609212145374500,4.28837451171875,0.3893670439720154,0.49389809370040894,0.6392805576324463
1772609212155372300,4.298372314453125,0.2828589677810669,0.8780726194381714,0.36166465282440186
1772609212165370400,4.308370361328125,0.17220090329647064,1.348984718322754,-0.26782435178756714
1772609212175368400,4.318368408203125,0.0009186295792460442,1.6760824918746948,-1.069102168083191
1772609212185366300,4.3283662109375,-0.12021125853061676,1.7180075645446777,-1.548770546913147
1772609212195365400,4.338365478515625,-0.026828862726688385,1.4295356273651123,-1.3093180656433105
1772609212205363500,4.348363525390625,0.0026419437490403652,1.0591069459915161,-0.6307507157325745
1772609212215361300,4.358361328125,-0.16570481657981873,0.7521231770515442,-0.0467296727001667
1772609212225359400,4.368359375,-0.24791765213012695,0.266845166683197,0.12635742127895355
1772609212235357400,4.378357421875,-0.12832550704479218,-0.3695022165775299,0.02688026800751686
1772609212245355300,4.388355224609375,0.012811112217605114,-0.9269713163375854,-0.12621180713176727
1772609212255353300,4.398353271484375,0.10107776522636414,-1.107061743736267,-0.22205977141857147
1772609212265351400,4.408351318359375,0.20011059939861298,-0.8256562352180481,-0.1844455450773239
1772609212275349500,4.418349609375,0.2860109508037567,-0.31662702560424805,-0.02221963182091713
1772609212285347600,4.42834765625,0.32984843850135803,0.13080456852912903,0.16129453480243683
1772609212295346400,4.438346435546875,0.32106202840805054,0.37989214062690735,0.28896114230155945
1772609212305344300,4.44834423828125,0.2662549614906311,0.49497663974761963,0.34108665585517883
1772609212315342300,4.45834228515625,0.18486204743385315,0.5460692644119263,0.3224496841430664
1772609212325340400,4.46834033203125,0.10833744704723358,0.49404066801071167,0.3024304509162903
1772609212335338200,4.478338134765625,-0.04692400246858597,0.3683585524559021,0.2964116632938385
1772609212345336300,4.48833642578125,-0.2053634524345398,0.13125759363174438,0.3033212423324585
1772609212355334400,4.49833447265625,-0.28547030687332153,-0.09968896210193634,0.3999415934085846
1772609212365332500,4.50833251953125,-0.3077108860015869,-0.28302496671676636,0.5687351226806641
1772609212375330600,4.51833056640625,-0.26884058117866516,-0.35865479707717896,0.735526442527771
1772609212385328600,4.52832861328125,-0.18313181400299072,-0.2949937880039215,0.8446702361106873
1772609212395327500,4.538327392578125,-0.08582895994186401,-0.20069073140621185,0.8990599513053894
1772609212405325300,4.5483251953125,-0.01818094402551651,-0.15531818568706512,0.9381479620933533
1772609212415323400,4.558323486328125,-0.03307237848639488,-0.19807954132556915,0.9666191339492798
1772609212425321200,4.5683212890625,-0.10141947120428085,-0.25831547379493713,0.9733990430831909
1772609212435319300,4.5783193359375,-0.16333860158920288,-0.3038177490234375,0.9568115472793579
1772609212445317600,4.588317626953125,-0.20158639550209045,-0.31297263503074646,0.8997397422790527
1772609212455315500,4.5983154296875,-0.2379176765680313,-0.3054587244987488,0.7711838483810425
1772609212465313500,4.6083134765625,-0.2616989314556122,-0.2931794226169586,0.6192132234573364
1772609212475311600,4.6183115234375,-0.2704432010650635,-0.18802787363529205,0.49284523725509644
1772609212485309400,4.628309326171875,-0.2864131033420563,-0.06577280163764954,0.3328838050365448
1772609212495308300,4.638308349609375,-0.30503764748573303,-0.030484851449728012,0.12210099399089813
1772609212505306400,4.648306396484375,-0.2684207856655121,-0.06877444684505463,-0.09881195425987244
1772609212515304400,4.658304443359375,-0.1870027631521225,-0.12864917516708374,-0.29505378007888794
1772609212525303000,4.668302978515625,-0.08293308317661285,-0.2122601866722107,-0.43392670154571533
1772609212535300900,4.67830078125,0.025140825659036636,-0.282630056142807,-0.5725721716880798
1772609212545299000,4.688298828125,0.14433912932872772,-0.40042778849601746,-0.6146642565727234
1772609212555297000,4.698297119140625,0.229246586561203,-0.3902260959148407,-0.5706189274787903
1772609212565295000,4.708295166015625,0.24657577276229858,-0.27116602659225464,-0.4618179202079773
1772609212575293200,4.718293212890625,0.19130943715572357,-0.15760263800621033,-0.36833974719047546
1772609212585291300,4.728291259765625,0.1363665610551834,-0.10608698427677155,-0.2847340404987335
1772609212595290000,4.7382900390625,0.14762720465660095,-0.2857472896575928,-0.11527284979820251
1772609212605288000,4.748287841796875,0.20684552192687988,-0.5205273032188416,0.16126473248004913
1772609212615286000,4.7582861328125,0.26564252376556396,-0.5967344641685486,0.3925532102584839
1772609212625284000,4.7682841796875,0.20984262228012085,-0.5097561478614807,0.37486740946769714
1772609212635282000,4.778281982421875,0.028435975313186646,-0.3945920169353485,0.10117601603269577
1772609212645280000,4.788280029296875,-0.16874872148036957,-0.0036189546808600426,-0.4244118928909302
1772609212655278000,4.798278076171875,-0.3563869595527649,0.7628657221794128,-1.182786226272583
1772609212665276200,4.808276123046875,-0.45380911231040955,1.4015049934387207,-1.8382532596588135
1772609212675274200,4.818274169921875,-0.38564160466194153,1.703189492225647,-1.9424046277999878
1772609212685272000,4.82827197265625,-0.3187136948108673,1.7242270708084106,-1.6565289497375488
1772609212695271000,4.83827099609375,-0.3487166166305542,1.7045669555664062,-1.5063869953155518
1772609212705269000,4.84826904296875,-0.34251436591148376,1.7567081451416016,-1.5660334825515747
1772609212715267000,4.85826708984375,-0.307247132062912,1.5201175212860107,-1.5546931028366089
1772609212725265200,4.86826513671875,-0.17031404376029968,0.9195690751075745,-1.312977910041809
1772609212735263200,4.87826318359375,0.07456725835800171,0.2572443187236786,-0.7971535325050354
1772609212745261300,4.88826123046875,0.30244967341423035,-0.1468309909105301,-0.03750627487897873
1772609212755259100,4.898259033203125,0.458485871553421,-0.33713141083717346,0.700122594833374
1772609212765257200,4.90825732421875,0.56223064661026,-0.5122315287590027,1.1093696355819702
1772609212775255000,4.918255126953125,0.6494855880737305,-0.5972108244895935,1.1283233165740967
1772609212785253000,4.928253173828125,0.7081177234649658,-0.6438683271408081,0.8642476797103882
1772609212795252000,4.938251953125,0.6841526627540588,-0.6687431335449219,0.5038945078849792
1772609212805250000,4.94825,0.5551872253417969,-0.5889313817024231,0.24905502796173096
1772609212815248100,4.958248046875,0.33172082901000977,-0.48653119802474976,0.1782098114490509
1772609212825246200,4.96824609375,0.09194900095462799,-0.457109659910202,0.2702995240688324
1772609212835244300,4.978244384765625,-0.07600441575050354,-0.5155866146087646,0.49210089445114136
1772609212845242000,4.9882421875,-0.17336611449718475,-0.699741542339325,0.7469654083251953
1772609212855240200,4.998240234375,-0.22566168010234833,-0.8388310670852661,0.9714937806129456
1772609212865238300,5.00823828125,-0.23802007734775543,-0.8761028051376343,1.1337798833847046
1772609212875236000,5.018236083984375,-0.22034123539924622,-0.8895706534385681,1.225861668586731
1772609212885234200,5.028234130859375,-0.2145286202430725,-0.7814345955848694,1.2564678192138672
1772609212895233300,5.0382333984375,-0.21074338257312775,-0.6390174031257629,1.1873079538345337
1772609212905231000,5.048231201171875,-0.17835667729377747,-0.5049136877059937,1.0394084453582764
1772609212915229200,5.058229248046875,-0.15882791578769684,-0.41666537523269653,0.8533211350440979
1772609212925227300,5.068227294921875,-0.14311686158180237,-0.38322165608406067,0.6766563653945923
1772609212935225000,5.07822509765625,-0.112591452896595,-0.2711782157421112,0.5254026651382446
1772609212945223200,5.08822314453125,-0.07012948393821716,-0.12045316398143768,0.37487146258354187
1772609212955221200,5.09822119140625,-0.03589339181780815,-0.0016494481824338436,0.21298858523368835
1772609212965219000,5.108218994140625,0.011306876316666603,0.06957972794771194,0.07932640612125397
1772609212975217200,5.118217041015625,0.06805779039859772,0.05732594430446625,-0.037814993411302567
1772609212985215200,5.12821533203125,0.10179844498634338,-0.0051163979806005955,-0.170681431889534
1772609212995214000,5.138214111328125,0.10987785458564758,-0.05273539572954178,-0.372402548789978
1772609213005212200,5.148212158203125,0.15152382850646973,-0.10117164254188538,-0.5058956146240234
1772609213015210200,5.158210205078125,0.2043737769126892,-0.10107932239770889,-0.5399353504180908
1772609213025208000,5.1682080078125,0.25343161821365356,-0.11308378726243973,-0.5298845767974854
1772609213035206100,5.1782060546875,0.31194424629211426,-0.09950657933950424,-0.49898484349250793
1772609213045204200,5.188204345703125,0.3550781309604645,-0.0712648257613182,-0.4526713788509369
1772609213055202000,5.1982021484375,0.35940682888031006,-0.0025955301243811846,-0.3922808766365051
1772609213065200000,5.2082001953125,0.28119832277297974,0.13149888813495636,-0.3623834252357483
1772609213075198200,5.2181982421875,0.15127164125442505,0.3170663118362427,-0.41012850403785706
1772609213085197000,5.228197021484375,0.04443095624446869,0.39942270517349243,-0.46234989166259766
1772609213095195100,5.238195068359375,-0.040819063782691956,0.4732992649078369,-0.4598991274833679
1772609213105193200,5.248193115234375,-0.1055663675069809,0.511847972869873,-0.46251460909843445
1772609213115191000,5.25819091796875,-0.12459836155176163,0.5112096071243286,-0.4358797073364258
1772609213125189000,5.268189208984375,-0.1992827206850052,0.3021407723426819,-0.4563556909561157
1772609213135187200,5.278187255859375,-0.2651636004447937,0.28654107451438904,-0.481405109167099
1772609213145185000,5.28818505859375,-0.27608203887939453,0.670710563659668,-0.40918630361557007
1772609213155183000,5.29818310546875,-0.17127801477909088,1.1643675565719604,-0.24016322195529938
1772609213165181200,5.30818115234375,-0.07395093142986298,1.509305477142334,-0.02790849655866623
1772609213175179000,5.318178955078125,-0.1539624035358429,1.4428023099899292,0.07001558691263199
1772609213185176000,5.328176025390625,-0.37394028902053833,1.2610585689544678,0.021547218784689903
1772609213195174000,5.338173828125,-0.5140848755836487,1.143419861793518,-0.18119816482067108
1772609213205172000,5.348171875,-0.43888431787490845,0.667990505695343,-0.4338330626487732
1772609213215170000,5.358170166015625,-0.21769973635673523,-0.26069745421409607,-0.66562420129776
1772609213225168000,5.36816796875,0.09050876647233963,-1.1080325841903687,-0.8353642821311951
1772609213235167000,5.3781669921875,0.3352207541465759,-1.5473535060882568,-0.8535182476043701
1772609213245165000,5.3881650390625,0.39400729537010193,-1.3808032274246216,-0.5988730192184448
1772609213255163100,5.3981630859375,0.33574771881103516,-0.9314850568771362,-0.1747891753911972
1772609213265161000,5.408160888671875,0.3349984586238861,-0.621550440788269,0.21896155178546906
1772609213275159000,5.418158935546875,0.39565008878707886,-0.4762651324272156,0.5018936395645142
1772609213285156900,5.428156982421875,0.34848108887672424,-0.41362354159355164,0.6751177906990051
1772609213295155000,5.438155029296875,0.17815810441970825,-0.3751368522644043,0.7427668571472168
1772609213305153000,5.448153076171875,0.08982817083597183,-0.33035728335380554,0.7262762188911438
1772609213315151000,5.458151123046875,0.1060902327299118,-0.15281285345554352,0.6647965908050537
1772609213325149200,5.468149169921875,0.18352286517620087,0.22375059127807617,0.5748568773269653
1772609213335148000,5.47814794921875,0.25336799025535583,0.6550756692886353,0.4573846161365509
1772609213345146000,5.48814599609375,0.3106376826763153,0.9557946920394897,0.37806373834609985
1772609213355144000,5.49814404296875,0.38160720467567444,1.0955398082733154,0.3799162209033966
1772609213365142000,5.50814208984375,0.43473681807518005,0.9933308959007263,0.4636092483997345
1772609213375140000,5.51814013671875,0.47252655029296875,0.5735355019569397,0.6048547625541687
1772609213385138000,5.528137939453125,0.46380725502967834,0.18027424812316895,0.7901298403739929
1772609213395136000,5.538135986328125,0.40382543206214905,0.03866705298423767,0.9343530535697937
1772609213405134000,5.548134033203125,0.28586700558662415,-0.005476838909089565,0.9700614213943481
1772609213415132200,5.558132080078125,0.14244593679904938,-0.09749864041805267,0.8732182383537292
1772609213425131000,5.568131103515625,0.03110961616039276,-0.1996818482875824,0.6818069219589233
1772609213435129000,5.578129150390625,-0.021467041224241257,-0.24212944507598877,0.40673646330833435
1772609213445127000,5.588126953125,-0.060427915304899216,-0.291472464799881,0.06423621624708176
1772609213455125000,5.598125,-0.09819580614566803,-0.4008599519729614,-0.29010456800460815
1772609213465123000,5.608123046875,-0.1422988921403885,-0.5681465268135071,-0.5984070897102356
1772609213475121000,5.618120849609375,-0.22387124598026276,-0.7819200754165649,-0.8558724522590637
1772609213485119200,5.628119140625,-0.3143838942050934,-0.9758497476577759,-1.0524897575378418
1772609213495117300,5.638117431640625,-0.37605443596839905,-1.064988374710083,-1.1462759971618652
1772609213505115100,5.648115234375,-0.39018312096595764,-0.9149255156517029,-1.0939782857894897
1772609213515113200,5.65811328125,-0.4334048926830292,-0.6437230110168457,-0.968664288520813
1772609213525112000,5.668112060546875,-0.4799913465976715,-0.45358309149742126,-0.7945602536201477
1772609213535109600,5.678109619140625,-0.49823829531669617,-0.3782867193222046,-0.6545826196670532
1772609213545107500,5.688107421875,-0.455489844083786,-0.38067349791526794,-0.5530498027801514
1772609213555106300,5.698106201171875,-0.328804075717926,-0.2905108332633972,-0.4291702210903168
1772609213565104400,5.7081044921875,-0.13419997692108154,-0.050248973071575165,-0.27428263425827026
1772609213575102500,5.7181025390625,0.0360710471868515,0.2263248711824417,-0.10184835642576218
1772609213585100300,5.728100341796875,0.13717502355575562,0.4476969540119171,0.02834559977054596
1772609213595098400,5.738098388671875,0.12547171115875244,0.49401694536209106,0.07439606636762619
1772609213605096400,5.748096435546875,0.0831889659166336,0.4261681139469147,0.09532984346151352
1772609213615094500,5.758094482421875,0.11619868874549866,0.3983370363712311,0.1197538673877716
1772609213625092600,5.768092529296875,0.17999950051307678,0.5374805927276611,0.13834832608699799
1772609213635090400,5.77809033203125,0.17412300407886505,0.8667004704475403,0.01703389175236225
1772609213645089300,5.78808935546875,0.015092344023287296,1.3442875146865845,-0.21055586636066437
1772609213655087400,5.79808740234375,-0.228936567902565,1.4979826211929321,-0.38591378927230835
1772609213665085400,5.80808544921875,-0.4873841106891632,1.3064844608306885,-0.4825409948825836
1772609213675083500,5.81808349609375,-0.7809574007987976,1.0454102754592896,-0.6922611594200134
1772609213685081600,5.82808154296875,-0.9640041589736938,0.8444633483886719,-1.0290658473968506
1772609213695079700,5.83807958984375,-0.9249941110610962,0.6130846738815308,-1.224082589149475
1772609213705077500,5.848077392578125,-0.7240554094314575,0.17029711604118347,-1.0798977613449097
1772609213715075600,5.85807568359375,-0.3456669747829437,-0.3580515384674072,-0.5056039690971375
1772609213725073400,5.868073486328125,0.1555980145931244,-0.727921724319458,0.2859748899936676
1772609213735071500,5.878071533203125,0.6247915029525757,-0.844831109046936,0.8524351119995117
1772609213745070300,5.8880703125,0.9399009943008423,-0.799266517162323,1.0166581869125366
1772609213755068400,5.898068359375,1.0664862394332886,-0.6764867305755615,0.8463384509086609
1772609213765066500,5.90806640625,0.9618296027183533,-0.4890129864215851,0.4974265396595001
1772609213775064600,5.918064697265625,0.6830642819404602,-0.264535516500473,0.09649156033992767
1772609213785062700,5.928062744140625,0.34860557317733765,-0.13656288385391235,-0.2258625328540802
1772609213795060500,5.938060546875,0.024148760363459587,-0.10743792355060577,-0.3568021357059479
1772609213805058600,5.94805859375,-0.20832443237304688,-0.08256427198648453,-0.2384246289730072
1772609213815056600,5.958056640625,-0.35526859760284424,-0.11072376370429993,0.03288615867495537
1772609213825054500,5.968054443359375,-0.39891621470451355,-0.2268117517232895,0.3295101225376129
1772609213835053600,5.978053466796875,-0.3495387136936188,-0.30766546726226807,0.5720988512039185
1772609213845051600,5.9880517578125,-0.2278090864419937,-0.23775164783000946,0.7593814134597778
1772609213855049500,5.998049560546875,-0.12434004247188568,-0.08261245489120483,0.8944404721260071
1772609213865047600,6.008047607421875,-0.12200765311717987,0.013603560626506805,0.9813476800918579
1772609213875045600,6.018045654296875,-0.20616690814495087,0.013277390971779823,1.0040123462677002
1772609213885043500,6.02804345703125,-0.27971142530441284,-0.06754448264837265,0.9732942581176758
1772609213895041500,6.03804150390625,-0.29894036054611206,-0.2118002325296402,0.9014920592308044
1772609213905039600,6.04803955078125,-0.2847033739089966,-0.4039073586463928,0.7836591601371765
1772609213915037400,6.058037353515625,-0.23595133423805237,-0.5348204970359802,0.6241307854652405
1772609213925035500,6.068035400390625,-0.14052574336528778,-0.5794385671615601,0.44796401262283325
1772609213935034600,6.07803466796875,-0.01176920160651207,-0.4785109758377075,0.27229028940200806
1772609213945032400,6.088032470703125,0.11849132925271988,-0.25786593556404114,0.0797480121254921
1772609213955030500,6.098030517578125,0.2344667613506317,0.0015311026945710182,-0.15446974337100983
1772609213965028600,6.108028564453125,0.2969690263271332,0.246535524725914,-0.45635074377059937
1772609213975026400,6.1180263671875,0.30795568227767944,0.42847007513046265,-0.742508590221405
1772609213985024500,6.1280244140625,0.268168568611145,0.5057291388511658,-0.8954059481620789
1772609213995022600,6.138022705078125,0.17529909312725067,0.48432961106300354,-0.8856981992721558
1772609214005020400,6.1480205078125,0.09031456708908081,0.3750621974468231,-0.7659359574317932
1772609214015018500,6.1580185546875,0.06302094459533691,0.2030823826789856,-0.580819845199585
1772609214025016600,6.1680166015625,0.07324056327342987,0.12745580077171326,-0.334547758102417
1772609214035015400,6.178015380859375,0.040024951100349426,0.12876974046230316,-0.12009365856647491
1772609214045013500,6.188013427734375,-0.02759430557489395,0.06859667599201202,0.028349073603749275
1772609214055011600,6.198011474609375,-0.06499063968658447,-0.03608370199799538,0.13334403932094574
1772609214065009400,6.208009521484375,-0.0630827471613884,-0.19836927950382233,0.22438418865203857
1772609214075007500,6.218007568359375,-0.04314132034778595,-0.31390881538391113,0.31562331318855286
1772609214085005600,6.228005615234375,-0.05318010598421097,-0.2933308482170105,0.347665399312973
1772609214095003400,6.23800341796875,-0.09069401025772095,-0.2759202718734741,0.2264406830072403
1772609214105001500,6.24800146484375,-0.08474051207304001,-0.31212568283081055,-0.05434197932481766
1772609214114999600,6.25799951171875,-0.029508361592888832,-0.2871975004673004,-0.5174263119697571
1772609214124998700,6.26799853515625,0.02513357810676098,-0.14029569923877716,-1.2299271821975708
1772609214134996500,6.27799658203125,0.09363650530576706,0.28154706954956055,-1.896945595741272
1772609214144994600,6.28799462890625,0.28634947538375854,0.8838409185409546,-2.0230939388275146
1772609214154992400,6.297992431640625,0.35470935702323914,1.4123401641845703,-1.7074413299560547
1772609214164990500,6.307990478515625,0.18622155487537384,1.7002252340316772,-1.1429636478424072
1772609214174988500,6.317988525390625,0.039786744862794876,1.5379608869552612,-0.40728759765625
1772609214184986400,6.327986328125,0.06840640306472778,0.9848255515098572,0.31823763251304626
1772609214194984400,6.337984375,0.12054793536663055,0.26621249318122864,0.8232254385948181
1772609214204982500,6.347982421875,0.2181256264448166,-0.34248119592666626,0.9170227646827698
1772609214214981600,6.357981689453125,0.38884904980659485,-0.7149941325187683,0.7181960940361023
1772609214224979500,6.3679794921875,0.4590475857257843,-0.8856313824653625,0.4844541847705841
1772609214234977500,6.3779775390625,0.35155317187309265,-0.9797127842903137,0.28598740696907043
1772609214244975600,6.3879755859375,0.1592111587524414,-0.9696018099784851,0.1446784883737564
1772609214254973400,6.397973388671875,-0.03522941470146179,-0.793712854385376,0.0808940976858139
1772609214264971500,6.407971435546875,-0.18291553854942322,-0.49533411860466003,0.10592887550592422
1772609214274969300,6.41796923828125,-0.2840607762336731,-0.1474798023700714,0.18459820747375488
1772609214284967400,6.427967529296875,-0.38024723529815674,0.11714120209217072,0.278200626373291
1772609214294965500,6.437965576171875,-0.4651601314544678,0.13740330934524536,0.3877376914024353
1772609214304963300,6.44796337890625,-0.45798608660697937,-0.08468249440193176,0.547645628452301
1772609214314962400,6.45796240234375,-0.40277308225631714,-0.4307851493358612,0.6953417658805847
1772609214324960500,6.46796044921875,-0.3171788454055786,-0.822955846786499,0.7859089374542236
1772609214334958600,6.47795849609375,-0.19765298068523407,-1.2150384187698364,0.8243916630744934
1772609214344956400,6.487956298828125,-0.0763731598854065,-1.4800999164581299,0.8132317066192627
1772609214354954500,6.49795458984375,0.025356417521834373,-1.5549278259277344,0.7738915681838989
1772609214364952600,6.50795263671875,0.09644896537065506,-1.4188461303710938,0.7196304798126221
1772609214374950400,6.517950439453125,0.14262154698371887,-1.163823127746582,0.6814420223236084
1772609214384948500,6.527948486328125,0.1571831852197647,-0.8784583806991577,0.6228677034378052
1772609214394946300,6.5379462890625,0.1267285943031311,-0.6284874081611633,0.5042381286621094
1772609214404945400,6.5479453125,0.10882122814655304,-0.3584042489528656,0.39455536007881165
1772609214414943500,6.557943603515625,0.10959378629922867,-0.17498454451560974,0.3099898099899292
1772609214424941600,6.567941650390625,0.10421260446310043,-0.10992937535047531,0.18346461653709412
1772609214434939400,6.577939453125,0.0934472531080246,-0.03444250673055649,0.00638206023722887
1772609214444937500,6.5879375,0.09655755758285522,0.09287896007299423,-0.2036510705947876
1772609214454935600,6.597935546875,0.12843504548072815,0.23011113703250885,-0.4034797251224518
1772609214464933400,6.607933349609375,0.1973629891872406,0.3300686180591583,-0.5283856987953186
1772609214474931500,6.617931396484375,0.26347479224205017,0.3659219443798065,-0.5696536302566528
1772609214484929500,6.627929443359375,0.2957962453365326,0.38292914628982544,-0.5384442806243896
1772609214494927400,6.63792724609375,0.28325220942497253,0.3636356294155121,-0.4540116786956787
1772609214504926500,6.647926513671875,0.25475427508354187,0.33458107709884644,-0.3535228967666626
1772609214514924500,6.657924560546875,0.2187175303697586,0.3862893283367157,-0.24728524684906006
1772609214524922400,6.66792236328125,0.16893692314624786,0.4825860261917114,-0.13479119539260864
1772609214534919700,6.677919677734375,0.09881652891635895,0.5289003252983093,-0.006607172545045614
1772609214544917800,6.687917724609375,0.041213683784008026,0.4620794951915741,0.09480732679367065
1772609214554915800,6.697915771484375,-0.02821127325296402,0.26391008496284485,0.09848424792289734
1772609214564913700,6.70791357421875,-0.1079883947968483,-0.07437688857316971,0.004336177371442318
1772609214574911700,6.717911865234375,-0.12717966735363007,-0.27769193053245544,-0.03596574813127518
1772609214584909800,6.727909912109375,-0.07815645635128021,-0.1978043019771576,-0.17677560448646545
1772609214594908700,6.73790869140625,0.020175941288471222,-0.06739134341478348,-0.43366438150405884
1772609214604906800,6.74790673828125,0.10311397165060043,0.16887497901916504,-0.8280428647994995
1772609214614904800,6.75790478515625,0.1965419203042984,0.5571351051330566,-1.1832236051559448
1772609214624902700,6.767902587890625,0.2563357353210449,1.127483606338501,-1.4915366172790527
1772609214634900700,6.777900634765625,0.1776747703552246,1.8125896453857422,-1.7611604928970337
1772609214644898800,6.78789892578125,0.15905794501304626,2.516184091567993,-1.741843819618225
1772609214654896600,6.797896728515625,0.40870797634124756,2.9303019046783447,-1.28564453125
1772609214664894700,6.807894775390625,0.545261561870575,3.0108749866485596,-0.514920175075531
1772609214674892800,6.817892822265625,0.21208103001117706,2.1825010776519775,0.14466072618961334
1772609214684892000,6.827891845703125,-0.34150946140289307,1.0229735374450684,0.47379282116889954
1772609214694889700,6.8378896484375,-0.5747748017311096,0.22027245163917542,0.5765537619590759
1772609214704887800,6.8478876953125,-0.45612141489982605,-0.4297947585582733,0.4744660258293152
1772609214714885600,6.8578857421875,-0.17276035249233246,-0.9444456100463867,0.2929554283618927
1772609214724883700,6.8678837890625,0.09451182931661606,-1.1074109077453613,0.15009039640426636
1772609214734881800,6.8778818359375,0.25866708159446716,-0.9177626967430115,0.02686842530965805
1772609214744879600,6.887879638671875,0.28221049904823303,-0.6240514516830444,-0.17784664034843445
1772609214754877700,6.897877685546875,0.21088296175003052,-0.3321743607521057,-0.48355311155319214
1772609214764875800,6.907875732421875,0.09105029702186584,-0.02920169197022915,-0.7465783357620239
1772609214774873900,6.917873779296875,-0.06115226447582245,0.23443439602851868,-0.8539162278175354
1772609214784872700,6.927872802734375,-0.22738225758075714,0.32691824436187744,-0.7247478365898132
1772609214794870800,6.937870849609375,-0.3849411606788635,0.2896391451358795,-0.3863253593444824
1772609214804868900,6.947868896484375,-0.49842777848243713,0.16480743885040283,0.05492953956127167
1772609214814866700,6.95786669921875,-0.5187346339225769,-0.004757301416248083,0.451606422662735
1772609214824864800,6.96786474609375,-0.4700140058994293,-0.18221676349639893,0.6933913826942444
1772609214834862600,6.977862548828125,-0.42055565118789673,-0.4029190242290497,0.7905824780464172
1772609214844860700,6.987860595703125,-0.3395760953426361,-0.6268807649612427,0.8047483563423157
1772609214854858800,6.997858642578125,-0.18498963117599487,-0.8113296627998352,0.7995650172233582
1772609214864856800,7.00785693359375,-0.029254624620079994,-0.8939350247383118,0.7934101819992065
1772609214874855700,7.017855712890625,0.04036875069141388,-0.9002439379692078,0.7798863649368286
1772609214884853800,7.027853759765625,0.07262575626373291,-0.8838351368904114,0.8058915734291077
1772609214894851800,7.037851806640625,0.09948338568210602,-0.7908576726913452,0.8685694932937622
1772609214904849700,7.047849609375,0.10448507964611053,-0.6273446083068848,0.9337194561958313
1772609214914847700,7.05784765625,0.06879499554634094,-0.49604761600494385,0.9523605704307556
1772609214924845800,7.067845703125,0.01786390133202076,-0.4123559296131134,0.8794724941253662
1772609214934844000,7.077843994140625,-0.023728743195533752,-0.29597458243370056,0.7318503856658936
1772609214944842000,7.087842041015625,-0.09878808259963989,-0.17979763448238373,0.5022723078727722
1772609214954840000,7.097840087890625,-0.07740282267332077,-0.07734673470258713,0.29291871190071106
1772609214964838700,7.107838623046875,0.039426058530807495,0.07562656700611115,0.11863455176353455
1772609214974836700,7.117836669921875,0.15131330490112305,0.2252405434846878,0.0011745011433959007
1772609214984834800,7.127834716796875,0.21590401232242584,0.28698062896728516,-0.07486114650964737
1772609214994832600,7.13783251953125,0.2841171324253082,0.25671759247779846,-0.11612097918987274
1772609215004830700,7.147830810546875,0.35258275270462036,0.1267596036195755,-0.13377587497234344
1772609215014828800,7.157828857421875,0.3980049192905426,-0.016325373202562332,-0.11960994452238083
1772609215024827000,7.167826904296875,0.41430479288101196,-0.15123020112514496,-0.07014705240726471
1772609215034825000,7.177824951171875,0.3986400365829468,-0.28960898518562317,-0.045958779752254486
1772609215044823000,7.187822998046875,0.35595300793647766,-0.4409862458705902,-0.08705855160951614
1772609215054821600,7.197821533203125,0.32120081782341003,-0.5832632780075073,-0.14665551483631134
1772609215064819700,7.20781982421875,0.2969186305999756,-0.7031641602516174,-0.11923134326934814
1772609215074817800,7.21781787109375,0.291116327047348,-0.8180431723594666,0.011987242847681046
1772609215084815600,7.227815673828125,0.31652316451072693,-0.8622737526893616,0.164897158741951
1772609215094813700,7.237813720703125,0.3388519287109375,-0.7615780830383301,0.2353791445493698
1772609215104812000,7.24781201171875,0.3158819079399109,-0.37366819381713867,0.2414247840642929
1772609215114809900,7.257809814453125,0.24680404365062714,0.39486679434776306,0.29849621653556824
1772609215124808000,7.267807861328125,0.1913013756275177,1.265547275543213,0.37793242931365967
1772609215134806000,7.277805908203125,0.12497518956661224,1.733187198638916,0.2749382257461548
1772609215144803800,7.287803955078125,-0.01609991118311882,1.7480511665344238,-0.049491237848997116
1772609215154802700,7.297802734375,-0.09898346662521362,1.478824257850647,-0.3336946964263916
1772609215164800800,7.30780078125,0.01061386801302433,1.077284574508667,-0.5136652588844299
1772609215174798800,7.317798828125,0.13518597185611725,0.6564135551452637,-0.6293830275535583
1772609215184797000,7.327796875,0.2341088205575943,0.4044457972049713,-0.5458561778068542
1772609215194795000,7.337794921875,0.3768666088581085,0.297031968832016,-0.3635214567184448
1772609215204792800,7.347792724609375,0.5011613965034485,0.15444475412368774,-0.30216675996780396
1772609215214791000,7.357791015625,0.45382845401763916,-0.16787666082382202,-0.41585367918014526
1772609215224789000,7.3677890625,0.34996676445007324,-0.5511233806610107,-0.5456313490867615
1772609215234786800,7.377786865234375,0.322026789188385,-0.7263179421424866,-0.5490437746047974
1772609215244785700,7.38778564453125,0.2587570250034332,-0.7144282460212708,-0.4641307592391968
1772609215254783700,7.39778369140625,0.12228581309318542,-0.6686644554138184,-0.38025984168052673
1772609215264781800,7.40778173828125,-0.0925854817032814,-0.5543658137321472,-0.26414600014686584
1772609215274780000,7.41777978515625,-0.30418601632118225,-0.46528252959251404,-0.14726649224758148
1772609215284778000,7.427778076171875,-0.4622928500175476,-0.3441971242427826,-0.1364484578371048
1772609215294775800,7.43777587890625,-0.5548284649848938,-0.14043362438678741,-0.2812166213989258
1772609215304774000,7.44777392578125,-0.6250603199005127,0.013034761883318424,-0.4850355088710785
1772609215314772000,7.45777197265625,-0.6646167039871216,-0.036701034754514694,-0.5968492031097412
1772609215324769800,7.467769775390625,-0.6007431745529175,-0.24541990458965302,-0.5076868534088135
1772609215334769000,7.477768798828125,-0.4343641400337219,-0.5014663934707642,-0.20665186643600464
1772609215344767000,7.48776708984375,-0.22079136967658997,-0.741023063659668,0.18924513459205627
1772609215354765000,7.49776513671875,-0.024040866643190384,-0.9000734686851501,0.5625441670417786
1772609215364763000,7.507762939453125,0.0917200893163681,-0.9577444791793823,0.8360061049461365
1772609215374761000,7.517760986328125,0.1272692084312439,-0.8970221281051636,1.0099881887435913
1772609215384758800,7.5277587890625,0.11120262742042542,-0.7410746216773987,1.12522292137146
1772609215394756900,7.5377568359375,0.023857153952121735,-0.5383568406105042,1.1725239753723145
1772609215404755000,7.5477548828125,-0.19578999280929565,-0.4279797375202179,1.1268171072006226
1772609215414752800,7.557752685546875,-0.5298189520835876,-0.16524167358875275,1.061685562133789
1772609215424751900,7.567751953125,-0.6848508715629578,-0.22655536234378815,1.1021219491958618
1772609215434750000,7.57775,-0.8011290431022644,-0.3271717131137848,1.1481186151504517
1772609215444748000,7.587748046875,-0.9276850819587708,-0.20674754679203033,1.2032451629638672
1772609215454745900,7.597745849609375,-0.933250367641449,-0.12313775718212128,1.2829725742340088
1772609215464744000,7.607743896484375,-0.8292051553726196,-0.31147676706314087,1.2815802097320557
1772609215474742000,7.617741943359375,-0.6602733731269836,-0.480040967464447,1.1297492980957031
1772609215484739800,7.62773974609375,-0.4417552053928375,-0.5385103821754456,0.8994871377944946
1772609215494738000,7.637738037109375,-0.23094771802425385,-0.5014630556106567,0.5871687531471252
1772609215504735700,7.64773583984375,-0.055452845990657806,-0.434206485748291,0.21020901203155518
1772609215514734800,7.65773486328125,0.11715160310268402,-0.38232794404029846,-0.17408627271652222
1772609215524733000,7.66773291015625,0.2913566827774048,-0.30683133006095886,-0.5837848782539368
1772609215534731800,7.677731689453125,0.39548271894454956,-0.1689171940088272,-1.0118942260742188
1772609215544729900,7.687729736328125,0.34867048263549805,-0.19605933129787445,-1.3734865188598633
1772609215554728000,7.69772802734375,0.20076924562454224,-0.4799819886684418,-1.6321134567260742
1772609215564725800,7.707725830078125,0.07999461889266968,-0.5485967397689819,-1.8296582698822021
1772609215574723800,7.717723876953125,0.08549808710813522,0.5026286840438843,-1.6706938743591309
1772609215584722000,7.727721923828125,0.1972416639328003,0.36817580461502075,-1.2010248899459839
1772609215594720000,7.737719970703125,0.05402810126543045,0.056401327252388,-0.6391230821609497
1772609215604718800,7.74771875,-0.13086186349391937,0.04424586147069931,0.05971142649650574
1772609215614717000,7.757717041015625,-0.22669337689876556,0.4429161548614502,0.8013699650764465
1772609215624714800,7.76771484375,-0.27323880791664124,0.7345981001853943,1.237255334854126
1772609215634712800,7.777712890625,-0.3753349781036377,0.7728158831596375,1.1777293682098389
1772609215644711000,7.7877109375,-0.42654916644096375,0.7052147388458252,0.7651718258857727
1772609215654708700,7.797708740234375,-0.2430771440267563,0.8568510413169861,0.4127572774887085
1772609215664707000,7.80770703125,-0.02150534838438034,1.2313116788864136,0.1763084977865219
1772609215674705200,7.817705078125,-0.08592580258846283,1.7783887386322021,-0.1603381186723709
1772609215684703000,7.827702880859375,-0.28397977352142334,2.2312653064727783,-0.6291969418525696
1772609215694701800,7.837701904296875,-0.28838542103767395,2.466299057006836,-0.9629196524620056
1772609215704700000,7.847699951171875,-0.15409445762634277,2.3898274898529053,-0.9497066140174866
1772609215714697700,7.85769775390625,-0.06860504299402237,1.8032512664794922,-0.6399758458137512
1772609215724695800,7.86769580078125,-0.002890484407544136,0.949826717376709,-0.1169389933347702
1772609215734694000,7.87769384765625,0.13372772932052612,0.19344384968280792,0.4483768343925476
1772609215744692000,7.88769189453125,0.26265427470207214,-0.2578127980232239,0.7893381118774414
1772609215754690000,7.89768994140625,0.336800217628479,-0.41184911131858826,0.7759742140769958
1772609215764688100,7.907688232421875,0.3881864547729492,-0.4288422167301178,0.4576665461063385
1772609215774686000,7.91768603515625,0.40287014842033386,-0.2846207916736603,-0.028969161212444305
1772609215784684800,7.927684814453125,0.3283037841320038,-0.1332981139421463,-0.5582244992256165
1772609215794683000,7.937682861328125,0.19564354419708252,-0.12366321682929993,-0.9693695902824402
1772609215804681000,7.947680908203125,0.06722698360681534,-0.371041864156723,-1.2047842741012573
1772609215814678800,7.9576787109375,-0.054331231862306595,-0.6864664554595947,-1.2415961027145386
1772609215824676900,7.9676767578125,-0.14125972986221313,-0.9385167956352234,-1.1432697772979736
1772609215834675000,7.977675048828125,-0.12894542515277863,-1.1401138305664062,-0.9077815413475037
1772609215844673000,7.987673095703125,-0.010840095579624176,-1.2441006898880005,-0.5192090272903442
1772609215854671000,7.997671142578125,0.14557038247585297,-1.2378395795822144,-0.01994185708463192
1772609215864669000,8.0076689453125,0.2513181269168854,-1.213594913482666,0.5071771144866943
1772609215874667800,8.017667724609375,0.2919594347476959,-1.2044155597686768,0.9512960910797119
1772609215884665900,8.027665771484376,0.277156800031662,-1.1035041809082031,1.217802882194519
1772609215894664000,8.037663818359375,0.24590016901493073,-0.8512396216392517,1.2978918552398682
1772609215904662000,8.047662109375,0.22072024643421173,-0.4532983899116516,1.223727822303772
1772609215914660000,8.05766015625,0.1985359489917755,-0.0034389698412269354,1.0536842346191406
1772609215924658200,8.067658203125,0.15819969773292542,0.32687824964523315,0.853409469127655
1772609215934656000,8.077656005859374,0.10489308834075928,0.43809202313423157,0.6560032963752747
1772609215944654000,8.087654052734376,0.06594303250312805,0.36153867840766907,0.5214374661445618
1772609215954652000,8.09765185546875,0.006136679090559483,0.1861671358346939,0.42826417088508606
1772609215964650800,8.107650634765625,-0.06616388261318207,-0.02101827785372734,0.329418808221817
1772609215974648800,8.11764892578125,-0.11795694380998611,-0.31729650497436523,0.14647340774536133
1772609215984647000,8.12764697265625,-0.12988923490047455,-0.5843079686164856,-0.06713899970054626
1772609215994645000,8.13764501953125,-0.10447143763303757,-0.7111498117446899,-0.26966461539268494
1772609216004643000,8.14764306640625,-0.008207219652831554,-0.6937617659568787,-0.4577474296092987
1772609216014641200,8.15764111328125,0.11440306156873703,-0.5186967849731445,-0.6485494375228882
1772609216024639000,8.167638916015624,0.20855407416820526,-0.24255037307739258,-0.8630843758583069
1772609216034637000,8.177636962890626,0.27647581696510315,0.11387981474399567,-1.0433014631271362
1772609216044635100,8.18763525390625,0.3244875371456146,0.45082828402519226,-1.1059848070144653
1772609216054633700,8.1976337890625,0.361041784286499,0.6287757158279419,-1.0141475200653076
1772609216064632000,8.207632080078126,0.3652498424053192,0.5946816205978394,-0.7896363735198975
1772609216074630100,8.217630126953125,0.29078882932662964,0.3962222635746002,-0.5341516733169556
1772609216084628000,8.2276279296875,0.18649065494537354,0.13275517523288727,-0.2766770124435425
1772609216094626000,8.2376259765625,0.1316896378993988,0.04657657444477081,-0.01209799200296402
1772609216104624000,8.2476240234375,0.18374350666999817,0.3178943693637848,0.1274718940258026
1772609216114622000,8.2576220703125,0.28031522035598755,0.8001645803451538,0.06864280253648758
1772609216124620000,8.2676201171875,0.35996636748313904,1.1818597316741943,-0.21114490926265717
1772609216134618000,8.2776181640625,0.4512324631214142,1.242374062538147,-0.6144843697547913
1772609216144617000,8.287616943359374,0.520838737487793,0.8531906008720398,-0.9850888252258301
1772609216154615000,8.297614990234376,0.534666121006012,0.2126961201429367,-1.1190884113311768
1772609216164613000,8.307613037109375,0.4506356418132782,-0.2109595388174057,-0.9035675525665283
1772609216174611000,8.31761083984375,0.2733188569545746,-0.23150627315044403,-0.5347495079040527
1772609216184609000,8.327609130859376,0.05825261026620865,0.03308623656630516,-0.22936908900737762
1772609216194607000,8.337607177734375,-0.1197085902094841,0.3299333155155182,-0.12789824604988098
1772609216204605000,8.34760498046875,-0.17875699698925018,0.5840374827384949,-0.15550537407398224
1772609216214603000,8.35760302734375,-0.17335037887096405,0.7115771174430847,-0.2987857162952423
1772609216224601000,8.36760107421875,-0.19453927874565125,0.1883850246667862,-0.5900164842605591
1772609216234600200,8.37760009765625,-0.14624209702014923,-0.5355311036109924,-0.9503740072250366
1772609216244598000,8.387597900390626,0.17369382083415985,-0.675356388092041,-1.1903636455535889
1772609216254596000,8.39759619140625,0.5251554846763611,-0.1668623983860016,-1.20320725440979
1772609216264594000,8.407593994140624,0.6324537396430969,0.4372471868991852,-1.126109004020691
1772609216274592000,8.417592041015626,0.6884764432907104,0.8392661213874817,-1.0003143548965454
1772609216284590000,8.427590087890625,0.7734182476997375,1.1935012340545654,-0.8371299505233765
1772609216294588000,8.437587890625,0.8544984459877014,1.6709134578704834,-0.6210662126541138
1772609216304586000,8.4475859375,0.9133577942848206,2.154355764389038,-0.38751524686813354
1772609216314585000,8.457585205078125,0.7794846296310425,1.9933537244796753,-0.1949949413537979
1772609216324583200,8.467583251953124,0.5568726062774658,1.391166090965271,0.06564144790172577
1772609216334581000,8.4775810546875,0.42655065655708313,0.766588568687439,0.39372533559799194
1772609216344579000,8.4875791015625,0.3811855912208557,0.29434993863105774,0.7114455699920654
1772609216354577200,8.4975771484375,0.4193767309188843,0.15159551799297333,1.0444623231887817
1772609216364575000,8.507574951171875,0.3051862418651581,0.006717960815876722,1.295074224472046
1772609216374573000,8.517572998046875,0.0887799859046936,-0.271379292011261,1.5124402046203613
1772609216384571000,8.52757080078125,-0.12491285055875778,-0.5912550091743469,1.6994138956069946
1772609216394569000,8.53756884765625,-0.2974255084991455,-0.8859585523605347,1.8436200618743896
1772609216404568000,8.547568115234375,-0.4306402802467346,-1.1276878118515015,1.9477612972259521
1772609216414566100,8.557566162109374,-0.542236864566803,-1.2906676530838013,2.0203258991241455
1772609216424564000,8.56756396484375,-0.6477653980255127,-1.0940837860107422,2.0310921669006348
1772609216434562000,8.57756201171875,-0.7478980422019958,-0.7112681269645691,1.8729318380355835
1772609216444560100,8.58756005859375,-0.8302901387214661,-0.7541886568069458,1.5294532775878906
1772609216454558000,8.597557861328125,-0.8491274118423462,-1.0216279029846191,1.1289739608764648
1772609216464556000,8.60755615234375,-0.7298193573951721,-1.160073161125183,0.8689600229263306
1772609216474554000,8.61755419921875,-0.5680533051490784,-0.9445092082023621,0.7867758274078369
1772609216484552000,8.627552001953125,-0.4861871898174286,-0.5387518405914307,0.7372040152549744
1772609216494551000,8.637551025390625,-0.44261863827705383,-0.2143482267856598,0.5596848130226135
1772609216504549000,8.647549072265624,-0.39980006217956543,-0.08068870007991791,0.28268516063690186
1772609216514547000,8.657546875,-0.28261852264404297,-0.10170172154903412,0.02067733369767666
1772609216524545000,8.667544921875,-0.08520212024450302,-0.21832475066184998,-0.1951971799135208
1772609216534541800,8.677541748046876,0.18450355529785156,-0.4382142722606659,-0.33756354451179504
1772609216544540000,8.687539794921875,0.4486848711967468,-0.5355435013771057,-0.35563895106315613
1772609216554538000,8.6975380859375,0.6017127633094788,-0.30293741822242737,-0.1882701814174652
1772609216564535800,8.707535888671876,0.6186589002609253,0.07624173164367676,0.12177198380231857
1772609216574534000,8.717533935546875,0.4287201166152954,0.28464555740356445,0.4185941517353058
1772609216584533000,8.727532958984375,0.06506416201591492,0.22915753722190857,0.6162470579147339
1772609216594531000,8.737531005859376,-0.20520934462547302,-0.14964605867862701,0.7501598000526428
1772609216604529000,8.74752880859375,-0.36234328150749207,-0.5935574173927307,0.8311249613761902
1772609216614527000,8.75752685546875,-0.4871118366718292,-0.9205619692802429,0.8880330920219421
1772609216624525000,8.767525146484376,-0.6354280710220337,-1.068789005279541,0.8370566964149475
1772609216634523000,8.77752294921875,-0.7297524213790894,-0.9918875694274902,0.6949866414070129
1772609216644521000,8.78752099609375,-0.6906809210777283,-0.6466050148010254,0.4556768536567688
1772609216654518800,8.797518798828126,-0.5322331190109253,-0.09013128280639648,-0.09923345595598221
1772609216664516900,8.807516845703125,-0.30711057782173157,0.6031937003135681,-0.9395331740379333
1772609216674516000,8.817515869140625,-0.07845321297645569,1.4683713912963867,-1.7017594575881958
1772609216684514000,8.82751416015625,0.20070065557956696,2.4577994346618652,-2.1274471282958984
1772609216694511900,8.837511962890625,0.39559102058410645,3.1548585891723633,-2.289484739303589
1772609216704510000,8.847510009765625,0.500441312789917,3.0214619636535645,-2.294307231903076
1772609216714508000,8.857508056640626,0.554960310459137,1.9501025676727295,-2.056806802749634
1772609216724505900,8.867505859375,0.4580520987510681,0.7980561256408691,-1.4260075092315674
1772609216734504000,8.87750390625,0.13813118636608124,-0.44717836380004883,-0.5676320791244507
1772609216744502000,8.887501953125,-0.2497646063566208,-1.5488370656967163,-0.09944251924753189
1772609216754499800,8.897499755859375,-0.4053384065628052,-2.1133522987365723,-0.16732163727283478
1772609216764499000,8.9074990234375,-0.348635733127594,-2.0634713172912598,-0.43483906984329224
1772609216774497000,8.9174970703125,-0.19165396690368652,-1.5894216299057007,-0.5881662964820862
1772609216784494800,8.927494873046875,-0.047738607972860336,-0.9648458957672119,-0.6372366547584534
1772609216794493000,8.937492919921874,-0.001546202227473259,-0.4931188225746155,-0.5538889169692993
1772609216804491000,8.947490966796876,-0.12449023872613907,-0.28996971249580383,-0.48012155294418335
1772609216814488800,8.95748876953125,-0.3310917913913727,-0.313902884721756,-0.5101134181022644
1772609216824487000,8.96748681640625,-0.49481600522994995,-0.4026034474372864,-0.4925821125507355
1772609216834485000,8.977485107421876,-0.6879979372024536,-0.3826042711734772,-0.33623746037483215
1772609216844483800,8.98748388671875,-0.7470263838768005,-0.4206051826477051,-0.008632434532046318
1772609216854482000,8.99748193359375,-0.6210364103317261,-0.643683910369873,0.38831424713134766
1772609216864480000,9.00747998046875,-0.4453146755695343,-0.9847871661186218,0.7623205780982971
1772609216874477800,9.017477783203125,-0.293119341135025,-1.2698179483413696,1.040557622909546
1772609216884476000,9.027475830078124,-0.21961744129657745,-1.3242162466049194,1.166655421257019
1772609216894474000,9.037473876953126,-0.28653761744499207,-1.3270573616027832,1.1752127408981323
1772609216904471800,9.047471923828125,-0.3248916566371918,-1.3606493473052979,1.1507319211959839
1772609216914470000,9.057469970703124,-0.1617858111858368,-1.1482980251312256,1.148255467414856
1772609216924468000,9.067468017578125,0.05621015280485153,-0.9670720100402832,1.085717797279358
1772609216934466800,9.077466796875,0.23074060678482056,-0.7772963643074036,0.9343279004096985
1772609216944465000,9.08746484375,0.3678912818431854,-0.7463581562042236,0.7451417446136475
1772609216954463000,9.097462890625,0.44858384132385254,-0.7329615354537964,0.5619370937347412
1772609216964460800,9.107460693359375,0.5320377349853516,-0.5337850451469421,0.36203598976135254
1772609216974459000,9.117458984375,0.6184020638465881,-0.1547643542289734,0.09687768667936325
1772609216984457000,9.12745703125,0.7152814865112305,0.3057103157043457,-0.21243327856063843
1772609216994454800,9.137454833984375,0.8014236092567444,0.7735096216201782,-0.5680017471313477
1772609217004452900,9.147452880859374,0.8269582390785217,1.1212190389633179,-0.9624419808387756
1772609217014451000,9.157450927734375,0.8322625756263733,1.367912769317627,-1.3060617446899414
1772609217024450000,9.167449951171875,0.8692360520362854,1.4332371950149536,-1.430273175239563
1772609217034448000,9.17744775390625,0.8927735686302185,1.3247634172439575,-1.2161082029342651
1772609217044446000,9.187446044921876,0.8407183885574341,1.0451076030731201,-0.6047665476799011
1772609217054443800,9.19744384765625,0.6420935988426208,0.9009650349617004,0.16596703231334686
1772609217064441900,9.20744189453125,0.36290645599365234,0.7839518785476685,0.8418520092964172
1772609217074440000,9.21743994140625,0.07987375557422638,0.6199369430541992,1.317018985748291
1772609217084437800,9.227437744140625,-0.16185390949249268,0.40149301290512085,1.5703790187835693
1772609217094435800,9.237435791015624,-0.33370912075042725,0.09825238585472107,1.6252456903457642
1772609217104435000,9.24743505859375,-0.432097464799881,-0.13754922151565552,1.4607335329055786
1772609217114433000,9.25743310546875,-0.4305579960346222,-0.017962485551834106,1.0783476829528809
1772609217124430800,9.267430908203124,-0.35677775740623474,0.3051482141017914,0.5613122582435608
1772609217134429000,9.277428955078125,-0.2974153757095337,0.618876576423645,0.022760963067412376
1772609217144427000,9.287427001953125,-0.26634830236434937,0.7682849764823914,-0.46969160437583923
1772609217154424800,9.2974248046875,-0.19372664391994476,0.7178597450256348,-1.00635826587677
1772609217164423000,9.3074228515625,-0.11797276139259338,0.5076495409011841,-1.674688696861267
1772609217174420700,9.317420654296875,-0.12258242070674896,0.27232471108436584,-2.0631494522094727
1772609217184418800,9.327418701171876,-0.23687463998794556,0.4336203932762146,-1.7607526779174805
1772609217194417000,9.3374169921875,-0.3361039161682129,0.839972198009491,-0.9372983574867249
1772609217204414700,9.347414794921875,-0.3104417026042938,1.0004297494888306,-0.07848353683948517
1772609217214412800,9.357412841796876,-0.14699390530586243,0.9016914367675781,0.5540952682495117
1772609217224411100,9.3674111328125,0.13573765754699707,0.5394725203514099,0.7933456897735596
1772609217234409000,9.377408935546875,0.4806079566478729,-0.017181146889925003,0.5336161255836487
1772609217244407000,9.387406982421876,0.7704200148582458,-0.41637852787971497,-0.006886237300932407
1772609217254405000,9.397405029296875,0.8385926485061646,-0.6594403982162476,-0.5144479870796204
1772609217264404000,9.407404052734375,0.668886661529541,-0.6709833741188049,-0.7988957166671753
1772609217274401800,9.41740185546875,0.3254776895046234,-0.558161735534668,-0.9336655139923096
1772609217284399900,9.42739990234375,0.029688145965337753,-0.36564552783966064,-0.9904425740242004
1772609217294398000,9.43739794921875,-0.09813746064901352,-0.1780838966369629,-0.9238014817237854
1772609217304396000,9.44739599609375,-0.10801085084676743,-0.12145823240280151,-0.7496660351753235
1772609217314394000,9.45739404296875,-0.07143579423427582,0.024685127660632133,-0.5143011808395386
1772609217324392000,9.467391845703125,-0.011098843067884445,0.11609335243701935,-0.20125237107276917
1772609217334390000,9.47739013671875,-0.05263590067625046,-0.024732206016778946,0.14012865722179413
1772609217344388900,9.487388916015625,-0.24802660942077637,-0.4878148138523102,0.5245473980903625
1772609217354387000,9.497386962890625,-0.3600498139858246,-0.9064723253250122,0.9026105403900146
1772609217364384800,9.507384765625,-0.3433177173137665,-1.2264379262924194,1.1243889331817627
1772609217374382800,9.5173828125,-0.2746792733669281,-1.479971170425415,1.1973598003387451
1772609217384381000,9.527380859375,-0.21458271145820618,-1.6222946643829346,1.1508046388626099
1772609217394379000,9.53737890625,-0.1400509625673294,-1.7091439962387085,1.0902411937713623
1772609217404377000,9.547377197265625,-0.0056437160819768906,-1.6185351610183716,1.00447416305542
1772609217414375200,9.557375244140625,0.14039765298366547,-1.335500717163086,0.8775106072425842
1772609217424373000,9.567373046875,0.2448418289422989,-0.8983727693557739,0.7164756655693054
1772609217434371800,9.577371826171875,0.3524415194988251,-0.39276549220085144,0.5353367328643799
1772609217444370000,9.587369873046875,0.3657290041446686,-0.09258389472961426,0.34826570749282837
1772609217454368000,9.597367919921876,0.3071618378162384,-0.049772780388593674,0.1675947606563568
1772609217464366000,9.607365966796875,0.2564229369163513,-0.10152134299278259,0.08329249918460846
1772609217474364200,9.6173642578125,0.21263684332370758,-0.090572290122509,0.039156991988420486
1772609217484362000,9.627362060546876,0.16111063957214355,0.00711408955976367,-0.038025278598070145
1772609217494360000,9.637360107421875,0.12408551573753357,0.14905445277690887,-0.13255205750465393
1772609217504358100,9.647358154296874,0.05565471574664116,0.349763959646225,-0.1943919062614441
1772609217514356000,9.65735595703125,0.007568147964775562,0.4614446759223938,-0.19004084169864655
1772609217524354800,9.667354736328125,-0.04246727377176285,0.4867636263370514,-0.1879711151123047
1772609217534353700,9.677353759765625,-0.08863662928342819,0.46952924132347107,-0.1596803516149521
1772609217544351700,9.687351806640624,-0.09788533300161362,0.3818189203739166,-0.0804155170917511
1772609217554349600,9.697349609375,-0.10160177201032639,0.1313430517911911,0.10203498601913452
1772609217564347600,9.70734765625,-0.0916542336344719,-0.27112042903900146,0.29282405972480774
1772609217574345500,9.717345458984376,0.012483082711696625,-0.5145708918571472,0.3391138017177582
1772609217584343600,9.727343505859375,0.2371326982975006,-0.3347865045070648,0.1585964858531952
1772609217594341600,9.737341552734375,0.4804047644138336,0.029044704511761665,-0.15664269030094147
1772609217604340700,9.7473408203125,0.6181421279907227,0.3570154011249542,-0.44126802682876587
1772609217614338600,9.757338623046875,0.5933453440666199,0.674948513507843,-0.606965184211731
1772609217624336600,9.767336669921875,0.41750451922416687,0.9390521049499512,-0.6953906416893005
1772609217634334700,9.777334716796876,0.16628560423851013,1.1414302587509155,-0.7403015494346619
1772609217644332500,9.78733251953125,-0.060615457594394684,1.383630633354187,-0.6657735109329224
1772609217654330600,9.79733056640625,-0.20663504302501678,1.498232126235962,-0.39667803049087524
1772609217664328700,9.80732861328125,-0.24947386980056763,1.1731728315353394,-0.07057315856218338
1772609217674326800,9.817326904296875,-0.23295994102954865,0.6424667835235596,0.1470988690853119
1772609217684324900,9.827324951171875,-0.15736159682273865,0.39293575286865234,0.41399022936820984
1772609217694323700,9.83732373046875,-0.09147483110427856,0.5722719430923462,0.804951548576355
1772609217704321500,9.847321533203125,-0.1540822833776474,0.8723782300949097,1.0870039463043213
1772609217714319600,9.857319580078125,-0.2620699107646942,1.111885905265808,1.1592812538146973
1772609217724317700,9.867317626953126,-0.22963659465312958,1.2846510410308838,1.1020376682281494
1772609217734315500,9.8773154296875,-0.019936367869377136,1.3284618854522705,0.7631145119667053
1772609217744313600,9.887313720703125,0.32932761311531067,1.0827645063400269,0.0657586008310318
1772609217754311700,9.897311767578126,0.6804472804069519,0.6776993274688721,-0.8077709674835205
1772609217764309800,9.907309814453125,0.9057861566543579,0.40765589475631714,-1.490785837173462
1772609217774308600,9.91730859375,0.9068191647529602,0.3815481662750244,-1.7137669324874878
1772609217784306700,9.927306640625,0.6649937629699707,0.4573957920074463,-1.3960328102111816
1772609217794304500,9.937304443359375,0.317854106426239,0.2912607789039612,-0.8427122235298157
1772609217804302600,9.947302490234375,0.005916443187743425,0.021067354828119278,-0.3730754554271698
1772609217814300700,9.95730078125,-0.1762894093990326,-0.17606255412101746,-0.10704373568296432
1772609217824298500,9.967298583984375,-0.3101010024547577,-0.5372514128684998,-0.2426510900259018
1772609217834296600,9.977296630859374,-0.49100181460380554,-0.9767394661903381,-0.7614704370498657
1772609217844295000,9.987294921875,-0.5944123268127441,-1.3300094604492188,-1.2402024269104004
1772609217854292700,9.997292724609375,-0.6242622137069702,-1.529476523399353,-1.4125661849975586
1772609217864291600,10.00729150390625,-0.6527058482170105,-1.5739315748214722,-1.266689419746399
1772609217874289700,10.01728955078125,-0.6869935393333435,-1.5149832963943481,-0.935340940952301
1772609217884287500,10.02728759765625,-0.6631036400794983,-1.3564307689666748,-0.5246357321739197
1772609217894285600,10.03728564453125,-0.5190761089324951,-1.0624372959136963,-0.05760571360588074
1772609217904283600,10.04728369140625,-0.33668842911720276,-0.605170726776123,0.40572917461395264
1772609217914281700,10.05728173828125,-0.2034759372472763,-0.06442167609930038,0.729051411151886
1772609217924279800,10.06727978515625,-0.11015424132347107,0.3632897138595581,0.8549321293830872
1772609217934278000,10.07727783203125,-0.019703157246112823,0.5718569159507751,0.8279994130134583
1772609217944276700,10.08727685546875,0.10253433883190155,0.5636559724807739,0.7331141829490662
1772609217954274600,10.097274658203125,0.1860925704240799,0.30790483951568604,0.6837912797927856
1772609217964272600,10.107272705078126,0.2738165557384491,0.053956978023052216,0.6979702115058899
1772609217974270500,10.1172705078125,0.39433857798576355,-0.12389347702264786,0.6668004989624023
1772609217984268500,10.1272685546875,0.5382283926010132,-0.14883823692798615,0.5215434432029724
1772609217994266600,10.1372666015625,0.599755585193634,-0.17890654504299164,0.28281369805336
1772609218004264700,10.1472646484375,0.6156397461891174,-0.25603675842285156,-0.012632855214178562
1772609218014262800,10.1572626953125,0.594463586807251,-0.30180636048316956,-0.27710703015327454
1772609218024260900,10.1672607421875,0.5491728186607361,-0.28811347484588623,-0.4417140781879425
1772609218034259700,10.177259765625,0.48741859197616577,-0.2578706741333008,-0.48330336809158325
1772609218044257500,10.187257568359374,0.40799248218536377,-0.32060277462005615,-0.39266666769981384
1772609218054255600,10.197255615234376,0.2686467170715332,-0.43346816301345825,-0.2697446942329407
1772609218064253700,10.207253662109375,0.13580183684825897,-0.45347490906715393,-0.20802514255046844
1772609218074251800,10.217251708984374,0.09154673665761948,-0.29383665323257446,-0.1865459531545639
1772609218084249900,10.227249755859376,0.0968988910317421,-0.0006814822554588318,-0.12194646149873734
1772609218094248000,10.237248046875,0.11597467958927155,0.33741647005081177,-0.023597352206707
1772609218104245800,10.247245849609374,0.12063627690076828,0.5763957500457764,-0.020753363147377968
1772609218114244600,10.25724462890625,0.10924015194177628,0.5864386558532715,-0.11808694899082184
1772609218124242700,10.26724267578125,0.18552160263061523,0.5105606913566589,-0.21847029030323029
1772609218134240500,10.277240478515624,0.31360477209091187,0.47481611371040344,-0.1950891762971878
1772609218144238600,10.287238525390626,0.37824130058288574,0.531811535358429,-0.028576619923114777
1772609218154236700,10.297236572265625,0.30449169874191284,0.571610152721405,0.23111507296562195
1772609218164234800,10.30723486328125,0.07822206616401672,0.4870627522468567,0.4334721863269806
1772609218174232800,10.31723291015625,-0.2271142452955246,0.43414250016212463,0.4123707115650177
1772609218184231000,10.32723095703125,-0.4273618459701538,0.4327017366886139,0.1610812395811081
1772609218194228700,10.337228759765624,-0.4739921987056732,0.23622509837150574,-0.3182729482650757
1772609218204227600,10.3472275390625,-0.3821418881416321,0.034890927374362946,-0.9735850691795349
1772609218214225700,10.3572255859375,-0.24828067421913147,0.17321719229221344,-1.4011627435684204
1772609218224223500,10.367223388671874,-0.2529265582561493,0.28464919328689575,-1.3088434934616089
1772609218234221800,10.377221923828126,-0.3617277145385742,0.40489569306373596,-0.6793279647827148
1772609218244220000,10.387219970703125,-0.31503742933273315,0.6942760944366455,0.2712746262550354
1772609218254217700,10.3972177734375,-0.2193024903535843,0.720782458782196,0.9155715703964233
1772609218264215800,10.4072158203125,-0.13399717211723328,0.534733235836029,1.066974401473999
1772609218274214000,10.4172138671875,-0.09121368080377579,0.3855148255825043,0.8069890141487122
1772609218284212500,10.42721240234375,-0.08641146868467331,0.26561346650123596,0.3878439664840698
1772609218294210600,10.43721044921875,-0.09108688682317734,0.14496175944805145,0.13900373876094818
1772609218304208600,10.447208740234375,-0.13768766820430756,-0.010050466284155846,0.20850025117397308
1772609218314206700,10.457206787109374,-0.19544366002082825,-0.1426982283592224,0.42853760719299316
1772609218324204800,10.467204833984376,-0.2044036090373993,-0.23397888243198395,0.6178646683692932
1772609218334203000,10.477202880859375,-0.1544087678194046,-0.23761914670467377,0.6632662415504456
1772609218344200700,10.48720068359375,-0.034324437379837036,-0.16633456945419312,0.5935583114624023
1772609218354198800,10.49719873046875,0.08553481101989746,-0.07322973757982254,0.4782679080963135
1772609218364196900,10.50719677734375,0.15571549534797668,0.06139305606484413,0.34121522307395935
1772609218374195700,10.51719580078125,0.21866323053836823,0.23440860211849213,0.22215493023395538
1772609218384193500,10.527193603515625,0.05307374149560928,0.5793827772140503,0.41071072220802307
1772609218394191600,10.537191650390625,-0.1361498087644577,0.5842754244804382,0.35728248953819275
1772609218404189700,10.547189697265624,-0.1036033183336258,0.16232264041900635,0.0004130476154386997
1772609218414187800,10.557187744140625,-0.008383491076529026,-0.11409667134284973,-0.34340226650238037
1772609218424185900,10.567185791015625,0.0636555477976799,-0.09577492624521255,-0.6174654960632324
1772609218434183700,10.57718359375,0.1215548887848854,-0.16234293580055237,-0.8425670266151428
1772609218444181800,10.587181640625,0.20159432291984558,-0.20025277137756348,-1.0320005416870117
1772609218454180600,10.5971806640625,0.2736560106277466,-0.09937091171741486,-1.1721506118774414
1772609218464178700,10.6071787109375,0.2991781532764435,0.05838676542043686,-1.2115534543991089
1772609218474176800,10.6171767578125,0.25989919900894165,0.1607627421617508,-1.1365489959716797
1772609218484174800,10.6271748046875,0.05197100341320038,0.29117560386657715,-0.9579249024391174
1772609218494173000,10.6371728515625,-0.1263890564441681,0.4428253769874573,-0.5241961479187012
