time,seconds_elapsed,z,y,x
1772522033781977600,0.1079775390625,-0.0004208451136946678,-0.00019635865464806557,0.0004832623526453972
1772522033791973600,0.1179736328125,0.0023776046000421047,-0.0012054303660988808,-0.0012725596316158772
1772522033801970700,0.127970703125,0.00007796473801136017,0.00020737666636705399,-0.0008424590341746807
1772522033811967500,0.137967529296875,0.0013733883388340473,0.0005962229333817959,0.0008551664650440216
1772522033821963800,0.1479638671875,0.00016929302364587784,0.0020993314683437347,0.0009905071929097176
1772522033831960600,0.157960693359375,0.0016505434177815914,-0.0005585029721260071,0.0009737294167280197
1772522033841957600,0.16795751953125,0.0008094925433397293,0.00009257718920707703,-0.0009889109060168266
1772522033851954700,0.17795458984375,-0.00012474507093429565,0.0014848778955638409,-0.0015399190597236156
1772522033861950700,0.18795068359375,-0.00017664581537246704,0.0011510360054671764,0.00019423151388764381
1772522033871947800,0.19794775390625,-0.0020507127046585083,-0.00023886747658252716,0.0018927957862615585
1772522033881944600,0.207944580078125,-0.001170346513390541,-0.000273359939455986,-0.0008741067722439766
1772522033891942000,0.21794189453125,-0.0022380081936717033,0.0014489064924418926,0.0006934297271072865
1772522033901937700,0.227937744140625,-0.0019154110923409462,-0.000026981346309185028,0.0009660935029387474
1772522033911934700,0.237934814453125,0.0005842316895723343,-0.0013303323648869991,0.0008784756064414978
1772522033921931800,0.247931884765625,-0.0005814218893647194,0.0009673419408500195,0.0007243570871651173
1772522033931927800,0.257927734375,-0.0009510684758424759,-0.00043188314884901047,-0.003176374826580286
1772522033941924900,0.2679248046875,-0.0008894409984350204,0.001390398945659399,-0.0009183716028928757
1772522033951921700,0.277921630859375,0.00037316326051950455,-0.0011047166772186756,-0.0002416623756289482
1772522033961918700,0.287918701171875,-0.0007301056757569313,-0.00004863273352384567,0.0012493184767663479
1772522033971914800,0.297914794921875,0.0011402326636016369,-0.00004064338281750679,0.001147052738815546
1772522033981911800,0.307911865234375,0.0012712841853499413,0.000679538119584322,0.0005693044513463974
1772522033991908900,0.317908935546875,-0.0011665737256407738,-0.001450458075851202,-0.0005154008977115154
1772522034001904600,0.327904541015625,-0.001236509531736374,0.0014377818442881107,0.0007632873021066189
1772522034011902000,0.33790185546875,0.0003581913188099861,-0.002779599977657199,0.000201360322535038
1772522034021898800,0.347898681640625,0.00024811550974845886,0.0012121237814426422,-0.0003773616626858711
1772522034031895800,0.357895751953125,0.001044134609401226,0.000957525335252285,-0.0001733638346195221
1772522034041891800,0.367891845703125,-0.00013842806220054626,-0.001070946455001831,0.0003127465024590492
1772522034051888600,0.377888671875,-0.001970682293176651,0.0023283124901354313,0.00039024464786052704
1772522034061886000,0.387885986328125,0.0008359253406524658,0.0009054550901055336,-0.002128342166543007
1772522034071882800,0.3978828125,0.001623156014829874,-0.001293516717851162,0.0006330893374979496
1772522034081878800,0.407878662109375,0.001982885878533125,0.0004489622078835964,0.0000433395616710186
1772522034091875800,0.417875732421875,0.002435889560729265,-0.0001763477921485901,-0.00015479978173971176
1772522034101872600,0.42787255859375,-0.00007097329944372177,0.00019371462985873222,0.0008972487412393093
1772522034111869000,0.437868896484375,0.00020519644021987915,-0.00017167069017887115,-0.0003288709558546543
1772522034121865700,0.44786572265625,0.0008729305118322372,0.000509544275701046,0.0009946683421730995
1772522034131862800,0.45786279296875,0.0009568203240633011,0.00007544923573732376,-0.0016397307626903057
1772522034141859800,0.46785986328125,-0.00043644942343235016,0.0011773952282965183,-0.0006830873899161816
1772522034151855600,0.477855712890625,-0.000995713286101818,0.00014488771557807922,-0.0006356830708682537
1772522034161853000,0.48785302734375,0.0006690751761198044,-0.0001333397813141346,-0.00003696605563163757
1772522034171849700,0.497849609375,0.0019351420924067497,-0.002922468353062868,0.00021869735792279243
1772522034181846800,0.5078466796875,-0.0004836590960621834,0.001298435963690281,0.001288838218897581
1772522034191842800,0.5178427734375,0.002193617168813944,-0.0002944008447229862,-0.0005127899348735809
1772522034201839600,0.527839599609375,-0.00004050321877002716,0.00044787582010030746,-0.0012033386155962944
1772522034211837000,0.5378369140625,-0.0010325312614440918,-0.002128466498106718,0.0003737853839993477
1772522034221832700,0.547832763671875,0.0009809629991650581,-0.00033295806497335434,0.00023777177557349205
1772522034231829800,0.557829833984375,0.0006520627066493034,-0.0023050284944474697,-0.0017236466519534588
1772522034241826800,0.567826904296875,0.0010875854641199112,0.0004033902660012245,0.001192344818264246
1772522034251823900,0.577823974609375,0.000760016031563282,-0.0014754696749150753,0.00013107480481266975
1772522034261820000,0.58781982421875,-0.001006394624710083,-0.0007356693968176842,-0.0018734210170805454
1772522034271816700,0.597816650390625,0.00021226797252893448,-0.00032287975773215294,-0.002779961097985506
1772522034281813800,0.607813720703125,-0.00029376987367868423,0.0003147176466882229,-0.0015330375172197819
1772522034291810800,0.617810791015625,0.0000772085040807724,-0.0024091636296361685,-0.0010366244241595268
1772522034301806600,0.627806640625,-0.0008209999650716782,0.00013461336493492126,0.0007375110872089863
1772522034311804000,0.637803955078125,0.0013460139743983746,-0.0025948602706193924,0.00002644723281264305
1772522034321800700,0.64780078125,-0.0005829362198710442,0.001005721278488636,0.0012276526540517807
1772522034331797000,0.657796875,0.0001547597348690033,0.00035244785249233246,-0.0012360378168523312
1772522034341793800,0.667793701171875,0.002916294615715742,-0.0004973756149411201,-0.0005768109112977982
1772522034351790800,0.677790771484375,-0.00042543932795524597,-0.00017779599875211716,0.0001691402867436409
1772522034361788000,0.687787841796875,-0.00209634006023407,0.0009478013962507248,0.00010852143168449402
1772522034371783700,0.69778369140625,-0.0010931268334388733,-0.0008410438895225525,0.0018465006723999977
1772522034381780700,0.70778076171875,-0.0018347306177020073,-0.0009691063314676285,-0.0024790498428046703
1772522034391777800,0.71777783203125,0.002165071200579405,0.001560363918542862,0.0011215442791581154
1772522034401774800,0.72777490234375,0.0019621006213128567,-0.0024982569739222527,-0.0017021745443344116
1772522034411771000,0.73777099609375,0.0017399927601218224,-0.000258804764598608,-0.00046407105401158333
1772522034421767700,0.747767578125,0.0012792660854756832,0.0006754319183528423,0.0019410294480621815
1772522034431764700,0.7577646484375,0.0006832508370280266,-0.002504914766177535,0.002143163699656725
1772522034441761800,0.76776171875,0.00020950008183717728,-0.0008355807512998581,-0.0014732526615262032
1772522034451757800,0.7777578125,0.00038446951657533646,-0.0007753935642540455,-0.001480709295719862
1772522034461755000,0.7877548828125,0.0005921162664890289,-0.0002872147597372532,0.00039474107325077057
1772522034471751700,0.797751708984375,0.0014171632938086987,0.000733841210603714,-0.0006209881976246834
1772522034481748000,0.807748046875,-0.00006729550659656525,-0.0006240038201212883,-0.001777411438524723
1772522034491744800,0.817744873046875,-0.0015874281525611877,-0.00003704335540533066,0.0013691135682165623
1772522034501741800,0.827741943359375,0.00035977642983198166,0.00002001691609621048,-0.0006490657106041908
1772522034511739000,0.83773876953125,-0.003273041918873787,-0.00035389093682169914,0.0008676047436892986
1772522034521734700,0.847734619140625,-0.00008207932114601135,0.000783849973231554,0.00323704956099391
1772522034531732000,0.85773193359375,0.000365598127245903,-0.00003853440284729004,-0.0022847484797239304
1772522034541728800,0.867728759765625,0.00010511837899684906,-0.0014947648160159588,-0.000995658803731203
1772522034551725800,0.877725830078125,0.0001328159123659134,-0.0002862219698727131,0.0012368690222501755
1772522034561721900,0.887721923828125,0.000237942673265934,0.00029453495517373085,0.00045296456664800644
1772522034571718700,0.89771875,0.0007902830839157104,0.0013941540382802486,0.0008340631611645222
1772522034581715700,0.9077158203125,0.001771325245499611,-0.0007550953887403011,0.00035482458770275116
1772522034591711700,0.917711669921875,-0.0005336413159966469,-0.0019620400853455067,-0.0015812935307621956
1772522034601708800,0.927708740234375,-0.0026209624484181404,0.0027081058360636234,-0.0013105901889503002
1772522034611705900,0.937705810546875,-0.00033250823616981506,-0.0004362883046269417,0.000757620669901371
1772522034621703000,0.947702880859375,-0.000280037522315979,-0.0016886605881154537,0.0012247865088284016
1772522034631699000,0.957698974609375,0.0018398384563624859,0.0001830090768635273,0.0002548634074628353
1772522034641695700,0.96769580078125,0.00017718877643346786,-0.0004481594078242779,0.000800090841948986
1772522034651692800,0.97769287109375,0.00029117148369550705,0.0014245756901800632,0.003150329925119877
1772522034661689900,0.98768994140625,-0.0010119816288352013,-0.00025123264640569687,0.0007614493370056152
1772522034671685600,0.997685546875,-0.002154744230210781,0.0011155013926327229,-0.00023696990683674812
1772522034681683000,1.007682861328125,-0.0011957837268710136,0.0013053752481937408,-0.0016922052018344402
1772522034691679700,1.0176796875,-0.0029880907386541367,0.001272884663194418,-0.0008578370325267315
1772522034701676800,1.0276767578125,0.001679249107837677,-0.0004745684564113617,-0.0011712810955941677
1772522034711672800,1.0376728515625,-0.0005471538752317429,0.000946494285017252,0.0008260901086032391
1772522034721670000,1.047669921875,-0.0009430898353457451,-0.002271027769893408,-0.00231131911277771
1772522034731666700,1.057666748046875,0.001621800009161234,0.00016043800860643387,-0.0034996215254068375
1772522034741662700,1.067662841796875,0.00048371218144893646,0.0005809124559164047,-0.0006225099787116051
1772522034751659800,1.07765966796875,-0.0010433448478579521,0.0003289775922894478,0.0019152164459228516
1772522034761656800,1.08765673828125,-0.0011902395635843277,0.0009481091983616352,0.0001915162429213524
1772522034771654000,1.09765380859375,-0.001575864851474762,0.00004130275920033455,-0.0016383416950702667
1772522034781650000,1.10764990234375,-0.0016206875443458557,-0.0014220327138900757,-0.001612931489944458
1772522034791646700,1.117646728515625,0.0014763018116354942,0.0009244787506759167,0.000745297409594059
1772522034801643800,1.127643798828125,0.00004395376890897751,0.0006176987662911415,-0.0008462993428111076
1772522034811640800,1.137640869140625,0.0005257194861769676,-0.0005002962425351143,-0.00012191943824291229
1772522034821636600,1.14763671875,-0.0005614729598164558,-0.0005663381889462471,-0.00044278427958488464
1772522034831634000,1.157634033203125,0.0019357730634510517,0.001625710166990757,0.0008794753812253475
1772522034841630700,1.167630615234375,-0.0006406130269169807,-0.00236955052241683,-0.00002275826409459114
1772522034851627800,1.177627685546875,-0.0007439432665705681,-0.00016072485595941544,-0.0024132118560373783
1772522034861623800,1.187623779296875,0.0017123310826718807,-0.002604962792247534,0.002296535763889551
1772522034871620900,1.197620849609375,0.001845488790422678,0.0002512773498892784,-0.0014252322725951672
1772522034881617700,1.20761767578125,-0.0012382902204990387,-0.00012577278539538383,-0.0001455843448638916
1772522034891614700,1.21761474609375,-0.00184708833694458,-0.00021738559007644653,0.001274945680052042
1772522034901610800,1.22761083984375,-0.001310913823544979,-0.0021282946690917015,-0.00010279333218932152
1772522034911607800,1.23760791015625,-0.0008014515042304993,0.0005950536578893661,-0.0005637863650918007
1772522034921604900,1.24760498046875,-0.0001105302944779396,-0.000017690937966108322,0.0009386450983583927
1772522034931601000,1.257600830078125,-0.003114042803645134,-0.0005492577329277992,-0.0016566053964197636
1772522034941598000,1.267597900390625,0.000510229729115963,-0.0010443422943353653,-0.0009249825961887836
1772522034951595000,1.277594970703125,0.0008034445345401764,-0.0015692510642111301,0.0012268517166376114
1772522034961592000,1.287592041015625,0.0000309990718960762,0.0007694950327277184,-0.0001223231665790081
1772522034971588000,1.297588134765625,0.001694143284112215,-0.0005583567544817924,0.001189283560961485
1772522034981585200,1.307585205078125,-0.0022363774478435516,-0.0019746478646993637,0.001276511698961258
1772522034991582200,1.317582275390625,0.0005562137812376022,0.0008206060156226158,0.002215275540947914
1772522035001579000,1.3275791015625,-0.00007248856127262115,0.00023138895630836487,0.0023229080252349377
1772522035011575000,1.337574951171875,0.0007930388674139977,-0.001383818220347166,0.0017093154601752758
1772522035021572000,1.347572021484375,0.0010521356016397476,0.0011427965946495533,-0.0009747673757374287
1772522035031569000,1.35756884765625,-0.00010207854211330414,0.000135855283588171,-0.0010634507052600384
1772522035041566200,1.367566162109375,0.0016305041499435902,0.0016250130720436573,-0.002700808923691511
1772522035051562000,1.37756201171875,0.00020571239292621613,-0.0005156360566616058,0.001975168939679861
1772522035061559000,1.38755908203125,-0.00002725701779127121,-0.001266170758754015,0.00025362661108374596
1772522035071556000,1.39755615234375,0.0009258892387151718,0.0026215114630758762,0.0014571091160178185
1772522035081552100,1.40755224609375,-0.000283312052488327,-0.0004893611185252666,-0.0013982998207211494
1772522035091549200,1.417549072265625,-0.0001323111355304718,0.000161781907081604,0.0003474019467830658
1772522035101546000,1.4275458984375,-0.0007350863888859749,0.0013971375301480293,-0.0012370767071843147
1772522035111543000,1.43754296875,-0.0011761058121919632,-0.0008255364373326302,-0.0003957841545343399
1772522035121539000,1.4475390625,0.0005345456302165985,-0.0010461723431944847,0.001524963416159153
1772522035131536100,1.4575361328125,0.0005553187802433968,0.0009464048780500889,-0.002995220245793462
1772522035141533200,1.467533203125,-0.001972566358745098,-0.0019159065559506416,-0.0048706913366913795
1772522035151530000,1.477530029296875,-0.0017206314951181412,-0.001262100413441658,-0.0014530569314956665
1772522035161526000,1.487526123046875,0.0001557944342494011,-0.0022830264642834663,-0.0015041641891002655
1772522035171523000,1.497523193359375,-0.0014367755502462387,-0.00035676173865795135,0.00042902445420622826
1772522035181520000,1.507519775390625,0.0005636848509311676,-0.001217144075781107,0.002220138441771269
1772522035191517200,1.51751708984375,0.0020848819985985756,-0.00040541263297200203,0.0007165172137320042
1772522035201513000,1.527512939453125,-0.001097426749765873,0.000523845199495554,-0.0014970507472753525
1772522035211510000,1.537510009765625,0.0008506756275892258,0.0004253080114722252,-0.0005279267206788063
1772522035221507000,1.547507080078125,0.0010091448202729225,-0.002459924668073654,0.0005903653800487518
1772522035231503000,1.557503173828125,-0.000438016839325428,0.002430171240121126,0.0017602923326194286
1772522035241500200,1.567500244140625,0.002031879499554634,0.0004441961646080017,0.001191459596157074
1772522035251497000,1.5774970703125,-0.0016978774219751358,0.00024685589596629143,-0.00259475689381361
1772522035261494300,1.587494384765625,-0.0005257604643702507,0.0008963258005678654,-0.0015521831810474396
1772522035271490000,1.597489990234375,0.0025728275068104267,0.001459051389247179,-0.00039637135341763496
1772522035281487000,1.607487060546875,-0.0008039399981498718,0.0012175687588751316,0.0008847187273204327
1772522035291484200,1.617484130859375,-0.0016300519928336143,0.0009238221682608128,-0.004045858047902584
1772522035301481000,1.62748095703125,-0.001032537780702114,-0.0005345731042325497,-0.0014378782361745834
1772522035311477000,1.63747705078125,-0.0005299989134073257,0.00015172315761446953,-0.0012099118903279305
1772522035321474000,1.64747412109375,-0.00004907604306936264,0.001227701548486948,-0.001890119630843401
1772522035331470800,1.657470947265625,-0.0021729469299316406,-0.0015790038742125034,-0.0016453755088150501
1772522035341468200,1.66746826171875,0.0001928955316543579,0.0009454730898141861,-0.0014008525758981705
1772522035351464000,1.6774638671875,0.0015897233970463276,-0.0012915818952023983,-0.0014980579726397991
1772522035361461000,1.6874609375,0.0007594889029860497,0.0005111093632876873,0.0020671309903264046
1772522035371458000,1.6974580078125,0.0013094316236674786,0.001086618285626173,0.0009533967822790146
1772522035381454800,1.707454833984375,-0.0010844320058822632,0.0004726666957139969,-0.0013389121741056442
1772522035391451100,1.717451171875,0.000046079978346824646,-0.0005864724516868591,-0.004214326851069927
1772522035401448000,1.727447998046875,0.0006577270105481148,0.00035239337012171745,0.0008733305148780346
1772522035411445200,1.7374453125,0.00011337641626596451,0.0015537450090050697,-0.000787416473031044
1772522035421441000,1.74744091796875,-0.0007269913330674171,0.000023288186639547348,-0.0009169899858534336
1772522035431438000,1.75743798828125,-0.0008260607719421387,-0.0013189450837671757,0.0006691887974739075
1772522035441435100,1.76743505859375,0.00021766871213912964,-0.0008830958977341652,0.0013776449486613274
1772522035451432000,1.777431884765625,-0.0005368050187826157,-0.000981633085757494,-0.00012863846495747566
1772522035461428000,1.787427978515625,0.00014403369277715683,0.0011225300841033459,0.0002091829665005207
1772522035471425000,1.797425048828125,0.00019782967865467072,0.00042504817247390747,0.0007037320174276829
1772522035481421800,1.807421875,0.0009618401527404785,0.001232743263244629,0.0003936425782740116
1772522035491419100,1.817419189453125,0.002955215983092785,-0.0010131006129086018,-0.0007629683241248131
1772522035501415000,1.827414794921875,0.0006085522472858429,0.0004981118254363537,0.0021361475810408592
1772522035511412200,1.837412109375,0.000015999190509319305,0.002045142464339733,-0.0008156998082995415
1772522035521409000,1.847408935546875,0.000003842636942863464,0.000032803975045681,0.0010949703864753246
1772522035531405800,1.85740576171875,0.001946884673088789,-0.0005075512453913689,0.0014624870382249355
1772522035541402000,1.867402099609375,-0.0001780269667506218,0.001813492737710476,0.0010913005098700523
1772522035551399000,1.87739892578125,0.0019373223185539246,0.0013375855050981045,-0.0012986203655600548
1772522035561396200,1.887396240234375,-0.00041878409683704376,0.0019654915668070316,0.001962187234312296
1772522035571393000,1.89739306640625,0.0015911036171019077,0.0011721355840563774,0.0013059847988188267
1772522035581389000,1.90738916015625,-0.0004655737429857254,-0.0009524179622530937,0.002389749977737665
1772522035591386000,1.91738623046875,-0.0009345570579171181,0.00101059814915061,0.001204377505928278
1772522035601383000,1.9273828125,0.001244300976395607,-0.0003369506448507309,0.001249442808330059
1772522035611379200,1.937379150390625,0.0017779986374080181,-0.0023188753984868526,0.00011600181460380554
1772522035621376000,1.9473759765625,0.000603213906288147,-0.0019323988817632198,-0.0006603640504181385
1772522035631373000,1.957373046875,0.0017513022758066654,0.0006604543887078762,-0.0004638228565454483
1772522035641370000,1.9673701171875,0.0012519336305558681,0.0006045624613761902,0.0017735790461301804
1772522035651366000,1.977365966796875,0.00032009370625019073,-0.0003067711368203163,0.0019762450829148293
1772522035661363200,1.98736328125,0.000989086925983429,0.0004362361505627632,-0.00011971592903137207
1772522035671360000,1.997360107421875,-0.00022451579570770264,-0.0003272923640906811,-0.0019261380657553673
1772522035681357000,2.007357177734375,0.0002863854169845581,-0.00019411137327551842,-0.0006959522143006325
1772522035691353000,2.01735302734375,0.0030619315803050995,-0.0011200923472642899,0.002057756297290325
1772522035701350000,2.027349853515625,0.0008170092478394508,0.0009560468606650829,0.00034717191010713577
1772522035711347200,2.03734716796875,-0.0009814230725169182,0.0009997226297855377,0.0003453078679740429
1772522035721344000,2.047343994140625,-0.00013929978013038635,-0.00316663202829659,-0.00018588360399007797
1772522035731340000,2.057340087890625,0.002916411031037569,0.00150375347584486,-0.00045566167682409286
1772522035741337000,2.067337158203125,-0.000470590777695179,-0.0009470428340137005,0.0012166043743491173
1772522035751334000,2.077333984375,0.0012122606858611107,-0.00023384811356663704,-0.001284636091440916
1772522035761330200,2.087330078125,0.0015302924439311028,-0.0014754654839634895,0.00009881798177957535
1772522035771327000,2.097326904296875,0.00031162984669208527,-0.0031396751292049885,-0.0005547213368117809
1772522035781324000,2.107323974609375,0.0015870928764343262,0.0008832472376525402,-0.0007064607925713062
1772522035791321000,2.117321044921875,0.0012680459767580032,0.0004688594490289688,0.0013617505319416523
1772522035801316900,2.12731689453125,-0.0007299231365323067,-0.0013698344118893147,0.0023019425570964813
1772522035811314200,2.137314208984375,-0.000997304916381836,-0.0007112347520887852,-0.0017937328666448593
1772522035821311000,2.14731103515625,-0.000598488375544548,-0.0001791948452591896,-0.001959319692105055
1772522035831308000,2.15730810546875,-0.0010645408183336258,-0.0005118236877024174,-0.0012053786776959896
1772522035841304000,2.167303955078125,0.00034147221595048904,0.0005751084536314011,-0.0013715354725718498
1772522035851300900,2.17730078125,0.0018008844926953316,0.0013261199928820133,0.001316659152507782
1772522035861298200,2.187298095703125,-0.0005208607763051987,0.0009090090170502663,0.0008095353841781616
1772522035871295000,2.197294921875,0.00014945678412914276,0.00009994069114327431,-0.001415003091096878
1772522035881291300,2.207291259765625,0.0018482105806469917,0.001496756449341774,-0.0002185446210205555
1772522035891288000,2.2172880859375,0.0014026639983057976,-0.0015986356884241104,0.0009258156642317772
1772522035901284900,2.227284912109375,-0.001036243513226509,0.0003610234707593918,-0.0002451878972351551
1772522035911281200,2.23728125,-0.0006303777918219566,-0.0019370177760720253,-0.0001229485496878624
1772522035921278000,2.24727783203125,0.00018737651407718658,0.0013897866010665894,-0.001600869931280613
1772522035931275000,2.25727490234375,0.000016401521861553192,-0.0008270284160971642,-0.0018954155966639519
1772522035941271800,2.267271728515625,-0.00034640636295080185,-0.0012321621179580688,-0.0009362394921481609
1772522035951267800,2.277267822265625,0.0009066108614206314,0.002864312380552292,-0.0022081653587520123
1772522035961265000,2.287264892578125,-0.0023318128660321236,-0.00024392176419496536,0.001822703517973423
1772522035971262000,2.297261962890625,-0.000003411434590816498,-0.0006074435077607632,-0.0015690983273088932
1772522035981258800,2.3072587890625,0.00003920122981071472,-0.0014043902046978474,0.0029666717164218426
1772522035991254800,2.3172548828125,0.0003475956618785858,-0.0003071678802371025,0.00021615903824567795
1772522036001251800,2.327251953125,0.00039966311305761337,-0.0005440781824290752,0.0013707750476896763
1772522036011249000,2.337248779296875,-0.001833130605518818,-0.00023967865854501724,0.0008442685939371586
1772522036021246000,2.347245849609375,-0.0010067075490951538,-0.0006975801661610603,0.002184770070016384
1772522036031242000,2.357241943359375,0.00064072385430336,0.0008627660572528839,0.0011019287630915642
1772522036041238800,2.36723876953125,0.003149115014821291,0.00009706523269414902,0.0003907163627445698
1772522036051235800,2.37723583984375,0.0006097909063100815,-0.0020233439281582832,0.0011790115386247635
1772522036061233000,2.38723291015625,-0.0011563068255782127,0.00044035492464900017,-0.0007203808054327965
1772522036071229000,2.39722900390625,0.0018842238932847977,-0.0015519559383392334,0.00009028520435094833
1772522036081226000,2.40722607421875,-0.0005507403984665871,-0.0004956037737429142,0.0007352698594331741
1772522036091222800,2.417222900390625,0.0017488994635641575,0.0016285339370369911,0.0012026550248265266
1772522036101219800,2.4272197265625,-0.00001598615199327469,0.0004515489563345909,-0.0002759043127298355
1772522036111215900,2.4372158203125,-0.00006818398833274841,-0.0015407619066536427,0.0021667471155524254
1772522036121213000,2.447212890625,0.0015301629900932312,0.000874591525644064,-0.0013542654924094677
1772522036131209700,2.457209716796875,0.0029557528905570507,-0.0010601948015391827,0.00034270063042640686
1772522036141205800,2.467205810546875,-0.0016387421637773514,0.0003909217193722725,0.00019453652203083038
1772522036151202800,2.477202880859375,-0.00032793357968330383,0.001846605446189642,-0.0017050961032509804
1772522036161199900,2.487199951171875,0.002762213349342346,-0.0022861864417791367,0.0016416995786130428
1772522036171197000,2.497197021484375,0.0018628640100359917,0.00020253797993063927,0.0009721801616251469
1772522036181193000,2.50719287109375,-0.00033560860902071,-0.0006003188900649548,0.0010754335671663284
1772522036191189800,2.517189697265625,0.002092661801725626,-0.000316426157951355,0.0007012593559920788
1772522036201186800,2.527186767578125,-0.00221820455044508,0.0017362912185490131,0.000028684735298156738
1772522036211183900,2.537183837890625,0.0019240761175751686,0.0001362641341984272,0.0003735641948878765
1772522036221180000,2.547179931640625,0.000021453946828842163,-0.0022091572172939777,-0.0006943261250853539
1772522036231177000,2.557177001953125,-0.002108275890350342,0.0018740012310445309,-0.0014986009337008
1772522036241174000,2.567174072265625,-0.00033460184931755066,0.0003312756307423115,-0.0012736786156892776
1772522036251170800,2.5771708984375,0.0009583625942468643,0.001552601344883442,-0.0006643473170697689
1772522036261166800,2.587166748046875,0.0017918595112860203,-0.0001770760864019394,-0.0003309817984700203
1772522036271164000,2.597163818359375,-0.0007772920653223991,0.00051161739975214,-0.0007107486017048359
1772522036281160700,2.60716064453125,-0.0011354731395840645,0.0007505351677536964,0.0006510033272206783
1772522036291158000,2.617157958984375,0.0010477863252162933,0.0011864947155117989,0.003177810925990343
1772522036301153800,2.62715380859375,0.0000829668715596199,-0.0006979042664170265,-0.0006999843753874302
1772522036311150800,2.63715087890625,-0.00002355966717004776,0.0017367573454976082,-0.0011410037986934185
1772522036321148000,2.64714794921875,-0.0002181604504585266,0.0013632201589643955,0.0006426563486456871
1772522036331144000,2.65714404296875,0.002077750861644745,0.0011853212490677834,-0.000454033724963665
1772522036341141000,2.66714111328125,-0.0006794044747948647,0.0010716118849813938,0.0008957218378782272
1772522036351137800,2.6771376953125,0.0009310096502304077,-0.0001952541060745716,-0.0018497309647500515
1772522036361134800,2.687134765625,-0.0017870962619781494,0.0007406836375594139,-0.0007881619967520237
1772522036371131000,2.697130859375,0.0028582559898495674,0.001029903069138527,0.00031811511144042015
1772522036381128000,2.7071279296875,0.00037166476249694824,-0.00043104076758027077,-0.00032359547913074493
1772522036391125000,2.717125,-0.0030640801414847374,0.0005260994657874107,0.001058319117873907
1772522036401121800,2.727121826171875,-0.0004140455275774002,0.0010488322004675865,0.00048718228936195374
1772522036411117800,2.737117919921875,-0.0020036865025758743,-0.00035891449078917503,-0.0016255034133791924
1772522036421115000,2.747114990234375,-0.0010082358494400978,0.0008628363721072674,-0.0006299042142927647
1772522036431112000,2.75711181640625,-0.0001102173700928688,0.0009533842094242573,0.0022846590727567673
1772522036441109000,2.76710888671875,0.0003597903996706009,-0.0006199982017278671,0.0005381093360483646
1772522036451104800,2.777104736328125,-0.0005699191242456436,-0.0003257188946008682,-0.0006110449321568012
1772522036461101800,2.787101806640625,-0.00026001594960689545,-0.002927196677774191,-0.0007027927786111832
1772522036471099000,2.797098876953125,0.0007812799885869026,-0.0022398349829018116,-0.0006889444775879383
1772522036481095700,2.807095703125,-0.0003439197316765785,0.0014547635801136494,-0.000049544498324394226
1772522036491092000,2.817092041015625,0.0015325434505939484,-0.00018814019858837128,0.0016855043359100819
1772522036501088800,2.8270888671875,0.0018676379695534706,0.0006757499650120735,0.00018272176384925842
1772522036511086000,2.837086181640625,0.0009600324556231499,0.000287461094558239,-0.000017547979950904846
1772522036521081900,2.847081787109375,0.0010417932644486427,-0.0003828401677310467,-0.0011948924511671066
1772522036531079000,2.857078857421875,-0.0009108362719416618,0.0015114662237465382,0.0010528150014579296
1772522036541076000,2.867075927734375,-0.000831112265586853,-0.001047008205205202,-0.0008788295090198517
1772522036551072800,2.87707275390625,-0.0012209992855787277,-0.0031596936751157045,-0.00017761904746294022
1772522036561068800,2.88706884765625,0.0007734606042504311,-0.000512879341840744,-0.0007084012031555176
1772522036571065900,2.89706591796875,-0.00025185663253068924,-0.002982162404805422,0.00020080199465155602
1772522036581063000,2.90706298828125,-0.001374061219394207,0.002189449965953827,-0.0004236404784023762
1772522036591060000,2.91706005859375,-0.002061956562101841,-0.00019674235954880714,-0.001511808019131422
1772522036601055700,2.9270556640625,-0.0007756724953651428,-0.0013838117010891438,-0.00041811540722846985
1772522036611053000,2.937052978515625,0.0018712431192398071,0.0014162356965243816,0.000910269096493721
1772522036621049900,2.9470498046875,-0.0011951914057135582,-0.00015940750017762184,0.00022111786529421806
1772522036631046700,2.957046630859375,0.000623747706413269,-0.00016047293320298195,0.0015915804542601109
1772522036641043000,2.96704296875,-0.0005027232691645622,0.00009793741628527641,-0.0005611940287053585
1772522036651039700,2.977039794921875,-0.0005224309861660004,0.0006763762794435024,-0.0006341645494103432
1772522036661037000,2.987037109375,0.0009920019656419754,-0.0005267946980893612,-0.00041659316048026085
1772522036671033900,2.997033935546875,0.0008535170927643776,-0.00025648390874266624,-0.0029428675770759583
1772522036681030000,3.00702978515625,0.0023820046335458755,0.0006036139093339443,-0.0024214331060647964
1772522036691027000,3.01702685546875,-0.0014862371608614922,0.0011239955201745033,0.0015789009630680084
1772522036701023700,3.027023681640625,0.0001769205555319786,0.0007070833817124367,-0.0008916002698242664
1772522036711021000,3.03702099609375,0.0003878427669405937,-0.0012972117401659489,-0.000464695505797863
1772522036721016800,3.047016845703125,-0.0010540373623371124,-0.00032875919714570045,0.0009683752432465553
1772522036731014000,3.057013916015625,-0.0005110185593366623,0.00044835126027464867,-0.0021741543896496296
1772522036741011000,3.067010986328125,0.0016070008277893066,-0.0006901384331285954,0.0013145357370376587
1772522036751006700,3.0770068359375,-0.00021992716938257217,0.0009133508428931236,0.0006572669371962547
1772522036761004000,3.087004150390625,0.0007157530635595322,-0.0015078024007380009,-0.0016631213948130608
1772522036771000800,3.097000732421875,0.0016710287891328335,-0.00094614177942276,-0.0013462048955261707
1772522036780998000,3.106997802734375,-0.0019174907356500626,-0.0001845560036599636,0.0004787491634488106
1772522036790994000,3.116993896484375,-0.000722530297935009,-0.001143560279160738,-0.0005982331931591034
1772522036800990700,3.12699072265625,-0.00034137070178985596,0.0009705931879580021,0.0010871975682675838
1772522036810988000,3.136988037109375,-0.00304288137704134,-0.0024281328078359365,0.0006243400275707245
1772522036820984800,3.14698486328125,-0.0005372464656829834,-0.0011194758117198944,-0.000018905848264694214
1772522036830980900,3.15698095703125,0.0027006249874830246,0.0005825506523251534,-0.0008894931524991989
1772522036840978000,3.16697802734375,0.0007507950067520142,-0.0005880030803382397,0.00044925231486558914
1772522036850974700,3.176974609375,0.0003135036677122116,-0.0012045251205563545,0.000743265263736248
1772522036860972000,3.186971923828125,-0.000842725858092308,-0.00014757970348000526,-0.00033652130514383316
1772522036870967800,3.1969677734375,0.0019717025570571423,-0.00044505437836050987,0.00032341014593839645
1772522036880965000,3.206965087890625,0.003073981963098049,0.00037867994979023933,0.000677251722663641
1772522036890962000,3.2169619140625,0.00018605031073093414,-0.0010682158172130585,0.0013246661983430386
1772522036900958700,3.226958740234375,0.0009074313566088676,-0.002140942495316267,0.0028494475409388542
1772522036910955000,3.236955078125,-0.0014737015590071678,-0.0012138960883021355,0.0008643274195492268
1772522036920951800,3.246951904296875,-0.0004334989935159683,0.0015130829997360706,-0.0029416950419545174
1772522036930948900,3.256948974609375,0.0009995484724640846,-0.0006185108795762062,0.0021888846531510353
1772522036940945700,3.266945556640625,0.000339713878929615,0.0014500296674668789,0.00019531510770320892
1772522036950942500,3.2769423828125,0.0021386793814599514,-0.0004890179261565208,-0.0004137498326599598
1772522036960939500,3.286939453125,0.0009963810443878174,0.0012078536674380302,0.000013713259249925613
1772522036970936600,3.2969365234375,-0.000051839277148246765,-0.000330920796841383,0.002879008185118437
1772522036980932600,3.3069326171875,0.0017422940582036972,0.0006111445836722851,-0.0015957280993461609
1772522036990929700,3.3169296875,0.0005713021382689476,0.0007794564589858055,0.0027526812627911568
1772522037000926700,3.3269267578125,-0.0007405607029795647,0.0007211216725409031,-0.0006380090489983559
1772522037010923500,3.336923583984375,0.0001947414129972458,-0.0009271088056266308,0.0014379252679646015
1772522037020919600,3.34691943359375,0.0002614986151456833,-0.0006297915242612362,-0.0015324829146265984
1772522037030916600,3.35691650390625,-0.001797923818230629,0.0011020619422197342,-0.0016885441727936268
1772522037040913700,3.36691357421875,0.0012447070330381393,0.0004274100065231323,0.0010546124540269375
1772522037050910700,3.37691064453125,0.00029156170785427094,0.004728149157017469,0.0004479442723095417
1772522037060906800,3.38690673828125,0.0001472383737564087,0.00015144562348723412,0.002298380248248577
1772522037070903600,3.396903564453125,0.001160038635134697,-0.0029343590140342712,-0.00014293985441327095
1772522037080900600,3.406900634765625,0.00019762758165597916,0.0004809657111763954,0.0007256800308823586
1772522037090897700,3.416897705078125,0.0008517000824213028,-0.0010575423948466778,0.0011432641185820103
1772522037100893700,3.426893798828125,0.001739488448947668,0.0003341836854815483,-0.0006568455137312412
1772522037110890800,3.436890869140625,0.001162647269666195,-0.00000909809023141861,0.0013509117998182774
1772522037120887600,3.446887451171875,0.001911988016217947,-0.003024628385901451,-0.00041885441169142723
1772522037130883600,3.456883544921875,0.002935973461717367,0.0012646587565541267,-0.0026870686560869217
1772522037140880600,3.466880615234375,-0.0012549534440040588,0.0010183779522776604,-0.002973705530166626
1772522037150877700,3.476877685546875,-0.0008802469819784164,-0.00022212229669094086,-0.0016399943269789219
1772522037160874500,3.48687451171875,0.0020687715150415897,-0.0006111604161560535,-0.0007903464138507843
1772522037170870500,3.49687060546875,0.0004216069355607033,0.0003166850656270981,0.0008174036629498005
1772522037180867600,3.50686767578125,-0.001192871481180191,-0.0006083520129323006,-0.00017949752509593964
1772522037190864600,3.51686474609375,0.00125031266361475,0.0018537407740950584,-0.0003454121761023998
1772522037200861700,3.52686181640625,-0.00048478227108716965,0.0005842642858624458,0.0021794913336634636
1772522037210857700,3.536857666015625,-0.0009044967591762543,0.0011813449673354626,-0.001907395664602518
1772522037220854500,3.5468544921875,0.0007262798026204109,0.0005935532972216606,-0.00007494958117604256
1772522037230851600,3.5568515625,0.0011151013895869255,-0.0012434953823685646,0.0018537119030952454
1772522037240848600,3.5668486328125,0.00013321824371814728,0.00038452306762337685,0.0012728781439363956
1772522037250844700,3.5768447265625,0.00018994323909282684,-0.0007782131433486938,0.0001421002671122551
1772522037260841700,3.586841796875,0.0011172294616699219,0.00014158990234136581,0.0010997625067830086
1772522037270838800,3.5968388671875,-0.0007547065615653992,-0.00015402119606733322,-0.0005426090210676193
1772522037280835600,3.606835693359375,0.0004474930465221405,-0.0014176536351442337,0.00027332594618201256
1772522037290831600,3.61683154296875,-0.0008603855967521667,0.0001485510729253292,-0.0004965942353010178
1772522037300828700,3.62682861328125,-0.0008054925128817558,0.0030006570741534233,-0.00020532356575131416
1772522037310825500,3.636825439453125,0.0017274399287998676,0.0003982163034379482,-0.0003062575124204159
1772522037320822800,3.64682275390625,0.001999129541218281,-0.001348978839814663,0.0002735462039709091
1772522037330818600,3.656818603515625,-0.00006189104169607162,0.00155706238001585,-0.0004252670332789421
1772522037340815600,3.666815673828125,-0.0012250859290361404,0.00025954144075512886,-0.0005774283781647682
1772522037350812700,3.676812744140625,0.0005744118243455887,0.0016651577316224575,-0.0007036621682345867
1772522037360808700,3.68680859375,0.000552094541490078,0.000973268412053585,0.002322909887880087
1772522037370805800,3.6968056640625,0.0010008374229073524,-0.001156461425125599,-0.0026303036138415337
1772522037380802600,3.706802490234375,-0.0008987057954072952,0.0011889352463185787,0.0004266072064638138
1772522037390799600,3.716799560546875,-0.0006539607420563698,-0.0005596964620053768,0.0020737722516059875
1772522037400795600,3.726795654296875,-0.00015138089656829834,-0.0007527107372879982,-0.004569705575704575
1772522037410792700,3.736792724609375,0.00043611228466033936,0.0009887302294373512,0.001667683944106102
1772522037420789800,3.746789794921875,-0.0016453433781862259,-0.0005593975074589252,0.000043682754039764404
1772522037430786600,3.75678662109375,-0.0006136344745755196,0.0016188020817935467,0.0016423785127699375
1772522037440782600,3.766782470703125,5.885958671569824e-7,0.0016866656951606274,-0.0016586482524871826
1772522037450779600,3.776779541015625,-0.001045500859618187,-0.000303514301776886,-0.0010674265213310719
1772522037460776400,3.7867763671875,0.0016766088083386421,0.00037247221916913986,0.0025700400583446026
1772522037470773800,3.796773681640625,-0.000664575956761837,0.000015075784176588058,0.0012797382660210133
1772522037480769500,3.80676953125,-0.0014181975275278091,-0.0012965542264282703,0.0008296556770801544
1772522037490766600,3.8167666015625,-0.0008133938536047935,0.003638282883912325,0.0004927655681967735
1772522037500763600,3.826763671875,-0.00027762167155742645,-0.0002818792127072811,0.0010312404483556747
1772522037510760400,3.836760498046875,0.0015804655849933624,-0.0001535145565867424,0.0005412185564637184
1772522037520756700,3.8467568359375,0.0017821742221713066,0.00004592398181557655,0.0012373179197311401
1772522037530753500,3.85675341796875,0.0006740326061844826,0.00015165144577622414,0.0007472964935004711
1772522037540750800,3.866750732421875,0.001072639599442482,0.00037984177470207214,0.0005734101869165897
1772522037550746600,3.87674658203125,-0.0012166136875748634,0.000027239322662353516,-0.0009246179834008217
1772522037560743700,3.88674365234375,0.0016527054831385612,0.00015755882486701012,0.001649902667850256
1772522037570740700,3.89674072265625,-0.001717790961265564,-0.0010379343293607235,-0.0014545437879860401
1772522037580737500,3.906737548828125,0.0010315710678696632,0.000012827571481466293,0.0004979604855179787
1772522037590733600,3.916733642578125,0.0009540729224681854,0.00066716643050313,0.0007893103174865246
1772522037600730600,3.926730712890625,0.00026612356305122375,0.0010826126672327518,-0.0018390258774161339
1772522037610727400,3.9367275390625,0.0014855852350592613,0.00033213384449481964,-0.00028693582862615585
1772522037620724700,3.946724853515625,0.0011431565508246422,0.00033732643350958824,0.0013252748176455498
1772522037630720500,3.956720458984375,0.0003335559740662575,0.0007900637574493885,-0.00240421574562788
1772522037640717800,3.9667177734375,0.0012786397710442543,0.00009064748883247375,0.0011425870470702648
1772522037650714600,3.976714599609375,0.000837886705994606,0.0024323654361069202,-0.0004289443604648113
1772522037660711400,3.98671142578125,-0.0001297425478696823,0.0027094543911516666,-0.0015135151334106922
1772522037670707700,3.996707763671875,0.00044310372322797775,-0.00021443050354719162,-0.001314310822635889
1772522037680704500,4.00670458984375,0.0022446447983384132,0.000981183722615242,0.0015495195984840393
1772522037690701800,4.016701904296875,-0.00041798409074544907,0.0017588268965482712,0.0008429833687841892
1772522037700698600,4.02669873046875,0.00040106289088726044,0.0002645924687385559,-0.001356529537588358
1772522037710694700,4.036694580078125,0.0008303644135594368,0.0004888307303190231,-0.0011373511515557766
1772522037720691700,4.046691650390625,-0.0009254524484276772,-0.0015590433031320572,0.00000556139275431633
1772522037730688500,4.0566884765625,-0.0007118666544556618,0.00048093823716044426,-0.0009459862485527992
1772522037740685800,4.066685791015625,0.003212776966392994,0.001332312822341919,0.0006990721449255943
1772522037750681600,4.076681640625,-0.00005225837230682373,-0.0008562733419239521,0.0011446187272667885
1772522037760678700,4.0866787109375,-0.0018489742651581764,0.0014590038917958736,0.0005254172720015049
1772522037770675700,4.09667578125,-0.00028836168348789215,0.0009010713547468185,0.00046496372669935226
1772522037780671500,4.10667138671875,0.0004692375659942627,0.00017819367349147797,-0.0019881953485310078
1772522037790668800,4.116668701171875,0.000283082015812397,0.0013084388338029385,-0.0011761975474655628
1772522037800665600,4.12666552734375,0.0018801013939082623,0.0015782555565238,0.0012721666134893894
1772522037810662400,4.136662353515625,0.00023453403264284134,-0.00010912353172898293,0.0021507428027689457
1772522037820658700,4.14665869140625,-0.000026535242795944214,0.003165364731103182,0.0005512405186891556
1772522037830655500,4.156655517578125,0.000057353638112545013,-0.00008236011490225792,-0.003579322248697281
1772522037840652800,4.16665283203125,-0.000828869640827179,-0.00003312481567263603,-0.0013351528905332088
1772522037850649600,4.176649658203125,-0.0030893608927726746,-0.001167098991572857,-0.0006339428946375847
1772522037860645600,4.186645751953125,0.0009415401145815849,-0.0007447302341461182,-0.00037223612889647484
1772522037870642700,4.196642578125,0.0019242470152676105,0.0007892507128417492,0.0009476263076066971
1772522037880639500,4.206639404296875,-0.00047566089779138565,-0.00030058901757001877,0.0010860017500817776
1772522037890636800,4.21663671875,0.0017861612141132355,-0.0011368212290108204,-0.0000775335356593132
1772522037900632600,4.226632568359375,0.0004092389717698097,-0.0021772263571619987,0.00009400257840752602
1772522037910629600,4.236629638671875,-0.000522867776453495,0.000022810883820056915,0.0011102650314569473
1772522037920626700,4.246626708984375,-0.000525129958987236,-0.00029350677505135536,0.0009892955422401428
1772522037930623500,4.25662353515625,0.0006362749263644218,0.0007057110778987408,-0.001687713898718357
1772522037940618500,4.266618408203125,-0.0009319139644503593,-0.0018444443121552467,0.0009951312094926834
1772522037950615600,4.276615478515625,0.001176777295768261,-0.0009536170400679111,0.0023086019791662693
1772522037960612600,4.286612548828125,-0.0017142388969659805,0.001893659122288227,0.0008945153094828129
1772522037970608400,4.2966083984375,0.00038726162165403366,0.0015418552793562412,-0.0005385316908359528
1772522037980605700,4.306605712890625,-0.0001391945406794548,0.0002088872715830803,0.000875967089086771
1772522037990602500,4.3166025390625,-0.00007527880370616913,0.0003508334048092365,-0.0007205978035926819
1772522038000599600,4.326599609375,0.0015654931776225567,0.0001717163249850273,-0.0015017678961157799
1772522038010595600,4.336595703125,0.001970027107745409,0.00033709872514009476,0.00044313864782452583
1772522038020592400,4.34659228515625,-0.00015160441398620605,0.0006505874916911125,0.0024942983873188496
1772522038030589700,4.356589599609375,-0.00007810071110725403,-0.0010932502336800098,-0.0009816591627895832
1772522038040586500,4.36658642578125,0.001957557164132595,0.00017231237143278122,-0.0004008989781141281
1772522038050582500,4.37658251953125,0.0007343674078583717,-0.0001507289707660675,-0.0019726967439055443
1772522038060579600,4.38657958984375,-0.0002917693927884102,0.0013117841444909573,-0.0013623074628412724
1772522038070576400,4.396576416015625,0.000540468841791153,0.0017842287197709084,0.0005314666777849197
1772522038080573400,4.406573486328125,-0.00008160900324583054,-0.00018913764506578445,0.00019046291708946228
1772522038090569500,4.416569580078125,0.00006646290421485901,0.0022854721173644066,-0.0008953078649938107
1772522038100566500,4.42656640625,0.003262632992118597,0.0013056062161922455,-0.0011816686019301414
1772522038110563600,4.4365634765625,0.0029425211250782013,-0.0007809805683791637,0.00039066141471266747
1772522038120560600,4.446560546875,-0.0013691838830709457,0.0007288558408617973,-0.0030737805645912886
1772522038130556700,4.456556640625,0.0016971793957054615,0.0004444299265742302,-0.0016487231478095055
1772522038140553500,4.466553466796875,-0.001755591481924057,0.0007765330374240875,0.0017097806558012962
1772522038150550500,4.476550537109375,0.0007227463647723198,-0.000052243005484342575,-0.0024386257864534855
1772522038160547600,4.486547607421875,0.0017497534863650799,-0.0011502592824399471,0.0009252429008483887
1772522038170543400,4.49654345703125,-0.000041754916310310364,-0.0001561013050377369,0.001393160317093134
1772522038180540700,4.506540771484375,-0.0008568344637751579,0.0015571634285151958,0.0009941128082573414
1772522038190537500,4.516537353515625,0.0013378765434026718,0.0012865862809121609,0.0015046405605971813
1772522038200534500,4.526534423828125,-0.0007704105228185654,0.002087421715259552,0.002513797953724861
1772522038210530600,4.536530517578125,0.0008149696514010429,-0.001357377041131258,-0.0033563412725925446
1772522038220527600,4.546527587890625,0.002732388209551573,0.0011182930320501328,-0.0005165603943169117
1772522038230524400,4.5565244140625,-0.0008290568366646767,0.001622429583221674,0.001183867920190096
1772522038240520400,4.5665205078125,0.00209143478423357,-0.0007556811906397343,0.0031517422758042812
1772522038250517500,4.576517578125,0.0009007351472973824,-0.0005128011107444763,0.0007279994897544384
1772522038260514600,4.5865146484375,-0.001042395830154419,0.0004100259393453598,-0.001519025769084692
1772522038270511600,4.59651171875,-0.00018272735178470612,0.0003397185355424881,-0.0017403345555067062
1772522038280507600,4.606507568359375,0.0007160790264606476,-0.00035774754360318184,0.0020067282021045685
1772522038290504400,4.61650439453125,0.00018051732331514359,0.0011578574776649475,0.0016389461234211922
1772522038300501500,4.62650146484375,0.0005803117528557777,-0.00030334992334246635,-0.0003088535740971565
1772522038310498600,4.63649853515625,-0.000665515661239624,-0.00013024453073740005,-0.002037245314568281
1772522038320494600,4.64649462890625,-0.0009435880929231644,-0.0006099510937929153,0.00019699521362781525
1772522038330491600,4.65649169921875,-0.0022085895761847496,-0.0008560274727642536,-0.0012573571875691414
1772522038340488400,4.666488525390625,-0.0008521843701601028,0.0008507939055562019,-0.0008004950359463692
1772522038350485500,4.676485595703125,0.0016503878869116306,0.0006542522460222244,0.0004802192561328411
1772522038360481500,4.6864814453125,-0.0020078150555491447,-0.0027630224358290434,-0.0015467978082597256
1772522038370478600,4.696478515625,-0.0019686659798026085,0.000173911452293396,-0.0017137783579528332
1772522038380475600,4.7064755859375,0.0017813444137573242,-0.0023385563399642706,0.0020428714342415333
1772522038390472700,4.71647265625,-0.0003406628966331482,0.0023195785470306873,-0.00048287026584148407
1772522038400468500,4.726468505859375,-0.0012736152857542038,-0.002082414459437132,0.0010137134231626987
1772522038410465500,4.736465576171875,0.0021666563116014004,-0.0009772023186087608,0.0007956004701554775
1772522038420462600,4.746462646484375,-0.00019613467156887054,-0.0007879394106566906,0.0010949368588626385
1772522038430459400,4.75645947265625,-0.0028379904106259346,0.0007556285709142685,-0.0011599618010222912
1772522038440455400,4.766455322265625,0.0008885366842150688,-0.0022682768758386374,0.0003239056095480919
1772522038450452500,4.776452392578125,0.0012294212356209755,0.000004997476935386658,0.0006685187108814716
1772522038460449500,4.786449462890625,-0.00047677475959062576,0.0028789001516997814,-0.0003809751942753792
1772522038470445600,4.796445556640625,-0.001471199095249176,-0.0015358221717178822,-0.0026798155158758163
1772522038480442600,4.806442626953125,-0.0008124010637402534,-0.0021332809701561928,0.000719933770596981
1772522038490439700,4.816439697265625,-0.00040280725806951523,-0.0012789387255907059,0.0002613374963402748
1772522038500436500,4.8264365234375,0.0014601629227399826,0.00034204451367259026,0.0012292210012674332
1772522038510432500,4.8364326171875,-0.0016938187181949615,0.0009609628468751907,0.0014840858057141304
1772522038520429600,4.8464296875,0.0011009089648723602,-0.0023387919645756483,0.00030007772147655487
1772522038530426600,4.856426513671875,0.00025428924709558487,0.0016423678025603294,0.0006971550174057484
1772522038540423700,4.866423583984375,0.003145610447973013,0.0014136722311377525,-0.00024529313668608665
1772522038550419500,4.87641943359375,-0.0005258237943053246,0.00048635946586728096,-0.0013499725610017776
1772522038560416500,4.88641650390625,0.0010298844426870346,0.001758794765919447,0.0035664322786033154
1772522038570413600,4.89641357421875,-0.000965888611972332,0.0012581204064190388,0.00175894470885396
1772522038580410400,4.906410400390625,0.001195346936583519,0.0011488301679491997,0.0008409209549427032
1772522038590406700,4.91640673828125,0.00306675024330616,0.00042072171345353127,0.0013732868246734142
1772522038600403500,4.926403564453125,0.00033471547067165375,-0.0008348613046109676,0.0019371956586837769
1772522038610400500,4.936400390625,0.0002292543649673462,0.0022741123102605343,-0.0002178344875574112
1772522038620397600,4.9463974609375,0.0014776615425944328,-0.000638619065284729,0.000847263727337122
1772522038630393600,4.9563935546875,0.000858210027217865,-0.0024849888868629932,0.0014222399331629276
1772522038640390700,4.966390625,0.001668027602136135,-0.001278360839933157,-0.0008964831940829754
1772522038650387500,4.976387451171875,0.00034656748175621033,0.00044363923370838165,-0.000706865917891264
1772522038660384800,4.986384765625,0.0010927002876996994,0.002667228225618601,-0.0004566581919789314
1772522038670380500,4.996380615234375,0.001163007691502571,0.00038330117240548134,-0.0006231055594980717
1772522038680377600,5.006377685546875,-0.0024215765297412872,0.0001824013888835907,0.0007478790357708931
1772522038690374700,5.016374755859375,-0.0007214145734906197,-0.0007845922373235226,0.0003113867715001106
1772522038700371500,5.026371337890625,0.00009958911687135696,0.0009119249880313873,-0.001618498470634222
1772522038710367500,5.036367431640625,0.0002942662686109543,-0.0011799880303442478,0.00024464912712574005
1772522038720364500,5.046364501953125,0.00028152763843536377,0.00006867246702313423,0.00043754326179623604
1772522038730361300,5.056361328125,-0.000799182802438736,0.0013041128404438496,0.0016596680507063866
1772522038740357600,5.066357666015625,0.00020357966423034668,-0.0009472742676734924,0.0028165969997644424
1772522038750354400,5.0763544921875,-0.0017069727182388306,0.0005651349201798439,-0.0006798668764531612
1772522038760351700,5.086351806640625,-0.0021762438118457794,0.0024487371556460857,-0.0008711568079888821
1772522038770348500,5.0963486328125,-0.0018279021605849266,-0.0002104286104440689,0.0020788265392184258
1772522038780344600,5.106344482421875,-0.0015512742102146149,-0.00076256413012743,-0.0022494555450975895
1772522038790341600,5.116341552734375,-0.00016137026250362396,-0.0008102343417704105,-0.0012374543584883213
1772522038800338400,5.12633837890625,0.0007280819118022919,-0.00019827298820018768,-0.00016354676336050034
1772522038810335700,5.136335693359375,-0.00016168039292097092,-0.0002464763820171356,-0.0007885904051363468
1772522038820331500,5.14633154296875,-0.00009719096124172211,0.0006254334002733231,0.000571670476347208
1772522038830328600,5.15632861328125,0.0019193543121218681,0.0015447563491761684,0.00019509950652718544
1772522038840325600,5.16632568359375,-0.00044237170368433,0.0016398071311414242,-0.0006148731335997581
1772522038850322400,5.176322509765625,0.002221854403614998,-0.0015911399386823177,0.00026396987959742546
1772522038860318700,5.186318603515625,0.0004642689600586891,0.0009085629135370255,-0.0024229087866842747
1772522038870315500,5.1963154296875,0.00010234583169221878,0.0025264336727559566,0.0007036421447992325
1772522038880312300,5.206312255859375,-0.000862601213157177,0.00006918050348758698,0.0008077798411250114
1772522038890309600,5.2163095703125,-0.0006476836279034615,0.00008729007095098495,-0.0011339308694005013
1772522038900305400,5.226305419921875,0.0002391822636127472,0.0007683746516704559,0.0009649749845266342
1772522038910302700,5.236302734375,-0.0015707025304436684,-0.00048091402277350426,-0.00029709702357649803
1772522038920299500,5.246299560546875,-0.001082640141248703,0.0005207229405641556,-0.00043853046372532845
1772522038930296600,5.256296630859375,-0.001533779315650463,0.0007169977761805058,0.00031407875940203667
1772522038940293600,5.266293701171875,0.0014042449183762074,0.0029213353991508484,-0.0013339603319764137
1772522038950290400,5.27629052734375,-0.002862938679754734,-0.00007844902575016022,0.0015374599024653435
1772522038960287500,5.28628759765625,0.0010058050975203514,-0.0010332069359719753,0.0002449783496558666
1772522038970284500,5.296284423828125,-0.0010293824598193169,-0.0008435896597802639,0.0015240944921970367
1772522038980280600,5.306280517578125,0.001234227791428566,0.0003157248720526695,-0.0005524926818907261
1772522038990277600,5.316277587890625,0.00015618093311786652,-0.001369523350149393,0.002121587283909321
1772522039000273400,5.3262734375,-0.0019929874688386917,-0.0005046678707003593,0.0008517298847436905
1772522039010270700,5.336270751953125,0.0004214337095618248,0.00007483595982193947,-0.001692654099315405
1772522039020267500,5.346267578125,0.0001573348417878151,0.0018265089020133018,-0.00011947238817811012
1772522039030263600,5.356263671875,0.0009008888155221939,-0.0007168096490204334,0.0006400612182915211
1772522039040260600,5.366260498046875,-0.0015045534819364548,0.000722961500287056,0.0003102542832493782
1772522039050257400,5.37625732421875,0.00016791187226772308,-0.0001707952469587326,0.0001930752769112587
1772522039060254500,5.38625439453125,-0.0006736768409609795,0.0008135098032653332,-0.001261828001588583
1772522039070250500,5.39625048828125,0.0007250150665640831,-0.001560964621603489,0.001918518915772438
1772522039080247600,5.40624755859375,0.0014307023957371712,0.0011415169574320316,0.0017156600952148438
1772522039090244600,5.41624462890625,-0.0008159400895237923,0.0005465666763484478,-0.00038876989856362343
1772522039100241700,5.42624169921875,-0.0008862633258104324,0.0033185486681759357,0.0013798014260828495
1772522039110237700,5.43623779296875,0.0005611646920442581,-0.000512941274791956,-0.0008298233151435852
1772522039120234500,5.446234375,0.0004939734935760498,-0.00041011907160282135,0.0008516032248735428
1772522039130231600,5.4562314453125,-0.0004610363394021988,-0.00014300411567091942,0.0009552002884447575
1772522039140228600,5.466228515625,0.0009591812267899513,-0.00014067720621824265,0.001311709638684988
1772522039150224400,5.476224365234375,-0.0008927816525101662,-0.0003835572861135006,-0.000459025613963604
1772522039160221700,5.4862216796875,0.000010851770639419556,-0.00023096241056919098,-0.001231390517205
1772522039170218500,5.496218505859375,0.0008486825972795486,0.002248707227408886,-0.0010713343508541584
1772522039180215600,5.506215576171875,-0.0019320985302329063,-0.0023610361386090517,0.0023726187646389008
1772522039190211600,5.516211669921875,0.00027539487928152084,-0.0010076179169118404,-0.00208471342921257
1772522039200208400,5.52620849609375,-0.0002292254939675331,0.00011104438453912735,-0.000393901951611042
1772522039210205400,5.536205322265625,-0.0014247186481952667,-0.001664218958467245,0.0007147719152271748
1772522039220201500,5.546201416015625,-0.0005460549145936966,-0.00007726484909653664,0.000851629301905632
1772522039230198500,5.556198486328125,0.001074478030204773,-0.000838130246847868,0.0002657342702150345
1772522039240195600,5.566195556640625,0.00223937863484025,-0.0018739420920610428,-0.0016999789513647556
1772522039250192600,5.576192626953125,0.0011850334703922272,-0.0008699302561581135,-0.0020919963717460632
1772522039260188700,5.586188720703125,0.002703256905078888,0.0008460963144898415,-0.0004648161120712757
1772522039270185500,5.596185546875,-0.00004592444747686386,-0.00019227014854550362,-0.0008800029754638672
1772522039280182500,5.6061826171875,-0.0003238413482904434,0.002038472332060337,0.0011117742396891117
1772522039290179600,5.6161796875,-0.000268714502453804,0.0003609471023082733,0.0000648857094347477
1772522039300175400,5.62617529296875,0.0003187740221619606,0.0007263938896358013,-0.0015464425086975098
1772522039310172700,5.636172607421875,0.00022636260837316513,0.0016531739383935928,0.0007646488957107067
1772522039320169500,5.64616943359375,0.0011242665350437164,0.0001892554573714733,0.0014322022907435894
1772522039330166500,5.65616650390625,0.00011066719889640808,-0.0003239358775317669,-0.002340164966881275
1772522039340162600,5.66616259765625,-0.0000822925940155983,-0.00016829697415232658,0.0017498726956546307
1772522039350159600,5.67615966796875,0.001632782630622387,0.0008996305987238884,0.0009232279844582081
1772522039360157400,5.686157470703125,0.00007584411650896072,-0.0010023894719779491,-0.0015781326219439507
1772522039370154500,5.696154541015625,-0.0011497428640723228,0.0000018887221813201904,-0.00043776724487543106
1772522039380151600,5.706151611328125,0.004234200343489647,-0.0008284174837172031,0.000350897666066885
1772522039390147300,5.716147216796875,0.0019593285396695137,0.0009242086671292782,0.0009338636882603168
1772522039400144600,5.72614453125,0.0008814344182610512,0.0011776769533753395,-0.0006811670027673244
1772522039410141400,5.736141357421875,-0.0008315108716487885,0.001114826649427414,-0.0016241921111941338
1772522039420137700,5.7461376953125,-0.001722291111946106,0.0010938732884824276,-0.0006669075228273869
1772522039430134500,5.756134521484375,-0.000873275101184845,0.001240879762917757,-0.0010751704685389996
1772522039440131300,5.76613134765625,-0.0025676842778921127,0.0004758336581289768,-0.0008334717713296413
1772522039450128600,5.776128662109375,-0.0006225118413567543,-0.0009252550080418587,-0.00009284680709242821
1772522039460124400,5.78612451171875,-0.0010242611169815063,-0.0022496450692415237,0.001209006179124117
1772522039470121700,5.796121826171875,0.0017358390614390373,0.003280940931290388,-0.0015100808814167976
1772522039480118500,5.806118408203125,0.00014925841242074966,-0.0006445664912462234,0.0015253536403179169
1772522039490115600,5.816115478515625,0.00005418434739112854,0.0004947339184582233,0.0011397283524274826
1772522039500111600,5.826111572265625,-0.00019957497715950012,0.0013918937183916569,0.0017413990572094917
1772522039510108400,5.8361083984375,-0.0007039774209260941,0.00020625442266464233,-0.0014562588185071945
1772522039520105700,5.846105712890625,0.00020445231348276138,0.00018624449148774147,0.0012085684575140476
1772522039530102500,5.8561025390625,0.0009930143132805824,0.0024864166043698788,-0.0008037160150706768
1772522039540098300,5.866098388671875,-0.0005315244197845459,-0.0021310276351869106,-0.002174453344196081
1772522039550095600,5.876095703125,-0.0004926426336169243,0.0016325516626238823,0.0013521048240363598
1772522039560092400,5.886092529296875,0.0002123117446899414,-0.00184296490624547,0.0005706311203539371
1772522039570089500,5.89608935546875,0.0003721006214618683,-0.0018344428390264511,-0.0012523028999567032
1772522039580085500,5.90608544921875,-0.00009326264262199402,-0.0009827367030084133,0.0006013419479131699
1772522039590082600,5.91608251953125,0.0006505586206912994,-0.00189486937597394,-0.0013129380531609058
1772522039600079600,5.92607958984375,-0.0019124438986182213,-0.0018050670623779297,0.0009639435447752476
1772522039610076400,5.936076416015625,0.0005179569125175476,0.001213892363011837,0.0009620790369808674
1772522039620072700,5.94607275390625,-0.0006974348798394203,-0.0013368143700063229,-0.0003650323487818241
1772522039630069500,5.956069580078125,0.0008706348016858101,0.0003407108597457409,0.001987337600439787
1772522039640066600,5.966066650390625,-0.00034836865961551666,0.0007599410600960255,0.0017911852337419987
1772522039650063600,5.976063720703125,-0.0002500982955098152,-0.0013516792096197605,-0.002455492038279772
1772522039660059400,5.986059326171875,-0.0007535722106695175,0.001191576011478901,0.001162698958069086
1772522039670056700,5.996056640625,0.0018904143944382668,0.002292793244123459,0.00047001056373119354
1772522039680053500,6.006053466796875,0.0011651227250695229,-0.0004135644994676113,-0.0011220290325582027
1772522039690049500,6.016049560546875,-0.00028683245182037354,-0.000790934544056654,0.0005504363216459751
1772522039700046600,6.026046630859375,-0.0006204303354024887,0.00028944481164216995,0.0007064547389745712
1772522039710043400,6.03604345703125,0.0008448408916592598,-0.0028858419973403215,0.0011014016345143318
1772522039720040400,6.04604052734375,0.00154801644384861,0.0019664932042360306,0.0005378983914852142
1772522039730036500,6.056036376953125,-0.0017519062384963036,-0.002318799262866378,0.0005741175264120102
1772522039740033500,6.066033447265625,0.0019367425702512264,0.001196935772895813,-0.0006553200073540211
1772522039750030600,6.076030517578125,0.0005822591483592987,-0.00122920423746109,0.0018680249340832233
1772522039760027600,6.086027587890625,-0.00046827830374240875,-0.0007307860068976879,0.0015102783218026161
1772522039770023700,6.096023681640625,-0.0010272758081555367,0.0013699154369533062,-0.000638892874121666
1772522039780020500,6.1060205078125,-0.00009283609688282013,-0.0007612765766680241,0.0007959268987178802
1772522039790017500,6.116017578125,-0.001722690649330616,-0.0019652917981147766,-0.001279208343476057
1772522039800014600,6.1260146484375,0.00045620836317539215,-0.0009485562331974506,-0.002671568188816309
1772522039810010400,6.13601025390625,-0.00013980641961097717,-0.003379489528015256,0.0004549827426671982
1772522039820007700,6.146007568359375,0.0008940035477280617,-0.00008801417425274849,0.00009482493624091148
1772522039830004500,6.15600439453125,0.000589870847761631,0.0025796741247177124,0.0002956273965537548
1772522039840001500,6.16600146484375,-0.001324235461652279,-0.0013841977342963219,-0.0009985272772610188
1772522039849997600,6.17599755859375,-0.001782299019396305,-0.001348511315882206,-0.0002344660460948944
1772522039859994600,6.18599462890625,-0.0016844319179654121,-0.0014228387735784054,0.0007740356959402561
1772522039869991400,6.195991455078125,0.0003891056403517723,0.00040914956480264664,-0.0005088089965283871
1772522039879988500,6.205988525390625,0.0009320108219981194,0.0029917042702436447,-0.0009578987956047058
1772522039889984500,6.215984619140625,0.0022683851420879364,0.001043868251144886,0.0003190869465470314
1772522039899981600,6.225981689453125,0.0016527585685253143,0.0004039965569972992,0.001066750381141901
1772522039909978600,6.235978515625,0.002257029991596937,0.0006932155229151249,-0.001666185911744833
1772522039919975400,6.245975341796875,-0.0007880683988332748,-0.0004982943646609783,0.003769730683416128
1772522039929971500,6.255971435546875,0.000805034302175045,0.0022921659983694553,0.0020434693433344364
1772522039939968500,6.265968505859375,0.00034959521144628525,-0.000003041233867406845,0.002956895623356104
1772522039949965800,6.2759658203125,-0.0017982441931962967,-0.0006318134255707264,-0.0006604762747883797
1772522039959962600,6.285962646484375,0.0004368145018815994,-0.002092566806823015,0.0017078141681849957
1772522039969958700,6.295958740234375,0.00038408394902944565,0.0027754250913858414,0.0010348334908485413
1772522039979955700,6.305955810546875,0.0005522556602954865,0.00030410895124077797,0.001585373654961586
1772522039989952500,6.315952392578125,-0.00003763381391763687,-0.0015254826284945011,-0.0010125399567186832
1772522039999948800,6.32594873046875,-0.001897413283586502,0.0007609766907989979,0.0019771656952798367
1772522040009945600,6.335945556640625,-0.0018324321135878563,-0.0002704658545553684,-0.00029664114117622375
1772522040019942400,6.3459423828125,-0.0003360891714692116,0.0013717100955545902,0.0010703066363930702
1772522040029939700,6.355939697265625,-0.0010202554985880852,0.0027658753097057343,0.0007813535630702972
1772522040039935500,6.365935546875,-0.0004884852096438408,-0.0008805342949926853,0.0012242905795574188
1772522040049932800,6.375932861328125,-0.00012070313096046448,-0.00031780870631337166,-0.0003642854280769825
1772522040059929600,6.3859296875,-0.0030305730178952217,-0.002345597604289651,0.0007306053303182125
1772522040069926700,6.3959267578125,0.0009628366678953171,0.001310656312853098,0.00024298066273331642
1772522040079922700,6.405922607421875,-0.001513366587460041,-0.001399266067892313,-0.0036112384404987097
1772522040089919500,6.41591943359375,-0.0009929845109581947,0.00007932120934128761,0.001157950609922409
1772522040099916800,6.425916748046875,0.0011153705418109894,0.002326645888388157,0.0014984658919274807
1772522040109913600,6.43591357421875,0.0032815858721733093,-0.0010435841977596283,-0.0023268982768058777
1772522040119909600,6.44590966796875,-0.0008849967271089554,-0.0009788600727915764,-0.00002172449603676796
1772522040129906700,6.45590673828125,-0.0015864735469222069,0.0017311731353402138,-0.0030382871627807617
1772522040139903500,6.465903564453125,0.0004686601459980011,-0.0021352991461753845,-0.00023583834990859032
1772522040149900800,6.47590087890625,0.0011344505473971367,-0.0006897351704537868,0.0009346208535134792
1772522040159896600,6.485896484375,-0.0006546266376972198,0.00005221879109740257,0.0005330569110810757
1772522040169893600,6.4958935546875,0.0005848081782460213,-0.00011476129293441772,0.001849990338087082
1772522040179890700,6.505890625,-0.0014879507943987846,-0.0007143015973269939,-0.0017467616125941277
1772522040189887500,6.515887451171875,-0.0014874180778861046,-0.0003760801628232002,0.0008037476800382137
1772522040199883800,6.5258837890625,-0.0008597662672400475,-0.0002620709128677845,0.00110901752486825
1772522040209880600,6.535880615234375,-0.0002714740112423897,-0.0023811482824385166,0.0003675934858620167
1772522040219877600,6.545877685546875,0.001459089107811451,0.0005625984631478786,-0.0008632862009108067
1772522040229874700,6.555874755859375,0.0007698629051446915,0.0008797808550298214,-0.0003759274259209633
1772522040239870500,6.565870361328125,0.00015995465219020844,0.0011631716042757034,0.002144373022019863
1772522040249867800,6.57586767578125,0.000007355585694313049,-0.0001841215416789055,0.00006764056161046028
1772522040259864600,6.585864501953125,0.002154417335987091,-0.0017125452868640423,-0.0012071323581039906
1772522040269861600,6.595861572265625,-0.0019660256803035736,-0.0011839079670608044,0.0019425880163908005
1772522040279857700,6.605857666015625,-0.00018027983605861664,0.0017273700796067715,-0.000940720085054636
1772522040289854500,6.6158544921875,-0.0005286214873194695,-0.0003283238038420677,0.00008299900218844414
1772522040299851800,6.625851806640625,0.0011235103011131287,-0.0004681432619690895,-0.0007616584189236164
1772522040309848600,6.6358486328125,-0.0003564087674021721,-0.0002857167273759842,-0.0036021859850734472
1772522040319844600,6.6458447265625,0.0020954213105142117,0.0013978532515466213,-0.0012616734020411968
1772522040329841700,6.655841552734375,0.0009952690452337265,0.0006519020535051823,0.003558914177119732
1772522040339838700,6.665838623046875,-0.00011940672993659973,-0.0007407553493976593,0.001019846647977829
1772522040349835500,6.67583544921875,0.000228135846555233,-0.0009713848121464252,0.0013151909224689007
1772522040359831600,6.68583154296875,-0.0005137640982866287,-0.00043860869482159615,0.0007485854439437389
1772522040369828600,6.69582861328125,0.0006708092987537384,0.0015031024813652039,0.0002870592288672924
1772522040379825700,6.70582568359375,0.0009900964796543121,-0.0009654173627495766,0.001071692444384098
1772522040389821400,6.715821533203125,0.00007929466664791107,0.00011609261855483055,0.001269032247364521
1772522040399818800,6.72581884765625,0.000854109413921833,-0.00029108067974448204,-0.0002933586947619915
1772522040409815600,6.735815673828125,0.001434678677469492,-0.00009134365245699883,0.0007434100843966007
1772522040419812600,6.7458125,0.0002917628735303879,-0.0008001644164323807,-0.0000013923272490501404
1772522040429808600,6.75580859375,-0.001596151851117611,0.00012847967445850372,0.0013040890917181969
1772522040439805400,6.765805419921875,-0.0011384263634681702,-0.001219931524246931,-0.0006394223310053349
1772522040449802800,6.775802734375,0.0016778665594756603,0.001397422980517149,-0.0007025389932096004
1772522040459799600,6.785799560546875,0.0006939703598618507,-0.0002206442877650261,0.0030155633576214314
1772522040469795600,6.795795654296875,0.00011499878019094467,0.001372458878904581,-0.0003615911118686199
1772522040479792600,6.805792724609375,0.0016193720512092113,0.0011354624293744564,0.0012678271159529686
1772522040489789700,6.815789794921875,-0.000234188511967659,-0.00040677422657608986,0.0003074910491704941
1772522040499786500,6.825786376953125,0.000973057933151722,-0.0002830042503774166,0.0023653856478631496
1772522040509782500,6.835782470703125,0.0010713282972574234,0.0007790643721818924,-0.0007095001637935638
1772522040519779600,6.845779541015625,-0.0013297079131007195,-0.0008244807831943035,-0.0008485051803290844
1772522040529776600,6.855776611328125,0.00043996237218379974,-0.0021728393621742725,0.00016615912318229675
1772522040539773700,6.865773681640625,-0.0006540296599268913,0.001147210132330656,-0.0011783610098063946
1772522040549769700,6.875769775390625,0.0014583892188966274,0.0003237607888877392,0.002408117987215519
1772522040559766500,6.8857666015625,0.0008623702451586723,-0.0008506723679602146,-0.000456271693110466
1772522040569763600,6.895763671875,-0.0015110382810235023,-0.00024933088570833206,0.0011131293140351772
1772522040579760600,6.9057607421875,-0.0014833137392997742,0.0014081685803830624,0.00001850677654147148
1772522040589756700,6.915756591796875,0.0013391044922173023,0.0012837988324463367,-0.00018842099234461784
1772522040599753700,6.925753662109375,0.0008417638018727303,-0.0014499812386929989,0.00014031585305929184
1772522040609750500,6.93575048828125,0.0005956878885626793,-0.0032614634837955236,0.0003802664577960968
1772522040619747600,6.94574755859375,0.0014857640489935875,0.0003618667833507061,0.0009461939334869385
1772522040629743600,6.95574365234375,0.000605323351919651,-0.0010155201889574528,-0.00037073949351906776
1772522040639740700,6.96574072265625,0.0010859780013561249,0.0016410318203270435,0.0006682258099317551
1772522040649737500,6.975737548828125,0.0009416341781616211,0.0009890901856124401,-0.001778686884790659
1772522040659734800,6.98573486328125,0.00048104580491781235,-0.0007816087454557419,-0.0013614590279757977
1772522040669730600,6.99573046875,0.001166810281574726,-0.001785886473953724,-0.0007329527288675308
1772522040679727600,7.0057275390625,0.0011101113632321358,-0.0016405070200562477,-0.0006998758763074875
1772522040689724700,7.015724609375,0.001315707340836525,0.0008394285105168819,0.00010626297444105148
1772522040699721500,7.025721435546875,-0.0013614054769277573,-0.0010439492762088776,-0.000036131590604782104
1772522040709717500,7.035717529296875,-0.00041118916124105453,0.0012602177448570728,0.0019833436235785484
1772522040719714600,7.045714599609375,0.0017251060344278812,0.0004495433531701565,0.001011851243674755
1772522040729711600,7.055711669921875,0.0011373460292816162,0.0006588678807020187,-0.0017732824198901653
1772522040739708700,7.065708740234375,-0.0005017723888158798,-0.0002445913851261139,0.002079462632536888
1772522040749704700,7.07570458984375,0.0004577646031975746,0.0001178649254143238,0.00044534727931022644
1772522040759701800,7.08570166015625,-0.00034202542155981064,0.0004957183264195919,-0.0000988929532468319
1772522040769698600,7.095698486328125,-0.0031119799241423607,-0.002213248983025551,0.0006217584013938904
1772522040779694600,7.105694580078125,0.0005922187119722366,-0.00014928309246897697,0.0004025292582809925
1772522040789691600,7.115691650390625,-0.001146026886999607,-0.00021399790421128273,-0.002370353788137436
1772522040799688700,7.125688720703125,-0.0015466948971152306,-0.0004564332775771618,-0.002596908248960972
1772522040809685800,7.135685791015625,-0.00002043694257736206,-0.0004180837422609329,0.0005655954591929913
1772522040819681500,7.145681640625,-0.00019222591072320938,0.0004044128581881523,0.0015059667639434338
1772522040829678600,7.1556787109375,0.0021809167228639126,-0.0004054545424878597,0.0002702600322663784
1772522040839675600,7.165675537109375,0.0006398092955350876,0.000710667110979557,-0.0010094456374645233
1772522040849672400,7.17567236328125,-0.00014662276953458786,-0.00007523177191615105,0.0013842033222317696
1772522040859668700,7.185668701171875,-0.0016881804913282394,0.0009790575131773949,0.0012160460464656353
1772522040869665500,7.19566552734375,0.0008940203115344048,0.000685044564306736,-0.002209578175097704
1772522040879662600,7.20566259765625,-0.0000482313334941864,-0.00019640102982521057,0.0001977020874619484
1772522040889659600,7.21565966796875,-0.0005427803844213486,-0.0018920358270406723,-0.0007394640706479549
1772522040899655700,7.22565576171875,0.0022599673829972744,0.0022680554538965225,-0.0008908109739422798
1772522040909652700,7.23565283203125,0.0016229390166699886,0.00005683302879333496,0.00023890193551778793
1772522040919649500,7.2456494140625,0.0008837375789880753,-0.0002901344560086727,0.00033790525048971176
1772522040929646800,7.255646728515625,0.0018310239538550377,0.0003018858842551708,-0.000794737134128809
1772522040939642600,7.265642578125,0.0002144770696759224,-0.000017191749066114426,-0.0018786289729177952
1772522040949639700,7.2756396484375,-0.00187637098133564,0.0017141294665634632,0.0029779113829135895
1772522040959636700,7.28563671875,0.00024195853620767593,0.0014207791537046432,0.00209548557177186
1772522040969633500,7.295633544921875,0.001090708188712597,0.00020424742251634598,0.0004152972251176834
1772522040979629600,7.305629638671875,0.0018824664875864983,-0.00037004379555583,-0.00019554654136300087
1772522040989626600,7.315626708984375,-0.0004011942073702812,-0.0009439550340175629,-0.0018496355041861534
1772522040999623400,7.32562353515625,-0.0012649744749069214,0.0005705589428544044,0.0009651565924286842
1772522041009620700,7.335620849609375,-0.0018540658056735992,0.00005150865763425827,0.00006420910358428955
1772522041019616500,7.345616455078125,-0.00012560468167066574,-0.000013923738151788712,-0.0014120177365839481
1772522041029613800,7.35561376953125,-0.0006284099072217941,-0.00026905443519353867,-0.0027230922132730484
1772522041039610600,7.365610595703125,-0.0007112361490726471,0.0013799509033560753,0.0012219133786857128
1772522041049607400,7.375607421875,0.0018155709840357304,0.0002294653095304966,-0.0007256558164954185
1772522041059603700,7.385603759765625,0.0005682380869984627,0.0016377265565097332,-0.0014761663042008877
1772522041069600500,7.3956005859375,-0.0019295411184430122,-0.00026696594431996346,0.0010258732363581657
1772522041079597800,7.405597900390625,0.0008212467655539513,0.00035075051710009575,-0.0006980430334806442
1772522041089594600,7.4155947265625,0.0017139380797743797,0.0007307836785912514,-0.0009049708023667336
1772522041099590700,7.425590576171875,-0.0016193017363548279,0.0006260941736400127,-0.0000570579431951046
1772522041109587700,7.435587646484375,0.00039218366146087646,-0.0006911056116223335,-0.0009444230236113071
1772522041119584500,7.44558447265625,0.0003026910126209259,-0.0010951790027320385,-0.002030431292951107
1772522041129581600,7.45558154296875,-0.00021529383957386017,-0.0010682810097932816,0.00019091134890913963
1772522041139577600,7.46557763671875,0.002038625068962574,0.0010171406902372837,-0.00041471049189567566
1772522041149574400,7.475574462890625,0.00042208563536405563,0.0005593434907495975,0.00030327774584293365
1772522041159571700,7.48557177734375,-0.000051223672926425934,0.0006911200471222401,0.0018395977094769478
1772522041169568500,7.495568603515625,0.0021903589367866516,0.0008796718902885914,-0.002467532642185688
1772522041179564800,7.505564697265625,-0.00009470991790294647,-0.0001436108723282814,0.002808057237416506
1772522041189561600,7.5155615234375,-0.0017445385456085205,0.0007078014314174652,-0.00030730804428458214
1772522041199558700,7.52555859375,0.0006535975262522697,0.0008179717697203159,-0.00015980331227183342
1772522041209555700,7.5355556640625,0.0030387244187295437,0.001870719250291586,-0.003328432561829686
1772522041219551500,7.545551513671875,-0.0019172141328454018,-0.00002256035804748535,0.0007503600791096687
1772522041229548800,7.555548828125,0.00191480852663517,-0.0006015314720571041,-0.0009013321250677109
1772522041239545600,7.565545654296875,0.0006612008437514305,-0.0010632188059389591,-0.0014863647520542145
1772522041249542700,7.575542724609375,-0.0016565481200814247,-0.0009492356330156326,-0.0025050239637494087
1772522041259538700,7.58553857421875,0.0013485862873494625,-0.00023830216377973557,-0.00024772342294454575
1772522041269535500,7.595535400390625,-0.00014651194214820862,0.002574528567492962,-0.0002820780500769615
1772522041279532500,7.605532470703125,0.0012777652591466904,0.0007656700909137726,0.0012020096182823181
1772522041289529600,7.615529541015625,-0.0001880386844277382,-0.0005113156512379646,0.000680562574416399
1772522041299525600,7.625525634765625,0.001262507401406765,0.0011712540872395039,-0.0026131058111786842
1772522041309522700,7.635522705078125,-0.001975630410015583,0.0016887062229216099,0.0008636512793600559
1772522041319519500,7.64551953125,-0.00024389568716287613,0.0016076616011559963,-0.0002927212044596672
1772522041329516500,7.6555166015625,0.0011886181309819221,-0.002442740136757493,-0.0013577193021774292
1772522041339512600,7.6655126953125,-0.0003751944750547409,0.002360830083489418,0.001331895124167204
1772522041349509600,7.675509521484375,0.0018264404498040676,0.0004870304837822914,-0.00020501529797911644
1772522041359506700,7.685506591796875,0.0008647860959172249,-0.0002670818939805031,-0.0015277303755283356
1772522041369503700,7.695503662109375,0.000238676555454731,-0.0012535168789327145,0.0009135892614722252
1772522041379499800,7.705499755859375,0.0010629650205373764,0.0006560720503330231,-0.0013769851066172123
1772522041389496600,7.71549658203125,-0.0009945938363671303,0.0011695297434926033,-0.0010560741648077965
1772522041399493600,7.72549365234375,0.00008043646812438965,0.0005166945047676563,-0.002865219721570611
1772522041409490700,7.73549072265625,0.0007763206958770752,0.00011908449232578278,-0.0002558543346822262
1772522041419486500,7.745486572265625,0.0007479554042220116,0.0017546741291880608,0.0007156394422054291
1772522041429483800,7.75548388671875,-0.0016646021977066994,-0.0024059826973825693,-0.000004479195922613144
1772522041439480600,7.76548046875,-0.0002665845677256584,0.0009699063375592232,-0.0010472177527844906
1772522041449476600,7.7754765625,-0.0008972212672233582,0.0008540591225028038,-0.000634161289781332
1772522041459473700,7.7854736328125,0.00022955238819122314,-0.0019198083318769932,-0.0005787760019302368
1772522041469470700,7.795470703125,0.0008186427876353264,0.0014762547798454762,-0.0014717336744070053
1772522041479467500,7.805467529296875,-0.0014215828850865364,-0.0013338150456547737,0.0024445937015116215
1772522041489464600,7.815464599609375,0.0008908398449420929,-0.0014033233746886253,0.001102361362427473
1772522041499460600,7.825460693359375,-0.0018914993852376938,0.000017260201275348663,-0.0021481672301888466
1772522041509457700,7.835457763671875,0.0007261214777827263,-0.0006714332848787308,0.00022870441898703575
1772522041519454700,7.845454833984375,-0.0019606351852416992,-0.001646652352064848,0.00034474441781640053
1772522041529450800,7.85545068359375,-0.00047139544039964676,0.0025302497670054436,-0.002465156838297844
1772522041539447600,7.865447509765625,0.0004805494099855423,0.0003646300174295902,-0.00019360985606908798
1772522041549444600,7.875444580078125,-0.0019738199189305305,-0.0020916033536195755,0.00006498303264379501
1772522041559441700,7.885441650390625,0.0001394115388393402,0.0025485404767096043,0.0016652075573801994
1772522041569437700,7.895437744140625,0.0012041432783007622,-0.0011958638206124306,0.00072138337418437
1772522041579434800,7.905434814453125,-0.00041776150465011597,-0.0007434631697833538,-0.0013720057904720306
1772522041589431600,7.915431640625,0.00043391715735197067,0.0021300874650478363,0.00008048210293054581
1772522041599428600,7.9254287109375,0.0013973633758723736,-0.0018666447140276432,0.0018694237805902958
1772522041609424600,7.935424560546875,-0.0020293258130550385,-0.00007460406050086021,0.0022214935161173344
1772522041619421700,7.945421630859375,0.0010338807478547096,-0.002779753413051367,0.001626898068934679
1772522041629418500,7.95541845703125,0.0013207034207880497,0.0005643777549266815,-0.0011787423864006996
1772522041639415800,7.965415771484375,0.0013728202320635319,0.0011803149245679379,-0.0015231971628963947
1772522041649411600,7.97541162109375,0.001063360832631588,0.0006807059980928898,0.000671247486025095
1772522041659408600,7.98540869140625,0.00008103810250759125,-0.00017515569925308228,-0.0022355415858328342
1772522041669405700,7.99540576171875,-0.0006015300750732422,0.0008395086042582989,0.001214850228279829
1772522041679402500,8.005402587890625,-0.001139066182076931,0.0005317637696862221,0.00026187486946582794
1772522041689398500,8.0153984375,-0.002246142365038395,0.0003538648597896099,0.00036786869168281555
1772522041699395600,8.0253955078125,-0.001691250130534172,0.0013180258683860302,-0.0010617137886583805
1772522041709392600,8.035392578125,0.00038681458681821823,-0.0008085081353783607,-0.0024391007609665394
1772522041719389700,8.0453896484375,-0.00177739467471838,0.0012503215111792088,0.0005863639526069164
1772522041729385700,8.0553857421875,-0.0009723212569952011,-0.0014786198735237122,-0.0005683824419975281
1772522041739382800,8.0653828125,0.0004961267113685608,0.0016598240472376347,-0.00044941576197743416
1772522041749379600,8.075379638671874,0.0008620452135801315,0.0035320264287292957,0.0017748563550412655
1772522041759376600,8.085376708984375,0.0011311639100313187,-0.0016957554034888744,-0.0007309154607355595
1772522041769372700,8.09537255859375,0.0001226244494318962,-0.0008661807514727116,-0.0007207952439785004
1772522041779369500,8.105369384765625,-0.001836692914366722,-0.0009439075365662575,-0.0007578018121421337
1772522041789366800,8.11536669921875,0.00021580513566732407,-0.004208676982671022,-0.0011716573499143124
1772522041799363600,8.125363525390625,0.0005506090819835663,0.0014487640000879765,-0.0013539199717342854
1772522041809359600,8.135359619140624,-0.00044274982064962387,-0.000250066164880991,0.001168892253190279
1772522041819356700,8.145356689453125,-0.0001831715926527977,-0.0023641183506697416,-0.0000356258824467659
1772522041829353500,8.155353515625,-0.0007411036640405655,0.0024668555706739426,0.0008730445988476276
1772522041839350800,8.165350830078125,0.002471598330885172,-0.0019596698693931103,0.000051655806601047516
1772522041849346600,8.1753466796875,-0.0008235303685069084,0.0001559453085064888,-0.002178208902478218
1772522041859343600,8.185343505859375,-0.0006053764373064041,0.0014308751560747623,0.0035617738030850887
1772522041869340700,8.195340576171875,-0.0009862082079052925,-0.00046715978533029556,0.0022413781844079494
1772522041879337500,8.20533740234375,-0.002964685671031475,0.00011940347030758858,0.00031346315518021584
1772522041889333800,8.215333740234374,-0.00030578579753637314,0.0028305016458034515,0.00009029032662510872
1772522041899330600,8.22533056640625,0.0002322811633348465,0.00022109970450401306,-0.000039321836084127426
1772522041909328000,8.235327880859375,0.0011247070506215096,-0.0005682613700628281,0.0008634896948933601
1772522041919324700,8.24532470703125,0.00008501764386892319,-0.0003108303062617779,-0.00003205891698598862
1772522041929320400,8.255320556640624,0.0009308373555541039,-0.00023333262652158737,0.001192995347082615
1772522041939316700,8.265316650390625,-0.00004045665264129639,-0.0010980363003909588,0.0038208584301173687
1772522041949313500,8.2753134765625,-0.00019278936088085175,0.00003167660906910896,0.001056763343513012
1772522041959310800,8.285310791015625,0.0020074122585356236,-0.0011384161189198494,0.0018635494634509087
1772522041969306600,8.295306640625,0.0017038118094205856,0.00016307039186358452,-0.0004065288230776787
1772522041979303700,8.3053037109375,-0.00011180620640516281,-0.0011952226050198078,-0.0016748453490436077
1772522041989300700,8.31530078125,-0.0003166031092405319,-0.0021377154625952244,-0.002353152260184288
1772522041999297500,8.325297607421875,0.00037724804133176804,0.0012029018253087997,-0.002657913137227297
1772522042009293600,8.33529345703125,0.001719214953482151,0.000341102946549654,-0.000006736721843481064
1772522042019290600,8.34529052734375,0.001615133136510849,0.001049197744578123,-0.0002731163986027241
1772522042029287700,8.35528759765625,-0.0008842432871460915,-0.0005913092754781246,-0.0014955075457692146
1772522042039284700,8.36528466796875,-0.00041984207928180695,-0.0011366629041731358,-0.0012853974476456642
1772522042049280800,8.37528076171875,-0.001256341114640236,-0.0012543746270239353,-0.0004022931680083275
1772522042059277800,8.38527783203125,0.00011354032903909683,-0.0000810408964753151,-0.0004637753590941429
1772522042069274600,8.395274658203125,0.0024019950069487095,0.0003525218926370144,-0.00032582366839051247
1772522042079271700,8.405271728515626,0.00012678839266300201,0.0005722055211663246,0.000007594004273414612
1772522042089267700,8.415267822265625,0.0011190827935934067,-0.0012248954735696316,-0.00021904101595282555
1772522042099264500,8.425264404296875,0.0008425833657383919,-0.0011817351914942265,-0.0009886487387120724
1772522042109261800,8.43526171875,0.0010873274877667427,-0.00007172999903559685,-0.0023908033035695553
1772522042119258600,8.445258544921876,-0.00028935447335243225,0.000990026630461216,0.00027393968775868416
1772522042129254700,8.455254638671875,-0.0014709988608956337,0.000661392230540514,0.0005106944590806961
1772522042139251700,8.465251708984376,0.0007045753300189972,0.0014805570244789124,0.002428347710520029
1772522042149248500,8.47524853515625,0.0006989827379584312,0.00043073901906609535,0.000245886854827404
1772522042159245800,8.485245849609376,-0.001233953982591629,0.0007182043045759201,0.00046640075743198395
1772522042169241600,8.49524169921875,-0.0015593916177749634,-0.000554786529392004,0.0023114383220672607
1772522042179238700,8.50523876953125,0.001110428012907505,0.001359649933874607,-0.0010939259082078934
1772522042189235700,8.515235595703125,-0.00043793395161628723,0.0006669615395367146,-0.0013216258957982063
1772522042199232500,8.525232421875,-0.00036273058503866196,0.0005892356857657433,0.00022736424580216408
1772522042209228800,8.535228759765625,-0.000640498474240303,0.0007769884541630745,0.0013648001477122307
1772522042219225600,8.5452255859375,-0.0030414890497922897,0.000028614886105060577,0.0006821113638579845
1772522042229222700,8.55522265625,-0.00008032005280256271,0.0004472639411687851,0.0006482889875769615
1772522042239219700,8.5652197265625,0.001234227791428566,0.0025699944235384464,-0.0005483636632561684
1772522042249215500,8.575215576171875,0.0009631188586354256,-0.0000665346160531044,0.0019153268076479435
1772522042259212800,8.585212890625,0.002544557675719261,-0.0008451421745121479,0.0008122958242893219
1772522042269209600,8.595209716796875,0.0015099192969501019,0.0024864720180630684,0.0003030993975698948
1772522042279206700,8.60520654296875,-0.001594802364706993,-0.0008336566388607025,0.0006327899172902107
1772522042289202700,8.61520263671875,-0.0009838733822107315,0.0010191043838858604,-0.0006047813221812248
1772522042299199500,8.625199462890626,-0.0005734963342547417,0.002136931288987398,0.00014855572953820229
1772522042309196800,8.63519677734375,0.0002640672028064728,0.0014120186679065228,0.0009616189636290073
1772522042319193600,8.645193603515626,0.0005018580704927444,-0.0002610357478260994,-0.00008088769391179085
1772522042329190000,8.65518994140625,-0.0005421014502644539,-0.000653053168207407,0.00028769392520189285
1772522042339186700,8.665186767578126,-0.001590365543961525,0.00008801557123661041,-0.00023939087986946106
1772522042349183500,8.67518359375,-0.002865753136575222,0.00006937375292181969,0.00009323796257376671
1772522042359180800,8.685180908203124,0.001358469482511282,0.0016558421775698662,0.0011229109950363636
1772522042369176600,8.695176513671875,-0.000057267025113105774,-0.0003130328841507435,0.0006318241357803345
1772522042379173600,8.705173583984376,-0.0009528892114758492,-0.00026964303106069565,-0.00190432695671916
1772522042389170700,8.715170654296875,0.0005294261500239372,0.0006659254431724548,-0.0012340093962848186
1772522042399167700,8.725167724609374,0.0009134877473115921,0.0008230060338973999,0.003534216433763504
1772522042409163800,8.735163818359375,0.0016719559207558632,-0.001291010994464159,0.0019368520006537437
1772522042419160600,8.74516064453125,0.0017618173733353615,0.0014899838715791702,-0.00024244654923677444
1772522042429157600,8.75515771484375,-0.00158604234457016,-0.001394486054778099,0.001791942398995161
1772522042439154700,8.76515478515625,-0.001103668473660946,0.0018740259110927582,-0.0006967377848923206
1772522042449150500,8.775150390625,-0.000605924054980278,-0.00006289081647992134,-0.0012397561222314835
1772522042459147800,8.785147705078124,-0.000876755453646183,-0.0031459780875593424,0.002377105411142111
1772522042469144600,8.79514453125,-0.0016365544870495796,0.0010389131493866444,0.0008870665915310383
1772522042479141600,8.8051416015625,0.0014973189681768417,-0.0009462665766477585,-0.0010412205010652542
1772522042489137700,8.8151376953125,0.000011541880667209625,0.000005547422915697098,0.00040727248415350914
1772522042499134700,8.825134765625,-0.0009052129462361336,0.0007099905051290989,0.0014202054589986801
1772522042509131800,8.8351318359375,0.0016218610107898712,0.00014247093349695206,0.000011660158634185791
1772522042519128600,8.845128662109374,-0.0011077681556344032,-0.0013684546574950218,-0.0013788919895887375
1772522042529124900,8.855124755859375,-0.0008339956402778625,-0.001290423795580864,-0.003354957327246666
1772522042539121700,8.86512158203125,0.0010336311534047127,-0.0022595981135964394,-0.0022011874243617058
1772522042549118700,8.87511865234375,-0.0002875635400414467,0.000583060085773468,0.002311538904905319
1772522042559115800,8.88511572265625,-0.000740688294172287,-0.00190647691488266,-0.00009713089093565941
1772522042569111600,8.895111572265625,0.0017658784054219723,-0.0020007528364658356,-0.0005496018566191196
1772522042579108600,8.905108642578124,-0.0009281449019908905,0.0007422114722430706,-0.0006649903953075409
1772522042589105700,8.915105712890625,-0.0017526596784591675,-0.0011297245509922504,0.0019467715173959732
1772522042599102700,8.925102783203124,-0.0013274000957608223,-0.0011386070400476456,-0.00040974514558911324
1772522042609098800,8.9350986328125,0.0010859565809369087,0.00018951110541820526,-0.0014190832152962685
1772522042619095600,8.945095458984374,0.0007279030978679657,0.0002712290734052658,0.0007054619491100311
1772522042629092600,8.955092529296875,0.0009063342586159706,0.000251521822065115,-0.0018631569109857082
1772522042639089700,8.965089599609374,-0.000690702348947525,-0.0011735926382243633,0.000222841277718544
1772522042649085700,8.975085693359375,0.0008533988147974014,0.0014173965901136398,0.0021174135617911816
1772522042659082800,8.985082763671874,0.0014416077174246311,0.0021339813247323036,-0.0016648261807858944
1772522042669079800,8.995079833984375,0.00004398077726364136,-0.001923876814544201,-0.0005348469130694866
1772522042679076600,9.00507666015625,-0.0006435401737689972,0.0011218697763979435,0.0013731829822063446
1772522042689072600,9.01507275390625,0.0020790095441043377,0.0004030829295516014,-0.0005373689346015453
1772522042699069700,9.025069580078124,-0.0007731933146715164,0.0005292915739119053,0.00010260660201311111
1772522042709066800,9.035066650390625,0.0003714337944984436,0.000097593292593956,-0.0016231215558946133
1772522042719063800,9.045063720703125,-0.0015171309933066368,0.00005924748256802559,-0.0009986255317926407
1772522042729059600,9.0550595703125,0.00038250163197517395,0.0005559269338846207,0.000918583944439888
1772522042739056600,9.065056640625,0.00013872329145669937,0.0026739267632365227,-0.0017754537984728813
1772522042749053700,9.0750537109375,0.001626898068934679,-0.0013991119340062141,-0.0005117841064929962
1772522042759050500,9.085050537109375,-0.0000022007152438163757,0.0013457746244966984,-0.0012511475943028927
1772522042769046800,9.095046875,-0.00032977014780044556,0.0019021090120077133,-0.00006577419117093086
1772522042779043600,9.105043701171875,0.0013504684902727604,0.00025760242715477943,-0.0027054320089519024
1772522042789040600,9.11504052734375,-0.0003060176968574524,0.0016232714988291264,0.0028978590853512287
1772522042799037700,9.12503759765625,-0.0007987301796674728,-0.00013650115579366684,0.00015362631529569626
1772522042809033700,9.13503369140625,0.0010787984356284142,-0.0008206674829125404,0.000046833883970975876
1772522042819030800,9.14503076171875,0.000040433369576931,0.0007176026701927185,-0.0003938511945307255
1772522042829027600,9.155027587890626,-0.0010264283046126366,0.002138931769877672,0.0013976572081446648
1772522042839025000,9.16502490234375,0.001604569610208273,0.0005894689820706844,-0.0014900523237884045
1772522042849020700,9.175020751953125,0.0009542256593704224,0.00041955895721912384,0.0006822878494858742
1772522042859017700,9.185017822265625,0.0005267970263957977,0.0017245407216250896,0.0012045959010720253
1772522042869014800,9.195014892578126,0.0032578683458268642,0.0018558348529040813,0.0014522699639201164
1772522042879011600,9.205011474609375,-0.00007805600762367249,-0.0009829173795878887,-0.0011211163364350796
1772522042889007600,9.215007568359376,-0.0005033630877733231,-0.0021539092995226383,0.0002581346780061722
1772522042899004700,9.225004638671875,0.0017535723745822906,-0.0009279241785407066,0.00018370524048805237
1772522042909001500,9.23500146484375,-0.0003721630200743675,0.0013578669168055058,-0.00038541248068213463
1772522042918998800,9.244998779296875,-0.001271805725991726,-0.0009546657092869282,-0.0004908195696771145
1772522042928994600,9.25499462890625,0.00033461302518844604,0.00111008295789361,0.0006239796057343483
1772522042938992400,9.264992431640625,0.00012590177357196808,-0.0006912597455084324,0.00021710479632019997
1772522042948989400,9.274989501953126,0.0014779889024794102,-0.0004691523499786854,-0.001660157460719347
1772522042958986200,9.284986328125,-0.0017883563414216042,0.00200504157692194,-0.0007636719383299351
1772522042968982500,9.294982421875,0.001947792712599039,0.0014236732386052608,-0.0009431689977645874
1772522042978979300,9.304979248046875,-0.00003672204911708832,-0.0011082659475505352,-0.00008547445759177208
1772522042988976400,9.314976318359374,0.000428798608481884,0.00012264680117368698,-0.00041970144957304
1772522042998972400,9.324972412109375,-0.0016343547031283379,-0.00010332884266972542,-0.001770172268152237
1772522043008968400,9.334968505859376,0.0020037898793816566,-0.000011449679732322693,0.0011609024368226528
1772522043018965500,9.344965576171875,0.0005908142775297165,-0.00012666545808315277,-0.0006951498799026012
1772522043028962300,9.35496240234375,0.0006131855770945549,-0.001150384545326233,-0.001289301086217165
1772522043038959400,9.36495947265625,-0.0014596832916140556,0.0003215889446437359,0.00150018697604537
1772522043048955400,9.374955322265626,0.0011664601042866707,0.0002880333922803402,0.0002967040054500103
1772522043058952400,9.384952392578125,0.002046269830316305,0.00039078202098608017,-0.003298737807199359
1772522043068949500,9.394949462890626,-0.0017479360103607178,-0.0001556985080242157,0.0006496650166809559
1772522043078946300,9.4049462890625,-0.0004812777042388916,-0.0009667030535638332,0.00036963121965527534
1772522043088942300,9.4149423828125,-0.00010497309267520905,-0.0030935031827539206,-0.00018963264301419258
1772522043098939400,9.424939453125,-0.0000575091689825058,0.0007106754928827286,0.0004869168624281883
1772522043108936200,9.434936279296876,-0.00026257243007421494,-0.0014595342800021172,-0.0038622913416475058
1772522043118933500,9.44493359375,0.0018439567647874355,-0.00006696907803416252,0.005373471416532993
1772522043128929300,9.45492919921875,-0.0005086800083518028,-0.00009999237954616547,-0.0018756524659693241
1772522043138926300,9.46492626953125,-0.0005778754130005836,-0.0014484473504126072,0.000016029924154281616
1772522043148923400,9.47492333984375,0.0021247006952762604,0.0007712976075708866,0.0009915460832417011
1772522043158920200,9.484920166015625,-0.0018456466495990753,0.000556096900254488,0.0027512433007359505
1772522043168916500,9.49491650390625,0.0008787671104073524,-0.001001585740596056,-0.0004759756848216057
1772522043178913300,9.504913330078125,-0.0016259783878922462,0.00008659018203616142,0.0013998784124851227
1772522043188910600,9.51491064453125,-0.0012193135917186737,-0.0014758864417672157,0.004343735985457897
1772522043198907400,9.524907470703125,0.00038470886647701263,0.002367886248975992,0.00019055791199207306
1772522043208903400,9.5349033203125,0.0007847156375646591,0.0009758519008755684,0.0010768580250442028
1772522043218900500,9.544900390625,0.0007039681077003479,-0.0020843110978603363,0.000058273784816265106
1772522043228897300,9.554897216796874,0.0021191718988120556,0.00016739172860980034,0.0005813185125589371
1772522043238894300,9.564894287109375,0.0019512046128511429,-0.00228842138312757,0.0031620734371244907
1772522043248890400,9.574890380859374,-0.001009431667625904,-0.0029624674934893847,0.0008339383639395237
1772522043258887200,9.58488720703125,0.00170414661988616,-0.002126117702573538,-0.00013148318976163864
1772522043268884500,9.594884521484374,0.00006949808448553085,-0.00007388554513454437,-0.0016995524056255817
1772522043278881300,9.60488134765625,0.0014592898078262806,-0.0020836167968809605,0.0005901763215661049
1772522043288877600,9.614877685546874,-0.000563381239771843,0.00045384280383586884,-0.0007501924410462379
1772522043298874400,9.624874267578125,-0.0018031764775514603,0.0005057067610323429,-0.001901067327708006
1772522043308871200,9.63487109375,-0.000881989486515522,0.0014007952995598316,0.001557047013193369
1772522043318868500,9.644868408203125,-0.0016270279884338379,0.0005374443717300892,-0.001718906220048666
1772522043328864300,9.6548642578125,0.0003940444439649582,-0.0004055807366967201,0.0005035018548369408
1772522043338861600,9.664861572265625,0.002100360579788685,-0.0011597718112170696,-0.00012865103781223297
1772522043348858400,9.6748583984375,-0.001093834638595581,0.00009351177141070366,0.0002191578969359398
1772522043358855400,9.68485546875,0.0017919177189469337,0.0013049878180027008,-0.0009594359435141087
1772522043368852500,9.6948525390625,0.0008161356672644615,0.0011808848939836025,0.001481350976973772
1772522043378849300,9.704849365234375,-0.0007703416049480438,0.0005456879734992981,-0.00017132004722952843
1772522043388845600,9.714845458984374,-0.000549832358956337,0.0026099039241671562,-0.0015266025438904762
1772522043398842400,9.72484228515625,-0.0016217716038227081,-0.000012394506484270096,-0.0014453111216425896
1772522043408839400,9.73483935546875,-0.0029493579640984535,-0.001337583176791668,0.0014095972292125225
1772522043418836500,9.74483642578125,0.00109077338129282,0.00044238148257136345,0.001050035934895277
1772522043428832300,9.754832275390624,0.0009802524000406265,0.0014602416194975376,0.0010883854702115059
1772522043438829300,9.764829345703125,-0.0012037353590130806,-0.00033956440165638924,-0.0012950007803738117
1772522043448826400,9.774826416015625,-0.0012130560353398323,0.00016004499047994614,-0.0006025787442922592
1772522043458823400,9.784823486328126,-0.0006419438868761063,0.0010369597002863884,0.00034056464210152626
1772522043468819500,9.7948193359375,-0.001117052510380745,-0.00016785413026809692,-0.002251490019261837
1772522043478816300,9.804816162109375,-0.00038470420986413956,0.0004257950931787491,0.0015095542185008526
1772522043488813300,9.814813232421875,0.0006446074694395065,-0.00117822689935565,0.001084779854863882
1772522043498810400,9.824810302734376,-0.00007627438753843307,-0.0011076871305704117,0.0006945636123418808
1772522043508807400,9.834807373046875,-0.0002946536988019943,0.001655608881264925,-0.000691079068928957
1772522043518803500,9.844803466796876,0.0006987759843468666,0.002684363629668951,0.00038806721568107605
1772522043528800500,9.854800537109375,-0.00027540791779756546,0.0005024359561502934,-0.00006493646651506424
1772522043538797300,9.86479736328125,-0.0011663427576422691,-0.001154022291302681,0.00010095536708831787
1772522043548793300,9.87479345703125,0.00006536953151226044,-0.00019555026665329933,0.0023137754760682583
1772522043558790400,9.884790283203126,-0.0005286959931254387,-0.00042880745604634285,0.00047781411558389664
1772522043568787500,9.894787353515625,-0.0002109808847308159,-0.0003507770597934723,0.00018779560923576355
1772522043578784500,9.904784423828126,0.002080213278532028,0.0013979007489979267,0.0011965460143983364
1772522043588781300,9.91478125,0.0005547543987631798,-0.0009627249091863632,-0.001389916054904461
1772522043598777300,9.92477734375,0.0015378105454146862,0.002035816665738821,0.0002238689921796322
1772522043608774400,9.9347744140625,-0.0008100317791104317,-0.001598598901182413,0.001235869713127613
1772522043618771200,9.944771240234376,-0.0008590715005993843,-0.00024689827114343643,0.00007303431630134583
1772522043628768500,9.9547685546875,0.0005297670140862465,-0.000927868764847517,-0.0016247308813035488
1772522043638764300,9.964764404296876,-0.002584768459200859,0.0013882480561733246,-0.0016826791688799858
1772522043648761300,9.97476123046875,0.00163607532158494,0.0011118119582533836,-0.002680832054466009
1772522043658758400,9.98475830078125,-0.0020882952958345413,0.0012074904516339302,-0.0027254221495240927
1772522043668755200,9.994755126953125,0.00006726756691932678,0.0020567718893289566,0.000654927920550108
1772522043678751500,10.00475146484375,-0.0011358195915818214,-0.0005387864075601101,0.0009723789989948273
1772522043688748300,10.014748291015625,-0.00212198868393898,0.0017608529888093472,0.0022704037837684155
1772522043698745600,10.02474560546875,0.0019534616731107235,-0.0013419841416180134,0.0011229398660361767
1772522043708741400,10.034741455078125,0.0023755724541842937,0.0006300867535173893,0.0025831512175500393
1772522043718738400,10.044738525390626,0.00034302379935979843,-0.002145687583833933,0.000060350168496370316
1772522043728735500,10.054735595703125,0.0007102731615304947,0.00035555334761738777,-0.0006307400763034821
1772522043738732300,10.064732177734374,0.00023533310741186142,-0.00002136360853910446,0.0007503349334001541
1772522043748729300,10.074729248046875,0.0006127031520009041,0.0024385987780988216,-0.00036819279193878174
1772522043758725400,10.084725341796876,0.0017836224287748337,-0.0010600429959595203,-0.0005160858854651451
1772522043768722200,10.09472216796875,-0.0007557012140750885,-0.0003710831515491009,-0.0020340876653790474
1772522043778719500,10.104719482421874,-0.002086265943944454,0.002194527070969343,-0.0004382622428238392
1772522043788716300,10.11471630859375,-0.0022455230355262756,0.00046240678057074547,-0.0009346753358840942
1772522043798712600,10.124712646484374,-0.0006871949881315231,0.0009700460359454155,-0.0005667414516210556
1772522043808709400,10.13470947265625,-0.0020547285676002502,-0.00023317011073231697,-0.000048490241169929504
1772522043818706200,10.1447060546875,0.000014207325875759125,-0.0013046590611338615,-0.0015464453026652336
1772522043828703500,10.154703369140625,-0.00010137353092432022,0.001832278911024332,-0.0017019743099808693
1772522043838699300,10.16469921875,-0.0007292367517948151,0.0003774268552660942,0.0005574212409555912
1772522043848696600,10.174696533203125,-0.0014086095616221428,0.000054385513067245483,0.0010181483812630177
1772522043858693400,10.184693359375,0.0018455390818417072,0.0020706430077552795,0.0015905527397990227
1772522043868690400,10.1946904296875,0.0004561683163046837,0.0026658596470952034,0.0005718939937651157
1772522043878686500,10.2046865234375,-0.0007983427494764328,-0.0006315498612821102,0.00038357730954885483
1772522043888683300,10.214683349609375,-0.0031861327588558197,0.000028381124138832092,-0.0008603851310908794
1772522043898680600,10.2246806640625,-0.0011668726801872253,0.001203153282403946,-0.0002956320531666279
1772522043908677400,10.234677490234375,-0.0009583476930856705,0.002712366171181202,0.00017787795513868332
1772522043918673200,10.244673095703124,0.0005370872095227242,0.000012816395610570908,0.0036041191779077053
1772522043928670500,10.25467041015625,-0.0008187275379896164,0.00343844061717391,0.0008954177610576153
1772522043938667300,10.264667236328124,0.00027140695601701736,0.00003920542076230049,-0.00027105677872896194
1772522043948664300,10.274664306640625,0.002110851928591728,-0.0005498859100043774,0.0018054097890853882
1772522043958660600,10.28466064453125,-0.0008543692529201508,0.0006569088436663151,-0.001161536667495966
1772522043968657400,10.294657470703125,0.0017680455930531025,0.00037647830322384834,-0.0003503379411995411
1772522043978654500,10.304654541015625,0.001111169345676899,-0.0011459141969680786,0.0006828466430306435
1772522043988651500,10.314651611328125,-0.0009213555604219437,-0.0020348774269223213,-0.001101205125451088
1772522043998647600,10.3246474609375,0.0019981530494987965,0.0017779553309082985,-0.0011301897466182709
1772522044008644600,10.33464453125,-0.001033056527376175,0.00007273349910974503,-0.0006217923946678638
1772522044018641400,10.344641357421875,-0.0012417258694767952,-0.0000507882796227932,-0.0013518664054572582
1772522044028638700,10.354638671875,0.002207334153354168,0.00041499873623251915,0.0006641466170549393
1772522044038634500,10.364634521484374,0.00031784921884536743,-0.002398818964138627,-0.002382822334766388
1772522044048631600,10.374631591796875,-0.0007870970293879509,0.0010449145920574665,-0.0004578894004225731
1772522044058628600,10.384628662109375,0.0018573328852653503,0.0008618989959359169,-0.0005782525986433029
1772522044068625400,10.39462548828125,-0.00011207442730665207,-0.0007154913619160652,0.00201167119666934
1772522044078621400,10.404621337890624,-0.0007815835997462273,-0.00018288660794496536,-0.000058875419199466705
1772522044088618500,10.414618408203125,-0.0006220601499080658,0.0011569499038159847,-0.0014799381606280804
1772522044098615300,10.424615234375,-0.0017356844618916512,-0.0005731293931603432,0.001298950519412756
1772522044108612600,10.434612548828126,-0.0010107718408107758,0.0005664373748004436,0.0008725780062377453
1772522044118608400,10.4446083984375,-0.0002878047525882721,0.00024668872356414795,-0.0024557881988584995
1772522044128605700,10.454605712890626,-0.0006071180105209351,-0.0019485550001263618,-0.002583620138466358
1772522044138602500,10.4646025390625,-0.0004029786214232445,0.0013896082527935505,-0.0012651393190026283
1772522044148599300,10.474599365234376,0.0008044987916946411,-0.0023641171865165234,-0.0004113302566111088
1772522044158595600,10.484595703125,-0.00048245862126350403,-0.00014489050954580307,0.000710352323949337
1772522044168592400,10.49459228515625,-0.00019377190619707108,0.0014407560229301453,0.0006778617389500141
1772522044178589700,10.504589599609375,0.00039349962025880814,-0.002082724589854479,0.0012378264218568802
1772522044188586500,10.51458642578125,-0.0006704339757561684,-0.00033862050622701645,-0.0011568879708647728
1772522044198582500,10.52458251953125,-0.0013638287782669067,-0.0015428271144628525,0.000297504011541605
1772522044208579600,10.53457958984375,-0.0007286649197340012,-0.0009574643336236477,-0.002101205289363861
1772522044218576400,10.544576416015625,-0.0006916224956512451,0.0012787459418177605,-0.00004454841837286949
1772522044228573400,10.554573486328126,-0.0014676675200462341,0.0006867256015539169,-0.00017770659178495407
1772522044238570500,10.564570556640625,-0.0021261954680085182,-0.0005687763914465904,0.0003124559298157692
1772522044248566300,10.574566162109376,0.0010810494422912598,0.000935110729187727,-0.001226584892719984
1772522044258563600,10.5845634765625,-0.000033428892493247986,-0.001943142618983984,-0.0004024258814752102
1772522044268560400,10.594560302734376,-0.0010353103280067444,0.000488589983433485,0.0015877545811235905
1772522044278557400,10.604557373046875,-0.0009214365854859352,0.0006800973787903786,-0.00031511997804045677
1772522044288553500,10.614553466796876,0.0008034929633140564,-0.0014200713485479355,0.0000582551583647728
1772522044298550500,10.624550537109375,0.002776572946459055,0.00004184897989034653,0.002220138907432556
1772522044308547600,10.634547607421876,0.000877738930284977,0.0037215384654700756,-0.0035402788780629635
1772522044318544400,10.64454443359375,-0.0005347207188606262,-0.0010181739926338196,0.0008476478978991508
1772522044328540700,10.654540771484376,0.00042907707393169403,-0.00044772494584321976,0.0005637547001242638
1772522044338537500,10.664537353515625,-0.0016544358804821968,0.0017133182846009731,0.00045303674414753914
1772522044348534500,10.674534423828124,0.0022327140904963017,-0.001965838484466076,-0.001103580929338932
1772522044358531600,10.684531494140625,-0.0004556691274046898,-0.00249346811324358,0.000189267098903656
1772522044368527400,10.69452734375,0.0003496706485748291,0.0005598459392786026,-0.00044696172699332237
1772522044378524400,10.7045244140625,-0.0003796396777033806,-0.0003596218302845955,0.00021454272791743279
1772522044388521500,10.714521484375,0.0017812498845160007,-0.0013146311976015568,0.0006097559817135334
1772522044398518500,10.7245185546875,-0.001015232875943184,0.002834571059793234,0.004034148994833231
1772522044408514600,10.7345146484375,-0.002784370444715023,0.003378921654075384,0.004845614079385996
1772522044418511400,10.744511474609375,0.00034411903470754623,0.0039115771651268005,0.0036281622014939785
1772522044428508400,10.75450830078125,0.002200874499976635,-0.0002868957817554474,0.00034608226269483566
1772522044438505500,10.76450537109375,0.0012153778225183487,0.0002828836441040039,-0.002793303458020091
1772522044448501500,10.77450146484375,-0.0005191387608647346,-0.0016673491336405277,0.00012552086263895035
1772522044458498600,10.78449853515625,-0.00036061927676200867,-0.002724224701523781,-0.00074396887794137
1772522044468495600,10.79449560546875,0.00045590661466121674,-0.00010953331366181374,-0.0009301239624619484
1772522044478492400,10.804492431640625,0.0003258632495999336,-0.002262130379676819,0.0011464380659162998
