time,seconds_elapsed,z,y,x
1772565879217132500,0.077132568359375,-0.00021100230515003204,-0.0002904096618294716,-0.002469470724463463
1772565879227160600,0.08716064453125,-0.0008285893127322197,-0.0003801574930548668,-0.00212112907320261
1772565879237189600,0.097189697265625,-0.0016476991586387157,-0.0020238468423485756,-0.0010412037372589111
1772565879247217700,0.1072177734375,0.002348640002310276,0.0009655514732003212,0.0005140826106071472
1772565879257245400,0.117245361328125,-0.00039207469671964645,0.0004020649939775467,-0.002834164537489414
1772565879267274500,0.1272744140625,0.00012591015547513962,-0.0010967617854475975,-0.0024637184105813503
1772565879277302500,0.137302490234375,0.003169877454638481,-0.00010348297655582428,-0.0003542685881257057
1772565879287331600,0.14733154296875,0.0008473340421915054,0.00037029385566711426,-0.0015971660614013672
1772565879297359400,0.157359375,-0.0012672520242631435,0.0021495986729860306,0.00041521061211824417
1772565879307388700,0.167388671875,-0.0031173499301075935,0.0002704719081521034,0.0006061596795916557
1772565879317416700,0.177416748046875,-0.00037723733112215996,0.0009800354018807411,0.00048629892989993095
1772565879327445500,0.187445556640625,-0.0009530126117169857,-0.00299899373203516,-0.0005704434588551521
1772565879337473500,0.1974736328125,-0.0035694222897291183,0.0009992262348532677,-0.0005990006029605865
1772565879347502600,0.207502685546875,-0.0018743202090263367,-0.0014010807499289513,0.0004889005795121193
1772565879357530600,0.217530517578125,-0.0015727835707366467,-0.00008591078221797943,-0.0018661441281437874
1772565879367559700,0.2275595703125,-0.0005850172601640224,0.001980436034500599,0.0021690772846341133
1772565879377587500,0.23758740234375,-0.00008207885548472404,0.0028633810579776764,0.0005479282699525356
1772565879387616500,0.247616455078125,0.00025694165378808975,0.0003064805641770363,-0.0010411795228719711
1772565879397644500,0.25764453125,0.0006611403077840805,-0.0006672590970993042,0.00017750496044754982
1772565879407673600,0.267673583984375,0.0021945880725979805,0.00025499332696199417,0.0010946979746222496
1772565879417701400,0.277701416015625,0.0011016959324479103,-0.0006442684680223465,-0.0024590464308857918
1772565879427730700,0.287730712890625,0.0005932990461587906,0.0003088768571615219,-0.0017173560336232185
1772565879437758700,0.2977587890625,0.00033939164131879807,0.00015247799456119537,-0.0023493613116443157
1772565879447787500,0.30778759765625,-0.00034477468580007553,-0.0004877457395195961,0.0008245944045484066
1772565879457815600,0.317815673828125,-0.0007658912800252438,0.0031296219676733017,0.002499988302588463
1772565879467844600,0.3278447265625,-0.00007666507735848427,-0.001699487678706646,0.0015625553205609322
1772565879477872600,0.33787255859375,0.00038282107561826706,0.00024718698114156723,-0.0011288165114820004
1772565879487901700,0.347901611328125,-0.0008108080364763737,-0.0005570873618125916,-0.000027866102755069733
1772565879497929500,0.357929443359375,0.001220759004354477,-0.0009553255513310432,-0.000270194374024868
1772565879507958500,0.36795849609375,0.0004732105880975723,0.0015669548884034157,-0.000318930484354496
1772565879517986600,0.377986572265625,0.001021399162709713,0.001858559437096119,0.0018859654664993286
1772565879528015600,0.388015625,-0.0024356506764888763,0.00023456383496522903,-0.0020840084180235863
1772565879538043400,0.39804345703125,0.0009601693600416183,0.001031331717967987,-0.000239592045545578
1772565879548072700,0.40807275390625,-0.0012875385582447052,-0.00007494539022445679,-0.00025237537920475006
1772565879558100500,0.4181005859375,-0.0015393788926303387,0.0011371402069926262,0.0004480038769543171
1772565879568129500,0.428129638671875,-0.0009393687359988689,-0.0006066979840397835,0.0011095334775745869
1772565879578156500,0.438156494140625,0.0011595776304602623,-0.0004919683560729027,-0.0015111085958778858
1772565879588185600,0.448185546875,0.00231778621673584,-0.00077799241989851,-0.0026868940331041813
1772565879598213600,0.458213623046875,-0.0005276715382933617,-0.0019666850566864014,0.00014818180352449417
1772565879608242400,0.468242431640625,0.0012827450409531593,-0.0002524079754948616,0.000910378061234951
1772565879618270700,0.478270751953125,0.0008805496618151665,-0.0002825874835252762,0.0007902202196419239
1772565879628299500,0.488299560546875,0.0019860276952385902,0.001949673518538475,0.0013271127827465534
1772565879638327600,0.49832763671875,-0.0014414605684578419,-0.00007844250649213791,0.0023250742815434933
1772565879648356600,0.508356689453125,0.0007716268301010132,0.0015743151307106018,-0.002388188149780035
1772565879658384600,0.518384521484375,-0.0012946277856826782,-0.0017458470538258553,-0.0014411676675081253
1772565879668413700,0.52841357421875,0.00007024221122264862,-0.002622826024889946,-0.0014547500759363174
1772565879678441500,0.53844140625,-0.0002012941986322403,-0.0007009813562035561,-0.002079801168292761
1772565879688470500,0.548470458984375,0.00016542337834835052,0.0006574969738721848,-0.0010081450454890728
1772565879698498600,0.55849853515625,0.00025183800607919693,0.0011247079819440842,0.0016797306016087532
1772565879708527600,0.568527587890625,-0.0006251404993236065,-0.001204492524266243,-0.00006943382322788239
1772565879718555600,0.5785556640625,0.0005427850410342216,0.00003268197178840637,0.0002446887083351612
1772565879728584400,0.58858447265625,0.0007715504616498947,0.00010458752512931824,-0.0005649118684232235
1772565879738612700,0.59861279296875,0.0011433130130171776,-0.0009242109954357147,0.00016325293108820915
1772565879748640500,0.608640625,-0.000809849239885807,-0.00019157491624355316,-0.00041412049904465675
1772565879758669600,0.618669677734375,-0.00010728929191827774,-0.0013504158705472946,0.0002551078796386719
1772565879768697600,0.628697509765625,0.0021827630698680878,0.000331902876496315,-0.0028288327157497406
1772565879778726700,0.6387265625,0.0006229225546121597,-0.0011261515319347382,-0.0007970575243234634
1772565879788754400,0.64875439453125,-0.0018242564983665943,-0.00045982934534549713,0.001431209035217762
1772565879798783500,0.658783447265625,0.0019292905926704407,0.0005299253389239311,-0.001563643105328083
1772565879808811800,0.668811767578125,0.000014477409422397614,-0.001262381672859192,0.000560227781534195
1772565879818840600,0.678840576171875,0.0009245388209819794,0.0010539507493376732,0.0017432840541005135
1772565879828868600,0.68886865234375,-0.0006874720565974712,0.003229220397770405,0.0017153210937976837
1772565879838897400,0.6988974609375,-0.0012066648341715336,-0.0006444668397307396,0.0029184743762016296
1772565879848925700,0.70892578125,-0.0027933763340115547,-0.0002471236512064934,-0.002535945735871792
1772565879858954800,0.718954833984375,0.0003323955461382866,-0.0018552634865045547,-0.0011128978803753853
1772565879868982500,0.728982421875,-0.00010675936937332153,0.0007043005898594856,0.0012463964521884918
1772565879879011600,0.739011474609375,0.0008612023666501045,-0.0010064980015158653,0.0007784529589116573
1772565879889039600,0.74903955078125,-0.00017583277076482773,0.000008433125913143158,0.0003400961868464947
1772565879899068700,0.759068603515625,0.00012459419667720795,-0.0009357305243611336,-0.0016342834569513798
1772565879909096400,0.769096435546875,0.0021845493465662003,0.001398264430463314,-0.0006007109768688679
1772565879919125500,0.77912548828125,0.0009787846356630325,0.0029305312782526016,-0.0003385203890502453
1772565879929153800,0.78915380859375,0.0012711994349956512,0.00030465424060821533,0.00023938529193401337
1772565879939182600,0.7991826171875,0.0010018004104495049,-0.0008953334763646126,0.0011406359262764454
1772565879949210600,0.809210693359375,-0.0000261794775724411,0.0004405081272125244,-0.00006817281246185303
1772565879959239400,0.819239501953125,0.0004576984792947769,-0.0008930535987019539,0.0013920110650360584
1772565879969267700,0.829267822265625,0.0003048330545425415,-0.0008600298315286636,0.0014444761909544468
1772565879979296800,0.839296875,0.0015096450224518776,-0.0008965926244854927,0.0003380626440048218
1772565879989324500,0.849324462890625,-0.0005111619830131531,0.0011726832017302513,0.000209165271371603
1772565879999353600,0.859353515625,0.0018200650811195374,0.002393888309597969,-0.0014604153111577034
1772565880009381600,0.869381591796875,-0.00004201754927635193,-0.0001899106428027153,-0.0009866389445960522
1772565880019410700,0.87941064453125,0.0009435992687940598,0.0019444115459918976,-0.001542289275676012
1772565880029438500,0.8894384765625,-0.0007299305871129036,0.00023838970810174942,-0.0012421510182321072
1772565880039467500,0.899467529296875,-0.0014642835594713688,-0.0028025275096297264,-0.0011464017443358898
1772565880049495600,0.90949560546875,-0.0017420509830117226,0.000015895813703536987,0.00001340499147772789
1772565880059524600,0.919524658203125,0.0022319629788398743,0.001703803427517414,0.004381487611681223
1772565880069552600,0.929552734375,0.0001562945544719696,-0.0014829346910119057,0.0009699785150587559
1772565880079581400,0.93958154296875,-0.00033819349482655525,0.0020546885207295418,-0.0029815752059221268
1772565880089609700,0.949609619140625,-0.0005427245050668716,0.002696775831282139,-0.0016795559786260128
1772565880099638500,0.959638427734375,0.0006040651351213455,-0.000734744593501091,0.00007424410432577133
1772565880109666600,0.96966650390625,0.0002197716385126114,-0.003435722552239895,0.0028585786931216717
1772565880119695600,0.979695556640625,0.0012584952637553215,0.0012902170419692993,-0.0012024757452309132
1772565880129723600,0.9897236328125,0.0009234696626663208,0.0009266948327422142,0.0021104970946907997
1772565880139752700,0.999752685546875,0.001616339199244976,0.0032270746305584908,0.0020333537831902504
1772565880149780500,1.009780517578125,0.0004999423399567604,0.000624367967247963,-0.00027347635477781296
1772565880159809500,1.0198095703125,0.0008072741329669952,-0.0005884105339646339,0.0034596454352140427
1772565880169837600,1.029837646484375,0.000726046971976757,-0.0015010759234428406,-0.001412341371178627
1772565880179866600,1.03986669921875,-0.0012942221947014332,0.0015822453424334526,-0.00016666390001773834
1772565880189894700,1.049894775390625,-0.0015205908566713333,-0.0006798431277275085,-0.0006678705103695393
1772565880199922700,1.059922607421875,-0.000021726824343204498,-0.00009057577699422836,0.0004172143526375294
1772565880209951700,1.06995166015625,0.0021990835666656494,-0.001008301042020321,-0.0012179659679532051
1772565880219979500,1.0799794921875,0.0014300616458058357,0.0004015360027551651,-0.0002931118942797184
1772565880230008600,1.090008544921875,0.0009565521031618118,-0.0008690580725669861,0.0013644392602145672
1772565880240036600,1.10003662109375,0.000708271749317646,0.00029470957815647125,-0.0013943566009402275
1772565880250065700,1.110065673828125,-0.0008099963888525963,-0.00005842559039592743,0.0006946269422769547
1772565880260093700,1.12009375,-0.000766450073570013,0.001016845926642418,-0.0007384466007351875
1772565880270122500,1.13012255859375,0.0033523952588438988,0.0006099147722125053,-0.0026780269108712673
1772565880280150500,1.140150634765625,0.0006984621286392212,-0.0024955039843916893,-0.0007173721678555012
1772565880290179600,1.1501796875,-0.0001811794936656952,-0.0014970852062106133,-0.0006262920796871185
1772565880300207600,1.16020751953125,-0.00012137508019804955,0.0008691269904375076,0.0007409173995256424
1772565880310236700,1.170236572265625,0.0018781265243887901,-0.0004296964034438133,-0.002069782931357622
1772565880320264700,1.1802646484375,0.0004854584112763405,0.00009293947368860245,0.000918801873922348
1772565880330293800,1.190293701171875,0.0012897336855530739,0.0014948276802897453,-0.003611234948039055
1772565880340321500,1.200321533203125,-0.0005191429518163204,0.0007586413994431496,-0.0011841785162687302
1772565880350350600,1.2103505859375,0.0012827515602111816,0.0001652892678976059,0.0013657975941896439
1772565880360378600,1.220378662109375,0.0007199179381132126,-0.0001793140545487404,-0.0019646133296191692
1772565880370407700,1.23040771484375,0.0003271009773015976,-0.0027854833751916885,0.001178183127194643
1772565880380435500,1.240435546875,0.0006104065105319023,-0.002233179286122322,0.0017214398831129074
1772565880390464500,1.250464599609375,-0.00030359020456671715,-0.0015335669741034508,-0.0028381585143506527
1772565880400492500,1.260492431640625,0.0013206955045461655,0.0008493242785334587,0.002127191051840782
1772565880410521600,1.270521484375,-0.0007653585635125637,-0.0012186206877231598,0.001951422542333603
1772565880420549600,1.280549560546875,-0.0004323911853134632,0.001092839054763317,-0.001991736236959696
1772565880430578400,1.290578369140625,0.002147679217159748,0.00023530051112174988,0.00017341366037726402
1772565880440606700,1.300606689453125,0.0006491700187325478,-0.0018958114087581635,0.002052941359579563
1772565880450635800,1.3106357421875,0.0018643708899617195,0.0014065084978938103,0.0021645277738571167
1772565880460663600,1.32066357421875,-0.0003988775424659252,0.0012289825826883316,0.0015431265346705914
1772565880470692600,1.330692626953125,0.002278931438922882,0.001202884130179882,-0.0009546526707708836
1772565880480720600,1.340720703125,0.0003989310935139656,0.0003613000735640526,0.00031565455719828606
1772565880490749700,1.350749755859375,0.0014724517241120338,0.0014145802706480026,0.002929014153778553
1772565880500777500,1.360777587890625,0.0001902114599943161,0.00015799421817064285,0.0015043611638247967
1772565880510806500,1.370806640625,-0.00038849329575896263,-0.0017682705074548721,0.0015365858562290668
1772565880520834600,1.38083447265625,0.0004257587715983391,0.0007181745022535324,-0.0005440395325422287
1772565880530863600,1.390863525390625,0.0010715750977396965,0.00010964181274175644,0.0004477212205529213
1772565880540891600,1.4008916015625,-0.0012683738023042679,0.0004787864163517952,-0.0005239001475274563
1772565880550920400,1.41092041015625,0.000867214985191822,0.00044283363968133926,0.0018569659441709518
1772565880560948700,1.42094873046875,0.0009292308241128922,-0.002843250520527363,0.000412703026086092
1772565880570977800,1.430977783203125,0.0009164474904537201,0.0005040764808654785,0.0003051110543310642
1772565880581006000,1.441006103515625,0.0009740637615323067,-0.0008976040408015251,-0.0015576793812215328
1772565880591035100,1.45103515625,-0.0007561915554106236,-0.0005673719570040703,0.0030724923126399517
1772565880601063000,1.46106298828125,-0.0009540584869682789,0.0022023357450962067,0.0015154234133660793
1772565880611092000,1.471092041015625,-0.00007921038195490837,0.0003871247172355652,-0.0004174993373453617
1772565880621120000,1.4811201171875,-0.0011062338016927242,0.0022687138989567757,0.000007160007953643799
1772565880631148000,1.49114794921875,0.00015823543071746826,0.00033605750650167465,-0.0014498555101454258
1772565880641177000,1.501177001953125,0.0007029063999652863,0.002065974287688732,-0.0004899678751826286
1772565880651205000,1.511205078125,-0.002671851310878992,-0.001852068118751049,0.0008946098387241364
1772565880661234200,1.521234130859375,-0.0018914095126092434,0.0013290559872984886,-0.0016546943224966526
1772565880671262000,1.531261962890625,-0.0017039231024682522,-0.001961812376976013,0.000855068676173687
1772565880681291000,1.541291015625,-0.0006519695743918419,-0.0009509259834885597,-0.0017100721597671509
1772565880691319000,1.551319091796875,0.0006790785118937492,0.0013633612543344498,0.0016423151828348637
1772565880701348000,1.56134814453125,0.0005155876278877258,-0.0002380944788455963,-0.0011333473958075047
1772565880711376100,1.571376220703125,0.0013385042548179626,-0.0019278693944215775,-0.0016124499961733818
1772565880721405000,1.581405029296875,-0.0006610024720430374,-0.00035778339952230453,0.0012780954129993916
1772565880731433200,1.59143310546875,0.00023887958377599716,-0.0003402065485715866,0.0007430664263665676
1772565880741462000,1.6014619140625,-0.002823533955961466,-0.0003120051696896553,0.0014259396120905876
1772565880751490000,1.611489990234375,0.0006223302334547043,0.0009524635970592499,0.0013529695570468903
1772565880761519000,1.62151904296875,0.0008084168657660484,-0.000317147932946682,-0.0005757738836109638
1772565880771547100,1.631547119140625,0.00007924344390630722,0.0006554387509822845,0.0004559345543384552
1772565880781576200,1.641576171875,0.0020005665719509125,0.0015007993206381798,-0.00048717204481363297
1772565880791604000,1.65160400390625,-0.0004615257494151592,-0.0004995018243789673,-0.00006239768117666245
1772565880801633000,1.661633056640625,0.0009527178481221199,0.00017701741307973862,-0.0010814140550792217
1772565880811661000,1.6716611328125,0.0012219632044434547,-0.002359110862016678,0.00017799483612179756
1772565880821690000,1.681690185546875,-0.001577281393110752,-0.0007740827277302742,0.0017840764485299587
1772565880831718000,1.6917177734375,0.0006760191172361374,0.002101864665746689,-0.0003786766901612282
1772565880841747000,1.701746826171875,0.0022038938477635384,0.0015849806368350983,0.0012244549579918385
1772565880851775200,1.711775146484375,-0.0008342405781149864,0.0021290648728609085,-0.00008209189400076866
1772565880861804000,1.721803955078125,0.0018979506567120552,0.0009266221895813942,0.0003951694816350937
1772565880871832000,1.73183203125,0.0009258966892957687,-0.0005546277388930321,0.0005847867578268051
1772565880881860900,1.74186083984375,0.0016412166878581047,0.000010865740478038788,0.0013865320943295956
1772565880891889200,1.75188916015625,0.0008081793785095215,-0.00038780923932790756,0.0008605583570897579
1772565880901918200,1.761918212890625,-0.0014373441226780415,0.001751554198563099,0.0019591152667999268
1772565880911946000,1.771946044921875,-0.0005371957086026669,0.0014064088463783264,0.000041905324906110764
1772565880921975000,1.78197509765625,0.0016650324687361717,0.0008633062243461609,0.002547880169004202
1772565880932003000,1.792003173828125,0.0005305251106619835,0.0014265654608607292,0.0001766015775501728
1772565880942032100,1.8020322265625,-0.0005420721136033535,0.00039474479854106903,-0.003392208367586136
1772565880952060000,1.812059814453125,-0.00013088062405586243,0.0012581413611769676,0.000875507015734911
1772565880962089000,1.8220888671875,0.0009760092943906784,0.0011140434071421623,-0.000947974156588316
1772565880972117200,1.8321171875,-0.0003345324657857418,-0.0004747984930872917,-0.00119804497808218
1772565880982146000,1.84214599609375,-0.00011970289051532745,-0.002389460802078247,0.001332874409854412
1772565880992174000,1.852174072265625,-0.000328761525452137,0.002956569194793701,-0.0006724856793880463
1772565881002203000,1.862202880859375,0.0021116407588124275,-0.0009274454787373543,0.00044559454545378685
1772565881012231200,1.872231201171875,0.001156630925834179,0.0019474374130368233,-0.00039836158975958824
1772565881022260200,1.88226025390625,0.0005949568003416061,-0.00014207977801561356,0.0010845917277038097
1772565881032288000,1.8922880859375,-0.0015129349194467068,-0.0006001433357596397,0.00023371167480945587
1772565881042316000,1.90231591796875,-0.0010063834488391876,0.0006952891126275063,0.0008676275610923767
1772565881052345000,1.912344970703125,0.00027619488537311554,0.0002566669136285782,0.003094029612839222
1772565881062373000,1.922373046875,0.001043698750436306,0.0020032208412885666,-0.0005139573477208614
1772565881072402000,1.93240185546875,-0.0005619213916361332,-0.0007222583517432213,0.0005571660585701466
1772565881082430200,1.94243017578125,0.00025111809372901917,0.0011483747512102127,0.002376435324549675
1772565881092459000,1.952458984375,0.00006869155913591385,-0.0008228970691561699,-0.0015871468931436539
1772565881102487000,1.962487060546875,0.00004314444959163666,0.0004689861088991165,0.0010383259505033493
1772565881112516000,1.97251611328125,0.0005616620182991028,-0.0005488740280270576,0.0012324703857302666
1772565881122544000,1.982544189453125,0.00017991196364164352,0.0017558131366968155,-0.0008392333984375
1772565881132573200,1.9925732421875,0.0003199940547347069,-0.0009856447577476501,-0.0013332497328519821
1772565881142601000,2.00260107421875,-0.0008329874835908413,-0.0012667328119277954,-0.0026324158534407616
1772565881152630000,2.012630126953125,-0.0017086351290345192,0.0009727189317345619,-0.0012467731721699238
1772565881162658000,2.022657958984375,-0.00006449781358242035,0.002456335350871086,0.0008246172219514847
1772565881172687000,2.03268701171875,0.00026014167815446854,0.00010849256068468094,-0.0004747388884425163
1772565881182715100,2.042715087890625,-0.0014847340062260628,0.000860302709043026,-0.00020173797383904457
1772565881192744000,2.052743896484375,0.0007557831704616547,0.0007002465426921844,0.001974597107619047
1772565881202772200,2.062772216796875,0.0018421681597828865,0.0038853557780385017,0.0004010000266134739
1772565881212801000,2.072801025390625,-0.000465993769466877,-0.002732332795858383,-0.001581723801791668
1772565881222829000,2.0828291015625,0.00017325952649116516,0.005031431093811989,0.0006011649966239929
1772565881232858000,2.092858154296875,-0.0011244993656873703,-0.0014933133497834206,0.00226803682744503
1772565881242886100,2.10288623046875,0.000077100470662117,0.0020976653322577477,-0.0018015578389167786
1772565881252915200,2.112915283203125,-0.0005756402388215065,0.00020788609981536865,0.0004187198355793953
1772565881262943000,2.12294287109375,0.0011006873100996017,0.001769721508026123,0.0031190929003059864
1772565881272972000,2.132971923828125,-0.0007589980959892273,-0.0004755901172757149,-0.0025020409375429153
1772565881283000000,2.143,-0.00005713943392038345,-0.0011953935027122498,0.0007968177087605
1772565881293029000,2.153029052734375,-0.0006267898716032505,0.001184939406812191,-0.0014378405176103115
1772565881303057200,2.16305712890625,-0.0019272728823125362,0.0006483327597379684,0.001938150729984045
1772565881313086000,2.1730859375,0.0006477376446127892,-0.0013365205377340317,-0.00040330085903406143
1772565881323114200,2.1831142578125,-0.003077465109527111,0.00295379851013422,-0.0032972516492009163
1772565881333143000,2.19314306640625,-0.0011285636574029922,0.0003865119069814682,0.0016349228098988533
1772565881343171000,2.203171142578125,-0.0005327574908733368,0.0007204459980130196,0.0005277036689221859
1772565881353199900,2.213199951171875,-0.0008573969826102257,-0.0013277912512421608,0.00027683423832058907
1772565881363228200,2.223228271484375,-0.0018785670399665833,-0.00151817686855793,-0.0014589009806513786
1772565881373257200,2.23325732421875,-0.00019438425078988075,0.0007995720952749252,-0.0007366514764726162
1772565881383285000,2.243284912109375,-0.0009845215827226639,0.0007865205407142639,0.00116697046905756
1772565881393314000,2.25331396484375,0.001673312857747078,0.00047333259135484695,0.000028202775865793228
1772565881403342000,2.263342041015625,0.00012648478150367737,0.0016780626028776169,0.00124339759349823
1772565881413371100,2.27337109375,-0.0024184314534068108,-0.0006426163017749786,0.00017200782895088196
1772565881423399000,2.28339892578125,0.000025947578251361847,0.0013436833396553993,0.0005275062285363674
1772565881433428000,2.293427978515625,-0.00009229686111211777,-0.0010606180876493454,-0.00048023369163274765
1772565881443456300,2.303456298828125,-0.0010174117051064968,0.0005313549190759659,-0.002196032088249922
1772565881453485000,2.313485107421875,0.0008936719968914986,-0.0018598977476358414,0.0023004491813480854
1772565881463513000,2.32351318359375,-0.0000945553183555603,0.0011358913034200668,0.00046128034591674805
1772565881473541000,2.333541015625,-0.0007867109961807728,0.000013634562492370605,-0.0014484724961221218
1772565881483570200,2.343570068359375,-0.0015386040322482586,0.00026300642639398575,0.0018833940848708153
1772565881493598000,2.353597900390625,-0.0004562954418361187,0.002851066179573536,-0.0012037423439323902
1772565881503627000,2.363626953125,0.0019736280664801598,0.00030957814306020737,-0.0007016388699412346
1772565881513655300,2.3736552734375,0.00047586578875780106,0.0008866852149367332,-0.0007423856295645237
1772565881523684000,2.38368408203125,-0.0001246398314833641,-0.0003485521301627159,0.0002888580784201622
1772565881533712100,2.393712158203125,-0.0004026740789413452,-0.0002382975071668625,0.0011943327262997627
1772565881543741000,2.403740966796875,-0.00026875780895352364,-0.0005049724131822586,0.0012495382688939571
1772565881553769200,2.413769287109375,0.00010834541171789169,-0.0012815501540899277,0.00023274309933185577
1772565881563798300,2.42379833984375,-0.0017697392031550407,0.0014729388058185577,-0.002571593038737774
1772565881573825800,2.43382568359375,-0.0003990102559328079,0.0012087533250451088,0.0011435160413384438
1772565881583854800,2.443854736328125,-0.0008156513795256615,-0.0009622713550925255,-0.0005986858159303665
1772565881593883000,2.4538828125,-0.0009008725173771381,0.0004454758018255234,-0.0011068172752857208
1772565881603912000,2.463911865234375,0.0011310670524835587,-0.0005735764279961586,0.002088197972625494
1772565881613939700,2.473939697265625,-0.0003997180610895157,-0.001682516187429428,-0.0004623117856681347
1772565881623968800,2.48396875,0.0005092062056064606,-0.0003912243992090225,0.0012778835371136665
1772565881633996800,2.493996826171875,0.0012311888858675957,0.0018394384533166885,0.0024741748347878456
1772565881644025900,2.50402587890625,0.0014825575053691864,-0.0006866501644253731,-0.0020031877793371677
1772565881654054000,2.514053955078125,-0.0005398471839725971,0.00009445473551750183,0.0010999273508787155
1772565881664082700,2.524082763671875,0.00030367355793714523,0.0011388389393687248,-0.0006139837205410004
1772565881674111000,2.534111083984375,0.00030367355793714523,-0.0014630695804953575,-0.001295486930757761
1772565881684139800,2.544139892578125,-0.0018724757246673107,0.0005036927759647369,0.0007248171605169773
1772565881694167800,2.554167724609375,0.00017096754163503647,0.00039769895374774933,-0.0005186130292713642
1772565881704196900,2.56419677734375,0.001785416156053543,-0.001652134582400322,-0.001940108835697174
1772565881714225000,2.574224853515625,0.0002580936998128891,0.0004909113049507141,-0.00035366369411349297
1772565881724254000,2.58425390625,-0.0018171356059610844,-0.0014024972915649414,0.002296708058565855
1772565881734281700,2.59428173828125,0.0006731860339641571,0.00030964892357587814,-0.00011398550122976303
1772565881744310800,2.604310791015625,0.0006091510877013206,0.0008675670251250267,0.0033496068790555
1772565881754338800,2.6143388671875,0.00041474029421806335,-0.001394256018102169,0.00031946226954460144
1772565881764368000,2.624367919921875,-0.0005768998526036739,-0.0007212944328784943,-0.000122713390737772
1772565881774396000,2.63439599609375,-0.0007667834870517254,0.0002965657040476799,0.0006429455243051052
1772565881784424700,2.6444248046875,0.0007764827460050583,-0.0018575480207800865,-0.002789999358355999
1772565881794453000,2.654452880859375,-0.0005958443507552147,0.0009837783873081207,-0.0017295288853347301
1772565881804481800,2.664481689453125,-0.0007907766848802567,-0.0007275305688381195,-0.001285403035581112
1772565881814509800,2.674509765625,-0.0021540485322475433,0.0008240267634391785,-0.0005799317732453346
1772565881824538600,2.68453857421875,0.0015650959685444832,0.0006918581202626228,-0.0001771184615790844
1772565881834567000,2.69456689453125,0.0007238034158945084,0.00025403406471014023,0.0026743276976048946
1772565881844594700,2.7045947265625,0.00006479024887084961,-0.0006356053054332733,0.0013770386576652527
1772565881854623700,2.714623779296875,-0.0012287064455449581,-0.0003546420484781265,0.0010217726230621338
1772565881864652000,2.724652099609375,-0.0007654745131731033,0.0017501404508948326,-0.0015430012717843056
1772565881874680800,2.734680908203125,-0.0029071886092424393,-0.0011753421276807785,0.0012842104770243168
1772565881884708900,2.744708984375,0.001371467486023903,0.0029605459421873093,-0.0012996685691177845
1772565881894737700,2.754737548828125,-0.002098897472023964,-0.0027375537902116776,-0.0026701311580836773
1772565881904766000,2.764765869140625,-0.00048771267756819725,-0.0005015740171074867,0.0013357051648199558
1772565881914795000,2.774794921875,0.0010188380256295204,-0.0002459101378917694,-0.0014941697008907795
1772565881924822800,2.78482275390625,-0.0013684113509953022,-0.0008310414850711823,0.0010411734692752361
1772565881934851800,2.794851806640625,0.00012988317757844925,-0.002369549125432968,-0.00180734321475029
1772565881944879900,2.8048798828125,-0.0010371329262852669,-0.0008368371054530144,-0.0015723672695457935
1772565881954909000,2.814908935546875,-0.00044005224481225014,0.0020673396065831184,-0.002327373716980219
1772565881964936700,2.824936767578125,0.0014070644974708557,0.0002073356881737709,0.0008173924870789051
1772565881974965800,2.8349658203125,-0.0011530322954058647,0.0006989547982811928,0.002212356310337782
1772565881984994000,2.844994140625,0.0012213820591568947,0.0013532964512705803,0.0001825876533985138
1772565881995022800,2.85502294921875,-0.00013549858704209328,-0.0005862843245267868,-0.001467506866902113
1772565882005051000,2.86505078125,-0.0014239447191357613,0.0007949834689497948,-0.001477701123803854
1772565882015079700,2.87507958984375,0.0013673137873411179,-0.0017661787569522858,0.002027018927037716
1772565882025108000,2.88510791015625,0.001829676330089569,-0.0004679933190345764,0.001180244144052267
1772565882035137000,2.895136962890625,0.0018501831218600273,0.0022188695147633553,0.0005229762755334377
1772565882045164800,2.905164794921875,-0.0028572557494044304,-0.0018367189913988113,0.0006656344048678875
1772565882055193900,2.91519384765625,0.0010541286319494247,0.0016632070764899254,-0.0026308265514671803
1772565882065222000,2.925221923828125,-0.0015928284265100956,-0.00015163328498601913,-0.0001375880092382431
1772565882075251000,2.9352509765625,-0.0007012020796537399,-0.0005995770916342735,-0.0006116307340562344
1772565882085278700,2.94527880859375,-0.0007324372418224812,-0.0000763600692152977,-0.0016249357722699642
1772565882095307800,2.955307861328125,0.0009488165378570557,-0.0017658695578575134,0.001292024739086628
1772565882105335800,2.965335693359375,0.0011063963174819946,0.0008677709847688675,-0.00012541655451059341
1772565882115364900,2.97536474609375,-0.0007029552944004536,0.0006483262404799461,-0.0006314171478152275
1772565882125393000,2.985392822265625,0.002654382959008217,0.0016873879358172417,0.00046541960909962654
1772565882135421700,2.995421630859375,-0.00004339870065450668,0.0013441061601042747,0.000011617317795753479
1772565882145450000,3.005449951171875,-0.0006913673132658005,0.0002571539953351021,-0.0003230879083275795
1772565882155478800,3.015478759765625,0.00028361566364765167,-0.0024680588394403458,-0.000945734791457653
1772565882165506800,3.0255068359375,-0.00043086614459753036,-0.0003525521606206894,0.002255787141621113
1772565882175535900,3.035535888671875,-0.00007799733430147171,-0.0018745483830571175,0.0013369964435696602
1772565882185564000,3.04556396484375,0.00028881244361400604,-0.0008529769256711006,0.00028539635241031647
1772565882195593000,3.055593017578125,0.001545025035738945,0.0015891417860984802,0.0005746157839894295
1772565882205620700,3.065620849609375,0.0022253505885601044,-0.0013971803709864616,0.00017298059538006783
1772565882215649800,3.07564990234375,-0.0009238375350832939,0.0008646426722407341,-0.0005761664360761642
1772565882225677800,3.085677734375,0.0012353407219052315,0.0022882483899593353,-0.0028403466567397118
1772565882235707000,3.095706787109375,0.0001287972554564476,-0.00001671724021434784,-0.0023868102580308914
1772565882245735000,3.10573486328125,0.0007591657340526581,0.0008265133947134018,0.0005152174271643162
1772565882255762700,3.1157626953125,-0.001860851887613535,0.00028429366648197174,0.0018361457623541355
1772565882265792000,3.1257919921875,-0.00018168753013014793,-0.0018822820857167244,0.0012947688810527325
1772565882275819800,3.13581982421875,-0.0014347047545015812,0.003163609653711319,0.0011397725902497768
1772565882285848800,3.145848876953125,0.0005779173225164413,0.003506159409880638,0.0013711731880903244
1772565882295876900,3.155876953125,0.0011393120512366295,0.000470953993499279,0.00014239037409424782
1772565882305906000,3.165906005859375,0.0010981690138578415,-0.0006799092516303062,0.0024594799615442753
1772565882315934000,3.175933837890625,-0.001389223150908947,0.002126529812812805,0.00008713593706488609
1772565882325962800,3.185962646484375,-0.0005969158373773098,-0.00006558466702699661,0.0022599920630455017
1772565882335990800,3.19599072265625,0.002094740979373455,0.0005831606686115265,0.001543334685266018
1772565882346019800,3.206019775390625,-0.001546978484839201,0.0013323081657290459,-0.002753105014562607
1772565882356048000,3.2160478515625,-0.0002777162007987499,0.00015918537974357605,-0.00007316609844565392
1772565882366076700,3.22607666015625,-0.0002722339704632759,-0.0015788255259394646,0.0005781645886600018
1772565882376104700,3.236104736328125,-0.00039367424324154854,-0.0006413925439119339,0.0028149536810815334
1772565882386134000,3.246134033203125,0.0008215475827455521,0.001628803089261055,0.0019085714593529701
1772565882396161800,3.256161865234375,-0.002030697651207447,-0.00031423941254615784,-0.000041927676647901535
1772565882406190800,3.26619091796875,-0.0003705010749399662,-0.0003595501184463501,-0.003655832028016448
1772565882416219000,3.276218994140625,-0.0013926224783062935,-0.0000977618619799614,-0.0021029426716268063
1772565882426248000,3.286248046875,-0.00046591367572546005,-0.0011801784858107567,-0.00001556379720568657
1772565882436275700,3.296275634765625,0.00006938166916370392,0.002056627534329891,-0.0000555114820599556
1772565882446304800,3.3063046875,-0.0018449747003614902,0.002129143103957176,-0.0005824374966323376
1772565882456332800,3.316332763671875,-0.0018423115834593773,0.0009360462427139282,0.0005568624474108219
1772565882466361900,3.32636181640625,0.0007061054930090904,0.0002689594402909279,0.0008139419369399548
1772565882476390000,3.336389892578125,0.0026278430595993996,-0.00027405843138694763,-0.0010326942428946495
1772565882486418700,3.346418701171875,-0.0009810416959226131,-0.001409844495356083,0.0024417228996753693
1772565882496446700,3.35644677734375,-0.00002470053732395172,0.000616021454334259,-0.0016323807649314404
1772565882506476000,3.36647607421875,-0.00009288964793086052,0.0016041668131947517,0.0022983872331678867
1772565882516503800,3.37650390625,-0.0012210048735141754,-0.000873105600476265,0.0023726890794932842
1772565882526532900,3.386532958984375,-0.0018332037143409252,0.0015564961358904839,-0.0014765993691980839
1772565882536561000,3.396560791015625,-0.0005245264619588852,-0.0018092067912220955,-0.001706696581095457
1772565882546590000,3.40658984375,-0.0006990092806518078,-0.0004357649013400078,0.0031851246021687984
1772565882556617700,3.41661767578125,-0.002019670791924,0.0008220458403229713,-0.001550242304801941
1772565882566646800,3.426646728515625,0.000362275168299675,0.00000382494181394577,-0.0014360994100570679
1772565882576674800,3.4366748046875,0.00031620264053344727,0.0004477743059396744,0.0024880683049559593
1772565882586702800,3.446702880859375,0.003251914866268635,0.0007610945031046867,-0.0025017186999320984
1772565882596732000,3.45673193359375,-0.0005729175172746181,0.001688939519226551,0.00023174984380602837
1772565882606759700,3.466759765625,0.0002738833427429199,0.0009749783203005791,0.00027839420363307
1772565882616789000,3.4767890625,-0.0001966971904039383,-0.0025433236733078957,-0.001330421306192875
1772565882626816800,3.486816650390625,-0.0017561409622430801,0.0013588164001703262,0.0006311461329460144
1772565882636845800,3.496845703125,0.0007227296009659767,0.0007952908053994179,0.001098531298339367
1772565882646873900,3.506873779296875,-0.00002828706055879593,-0.0007443549111485481,0.002191408071666956
1772565882656903000,3.51690283203125,-0.0007244376465678215,-0.0007507456466555595,0.0012340019457042217
1772565882666931000,3.526930908203125,-0.0029480624943971634,0.0012588761746883392,0.001138400286436081
1772565882676959700,3.536959716796875,-0.0001959516666829586,0.0011124024167656898,0.00032400526106357574
1772565882686987800,3.54698779296875,0.0005193902179598808,-0.0029272520914673805,-0.00005010142922401428
1772565882697016800,3.557016845703125,-0.0004452061839401722,0.001721561886370182,-0.00030230265110731125
1772565882707044900,3.567044921875,0.0012003052979707718,-0.00014242064207792282,-0.0012940340675413609
1772565882717074000,3.577073974609375,0.00022239238023757935,-0.00034322310239076614,-0.0008820430375635624
1772565882727101700,3.587101806640625,0.0006092041730880737,0.002655891701579094,0.0025070421397686005
1772565882737131000,3.597131103515625,0.0006174594163894653,0.002891048789024353,-0.0015537464059889317
1772565882747158800,3.60715869140625,-0.003953335341066122,-0.00021712388843297958,-0.0033312137238681316
1772565882757187800,3.617187744140625,-0.00023502996191382408,0.000016435980796813965,-0.0038071204908192158
1772565882767215900,3.6272158203125,-0.0012216498143970966,0.0002544475719332695,-0.00029479339718818665
1772565882777245000,3.637244873046875,0.0005115354433655739,0.0012091901153326035,0.002992879133671522
1772565882787273000,3.64727294921875,-0.00002853013575077057,-0.0011351034045219421,-0.0016430565156042576
1772565882797301800,3.6573017578125,-0.00005569402128458023,0.00009394530206918716,0.002178579568862915
1772565882807329800,3.667329833984375,0.00023667793720960617,0.0022210776805877686,-0.00167168490588665
1772565882817358800,3.67735888671875,0.0003285566344857216,-0.00004873424768447876,-0.0038562756963074207
1772565882827387000,3.687386962890625,-0.00039439648389816284,0.001206919550895691,0.0017418181523680687
1772565882837416000,3.697416015625,-0.00042608799412846565,-0.000023993663489818573,0.0013442076742649078
1772565882847443700,3.707443603515625,-0.002832959406077862,0.0009857481345534325,-0.0004194304347038269
1772565882857473000,3.71747314453125,-0.000375926960259676,0.00011276360601186752,0.0001752534881234169
1772565882867500800,3.727500732421875,0.0007109316065907478,-0.002012701705098152,0.00023579038679599762
1772565882877529900,3.73752978515625,0.00032716989517211914,0.0020550107583403587,0.0007548406720161438
1772565882887558000,3.747557861328125,0.0008934121578931808,-0.002487887628376484,-0.0023484006524086
1772565882897587000,3.7575869140625,0.0005487995222210884,-0.0002588219940662384,-0.0010879263281822205
1772565882907615000,3.767614990234375,0.0019965339452028275,-0.0007825233042240143,0.000312192365527153
1772565882917643800,3.777643798828125,-0.0035739997401833534,0.0006353436037898064,-0.002079858910292387
1772565882927671800,3.787671875,0.0012669945135712624,-0.0007330859079957008,0.0009384718723595142
1772565882937699800,3.797699951171875,0.0010632630437612534,0.001640855334699154,-0.0020940694957971573
1772565882947729000,3.80772900390625,0.0009794831275939941,-0.001107688993215561,-0.00048495596274733543
1772565882957756700,3.817756591796875,0.0005504479631781578,0.00169448833912611,0.0011731283739209175
1772565882967785700,3.82778564453125,-0.00025543663650751114,-0.0029105376452207565,0.001935719046741724
1772565882977814000,3.83781396484375,-0.0004136282950639725,-0.0012122401967644691,0.0013610082678496838
1772565882987842800,3.8478427734375,-0.000452662818133831,0.0005264198407530785,0.0001387069933116436
1772565882997870800,3.857870849609375,0.0005446905270218849,0.0014974083751440048,0.0008851909078657627
1772565883007899600,3.867899658203125,-0.0017212596721947193,0.0014528455212712288,-0.0003948402591049671
1772565883017928000,3.877927978515625,0.00035547371953725815,-0.0005687596276402473,0.0006704246625304222
1772565883027957000,3.88795703125,0.0012325551360845566,0.0023633111268281937,0.0022310055792331696
1772565883037984800,3.89798486328125,-0.0009573623538017273,-0.0008047847077250481,-0.00036770710721611977
1772565883048013800,3.908013916015625,0.00013748742640018463,0.00038727372884750366,0.0003607310354709625
1772565883058041900,3.918041748046875,-0.00002549774944782257,-0.0001509515568614006,-0.0020957686938345432
1772565883068071000,3.92807080078125,-0.0008600866422057152,-0.00024237390607595444,0.0006629219278693199
1772565883078098700,3.9380986328125,-0.002202319912612438,-0.0014274800196290016,0.000014974735677242279
1772565883088127700,3.948127685546875,0.0018475595861673355,0.00019397959113121033,-0.0005692727863788605
1772565883098156000,3.958156005859375,0.0017018849030137062,-0.002745351754128933,0.0011881478130817413
1772565883108184800,3.968184814453125,-0.0017350250855088234,0.0028866762295365334,0.00036638323217630386
1772565883118212900,3.978212890625,0.0006381180137395859,0.00014947913587093353,0.00023935036733746529
1772565883128241700,3.98824169921875,0.00018147006630897522,0.0004549529403448105,0.001420777291059494
1772565883138270000,3.99827001953125,0.001232619397342205,-0.0011392151936888695,0.0006593801081180573
1772565883148299000,4.008299072265625,0.00037429528310894966,0.0014936281368136406,0.00038570351898670197
1772565883158326800,4.018326904296875,0.00046297861263155937,0.003104841336607933,0.0019034389406442642
1772565883168355800,4.02835595703125,0.001351846382021904,0.0007860427722334862,0.000679362565279007
1772565883178384000,4.0383837890625,-0.0013691051863133907,0.000011329539120197296,-0.0015819277614355087
1772565883188413000,4.048412841796875,0.00006878795102238655,-0.0006583072245121002,-0.0004482702352106571
1772565883198440700,4.058440673828125,-0.0011898218654096127,-0.0009595099836587906,-0.00033348798751831055
1772565883208469800,4.0684697265625,0.00017710914835333824,-0.00018245819956064224,0.0007552574388682842
1772565883218497800,4.078497802734375,-0.0005057258531451225,-0.0007049711421132088,-0.00035554729402065277
1772565883228526800,4.08852685546875,-0.0007336391136050224,0.0017452482134103775,-0.002633841708302498
1772565883238555000,4.098554931640625,0.00007489649578928947,-0.0006356174126267433,0.001116954255849123
1772565883248583700,4.108583740234375,-0.00003758864477276802,-0.0005377652123570442,-0.0023594782687723637
1772565883258612000,4.118612060546875,0.003221055492758751,0.0030833352357149124,-0.0014263065531849861
1772565883268639700,4.1286396484375,-0.002352681942284107,0.0013043787330389023,0.00004933122545480728
1772565883278668800,4.138668701171875,-0.0007129739969968796,-0.001603526994585991,0.002975878305733204
1772565883288697900,4.14869775390625,-0.0006765169091522694,0.00025948602706193924,0.000004695728421211243
1772565883298726000,4.158725830078125,-0.002603313885629177,-0.0004550395533442497,0.0016915416345000267
1772565883308754000,4.16875390625,0.0006152126006782055,-0.00012024585157632828,-0.00017772382125258446
1772565883318782700,4.17878271484375,-0.000962977297604084,0.0006571309641003609,-0.0012443200685083866
1772565883328811000,4.18881103515625,-0.003680483903735876,-0.0015865983441472054,-0.0026011322624981403
1772565883338839800,4.19883984375,0.0009294478222727776,0.0007833493873476982,0.0006830780766904354
1772565883348867800,4.208867919921875,0.0020371777936816216,-0.002709931693971157,-0.00011989427730441093
1772565883358897000,4.21889697265625,0.00004326924681663513,0.0012509878724813461,-0.001189686357975006
1772565883368925000,4.228925048828125,-0.0010334150865674019,-0.0008953725919127464,-0.0004215058870613575
1772565883378954000,4.2389541015625,0.00013171788305044174,0.0030815256759524345,-0.0010753120295703411
1772565883388981800,4.248981689453125,-0.0012614298611879349,-0.000715622678399086,-0.0013889758847653866
1772565883399010800,4.2590107421875,0.00028986111283302307,0.000650579109787941,-0.0019501037895679474
1772565883409038800,4.269038818359375,-0.00032631633803248405,-0.0009389743208885193,-0.0001908070407807827
1772565883419068000,4.27906787109375,-0.0012658792547881603,0.0007574595510959625,-0.0001948014833033085
1772565883429096000,4.289095947265625,0.00006034085527062416,-0.0020655449479818344,-0.0004196963272988796
1772565883439124700,4.299124755859375,-0.0006288853473961353,0.0010623382404446602,0.0006719334051012993
1772565883449153000,4.309153076171875,-0.0007387497462332249,-0.00025966018438339233,-0.00108396727591753
1772565883459181800,4.319181884765625,-0.0012615281157195568,0.0015014884993433952,0.0004185880534350872
1772565883469209900,4.3292099609375,0.00015042396262288094,0.001651429571211338,0.0009337221272289753
1772565883479238700,4.33923876953125,-0.001483159139752388,0.0007070722058415413,0.0015656906180083752
1772565883489267000,4.349266845703125,0.0012255692854523659,-0.00014485884457826614,-0.000033865682780742645
1772565883499296000,4.3592958984375,0.0006391415372490883,-0.0009318236261606216,-0.0019683861173689365
1772565883509323800,4.36932373046875,0.0016703559085726738,-0.0014274772256612778,0.00023234635591506958
1772565883519352800,4.379352783203125,-0.000451650470495224,-0.000028252601623535156,0.0009657810442149639
1772565883529380900,4.389380859375,-0.0010384107008576393,0.000759822316467762,0.0005543157458305359
1772565883539410000,4.399409912109375,-0.0012546591460704803,0.0007622195407748222,0.001073099672794342
1772565883549437700,4.409437744140625,-0.0013562031090259552,-0.0007785763591527939,0.0025032833218574524
1772565883559466800,4.419466796875,0.0019458504393696785,-0.0017711371183395386,0.002289164811372757
1772565883569495000,4.4294951171875,0.0010507311671972275,0.0020045414566993713,0.0008012768812477589
1772565883579523300,4.4395234375,0.00005790498107671738,-0.00011160597205162048,-0.00021684961393475533
1772565883589551000,4.449551025390625,0.0009693135507404804,0.0020752428099513054,0.001363201066851616
1772565883599579400,4.459579345703125,0.0011200490407645702,-0.0008417181670665741,-0.002126871608197689
1772565883609608400,4.4696083984375,0.00022040540352463722,0.0005789604038000107,-0.000561972614377737
1772565883619636200,4.47963623046875,0.0009871288202703,0.00015605054795742035,-0.0005872724577784538
1772565883629665300,4.489665283203125,-0.00025576213374733925,-0.0018138140439987183,-0.00036073802039027214
1772565883639693300,4.499693359375,0.001505652442574501,0.000030158087611198425,-0.0016220109537243843
1772565883649722400,4.509722412109375,0.0036861561238765717,0.0016640815883874893,0.000251630786806345
1772565883659750100,4.519750244140625,0.0002277754247188568,-0.0012640636414289474,0.00017280131578445435
1772565883669779200,4.529779296875,-0.0007820753380656242,0.000988575629889965,-0.000986622180789709
1772565883679807500,4.539807373046875,0.00006986921653151512,-0.0010263724252581596,-0.0013317675329744816
1772565883689836300,4.549836181640625,-0.0013843611814081669,-0.0005240775644779205,-0.0023426441475749016
1772565883699864300,4.5598642578125,-0.00010018469765782356,-0.0005991784855723381,-0.0021088183857500553
1772565883709893000,4.56989306640625,-0.00004067039117217064,0.0020193150267004967,-0.00042325910180807114
1772565883719921400,4.57992138671875,0.0010554869659245014,-0.0020843492820858955,-0.00004429137334227562
1772565883729950500,4.589950439453125,0.0021354961208999157,0.0010267207399010658,-0.00024560559540987015
1772565883739978200,4.599978271484375,0.0018635881133377552,0.0005327044054865837,0.002295049838721752
1772565883750007300,4.61000732421875,-0.0015686447732150555,0.0010767225176095963,0.002184934914112091
1772565883760035300,4.620035400390625,0.0007014335133135319,-0.0018061492592096329,-0.000057979486882686615
1772565883770064400,4.630064453125,0.00005731545388698578,-0.0009348299354314804,-0.0014807544648647308
1772565883780092200,4.640092041015625,0.0002967342734336853,-0.0014429613947868347,-0.0017966055311262608
1772565883790121200,4.650121337890625,0.0014870166778564453,-0.0020165368914604187,0.0011154795065522194
1772565883800149500,4.6601494140625,-0.0016837427392601967,-0.0017574112862348557,0.00090801902115345
1772565883810178300,4.67017822265625,0.0032097669318318367,-0.0006924774497747421,0.0019298200495541096
1772565883820206300,4.680206298828125,0.002435852773487568,0.00039569009095430374,0.000333521980792284
1772565883830235100,4.690235107421875,0.001291048713028431,-0.0010836534202098846,-0.0002632448449730873
1772565883840263400,4.700263427734375,-0.00019046757370233536,0.0007635150104761124,-0.0011570015922188759
1772565883850292500,4.71029248046875,-0.0006768535822629929,0.0006843721494078636,-0.0019099703058600426
1772565883860320300,4.7203203125,0.0006571239791810513,0.001661219634115696,-0.00038531050086021423
1772565883870349300,4.730349365234375,-0.0013334108516573906,-0.0007354104891419411,-0.0005876058712601662
1772565883880377300,4.74037744140625,-0.0010500508360564709,-0.0000861315056681633,-0.00034499214962124825
1772565883890406400,4.750406494140625,0.0006228908896446228,-0.00022890791296958923,-0.0009248089045286179
1772565883900434200,4.76043408203125,-0.00017525814473628998,0.00019693095237016678,0.0012762933038175106
1772565883910462500,4.77046240234375,0.002318620216101408,0.0010088421404361725,-0.0016317828558385372
1772565883920491300,4.7804912109375,-0.00002629309892654419,-0.0013632355257868767,0.0012044832110404968
1772565883930519300,4.790519287109375,0.0004655118100345135,0.0016417820006608963,0.0012292684987187386
1772565883940548400,4.80054833984375,0.0019166679121553898,-0.0020158039405941963,-0.00048261089250445366
1772565883950576400,4.810576416015625,0.0012262961827218533,0.001971692778170109,-0.002771186176687479
1772565883960605400,4.82060546875,-0.0000887727364897728,0.0011855270713567734,-0.0008814069442451
1772565883970633200,4.83063330078125,-0.001953613478690386,0.000004626810550689697,0.0010146424174308777
1772565883980662300,4.840662353515625,-0.0004646400921046734,-0.0019935425370931625,-0.0015071043744683266
1772565883990690300,4.850690185546875,0.0009674872271716595,-0.0014337869361042976,-0.002190730534493923
1772565884000719400,4.86071923828125,0.0011733495630323887,0.0015148650854825974,-0.0009960364550352097
1772565884010747400,4.870747314453125,-0.0006184647791087627,0.0020747873932123184,0.002565793227404356
1772565884020776200,4.880776123046875,0.0011685164645314217,0.0008276291191577911,-0.0033789146691560745
1772565884030804500,4.890804443359375,0.0022588418796658516,-0.0020246384665369987,-0.0005379472859203815
1772565884040833300,4.900833251953125,0.0017182203009724617,0.0018063187599182129,0.0007267878390848637
1772565884050861300,4.910861328125,0.000020197592675685883,-0.00029958877712488174,-0.0013141180388629436
1772565884060890400,4.920890380859375,-0.0005909977480769157,0.0007683392614126205,0.0017184233292937279
1772565884070918400,4.93091845703125,0.0019404496997594833,0.0007199114188551903,-0.001049571204930544
1772565884080947500,4.940947509765625,-0.000852673314511776,-0.0004366990178823471,-0.002346530556678772
1772565884090975200,4.950975341796875,-0.0008318284526467323,-0.00004761107265949249,0.0002624574117362499
1772565884101004300,4.96100439453125,0.00034395698457956314,-0.0005959561094641685,0.0006608660332858562
1772565884111032300,4.9710322265625,-0.001783217303454876,-0.0016539236530661583,0.003058832138776779
1772565884121061400,4.981061279296875,0.00011907890439033508,0.0004031015560030937,0.00031737377867102623
1772565884131089200,4.991089111328125,0.000553417019546032,-0.0006994511932134628,-0.0023988974280655384
1772565884141118200,5.0011181640625,-0.0015291743911802769,0.0003314577043056488,-0.0013541392982006073
1772565884151146500,5.011146484375,-0.0002643140032887459,-0.0018596341833472252,0.00457744998857379
1772565884161175300,5.02117529296875,0.00007843505591154099,0.00024825800210237503,0.00040667271241545677
1772565884171203300,5.031203369140625,0.00014804676175117493,-0.0000032493844628334045,0.0008304817602038383
1772565884181232000,5.041232177734375,-0.0014953897334635258,0.0006644055247306824,0.00038040708750486374
1772565884191260400,5.051260498046875,-0.001128991600126028,-0.0012703463435173035,-0.0019171908497810364
1772565884201288200,5.0612880859375,0.00024866219609975815,0.0020876331254839897,0.000481518916785717
1772565884211317200,5.071317138671875,-0.0026453612372279167,-0.002048652619123459,-0.00025779521092772484
1772565884221345500,5.081345458984375,0.0006657466292381287,0.00006589759141206741,0.00018668640404939651
1772565884231374300,5.091374267578125,0.001739388331770897,-0.0003154873847961426,0.0023214733228087425
1772565884241402400,5.10140234375,-0.00010405201464891434,-0.000051301904022693634,0.0001576547510921955
1772565884251431200,5.11143115234375,0.0001668184995651245,-0.0000757882371544838,0.00012513110414147377
1772565884261459500,5.12145947265625,0.0021972116082906723,-0.00004702620208263397,-0.0011105756275355816
1772565884271488500,5.131488525390625,0.0011826613917946815,-0.0004390161484479904,-0.00002409936860203743
1772565884281516300,5.141516357421875,-0.00048394501209259033,0.00015406962484121323,0.001221727579832077
1772565884291545300,5.15154541015625,-0.0013566650450229645,0.0002498580142855644,0.0016508875414729118
1772565884301573400,5.161573486328125,0.0009365826845169067,-0.0009032906964421272,-0.0004703202284872532
1772565884311602400,5.1716025390625,-0.0006193676963448524,0.000006963498890399933,-0.0012406976893544197
1772565884321630200,5.181630126953125,0.0001958254724740982,-0.002009316347539425,0.0008671940304338932
1772565884331659300,5.1916591796875,-0.001134898979216814,-0.00022185593843460083,-0.0015219198539853096
1772565884341687600,5.2016875,0.0010915035381913185,-0.0016173524782061577,0.0018022377043962479
1772565884351716400,5.21171630859375,0.00006481725722551346,-0.0009850738570094109,0.0012429053895175457
1772565884361744400,5.221744384765625,-0.0012949928641319275,0.0003262665122747421,0.0010620770044624805
1772565884371773200,5.231773193359375,0.0010819751769304276,-0.001506897620856762,-0.00031983712688088417
1772565884381801500,5.241801513671875,-0.0012400350533425808,-0.00005281250923871994,0.0008508879691362381
1772565884391830300,5.251830322265625,-0.000006905756890773773,0.0002729669213294983,0.0021299547515809536
1772565884401858300,5.2618583984375,-0.00046683382242918015,-0.0011678030714392662,-0.0013249637559056282
1772565884411887400,5.271887451171875,0.0012875581160187721,-0.000071672722697258,0.0007218411192297935
1772565884421915400,5.281915283203125,0.00024626217782497406,-0.0007462520152330399,-0.001508556306362152
1772565884431944400,5.2919443359375,-0.0017276573926210403,0.0006344104185700417,0.002311539836227894
1772565884441972200,5.30197216796875,-0.0005065980367362499,-0.0007384493947029114,0.0003621061332523823
1772565884452001300,5.312001220703125,-0.000983500387519598,0.002643674612045288,0.00023062573745846748
1772565884462029300,5.322029296875,0.0012362441048026085,-0.00017341692000627518,-0.0013616778887808323
1772565884472058400,5.332058349609375,0.00024284981191158295,-0.0007613822817802429,-0.00016890699043869972
1772565884482086400,5.34208642578125,-0.0016719629056751728,0.000248221680521965,-0.0013127345591783524
1772565884492115200,5.352115234375,-0.0002544778399169445,0.002107704058289528,0.002532550599426031
1772565884502143500,5.3621435546875,-0.0009879125282168388,0.00025733932852745056,0.0003410354256629944
1772565884512171300,5.372171142578125,-0.0008663269691169262,0.0009079817682504654,-0.0010593920014798641
1772565884522200300,5.382200439453125,0.00024074874818325043,-0.000574599951505661,-0.002167000900954008
1772565884532228400,5.392228271484375,0.0009766016155481339,0.0009025223553180695,-0.0004082689993083477
1772565884542257400,5.40225732421875,0.00008018128573894501,0.0009371433407068253,-0.0020117582753300667
1772565884552285400,5.412285400390625,0.0007676491513848305,0.00030103325843811035,-0.0025587999261915684
1772565884562314200,5.422314208984375,-0.0026846067048609257,0.00017879344522953033,0.0021917466074228287
1772565884572342300,5.43234228515625,-0.0014882273972034454,0.00041522178798913956,-0.00009302934631705284
1772565884582371600,5.44237158203125,0.0005211280658841133,-0.00013578590005636215,0.0004641041159629822
1772565884592399600,5.452399658203125,0.0016678748652338982,-0.000676293857395649,-0.0005200840532779694
1772565884602428700,5.4624287109375,0.00021298974752426147,-0.000898933969438076,0.0008988482877612114
1772565884612456400,5.47245654296875,-0.00044091464951634407,-0.0005995919927954674,-0.0012689516879618168
1772565884622485800,5.48248583984375,0.001933293417096138,-0.00040890928357839584,0.0008613108657300472
1772565884632513500,5.492513427734375,-0.002562415786087513,0.0003674188628792763,-0.0009135236032307148
1772565884642542600,5.50254248046875,-0.0015661274082958698,-0.0015394045040011406,-0.00010871654376387596
1772565884652570600,5.512570556640625,-0.0007888423278927803,-0.0007147341966629028,-0.00023316871374845505
1772565884662599700,5.522599609375,0.00031850021332502365,0.0018996912986040115,-0.0020853974856436253
1772565884672627700,5.532627685546875,-0.0004488215781748295,0.000779004767537117,-0.0014567654579877853
1772565884682656500,5.542656494140625,-0.0005244556814432144,0.0017625102773308754,0.000554986298084259
1772565884692684500,5.5526845703125,0.00039370637387037277,0.000703820027410984,0.0005773934535682201
1772565884702713600,5.562713623046875,-0.0005184258334338665,0.0017978465184569359,-0.002476452849805355
1772565884712741600,5.57274169921875,-0.0008861413225531578,0.00007261242717504501,-0.0035132523626089096
1772565884722770700,5.582770751953125,0.0001737968996167183,0.0007858071476221085,-0.0012125475332140923
1772565884732798500,5.592798583984375,0.0011251755058765411,-0.0031718462705612183,-0.001563534140586853
1772565884742827800,5.602827880859375,-0.002039458602666855,-0.002948140725493431,0.0011646077036857605
1772565884752855600,5.61285546875,0.0011057425290346146,-0.0012111151590943336,-0.0002670693211257458
1772565884762884600,5.622884521484375,0.0011427607387304306,0.0018208939582109451,0.00004505272954702377
1772565884772912400,5.632912353515625,-0.000350861344486475,-0.0008081365376710892,-0.0004823561757802963
1772565884782941700,5.642941650390625,0.0018997760489583015,-0.0008779112249612808,-0.0000605117529630661
1772565884792969700,5.6529697265625,0.0006134537979960442,-0.0009159734472632408,0.0011732177808880806
1772565884802998500,5.66299853515625,-0.000136492308229208,0.00006140582263469696,0.00001527508720755577
1772565884813026600,5.673026611328125,0.0012912433594465256,0.0032050684094429016,0.003561542369425297
1772565884823054600,5.6830546875,0.0007522189989686012,-0.001907135359942913,-0.002559733111411333
1772565884833083600,5.693083740234375,0.002200375311076641,0.0011662030592560768,0.001565346959978342
1772565884843111400,5.703111328125,-0.00013095559552311897,-0.0008170530200004578,-0.003468826413154602
1772565884853140500,5.713140380859375,0.00042718555778265,-0.001658787950873375,0.002211049199104309
1772565884863168800,5.723168701171875,0.0005507562309503555,0.00012126937508583069,-0.00044998154044151306
1772565884873197600,5.733197509765625,-0.0016396185383200645,0.0015862630680203438,0.0010591591708362103
1772565884883225600,5.7432255859375,0.0002131424844264984,0.0011361883953213692,-0.0008657737635076046
1772565884893254400,5.75325439453125,0.001239781267940998,0.004093880765140057,-0.0010837591253221035
1772565884903282700,5.76328271484375,0.00016839150339365005,-0.0026271380484104156,-0.0010307622142136097
1772565884913311700,5.773311767578125,0.002084973268210888,0.0015470841899514198,0.0002825888805091381
1772565884923339500,5.783339599609375,-0.0010868511162698269,-0.002032737247645855,0.00033318856731057167
1772565884933368600,5.79336865234375,0.0004687672480940819,-0.0017097126692533493,-0.0015732338652014732
1772565884943396600,5.803396728515625,0.0006477320566773415,-0.0019621802493929863,0.001291528344154358
1772565884953425700,5.81342578125,-0.00020309677347540855,-0.002757929265499115,0.0015356517396867275
1772565884963453400,5.823453369140625,-0.0006853952072560787,0.0006125671789050102,-0.0017371070571243763
1772565884973482500,5.833482421875,-0.0013634208589792252,0.00110519677400589,0.0011833063326776028
1772565884983510800,5.8435107421875,0.0012821629643440247,0.000558716244995594,0.0005034017376601696
1772565884993539600,5.85353955078125,-0.0005604368634521961,0.0007395856082439423,-0.0020622783340513706
1772565885003567600,5.863567626953125,-0.0015841559506952763,-0.003113475628197193,-0.0007623895071446896
1772565885013596400,5.873596435546875,0.0015414729714393616,0.001941942609846592,-0.0010939626954495907
1772565885023624700,5.883624755859375,-0.00016135163605213165,0.00003298930823802948,-0.0011922335252165794
1772565885033653500,5.893653564453125,0.00011789333075284958,0.0005715750157833099,0.002620803192257881
1772565885043681500,5.903681640625,-0.0014981124550104141,0.00037743058055639267,-0.0012042955495417118
1772565885053710600,5.913710693359375,-0.0017745839431881905,0.0009055621922016144,0.0003450135700404644
1772565885063738600,5.923738525390625,-0.00015218602493405342,-0.004028209485113621,0.0013215946964919567
1772565885073766700,5.9337666015625,0.0015786224976181984,-0.0005363915115594864,-0.00017892196774482727
1772565885083795500,5.94379541015625,0.0020289625972509384,-0.00009697023779153824,-0.0006383173167705536
1772565885093823700,5.95382373046875,-0.002042684704065323,0.0008348394185304642,0.00033096224069595337
1772565885103852500,5.9638525390625,-0.0006232196465134621,-0.0006051314994692802,-0.0001534665934741497
1772565885113880600,5.973880615234375,0.0032026031985878944,-0.0006289249286055565,-0.0013946229591965675
1772565885123909600,5.98390966796875,-0.0013692458160221577,0.000744733028113842,0.0007367050275206566
1772565885133937700,5.993937744140625,-0.0012153410352766514,0.001497124321758747,0.0009068711660802364
1772565885143966700,6.003966796875,-0.0012014922685921192,-0.0012011909857392311,0.0002437438815832138
1772565885153994500,6.013994384765625,-0.0014720256440341473,-0.0011927252635359764,-0.002525635529309511
1772565885164023600,6.0240234375,0.0009056441485881805,0.0007686931639909744,-0.001497655175626278
1772565885174051600,6.034051513671875,0.0007075471803545952,0.0008554542437195778,-0.0024055661633610725
1772565885184080600,6.04408056640625,-0.0003958004526793957,-0.0014545721933245659,-0.001164532732218504
1772565885194108700,6.054108642578125,-0.0005477392114698887,-0.0013278564438223839,0.003097506705671549
1772565885204137500,6.064137451171875,0.0016222046688199043,0.00293932668864727,-0.0001643327996134758
1772565885214165800,6.074165771484375,-0.0011028926819562912,0.0004665181040763855,-0.0009184516966342926
1772565885224194600,6.084194580078125,-0.0010829190723598003,0.0003695795312523842,-0.00007955590263009071
1772565885234222600,6.09422265625,0.00030241068452596664,-0.0004847301170229912,-0.002139447256922722
1772565885244251600,6.104251708984375,0.0006251856684684753,0.0005712127313017845,0.0017887153662741184
1772565885254279700,6.11427978515625,-0.00057192612439394,-0.00016854144632816315,-0.0005031665787100792
1772565885264308700,6.124308837890625,-0.0007495591416954994,0.001330285333096981,-0.0012813424691557884
1772565885274336500,6.13433642578125,-0.0018348698504269123,-0.0030593136325478554,-0.0006501334719359875
1772565885284365600,6.144365478515625,-0.0005496283993124962,0.0017788512632250786,0.0008521559648215771
1772565885294393600,6.1543935546875,-0.000235110055655241,0.0004927543923258781,-0.0010849428363144398
1772565885304422700,6.164422607421875,0.0000029765069484710693,0.0012094108387827873,0.0014874045737087727
1772565885314450400,6.174450439453125,-0.002466184087097645,0.0015077926218509674,-0.00012749573215842247
1772565885324479500,6.1844794921875,-0.00010848790407180786,0.00043800100684165955,-0.0016162027604877949
1772565885334507800,6.1945078125,0.0006972337141633034,-0.0022941650822758675,-0.002068579662591219
1772565885344536600,6.20453662109375,0.0022591780871152878,0.0008318526670336723,-0.0024214484728872776
1772565885354564600,6.214564697265625,-0.001138199120759964,0.0013973936438560486,0.0010572434403002262
1772565885364593400,6.224593505859375,-0.001152580138295889,0.0012202933430671692,0.0022617909125983715
1772565885374621700,6.23462158203125,0.001119912602007389,0.0008345199748873711,0.001973419450223446
1772565885384649500,6.2446494140625,-0.00030194874852895737,0.0012909863144159317,0.0019585052505135536
1772565885394678500,6.254678466796875,0.001273677684366703,0.0000031329691410064697,0.001212520059198141
1772565885404706800,6.264706787109375,0.0012584980577230453,0.0032553859055042267,-0.0020088395103812218
1772565885414735600,6.274735595703125,0.001473178155720234,0.0005188966169953346,0.001045498065650463
1772565885424763600,6.284763671875,-0.0011835908517241478,0.0012531299144029617,-0.0012120632454752922
1772565885434792400,6.29479248046875,0.0009817099198698997,0.00012493692338466644,-0.0001536649651825428
1772565885444820700,6.30482080078125,-0.00017090607434511185,0.0003696810454130173,-0.0023784697987139225
1772565885454849800,6.314849853515625,0.002042672596871853,0.0004244847223162651,-0.00004863506183028221
1772565885464877600,6.324877685546875,-0.0017962739802896976,0.0006300806999206543,-0.0020100530236959457
1772565885474906600,6.33490673828125,-0.0004046354442834854,-0.0018831929191946983,0.0005018506199121475
1772565885484934700,6.3449345703125,0.000566619448363781,0.001944301649928093,0.00238044373691082
1772565885494963700,6.354963623046875,-0.0005783890374004841,0.0022097360342741013,0.0007367604412138462
1772565885504991500,6.364991455078125,-0.0017344672232866287,-0.001969030126929283,-0.0016829879023134708
1772565885515020500,6.3750205078125,0.0009780572727322578,0.002107723616063595,0.00042481254786252975
1772565885525048800,6.385048828125,0.0009128106757998466,0.00033325888216495514,-0.001782681792974472
1772565885535077600,6.39507763671875,-0.000016891397535800934,-0.0011286837980151176,-0.0003775837831199169
1772565885545105700,6.405105712890625,-0.0033865892328321934,0.0006481781601905823,0.0016711866483092308
1772565885555134500,6.415134521484375,0.0006290702149271965,0.001043032854795456,0.0004619508981704712
1772565885565162800,6.425162841796875,-0.0017640460282564163,-0.0008989442139863968,0.0007154839113354683
1772565885575191600,6.435191650390625,0.0005536824464797974,-0.0005828039720654488,0.001339572947472334
1772565885585219600,6.445219482421875,0.000383240170776844,-0.0007045101374387741,-0.0004258365370333195
1772565885595248400,6.455248291015625,0.000015174038708209991,0.0006025154143571854,0.0016780090518295765
1772565885605276700,6.465276611328125,-0.00048283766955137253,-0.0004680752754211426,0.0010223393328487873
1772565885615305700,6.4753056640625,-0.001773756928741932,0.0008756667375564575,-0.0022679208777844906
1772565885625333500,6.48533349609375,-0.000012874603271484375,-0.0010910779237747192,0.0006431806832551956
1772565885635361800,6.49536181640625,-0.0035323649644851685,0.00009963754564523697,0.00013332907110452652
1772565885645390600,6.505390625,-0.00008943071588873863,-0.0026266397908329964,-0.0017149047926068306
1772565885655418600,6.515418701171875,0.0002996344119310379,0.0004928549751639366,0.0012289290316402912
1772565885665447400,6.525447509765625,0.0010935235768556595,0.001722170040011406,-0.0003878762945532799
1772565885675475700,6.535475830078125,-0.0017399624921381474,-0.0009171115234494209,0.001618127804249525
1772565885685504800,6.5455048828125,-0.0015804390422999859,-0.0002795504406094551,0.0013872315175831318
1772565885695532500,6.555532470703125,-0.0007473859004676342,-0.0015450026839971542,-0.001045765820890665
1772565885705561600,6.5655615234375,-0.0002941158600151539,-0.0005516428500413895,0.00016464106738567352
1772565885715589600,6.575589599609375,0.0013201883994042873,-0.0008502285927534103,0.00001720525324344635
1772565885725618700,6.58561865234375,0.0031551062129437923,0.00014925654977560043,-0.0010414011776447296
1772565885735646500,6.595646484375,-0.000013700686395168304,0.0007542353123426437,-0.0028779152780771255
1772565885745675500,6.605675537109375,-0.0017839036881923676,0.001337999477982521,-0.00028452929109334946
1772565885755703800,6.615703857421875,-0.0005531222559511662,0.0000841403380036354,0.00007971469312906265
1772565885765732600,6.625732666015625,-0.0004702978767454624,-0.0010823244228959084,0.0003726622089743614
1772565885775760600,6.6357607421875,-0.0005368860438466072,-0.00006078183650970459,-0.0024784482084214687
1772565885785789400,6.64578955078125,0.002946262713521719,0.0002028709277510643,-0.0004499182105064392
1772565885795817700,6.655817626953125,0.001180699560791254,0.002135360613465309,-0.002141515724360943
1772565885805846800,6.6658466796875,-0.0013602222315967083,-0.00012672878801822662,0.0007517421618103981
1772565885815874600,6.67587451171875,-0.00024195807054638863,-0.0008234372362494469,0.0011432748287916183
1772565885825903600,6.685903564453125,0.0005354187451303005,0.0009893765673041344,0.0007792208343744278
1772565885835931600,6.695931640625,-0.00034531159326434135,-0.0012241741642355919,-0.000580894760787487
1772565885845960700,6.705960693359375,-0.0012324107810854912,-0.004149656742811203,0.0004673255607485771
1772565885855988500,6.715988525390625,-0.0002072448842227459,-0.001753397285938263,-0.0001438576728105545
1772565885866017500,6.726017578125,-0.004923170432448387,0.000985664315521717,-0.00010284502059221268
1772565885876045600,6.736045654296875,0.0006244219839572906,0.00028024613857269287,0.0020335069857537746
1772565885886074600,6.74607470703125,-0.00034177303314208984,-0.00048647820949554443,0.002746701706200838
1772565885896102700,6.7561025390625,-0.0003882618620991707,-0.0002511097118258476,-0.00027081044390797615
1772565885906130400,6.76613037109375,0.0013443906791508198,0.004302894696593285,-0.00047028111293911934
1772565885916159700,6.77615966796875,0.0021026935428380966,0.0011000577360391617,-0.0003814948722720146
1772565885926187500,6.7861875,-0.0007002828642725945,0.0014824876561760902,0.001537578646093607
1772565885936216600,6.796216552734375,0.0012343567796051502,-0.0019268197938799858,-0.0026268609799444675
1772565885946244400,6.806244384765625,0.0005888068117201328,0.0017344942316412926,0.0005561495199799538
1772565885956273700,6.816273681640625,-0.0010987562127411366,-0.0013872021809220314,-0.0010380255989730358
1772565885966301700,6.8263017578125,0.0004096580669283867,0.0017840899527072906,-0.0007376209832727909
1772565885976330500,6.83633056640625,0.0007395907305181026,-0.0009436327964067459,-0.0002915668301284313
1772565885986358500,6.846358642578125,0.0007744780741631985,-0.00008875876665115356,-0.000025516841560602188
1772565885996387600,6.8563876953125,-0.0004607588052749634,-0.00023691914975643158,-0.00031593721359968185
1772565886006415600,6.86641552734375,-0.0004202788695693016,0.0001242058351635933,0.0008939369581639767
1772565886016444700,6.876444580078125,0.002092799637466669,0.0012979209423065186,0.00019479542970657349
1772565886026472400,6.886472412109375,-0.002868136391043663,-0.0009210249409079552,0.0011932146735489368
1772565886036501800,6.896501708984375,0.0016402220353484154,-0.0004937043413519859,0.0020448719151318073
1772565886046529500,6.906529541015625,-0.0018503833562135696,-0.00024256855249404907,0.002706934232264757
1772565886056558600,6.91655859375,-0.0001829424872994423,-0.00023542623966932297,-0.0022184601984918118
1772565886066586400,6.92658642578125,0.0009246659465134144,0.001352616585791111,0.002075886819511652
1772565886076615700,6.93661572265625,0.0013043018989264965,-0.0009926939383149147,0.0012686350382864475
1772565886086643500,6.9466435546875,-0.0010123816318809986,0.0017937719821929932,-0.0012086369097232819
1772565886096672500,6.956672607421875,-0.0013368809595704079,0.0016511157155036926,-0.002561490051448345
1772565886106700500,6.966700439453125,-0.0007587084546685219,0.0018969252705574036,0.0005884971469640732
1772565886116729600,6.9767294921875,0.0015997672453522682,-0.0009729890152812004,-0.00022839941084384918
1772565886126757600,6.986757568359375,-0.0002900119870901108,0.0004925485700368881,0.001280281227082014
1772565886136786400,6.996786376953125,0.0003260602243244648,-0.00045947451144456863,0.003282570280134678
1772565886146814500,7.006814453125,-0.002151744905859232,-0.0015396522358059883,0.0017142342403531075
1772565886156842500,7.016842529296875,0.0005915770307183266,-0.0020570242777466774,0.0009844270534813404
1772565886166871600,7.02687158203125,0.0022933362051844597,-0.0009893625974655151,0.000843279529362917
1772565886176899600,7.036899658203125,-0.00016665225848555565,-0.0008056238293647766,0.0009377091191709042
1772565886186928400,7.046928466796875,-0.0009221914224326611,0.00023167766630649567,0.00035101454704999924
1772565886196956700,7.056956787109375,-0.000394629780203104,0.00010020192712545395,0.0008626137860119343
1772565886206985500,7.0669853515625,0.0014141895808279514,-0.00029101595282554626,0.0011840569786727428
1772565886217013500,7.077013427734375,-0.00020877690985798836,-0.0008749254047870636,0.0020952150225639343
1772565886227042600,7.08704248046875,-0.0009533963166177273,0.0003663739189505577,0.001445137895643711
1772565886237070600,7.097070556640625,-0.0016076341271400452,0.0007538739591836929,-0.0003363443538546562
1772565886247099600,7.107099609375,-0.0004472951404750347,0.00009314343333244324,0.0011598197743296623
1772565886257127400,7.11712744140625,-0.0014189849607646465,-0.0005496861413121223,-0.000021251384168863297
1772565886267156500,7.127156494140625,-0.0037359348498284817,-0.003551068715751171,0.0011244406923651695
1772565886277184500,7.1371845703125,0.0000704037956893444,0.0011158809065818787,0.0001127021387219429
1772565886287213600,7.147213623046875,0.0014038486406207085,-0.0009837551042437553,0.000029345043003559113
1772565886297241600,7.15724169921875,0.0010176301002502441,0.00022121425718069077,0.0005526328459382057
1772565886307270400,7.1672705078125,0.0005545066669583321,-0.00435968954116106,0.0007142862305045128
1772565886317298700,7.177298583984375,0.0009496118873357773,-0.0009454488754272461,-0.0005003586411476135
1772565886327327500,7.187327392578125,0.0008691847324371338,-0.0005971081554889679,0.0022549480199813843
1772565886337355500,7.19735546875,-0.0016992189921438694,0.000497007742524147,0.002099648118019104
1772565886347384600,7.207384521484375,-0.0011458140797913074,-0.0017562927678227425,-0.0006287600845098495
1772565886357412600,7.21741259765625,0.0017221728339791298,0.001118193380534649,0.00040288129821419716
1772565886367441700,7.227441650390625,-0.0004594889469444752,0.0025347284972667694,0.00002417946234345436
1772565886377469400,7.237469482421875,0.0012491224333643913,-0.0014195982366800308,-0.0004152529872953892
1772565886387498500,7.24749853515625,0.0022288989275693893,-0.0007466170936822891,-0.001873600296676159
1772565886397526500,7.257526611328125,-0.00032579246908426285,-0.002014351077377796,0.00073227658867836
1772565886407555600,7.2675556640625,-0.002674167975783348,0.0020618829876184464,0.00024624913930892944
1772565886417583400,7.277583251953125,0.0008327234536409378,-0.0016126865521073341,0.0013699019327759743
1772565886427611600,7.287611572265625,0.001242849975824356,0.0009119901806116104,0.004719892516732216
1772565886437640700,7.297640625,0.0004876367747783661,0.0003784485161304474,0.0005024685524404049
1772565886447668500,7.30766845703125,0.0000021420419216156006,0.0009459676221013069,0.0014609410427510738
1772565886457697500,7.317697509765625,-0.0015918370336294174,-0.0002280035987496376,-0.0014956975355744362
1772565886467725600,7.3277255859375,0.0003195139579474926,-0.00016861502081155777,0.0022939806804060936
1772565886477754600,7.337754638671875,-0.0007264744490385056,-0.0005672052502632141,-0.00024206703528761864
1772565886487782400,7.347782470703125,-0.0005653533153235912,0.0005923351272940636,-0.0026370477862656116
1772565886497811500,7.3578115234375,-0.0016729352064430714,-0.0013316813856363297,0.002512949053198099
1772565886507839700,7.36783984375,-0.0003035375848412514,0.0004326626658439636,-0.0012833867222070694
1772565886517868500,7.37786865234375,-0.0005896850489079952,0.0015429211780428886,0.00039426377043128014
1772565886527896600,7.387896484375,-0.0002096523530781269,0.0010715415701270103,-0.001176202204078436
1772565886537925400,7.39792529296875,-0.00045878905802965164,-0.000060109421610832214,-0.004644108470529318
1772565886547953700,7.40795361328125,0.0012842495925724506,-0.00008913781493902206,0.000192990992218256
1772565886557982700,7.417982666015625,-0.0005698283202946186,-0.0014497525990009308,0.00013361219316720963
1772565886568010500,7.428010498046875,-0.0006561148911714554,-0.000009248033165931702,0.0018484215252101421
1772565886578039600,7.43803955078125,0.001227259635925293,-0.001518099568784237,0.0006054099649190903
1772565886588067600,7.448067626953125,0.0019311336800456047,0.0001743389293551445,0.00043496768921613693
1772565886598096400,7.458096435546875,0.0010309559293091297,-0.002257058396935463,-0.0016368245705962181
1772565886608124400,7.46812451171875,0.00002934131771326065,0.001970176585018635,-0.00004132464528083801
1772565886618153200,7.4781533203125,0.0009498759172856808,-0.001875225454568863,0.0011360561475157738
1772565886628181500,7.488181396484375,0.0010036719031631947,-0.0006091585382819176,-0.0027955686673521996
1772565886638210600,7.49821044921875,-0.0005944897420704365,0.0010547982528805733,0.0015019522979855537
1772565886648238300,7.50823828125,0.0014199251309037209,-0.00013590138405561447,0.0013751853257417679
1772565886658267400,7.518267333984375,-0.0003909771330654621,-0.000204586423933506,-0.00029934337362647057
1772565886668295400,7.52829541015625,-0.0034642647951841354,0.0017485758289694786,0.0023355884477496147
1772565886678323500,7.538323486328125,0.0008615637198090553,-0.001019071787595749,0.0020491881296038628
1772565886688352300,7.548352294921875,0.0011180266737937927,0.0005652429535984993,-0.0012581916525959969
1772565886698380500,7.558380615234375,-0.0003891005180776119,0.000023538246750831604,-0.00008552242070436478
1772565886708409600,7.56840966796875,-0.001695381011813879,0.0004797372967004776,-0.0002905856817960739
1772565886718437400,7.578437255859375,0.001185095403343439,0.0021205050870776176,-0.0002043638378381729
1772565886728466400,7.588466552734375,0.0007310262881219387,-0.0006190892308950424,0.0005751433782279491
1772565886738494500,7.598494384765625,-0.00029872357845306396,0.001558905467391014,0.0015756641514599323
1772565886748523500,7.6085234375,0.00021633179858326912,-0.0005215555429458618,0.0007495521567761898
1772565886758551300,7.61855126953125,-0.0007383287884294987,0.0001696040853857994,-0.0016302098520100117
1772565886768580400,7.628580322265625,-0.0014046519063413143,-0.0000911196693778038,0.00006249547004699707
1772565886778608600,7.638608642578125,0.0007797055877745152,-0.0002481471747159958,-0.0014134310185909271
1772565886788637400,7.648637451171875,-0.001405951101332903,-0.000496353954076767,0.00019272137433290482
1772565886798665500,7.65866552734375,0.0021101688034832478,-0.0000033155083656311035,-0.0003281617537140846
1772565886808694300,7.6686943359375,0.00039136456325650215,0.0015927162021398544,0.0016148807480931282
1772565886818722600,7.67872265625,0.00045563699677586555,-0.0024299202486872673,-0.0017362642101943493
1772565886828751600,7.688751708984375,-0.0027172532863914967,0.002151249907910824,0.0008307569660246372
1772565886838779400,7.698779296875,-0.00044691888615489006,0.003612956963479519,0.0010831840336322784
1772565886848808400,7.708808349609375,0.0018878746777772903,-0.0018752850592136383,-0.001456406433135271
1772565886858836500,7.71883642578125,-0.000025999732315540314,0.0011420594528317451,-0.00003592437133193016
1772565886868865500,7.728865478515625,0.0004829308018088341,-0.00030989572405815125,-0.0041374582797288895
1772565886878893300,7.738893310546875,0.0005160002037882805,0.0008010640740394592,-0.0004116208292543888
1772565886888922400,7.74892236328125,-0.0004054536111652851,-0.002352384850382805,0.001303455326706171
1772565886898950400,7.758950439453125,0.0023954478092491627,0.0005181478336453438,-0.00033940235152840614
1772565886908979500,7.7689794921875,-0.0002903505228459835,-0.002749018371105194,-0.0010158452205359936
1772565886919007500,7.779007568359375,-0.00014125322923064232,0.0016232747584581375,0.0011938721872866154
1772565886929035500,7.789035400390625,-0.001310647465288639,-0.000974106602370739,0.0018034693785011768
1772565886939064600,7.799064697265625,-0.000046269502490758896,0.00035925302654504776,-0.0010196315124630928
1772565886949092400,7.80909228515625,0.0003486773930490017,0.0008130548521876335,0.0005138167180120945
1772565886959121400,7.819121337890625,0.0013744886964559555,0.0010878732427954674,0.00038172677159309387
1772565886969149400,7.8291494140625,-0.0015603150241076946,-0.0009158886969089508,0.00252637080848217
1772565886979178500,7.839178466796875,0.0012617171742022038,0.0015020808205008507,-0.000917856115847826
1772565886989206500,7.84920654296875,-0.0004781261086463928,0.00034733396023511887,0.00021398719400167465
1772565886999235300,7.8592353515625,-0.0009477906860411167,0.0007619084790349007,-0.0005834023468196392
1772565887009263600,7.869263671875,-0.0011962633579969406,0.0030607497319579124,0.000004357192665338516
1772565887019292400,7.87929248046875,-0.0005878587253391743,-0.0020626792684197426,-0.004814134445041418
1772565887029320400,7.889320556640625,-0.0004906533285975456,0.00017144717276096344,0.0013382998295128345
1772565887039349500,7.899349609375,0.0005304147489368916,0.000900881364941597,0.0013208342716097832
1772565887049377500,7.90937744140625,0.0006816820241510868,-0.0017146095633506775,0.0009170984849333763
1772565887059406600,7.919406494140625,-0.0004234667867422104,0.00019733048975467682,0.0019294321537017822
1772565887069434400,7.929434326171875,0.0005595055408775806,-0.00036859139800071716,-0.0023843557573854923
1772565887079463400,7.93946337890625,0.00009192060679197311,-0.0009861346334218979,-0.0011832001619040966
1772565887089491500,7.949491455078125,0.0010911384597420692,0.0020248349756002426,-0.00047213584184646606
1772565887099520500,7.9595205078125,0.002033477183431387,-0.000293828547000885,-0.001365626696497202
1772565887109548500,7.969548583984375,-0.00036869384348392487,-0.0008807890117168427,-0.0013291416689753532
1772565887119577300,7.979577392578125,-0.0014352132566273212,-0.000488542951643467,0.0039567044004797935
1772565887129605600,7.989605712890625,-0.0009537138976156712,0.001233723945915699,0.0012754341587424278
1772565887139634400,7.999634521484375,0.0005338029004633427,-0.0009760493412613869,0.000791545957326889
1772565887149662500,8.009662353515624,-0.0027429508045315742,0.0005957484245300293,0.0007579904049634933
1772565887159690500,8.0196904296875,0.003004282247275114,-0.0019295066595077515,-0.0008413065224885941
1772565887169719600,8.029719482421875,-0.0008453167974948883,-0.00010657310485839844,-0.002159571275115013
1772565887179747300,8.039747314453125,0.00009061954915523529,-0.00077079888433218,-0.0005320217460393906
1772565887189776400,8.0497763671875,0.00046772323548793793,0.0008412124589085579,-0.0016883662901818752
1772565887199804700,8.0598046875,0.001302535180002451,-0.0027321968227624893,-0.0013326737098395824
1772565887209833500,8.06983349609375,-0.00020215054973959923,0.0021994449198246002,0.0015416759997606277
1772565887219861500,8.079861572265624,0.00018045026808977127,-0.0011934926733374596,0.0024259015917778015
1772565887229890300,8.089890380859375,0.0005908440798521042,0.0015325192362070084,0.0011883312836289406
1772565887239918600,8.099918701171875,0.0012568146921694279,-0.00040236860513687134,-0.0019225850701332092
1772565887249947600,8.10994775390625,-0.0015485589392483234,-0.0002023652195930481,-0.0031684120185673237
1772565887259975400,8.119975341796875,0.00029977690428495407,0.0015683555975556374,-0.001927817240357399
1772565887270004500,8.13000439453125,-0.00007785903289914131,-0.0007485952228307724,0.0011827549897134304
1772565887280032500,8.140032470703124,0.0009699249640107155,0.00013897940516471863,0.0014845388941466808
1772565887290061600,8.1500615234375,0.00008788611739873886,0.0011986512690782547,0.0003265966661274433
1772565887300089300,8.16008935546875,-0.00009724963456392288,-0.0002527795732021332,0.00030114920809865
1772565887310118400,8.170118408203125,-0.00045544467866420746,0.0015328694134950638,-0.002097826451063156
1772565887320146700,8.180146728515625,-0.00044837314635515213,0.0008874274790287018,-0.000396212562918663
1772565887330175500,8.190175537109376,0.001972973346710205,0.0004639849066734314,0.0003521358594298363
1772565887340203500,8.20020361328125,0.00011759065091609955,-0.0005934424698352814,-0.0006040916778147221
1772565887350232300,8.210232421875,0.0024909996427595615,0.0006715599447488785,0.0007378752343356609
1772565887360260600,8.220260498046875,0.0013071116991341114,0.0009363256394863129,-0.0014452538453042507
1772565887370289700,8.23028955078125,0.0008604987524449825,-0.000879417173564434,0.00019152509048581123
1772565887380317400,8.2403173828125,0.001315056812018156,0.002732391469180584,-0.0001898268237709999
1772565887390345200,8.25034521484375,0.0023230635561048985,-0.0009939027950167656,-0.00012138346210122108
1772565887400374500,8.26037451171875,-0.00004284270107746124,-0.0006065163761377335,-0.0027417438104748726
1772565887410402600,8.270402587890626,0.0000016316771507263184,0.0005290554836392403,0.002093491144478321
1772565887420431400,8.280431396484374,-0.0004351101815700531,0.0012658312916755676,-0.0016530295833945274
1772565887430459400,8.29045947265625,-0.0011520329862833023,-0.002021574415266514,-0.0007166620343923569
1772565887440488400,8.300488525390625,0.0009349696338176727,0.0012458153069019318,0.002144185360521078
1772565887450516500,8.3105166015625,-0.0021417802199721336,-0.0008176025003194809,0.0012395097874104977
1772565887460545500,8.320545654296875,-0.0004265308380126953,0.0006851637735962868,-0.00039708521217107773
1772565887470573300,8.3305732421875,0.0023074704222381115,0.0010838387534022331,0.0009083962067961693
1772565887480602600,8.3406025390625,0.0005977093242108822,0.001524137333035469,0.0008584978058934212
1772565887490630400,8.35063037109375,0.002171903382986784,-0.0016756504774093628,-0.0014222334139049053
1772565887500659500,8.360659423828125,-0.0011607655324041843,-0.0005594277754426003,0.0015446804463863373
1772565887510687200,8.370687255859375,-0.00007579382508993149,0.00011222157627344131,0.0002887332811951637
1772565887520716500,8.380716552734375,0.0013952171429991722,0.002512221224606037,-0.0008319993503391743
1772565887530744600,8.39074462890625,0.00027162954211235046,-0.001646038144826889,0.00037281448021531105
1772565887540773400,8.4007734375,-0.000371336005628109,0.0022871829569339752,-0.0013920455239713192
1772565887550801400,8.410801513671874,0.0005559772253036499,-0.0009416332468390465,-0.0007600774988532066
1772565887560830500,8.42083056640625,0.0002401098608970642,0.0010549798607826233,-0.001489795744419098
1772565887570858500,8.4308583984375,0.0009554354473948479,-0.0008877962827682495,0.0005605714395642281
1772565887580887600,8.440887451171875,0.0007965490221977234,0.002185472287237644,-0.0014078114181756973
1772565887590915300,8.450915283203125,-0.0007254472002387047,-0.0005410723388195038,0.00030753063037991524
1772565887600943600,8.460943603515625,0.00040025170892477036,0.0006331261247396469,0.0014288416132330894
1772565887610972400,8.470972412109376,0.00011609215289354324,-0.00009311828762292862,0.0003579845651984215
1772565887621000400,8.48100048828125,-0.00016972608864307404,-0.001440887339413166,0.0009422320872545242
1772565887631029500,8.491029541015624,0.000655854120850563,0.0018073702231049538,0.0007898993790149689
1772565887641057500,8.5010576171875,-0.00030192919075489044,-0.00032706093043088913,0.000742708332836628
1772565887651086600,8.511086669921875,-0.00025931885465979576,-0.0029124580323696136,-0.0011047269217669964
1772565887661114400,8.5211142578125,-0.0025828820653259754,0.0009737275540828705,-0.002647609915584326
1772565887671143400,8.531143310546875,-0.0008089505136013031,0.0020821355283260345,-0.00152908219024539
1772565887681171500,8.54117138671875,0.001185175497084856,-0.0018412219360470772,-0.0019308216869831085
1772565887691200500,8.551200439453124,-0.0016364436596632004,0.0008847899734973907,-0.0009063035249710083
1772565887701228300,8.561228271484374,-0.0003401879221200943,-0.0019786106422543526,-0.0002924245782196522
1772565887711257300,8.57125732421875,-0.00018119718879461288,-0.0005018878728151321,-0.00007830653339624405
1772565887721285600,8.58128564453125,0.0010176529176533222,-0.0026794224977493286,-0.0012421808205544949
1772565887731314400,8.591314453125,0.002961228135973215,-0.001262354664504528,-0.0022477908059954643
1772565887741342500,8.601342529296875,0.0008450648747384548,-0.0000990135595202446,0.00203680619597435
1772565887751371300,8.611371337890626,-0.0004596174694597721,-0.0018138233572244644,-0.0000058389268815517426
1772565887761399600,8.621399658203124,0.00079305749386549,-0.00010467506945133209,-0.0009974222630262375
1772565887771428600,8.6314287109375,-0.0013515865430235863,0.0025337189435958862,-0.00032710470259189606
1772565887781456400,8.641456298828125,-0.003727585542947054,-0.000978599302470684,0.0011133011430501938
1772565887791485400,8.6514853515625,0.0013827541843056679,-0.0003663385286927223,0.001128215342760086
1772565887801513500,8.661513427734375,0.0009268308058381081,-0.000856984406709671,0.001686003990471363
1772565887811541500,8.67154150390625,0.0003385385498404503,0.0021957969292998314,-0.0004304097965359688
1772565887821570300,8.6815703125,-0.00046780193224549294,-0.0005897926166653633,0.001977965235710144
1772565887831598600,8.6915986328125,0.0015348955057561398,0.0022443439811468124,0.0010730233043432236
1772565887841627600,8.701627685546875,-0.0003157220780849457,0.0016500158235430717,0.00017558783292770386
1772565887851655400,8.711655517578125,0.001202280167490244,-0.0004823775961995125,0.0010315277613699436
1772565887861684500,8.7216845703125,-0.0015887855552136898,-0.0008867336437106133,0.0009914794936776161
1772565887871712500,8.73171240234375,-0.001294506248086691,0.00040410086512565613,-0.00007644854485988617
1772565887881741600,8.741741455078126,0.002725462894886732,-0.0015399958938360214,0.0009935647249221802
1772565887891769300,8.751769287109376,0.0023430329747498035,0.0010981317609548569,-0.0033889333717525005
1772565887901798400,8.76179833984375,0.00010171998292207718,-0.0008302843198180199,-0.00038294820114970207
1772565887911826700,8.77182666015625,0.0007011974230408669,0.0002925042062997818,0.0005712625570595264
1772565887921855500,8.78185546875,-0.00035297777503728867,0.00013685040175914764,-0.000021330080926418304
1772565887931883500,8.791883544921875,0.0012209503911435604,0.0010607009753584862,-0.0006825928576290607
1772565887941912300,8.801912353515625,0.001722356304526329,-0.0008329618722200394,-0.0005722478963434696
1772565887951940600,8.811940673828126,-0.00011921953409910202,0.0007082093507051468,0.0014006216078996658
1772565887961969400,8.821969482421874,0.0007115546613931656,0.0008132122457027435,-0.0005985694006085396
1772565887971997400,8.83199755859375,0.001172015443444252,-0.0031767357140779495,0.0009721629321575165
1772565887982026500,8.842026611328125,-0.0006413576193153858,-0.0014667399227619171,-0.0009000776335597038
1772565887992054500,8.852054443359375,-0.0010195267386734486,0.00013754796236753464,-0.0013392330147325993
1772565888002083600,8.86208349609375,0.0010771015658974648,-0.00201376061886549,-0.0003195134922862053
1772565888012111400,8.872111328125,0.00006589945405721664,-0.0008749933913350105,0.0010128654539585114
1772565888022140400,8.882140380859376,0.0006842114962637424,-0.0021119508892297745,-0.0013667470775544643
1772565888032168400,8.89216845703125,0.0033305943943560123,0.0014755930751562119,-0.0016426504589617252
1772565888042196500,8.902196533203124,0.0024553947150707245,0.00046156905591487885,-0.0024927547201514244
1772565888052225500,8.9122255859375,-0.00017820531502366066,-0.0019296836107969284,-0.0013784882612526417
1772565888062253600,8.922253662109375,-0.0006285719573497772,-0.0008995383977890015,0.0014463169500231743
1772565888072282600,8.93228271484375,-0.0005374918691813946,0.000523122027516365,-0.001326299738138914
1772565888082310400,8.942310302734375,0.00016437144950032234,0.0006162291392683983,0.00015610409900546074
1772565888092339500,8.95233935546875,-0.0019070347771048546,-0.00042000599205493927,0.0021702530793845654
1772565888102367500,8.962367431640626,-0.0004244190640747547,-0.0015299627557396889,0.002743030432611704
1772565888112396500,8.972396484375,-0.00032694730907678604,-0.00010916683822870255,-0.0023875487968325615
1772565888122424600,8.982424560546875,0.0014171609655022621,0.00005883537232875824,-0.0006160126067698002
1772565888132453400,8.992453369140625,-0.0004270784556865692,0.0006258226931095123,0.0005757519975304604
1772565888142481700,9.002481689453125,0.0016785981133580208,0.001009128987789154,0.0020329197868704796
1772565888152510500,9.012510498046876,-0.0005062595009803772,-0.001739518716931343,-0.00046113040298223495
1772565888162538500,9.02253857421875,-0.00040635792538523674,0.0012748641893267632,-0.000642063096165657
1772565888172567600,9.032567626953124,0.00031029852107167244,-0.00008601043373346329,-0.0003328700549900532
1772565888182595600,9.042595703125,0.0026564234867691994,-0.0014693140983581543,-0.0005446691066026688
1772565888192624600,9.052624755859375,0.0008859541267156601,0.0011959774419665337,-0.001040549948811531
1772565888202652400,9.06265234375,-0.000058617908507585526,-0.0014947475865483284,-0.000269182026386261
1772565888212681500,9.072681396484375,-0.000735327135771513,-0.000283275730907917,0.0005084606818854809
1772565888222709500,9.08270947265625,-0.001458155456930399,0.001430213451385498,-0.00023396220058202744
1772565888232738600,9.092738525390626,-0.002445921767503023,-0.00186971016228199,-0.0009948275983333588
1772565888242766300,9.102766357421874,0.0006010704673826694,0.0005365088582038879,0.0007669487968087196
1772565888252794600,9.112794677734374,0.0035380045883357525,0.0014755390584468842,-0.0014189737848937511
1772565888262823700,9.12282373046875,0.0034919395111501217,0.0009285975247621536,-0.00023591797798871994
1772565888272851500,9.1328515625,0.0014828513376414776,-0.0017675869166851044,0.000794991385191679
1772565888282880500,9.142880615234375,0.0003582942299544811,0.0005028489977121353,-0.001807705033570528
1772565888292908500,9.152908447265625,-0.0001479722559452057,-0.0018785493448376656,0.0008466681465506554
1772565888302937600,9.1629375,-0.0017077755182981491,0.0006592916324734688,0.0013195918872952461
1772565888312965400,9.17296533203125,-0.0001650061458349228,-0.00035191141068935394,-0.0009683300741016865
1772565888322994400,9.182994384765625,0.00131270382553339,-0.0010553505271673203,-0.0012811990454792976
1772565888333022700,9.193022705078125,-0.0001661493442952633,0.0014016823843121529,-0.00016000820323824883
1772565888343051500,9.203051513671875,-0.0023462590761482716,-0.0011834874749183655,0.00015968363732099533
1772565888353079600,9.21307958984375,-0.0004855082370340824,-0.0008921381086111069,0.000725338701158762
1772565888363108400,9.2231083984375,0.0009560589678585529,-0.0017598094418644905,0.0007458706386387348
1772565888373136600,9.23313671875,-0.00009988434612751007,-0.0007928162813186646,-0.0015207459218800068
1772565888383165700,9.243165771484374,0.00019649602472782135,-0.0019434615969657898,0.0024954015389084816
1772565888393193500,9.253193359375,-0.0003028465434908867,-0.00003930181264877319,0.0021294839680194855
1772565888403222500,9.263222412109375,0.001309684943407774,-0.0006130039691925049,-0.00045223580673336983
1772565888413250600,9.27325048828125,-0.0014136629179120064,0.001552678644657135,-0.0008021751418709755
1772565888423279600,9.283279541015625,-0.0016432679258286953,0.0019802721217274666,0.0008075232617557049
1772565888433307400,9.293307373046876,-0.001963113434612751,0.0004540141671895981,-0.00023643532767891884
1772565888443336400,9.30333642578125,0.0010704230517148972,-0.001960350200533867,0.0013663405552506447
1772565888453364700,9.31336474609375,0.0007942533120512962,-0.0015925681218504906,-0.0008390229195356369
1772565888463392500,9.323392578125,0.0013477401807904243,-0.0006979629397392273,-0.0004879250191152096
1772565888473421600,9.333421630859375,0.0014939475804567337,-0.0008178055286407471,0.0016319509595632553
1772565888483449300,9.343449462890625,-0.00023331958800554276,0.0010366328060626984,0.000006559304893016815
1772565888493478700,9.353478759765625,-0.0017377394251525402,0.0021354537457227707,0.001477955374866724
1772565888503506400,9.36350634765625,-0.00041491584852337837,0.00006448011845350266,0.0018393718637526035
1772565888513535500,9.373535400390624,0.00013715727254748344,-0.0008391300216317177,0.001769863534718752
1772565888523563300,9.383563232421874,0.0011359825730323792,0.00007996801286935806,-0.0019615618512034416
1772565888533592600,9.393592529296875,-0.00029786303639411926,0.001998509280383587,0.00004965765401721001
1772565888543620600,9.40362060546875,0.0010445015504956245,-0.0013562766835093498,0.0019935420714318752
1772565888553649400,9.4136494140625,-0.0020226608030498028,0.0011497577652335167,-0.0005561681464314461
1772565888563677400,9.423677490234375,0.001061012502759695,-0.0008268700912594795,-0.002376288641244173
1772565888573706500,9.43370654296875,0.0011233310215175152,0.0006096391007304192,0.00037608854472637177
1772565888583734800,9.44373486328125,-0.0010122936218976974,0.002309521660208702,0.0023029414005577564
1772565888593763800,9.453763916015625,0.0022546062245965004,0.0008373260498046875,0.001067234668880701
1772565888603791600,9.46379150390625,0.001516804564744234,0.0005191760137677193,-0.0018586362712085247
1772565888613820700,9.473820556640625,-0.0010246499441564083,0.0005356874316930771,-0.0005856454372406006
1772565888623849000,9.483848876953125,0.0005490542389452457,0.00011932384222745895,0.0012101116590201855
1772565888633877800,9.493877685546876,-0.0006922455504536629,0.0014873901382088661,0.0003784061409533024
1772565888643905800,9.50390576171875,-0.0005100453272461891,-0.0015417151153087616,-0.0012390553019940853
1772565888653934600,9.5139345703125,-0.003877346171066165,0.0005089184269309044,0.001873913686722517
1772565888663963000,9.523962890625,0.0007740212604403496,0.0017882240936160088,-0.001645712647587061
1772565888673990700,9.53399072265625,0.0003809388726949692,0.0002491837367415428,0.00020731473341584206
1772565888684019700,9.544019775390625,0.000037078745663166046,0.002635471522808075,-0.0004381723701953888
1772565888694048000,9.554048095703125,0.000733494758605957,-0.002912691794335842,0.0020620031282305717
1772565888704076800,9.564076904296876,-0.0003103455528616905,0.0031202826648950577,0.0012377533130347729
1772565888714104800,9.574104736328126,-0.0006144782528281212,0.00003101583570241928,-0.0007034251466393471
1772565888724133600,9.584133544921874,-0.0010659219697117805,0.003646349534392357,-0.0006664213724434376
1772565888734162000,9.594161865234375,-0.0024710060097277164,-0.0009982027113437653,0.0015381434932351112
1772565888744191000,9.60419091796875,-0.00009719282388687134,-0.0008640047162771225,0.0007091430015861988
1772565888754218800,9.61421875,0.0024613062851130962,-0.002065623179078102,-0.00026477500796318054
1772565888764247800,9.624247802734375,0.001250330824404955,0.0009576855227351189,-0.0022143651731312275
1772565888774275800,9.63427587890625,0.0002748151309788227,-0.00005458202213048935,0.0009571937844157219
1772565888784305000,9.644304931640624,-0.001375615131109953,0.0025402838364243507,0.001079818233847618
1772565888794332700,9.654332763671874,0.00017674174159765244,-0.0016608526930212975,0.0014124475419521332
1772565888804361700,9.66436181640625,-0.00271737203001976,-0.0007711807265877724,-0.00043218862265348434
1772565888814390000,9.67439013671875,0.00047948630526661873,-0.0017954325303435326,-0.00047293491661548615
1772565888824418800,9.684418701171875,0.001318485476076603,-0.0031021852046251297,0.00006561866030097008
1772565888834446800,9.69444677734375,0.0021904045715928078,0.0005498072132468224,0.0037149484269320965
1772565888844475600,9.7044755859375,0.000824762973934412,-0.00039374642074108124,0.0008021923713386059
1772565888854504000,9.71450390625,0.0010082549415528774,-0.000619315542280674,0.0006653065793216228
1772565888864532700,9.72453271484375,-0.0003899103030562401,-0.002038804814219475,0.0001828894019126892
1772565888874560800,9.734560791015625,-0.00006367312744259834,-0.000446501187980175,0.001942706760019064
1772565888884588800,9.7445888671875,0.0015309001319110394,-0.0007046982645988464,0.0011549219489097595
1772565888894617900,9.754617919921875,-0.004376523662358522,0.0006122346967458725,-0.0005100858397781849
1772565888904646000,9.76464599609375,0.0005534794181585312,0.00025257281959056854,0.0012232805602252483
1772565888914674700,9.7746748046875,0.0024094358086586,0.001133279874920845,0.0012959851883351803
1772565888924703000,9.784702880859374,0.0011773817241191864,-0.001905679702758789,-0.001343773677945137
1772565888934731800,9.794731689453124,0.0011427607387304306,-0.002026321366429329,-0.0004404294304549694
1772565888944759800,9.804759765625,-0.00024267937988042831,-0.000954275019466877,0.0014454103074967861
1772565888954788900,9.814788818359375,-0.00171221187338233,0.0013389736413955688,0.0036680842749774456
1772565888964817000,9.82481689453125,-0.0007501076906919479,-0.0005784574896097183,-0.0010451390407979488
1772565888974846000,9.834845947265626,-0.0013791462406516075,-0.000666341744363308,0.0015932540409266949
1772565888984873700,9.844873779296876,-0.002429659478366375,-0.0023150332272052765,0.00031685782596468925
1772565888994902800,9.85490283203125,0.0011978321708738804,0.0014496119692921638,-0.0008695805445313454
1772565889004930800,9.864930908203124,-0.00012282328680157661,-0.0005052117630839348,-0.0003241663798689842
1772565889014959900,9.8749599609375,-0.0008645136840641499,0.0006830906495451927,-0.0011097989045083523
1772565889024988000,9.88498779296875,-0.00007642526179552078,-0.0018408382311463356,0.0008332091383635998
1772565889035016700,9.8950166015625,0.0009962962940335274,-0.0012879660353064537,0.0005549085326492786
1772565889045045000,9.905044921875,0.0005076108500361443,0.0015755807980895042,0.001306632999330759
1772565889055073800,9.91507373046875,-0.000474296510219574,0.059439945966005325,0.03267201408743858
1772565889065101800,9.925101806640624,0.0026129232719540596,0.025638271123170853,0.01656181737780571
1772565889075129900,9.9351298828125,-0.002518987748771906,0.006403589621186256,0.0057017127983272076
1772565889085159000,9.945158935546875,0.0015803873538970947,-0.0068068476393818855,-0.0031333263032138348
1772565889095186700,9.955186767578125,0.0011817114427685738,-0.008108068257570267,-0.005416720174252987
1772565889105215700,9.9652158203125,0.00008310284465551376,-0.013364486396312714,-0.00747301010414958
1772565889115244000,9.975244140625,0.0001345016062259674,-0.015037484467029572,-0.010217132046818733
1772565889125272800,9.98527294921875,-0.0018287664279341698,-0.012775495648384094,-0.009659450501203537
1772565889135300900,9.99530078125,-0.002779248636215925,-0.013533431105315685,-0.0019884812645614147
1772565889145329700,10.00532958984375,-0.0012263874523341656,-0.006398091558367014,-0.002435391303151846
1772565889155358000,10.01535791015625,-0.0009100036695599556,-0.0030654119327664375,-0.003430614247918129
1772565889165387000,10.025386962890625,5.997717380523682e-7,-0.00340306106954813,-0.000649662222713232
