time,seconds_elapsed,z,y,x
1772565971981743900,0.078743896484375,0.1024602575212717,-0.00005322345800232142,0.02210176816289313
1772565971991772700,0.088772705078125,0.11547756000459193,0.005904620933905243,-0.008570150348730385
1772565972001800700,0.09880078125,0.11039280408620834,-0.01232074418705888,-0.023527581448620185
1772565972011829500,0.10882958984375,0.1097971762806177,-0.004531834743358195,0.014922177123418076
1772565972021857800,0.11885791015625,0.11623334680795669,0.004407669507572427,0.020973960576206443
1772565972031885600,0.128885498046875,0.12610825961232183,-0.011095545207080431,-0.004819008521130308
1772565972041914600,0.13891455078125,0.11593056446909904,-0.0014080447335960342,-0.025949182572355494
1772565972051943000,0.14894287109375,0.1074012210547924,0.008383071377989836,-0.007573275665333494
1772565972061970700,0.158970703125,0.11185820046365261,-0.000803005212265998,-0.0038176585920155046
1772565972071999700,0.168999755859375,0.10834113225340843,-0.00009258278743363917,0.0032104682127945122
1772565972082027800,0.17902783203125,0.11913140633702278,-0.005470695629203692,-0.01810212233378552
1772565972092055800,0.189055908203125,0.11081775150001048,-0.000889628616371192,-0.010331333068665117
1772565972102084600,0.199084716796875,0.11073299582600593,0.00030729868377093225,-0.0016467260274104774
1772565972112112600,0.209112548828125,0.1025555345892906,-0.0019197708151303232,0.006859382641781121
1772565972122141700,0.2191416015625,0.11011807879805564,-0.002808650512830354,-0.011090974063239991
1772565972132169700,0.229169677734375,0.10084113188683987,-0.005214679608098231,-0.019699711989844215
1772565972142197500,0.239197509765625,0.10227671764791012,-0.0002636330719804391,0.002470226038433611
1772565972152226600,0.2492265625,0.1155745906382799,0.004575614519580267,0.015481190112512557
1772565972162254800,0.2592548828125,0.1056102459847927,-0.00203804059966933,-0.0047322344199754295
1772565972172282600,0.26928271484375,0.11235679763555526,-0.002174152001575567,-0.01883429993269965
1772565972182311700,0.279311767578125,0.1060550671428442,0.002651962113776244,-0.017970449644979087
1772565972192339700,0.289339599609375,0.11187047542333602,-0.0005396004691487178,0.007267324121855199
1772565972202368800,0.29936865234375,0.10395663355886936,-0.0005930933552095667,0.009590186712006106
1772565972212396500,0.309396484375,0.10817395899295806,-0.002097346738586202,-0.005570438809785991
1772565972222424800,0.3194248046875,0.1090612632215023,-0.006495727828005328,-0.021176177750574423
1772565972232454000,0.329453857421875,0.10334873079359531,0.002500908871064894,0.0018517836128361521
1772565972242481700,0.339481689453125,0.10604863740205764,-0.005798493678309023,0.016138786371564493
1772565972252509700,0.349509765625,0.10232581748664378,-0.002655167851014994,0.001746934998873621
1772565972262538800,0.359538818359375,0.10204290889203547,0.0006300415318459272,-0.01674683526731096
1772565972272566800,0.36956689453125,0.10472644888758659,-0.004668046609964222,0.0023132362452801315
1772565972282594600,0.379594482421875,0.1118973634302616,0.0008374600377166644,0.01849280215180479
1772565972292624000,0.389623779296875,0.11040624808967113,-0.0015026322484482078,0.007426505872095003
1772565972302651600,0.399651611328125,0.099798344835639,-0.001082808534335345,-0.012717241824511437
1772565972312680700,0.4096806640625,0.10158931990563869,0.0015908311217091976,-0.012655255104741081
1772565972322708500,0.41970849609375,0.10322305858731269,-0.004730887279682792,0.009928579220362006
1772565972332736800,0.42973681640625,0.11070318520963192,-0.0006882242927560582,0.008325683201523498
1772565972342765800,0.439765869140625,0.10981354289352893,-0.0005311842672526836,-0.007923376877792179
1772565972352793600,0.449793701171875,0.10966390528976917,-0.0011428864248096942,-0.011434718600148334
1772565972362822000,0.45982177734375,0.09947685779631137,0.00873212227767799,-0.004532300534239039
1772565972372850700,0.4698505859375,0.1124900686264038,0.00021042331370990723,0.011716120224259793
1772565972382878700,0.479878662109375,0.10710837558805941,-0.003709252614364959,0.010082500273594633
1772565972392907500,0.489907470703125,0.10980535958707333,-0.0013360435098875314,-0.007734950766758993
1772565972402935800,0.499935791015625,0.11039631121754645,-0.0051519805022748185,-0.005871750710764899
1772565972412963600,0.509963623046875,0.1057540383696556,-0.004007367911259644,0.005848168905777856
1772565972422992600,0.51999267578125,0.1171305879086256,0.002410865100589581,0.011957920490344985
1772565972433020700,0.530020751953125,0.1015717842489481,0.006597329605533741,-0.006020210137590766
1772565972443048700,0.540048583984375,0.08690788360238075,0.008973068593814968,-0.013867663101805374
1772565972453077800,0.550077880859375,0.11443477295339106,0.010450913460878654,0.0032031525560189036
1772565972463105800,0.560105712890625,0.11158464421927929,-0.008930439595063216,0.0071957201903685925
1772565972473133800,0.5701337890625,0.107692897477746,0.0031217761491890996,-0.005725903366133571
1772565972483162600,0.58016259765625,0.11008826818168163,0.00315698445988819,-0.014841668366268277
1772565972493190700,0.590190673828125,0.09587328034639359,0.0024171943766763434,-0.008277286615688353
1772565972503219700,0.6002197265625,0.10694295589327811,0.0027159307280788195,0.006886197583470493
1772565972513247700,0.610247802734375,0.11008593009412287,-0.004273206640058196,0.007040301299793645
1772565972523275500,0.620275634765625,0.1032049384087324,0.00111555089331232,-0.00706210213964805
1772565972533304600,0.6303046875,0.11696809082329272,-0.0034618354582460595,-0.01605788488877006
1772565972543332900,0.640332763671875,0.1090349597364664,-0.006082598716160282,0.007196122049167752
1772565972553360600,0.650360595703125,0.1205593933135271,-0.0019023858554894104,0.004695208611525595
1772565972563389700,0.6603896484375,0.10694529398083687,-0.002304655646602623,-0.00028909174022264777
1772565972573417700,0.670417724609375,0.1081418102890253,0.003884910575370304,-0.011371014847327023
1772565972583446800,0.68044677734375,0.10080313796401023,-0.002280457353685051,-0.0018351521384436637
1772565972593474600,0.690474609375,0.10678571950495243,0.008907940068887546,0.008707850919524206
1772565972603502800,0.7005029296875,0.10858429335951804,-0.0000807918849401176,-0.0014411843847949057
1772565972613531600,0.71053173828125,0.10380056621432304,0.006184374023624695,-0.015202354904823004
1772565972623559700,0.7205595703125,0.10948445706963539,-0.00033578499273862687,-0.005648545547295361
1772565972633587700,0.730587646484375,0.10439385593235492,-0.008697553287795744,0.007340206694975495
1772565972643616800,0.74061669921875,0.11546820765435695,0.003124306032992899,0.0050024753292556845
1772565972653644800,0.750644775390625,0.1063420673906803,-0.0006960559727624058,-0.012036082026781513
1772565972663673600,0.760673583984375,0.10948621063530445,0.003414352187863551,-0.011070671060727908
1772565972673702000,0.770701904296875,0.11008066939711571,-0.0017273763484554365,0.003719349316693842
1772565972683730000,0.78072998046875,0.11157704543471336,0.0025991450811503453,0.012030620400374755
1772565972693758700,0.7907587890625,0.10694061780571937,0.00033062932700850066,-0.006050459145382046
1772565972703786800,0.800786865234375,0.11098317119479179,-0.0019008377857971934,-0.008159313658671454
1772565972713814800,0.810814697265625,0.10379822812676429,-0.0018141778490738942,0.0045388033402618015
1772565972723843800,0.82084375,0.10589140101373196,-0.0059702335160225625,0.010224529959633947
1772565972733871900,0.830871826171875,0.11038345173597335,-0.003093837829492986,-0.0027480200665071603
1772565972743900000,0.84089990234375,0.10140694907605648,-0.0013629589162766932,-0.010540518839936702
1772565972753929000,0.850928955078125,0.10933715755343437,-0.00647639293987304,-0.0010473170958459376
1772565972763956700,0.860956787109375,0.10604571479260921,0.0014514591836370526,0.011550919725187122
1772565972773985800,0.87098583984375,0.10589841527640818,0.0023210268260911104,0.0022381525819189846
1772565972784013800,0.881013916015625,0.10126081860363483,0.006666654814966023,-0.010273072675941512
1772565972794041900,0.891041748046875,0.09766834706962108,-0.000015699892630800605,-0.007275790556101128
1772565972804071000,0.90107080078125,0.1222065759986639,-0.007676950668939389,-0.006161372173950076
1772565972814099000,0.911098876953125,0.11217968750298023,-0.002958105453499593,0.008614354816637932
1772565972824126700,0.921126708984375,0.107692897477746,0.0015166425074916333,0.0006170359198004007
1772565972834155800,0.93115576171875,0.1133791264206171,0.002786721808812581,-0.010295932961720973
1772565972844183800,0.941183837890625,0.1051443820387125,-0.00333191633510869,0.0025098639290779827
1772565972854212900,0.951212890625,0.09631284080743789,-0.005850913418713025,0.002713505875552073
1772565972864241000,0.961240966796875,0.10469313113987445,-0.0014765662254299968,-0.0025945374046918005
1772565972874268700,0.9712685546875,0.1049918218255043,0.0012376703024841844,-0.011165381873166187
1772565972884297700,0.981297607421875,0.10334580818414688,-0.0016163491554558277,-0.00674015844259411
1772565972894325800,0.99132568359375,0.09900456410944461,-0.0047954038832569495,0.0020946889906190333
1772565972904353800,1.001353759765625,0.12055004096329211,-0.001410652249213308,0.0030092100196518
1772565972914382800,1.0113828125,0.11636018805801868,-0.004140241609886288,-0.0035366679598577318
1772565972924411000,1.021410888671875,0.10753215395808219,-0.0023600527953822163,-0.011600311824865638
1772565972934440000,1.03143994140625,0.09930091670751572,-0.004809660737472586,0.000019946809485554693
1772565972944467700,1.0414677734375,0.1024427218645811,0.0072977192601189015,0.00897732464382425
1772565972954496000,1.05149609375,0.1010965679526329,0.00024462697741109874,-0.0018294621831737457
1772565972964524800,1.06152490234375,0.09361585680842399,-0.008577831331687047,-0.00870776872113347
1772565972974552800,1.071552734375,0.10813187341690063,-0.0008743488488486037,-0.004938534114416688
1772565972984580900,1.081580810546875,0.10828443363010883,0.0013371394884306937,-0.0014219773608259857
1772565972994610000,1.09160986328125,0.10783552081882954,-0.004785617708181962,0.004128953030891717
1772565973004637700,1.1016376953125,0.10589432362318038,-0.006893033749633468,-0.008693036942882463
1772565973014665700,1.111665771484375,0.10319967771172522,-0.0024635086032794786,-0.01010624647536315
1772565973024695000,1.121695068359375,0.10678455046117305,-0.0008907519943779334,-0.0059086395218968385
1772565973034722800,1.131722900390625,0.11531623196303843,0.00002886990145780146,0.0057384157878346735
1772565973044752000,1.141751953125,0.10813654959201813,-0.0003070749214850366,-0.0010449881414417177
1772565973054779600,1.151779541015625,0.10379881264865398,0.0003840719807194546,0.0030972444961313156
1772565973064808000,1.161807861328125,0.11292495291233062,-0.004272608418436721,0.004643688486842438
1772565973074836700,1.171836669921875,0.10394494312107562,0.0023133458431344477,0.0010971475869417189
1772565973084864800,1.18186474609375,0.11127777022719383,-0.00976403174183797,-0.0003861406402196735
1772565973094892800,1.191892822265625,0.1008048915296793,-0.001822973076882772,0.0005541176182683557
1772565973104921900,1.201921875,0.10289981798231601,0.002267515673721209,-0.0010839593118056655
1772565973114950000,1.211949951171875,0.10274901133477687,0.0013850611502304673,0.0024297752970363945
1772565973124978700,1.221978759765625,0.10185293927788734,0.0016616907011019065,0.003513277951115742
1772565973135007000,1.232007080078125,0.11996084289848803,0.0014808040091302244,-0.002436469899304211
1772565973145034800,1.24203466796875,0.10559621745944023,-0.0007441283316118642,-0.006795386628014966
1772565973155063800,1.252063720703125,0.11741758815646171,-0.005170009349309839,-0.003236680366285145
1772565973165091800,1.262091796875,0.11113163975477218,0.0032176971046021206,0.002480208576330915
1772565973175120000,1.272119873046875,0.10439853210747241,0.0031399693930055945,0.00024195552971214055
1772565973185148700,1.282148681640625,0.10185527736544608,-0.00891246098037809,-0.0018613003598526119
1772565973195177000,1.292177001953125,0.10365092861056327,-0.0005367280920501799,0.005605674519948661
1772565973205206000,1.3022060546875,0.10544599533379077,-0.0003628236967138946,0.004524217692483216
1772565973215233800,1.31223388671875,0.10170856237113475,0.000638759127841331,0.0037208836866542694
1772565973225261800,1.32226171875,0.1041033485531807,0.000045241080946289,0.001381946744536981
1772565973235291000,1.332290771484375,0.1132306578606367,0.0001664471746655181,-0.004347619016561657
1772565973245319000,1.34231884765625,0.1041033485531807,-0.005298773128399625,0.0032881639583501963
1772565973255346700,1.3523466796875,0.09467676403820514,0.0029503331389976665,0.001752259627962485
1772565973265375700,1.362375732421875,0.11158698230683803,-0.0021440765237202867,-0.004968271665554493
1772565973275403800,1.37240380859375,0.10934592538177966,0.00351479862134438,-0.007218333880975842
1772565973285432800,1.382432861328125,0.10470657514333724,-0.0017014107901370153,-0.010556173066794872
1772565973295460900,1.3924609375,0.10590426049530506,-0.004613640408450737,-0.004367319230875
1772565973305489000,1.402489013671875,0.11712649625539778,0.0014561901576817034,0.00772902334947139
1772565973315518000,1.41251806640625,0.11263503005504608,0.005151711074216291,-0.008789318657899274
1772565973325545700,1.422545654296875,0.11263503005504608,0.0038186723721679297,-0.006532278712419792
1772565973335574000,1.432573974609375,0.11188567299246788,0.004931665982212871,0.008614482680801302
1772565973345602800,1.442602783203125,0.11802139926850795,0.007122805651207454,0.006130566043732687
1772565973355630800,1.452630859375,0.09797054488658904,0.0070658695658901705,-0.002041561430739239
1772565973365659600,1.46265966796875,0.11024433552622795,0.003852579208347015,0.0011445395257789642
1772565973375688000,1.47268798828125,0.11054361073374748,0.0032156421448336914,0.003715221130847931
1772565973385715700,1.4827158203125,0.10919687229990958,0.00040603721735533326,0.004149146435549482
1772565973395744800,1.492744873046875,0.11473287911713123,-0.002337498470279388,-0.0013188914456870406
1772565973405772800,1.502772705078125,0.11278759026825427,0.0042337331461953,-0.006216317231580615
1772565973415800800,1.51280078125,0.10979074653983116,0.00011274879262782633,-0.0013242800068575889
1772565973425830000,1.522829833984375,0.11861761159598827,-0.0019923839601920915,-0.00020966982846148312
1772565973435857700,1.532857666015625,0.10409984142184257,0.0014245300775161012,0.004470697406958789
1772565973445886000,1.542885986328125,0.104699560880661,-0.0016654398610349743,-0.002805102282296866
1772565973455914800,1.552914794921875,0.1183154137790203,0.0004763122748583555,-0.0084996971947141
1772565973465942800,1.56294287109375,0.10559797102510929,0.00362831459895242,0.0038475422736257313
1772565973475971800,1.572971923828125,0.10933715755343437,0.004063705774955451,0.00006573131312616169
1772565973485999900,1.582999755859375,0.10380115073621272,0.0005649586726911366,-0.00493510004831478
1772565973496028000,1.59302783203125,0.10380524238944053,0.0026951665012631566,-0.002380255333194509
1772565973506056700,1.603056640625,0.11113573140799998,-0.00019535360874142497,0.0021841299728956073
1772565973516085000,1.6130849609375,0.10664543425142764,0.00024141667359508574,-0.0029850984917022287
1772565973526113800,1.62311376953125,0.10305588532686233,0.002814399833604693,-0.005618570534139871
1772565973536141800,1.633141845703125,0.10260697251558304,-0.0011520287124905735,-0.005014750288939103
1772565973546169900,1.643169921875,0.11217968750298023,0.0005820376716554165,-0.002688681961549446
1772565973556199000,1.653198974609375,0.10514496656060218,-0.0021675258979666975,0.002071015854086727
1772565973566226700,1.663226806640625,0.1008048915296793,-0.002182390106958337,0.002818509753141552
1772565973576254700,1.673254638671875,0.10244915160536766,-0.0003918762612622231,-0.0029397980452515182
1772565973586284000,1.683283935546875,0.10932955876886843,-0.0005075339636066928,-0.005470558631885797
1772565973596311800,1.693311767578125,0.11037585295140742,-0.0062475617532152675,0.0016741072246804832
1772565973606339800,1.70333984375,0.1102285534352064,0.004850864964118227,-0.009869505976885557
1772565973616369000,1.713368896484375,0.10858546240329742,-0.00133918988162186,-0.00338837292981334
1772565973626397000,1.72339697265625,0.10978314775526522,-0.0003967990315519273,-0.006188588974438607
1772565973636425700,1.73342578125,0.10289923346042633,-0.0007869491266086697,-0.0009323489466682076
1772565973646453800,1.743453857421875,0.11008183844089507,0.003143631787970662,-0.0007892689478583634
1772565973656481800,1.753481689453125,0.1079892500758171,0.002600405456474982,-0.002397727057803422
1772565973666510800,1.7635107421875,0.11292729099988937,0.005350658579263836,0.0010814476943109184
1772565973676539000,1.773538818359375,0.10619126074314117,0.004679389987885952,-0.004241528293583542
1772565973686567000,1.78356689453125,0.11083061098158359,0.0003189571555238217,-0.007817267888505012
1772565973696596000,1.793595947265625,0.09526888471245765,-0.00023696882734075187,-0.0033990769869182255
1772565973706623700,1.803623779296875,0.10155424859225749,-0.0045482561551965775,-0.007493963351426646
1772565973716652800,1.81365283203125,0.10424597189426421,0.002465271302103065,-0.009997434072336182
1772565973726680800,1.823680908203125,0.09766191732883453,-0.0017006253388477488,-0.00042960532261058685
1772565973736708900,1.833708984375,0.11412030017673969,-0.014581259297835639,-0.005252221439778804
1772565973746737700,1.843737548828125,0.11755845793187618,-0.008012402301537803,-0.0033249797042459246
1772565973756766000,1.853765869140625,0.12025076575577258,0.0025790430080378426,-0.008714983913209289
1772565973766793700,1.863793701171875,0.1037888757765293,0.0035796211855951693,-0.006744962481874972
1772565973776822800,1.87382275390625,0.10169453384578227,-0.004436964100715704,-0.005185330216027796
1772565973786850800,1.883850830078125,0.10109773699641227,-0.0005896181899122893,-0.002412869828008115
1772565973796880000,1.8938798828125,0.10918109020888805,-0.0003732674589147791,-0.004069532727543264
1772565973806908000,1.903907958984375,0.10409399620294571,0.0016521739540854468,0.001177976004499942
1772565973816935700,1.913935791015625,0.10858546240329742,-0.0025582833477994426,-0.0007581157577689736
1772565973826964700,1.92396484375,0.10933715755343437,0.00004694898084271699,0.009254963408270851
1772565973836992800,1.93399267578125,0.10365151313245295,-0.003349520490458235,0.011059619943751021
1772565973847020800,1.944020751953125,0.10215455257296562,0.0023017878360813483,-0.006320398660562932
1772565973857049900,1.9540498046875,0.10769114391207694,-0.0025523285310482605,-0.0005977923632133752
1772565973867078000,1.964077880859375,0.1171177284270525,-0.0014659763327566906,-0.0033482966477517036
1772565973877106000,1.97410595703125,0.11173019016981124,0.007041506876191124,-0.006808867164095863
1772565973887134700,1.984134765625,0.10813713411390781,-0.0012935926076490432,-0.005096537687722593
1772565973897163000,1.9941630859375,0.10738953061699867,-0.003267427130998112,-0.002807979225972667
1772565973907191800,2.00419189453125,0.09811141466200352,0.004061226123501546,0.004787864464195445
1772565973917219800,2.0142197265625,0.1175619650632143,0.004016085507255047,0.0030195487505756315
1772565973927248000,2.024247802734375,0.09496551785171031,-0.004881387966545299,-0.0008950674098916351
1772565973937277000,2.03427685546875,0.10588847840428352,0.0012797832780051975,-0.012340864526480436
1772565973947304700,2.0443046875,0.11142506974339485,-0.00013152655833400785,-0.0065147521888837216
1772565973957333800,2.054333740234375,0.10573825627863406,-0.003142028919351287,-0.00223440798856318
1772565973967362000,2.064362060546875,0.11397007805109023,-0.006189607321168296,-0.006564509614743292
1772565973977389800,2.074389892578125,0.10454407805800438,-0.002019541395176202,-0.003912058877199888
1772565973987419000,2.0844189453125,0.10170096358656883,-0.0048981381719466295,-0.004812021657917648
1772565973997446700,2.09444677734375,0.10349661483168601,-0.0005862800219329073,-0.010469727759202942
1772565974007475000,2.104474853515625,0.1103811136484146,0.00010806805093307047,-0.0028314970988780257
1772565974017503700,2.114503662109375,0.10933248137831687,0.0017346737389219923,-0.007365103674214333
1772565974027531800,2.12453173828125,0.1078366898626089,0.003956377509539016,-0.008684862769581378
1772565974037559800,2.134559814453125,0.09840952082574367,0.00314544015256688,-0.0014613138573709875
1772565974047588900,2.1445888671875,0.10918459734022616,-0.0015444164304062723,0.0032574765591416505
1772565974057617000,2.154616943359375,0.1066384199887514,-0.003247617318830453,-0.0017836685463786125
1772565974067645700,2.164645751953125,0.10723697040379047,-0.006082233389979228,-0.002860303068254143
1772565974077674000,2.174674072265625,0.10125029720962048,-0.00014683829189743845,-0.008090787600260227
1772565974087701800,2.18470166015625,0.10080372248589992,0.00011336528055835515,-0.006710557888774201
1772565974097730800,2.194730712890625,0.10469488470554351,0.0030283987773116676,-0.0014776622039731591
1772565974107758800,2.2047587890625,0.11576982094943522,-0.004782704231888055,-0.007045470665255561
1772565974117787000,2.214786865234375,0.11427052230238914,-0.009423547741095535,-0.004513778496859595
1772565974127815700,2.224815673828125,0.10454524710178374,0.008178360852436162,0.0037490229357499626
1772565974137844000,2.234843994140625,0.10364917504489421,0.0001330106959445402,-0.004538501946162433
1772565974147873000,2.244873046875,0.10424830998182297,-0.007385794835793785,-0.0021434783020988107
1772565974157900800,2.25490087890625,0.10858780049085616,-0.004101480502076447,-0.0033351997041609137
1772565974167928800,2.2649287109375,0.11472469581067561,-0.0014234980310546233,-0.003373586352635175
1772565974177958000,2.2749580078125,0.10619535239636897,-0.0027526003435021265,-0.004957485410058871
1772565974187986000,2.28498583984375,0.11023673674166203,-0.00023162136536557227,-0.001898262236220762
1772565974198013700,2.295013671875,0.10500058965384959,0.004970052630687132,-0.008453136372938751
1772565974208042800,2.305042724609375,0.09527472993135452,-0.004009760797745548,-0.006088973658019676
1772565974218070800,2.31507080078125,0.10769698913097381,0.0045674905786290765,0.011230053740367292
1772565974228099800,2.325099853515625,0.10425649328827857,-0.005354065245902166,-0.0019916396080981937
1772565974238127900,2.3351279296875,0.10365618930757045,-0.0008350260520353913,-0.014004212895128876
1772565974248156000,2.345156005859375,0.1066471878170967,-0.0012577267098240555,0.0014319507655687629
1772565974258185000,2.35518505859375,0.10559972459077835,0.010356248314213006,0.0013657810610253362
1772565974268212700,2.365212646484375,0.11098492476046085,0.00035806532320566473,0.0013215126610361038
1772565974278241000,2.375240966796875,0.1093400801628828,0.007597665754496119,0.00038122700308449565
1772565974288269800,2.385269775390625,0.09332944108247757,0.000766691789869219,0.0010798219928052275
1772565974298297900,2.3952978515625,0.10485270561575889,-0.0034428932957584037,-0.0027630989046301692
1772565974308326700,2.40532666015625,0.11592705733776092,0.009140744177764282,0.0054081517870072275
1772565974318355000,2.41535498046875,0.0982692355722189,0.005044510672963224,-0.004631897584348917
1772565974328382700,2.4253828125,0.10140753359794616,0.001296775512001477,-0.007676379846781492
1772565974338411800,2.435411865234375,0.10245324325859546,0.0023386583809042348,0.002456608505034819
1772565974348439800,2.445439697265625,0.1130786821693182,0.001537525465316139,-0.004190857552271336
1772565974358467800,2.4554677734375,0.11068448050916194,0.0016886563398409633,-0.0056846489071380344
1772565974368497000,2.465496826171875,0.10993512344658374,-0.004506503939279355,-0.007238719081878662
1772565974378524700,2.475524658203125,0.10410042594373226,0.001448075349885039,-0.0016484430604614317
1772565974388554000,2.485553955078125,0.10843874740898608,0.005415787104191258,0.00442136010620743
1772565974398581800,2.495581787109375,0.10185644640922546,0.0007032346322201192,0.011843436398357152
1772565974408609800,2.50560986328125,0.10799100364148616,-0.0019175240591168402,-0.006950065733073279
1772565974418638800,2.515638916015625,0.1117319437354803,0.00450372289372608,-0.0073882927535567425
1772565974428667000,2.5256669921875,0.10409808785617351,-0.0036765513545833524,0.0032206973458640278
1772565974438694700,2.535694580078125,0.10544657985568046,-0.002454905171715654,-0.005489939185790717
1772565974448723700,2.5457236328125,0.11726853507459163,-0.002761153542716056,0.000985284710302949
1772565974458752000,2.555751953125,0.11143383757174015,-0.005980544847482815,-0.0031819453712087125
1772565974468780800,2.56578076171875,0.10185527736544608,-0.0008319527455372736,0.001339605440152809
1772565974478808800,2.575808837890625,0.12130816585421561,-0.006240999581688084,0.001937059876648709
1772565974488836900,2.5858369140625,0.10589607718884944,-0.00020627229497767983,-0.006139753997186199
1772565974498866000,2.595865966796875,0.10619535239636897,0.00030088264271616933,-0.0024298483622726052
1772565974508893700,2.605893798828125,0.10993512344658374,-0.004274498981423676,-0.0026740049822255967
1772565974518921700,2.615921630859375,0.1052969422519207,-0.0017553009684197604,-0.002316149721574038
1772565974528951000,2.625950927734375,0.10859013857841492,-0.004731563133117743,0.009113372113648802
1772565974538978800,2.635978759765625,0.10888824474215507,-0.0035870921059977263,0.006466309937275946
1772565974549006800,2.6460068359375,0.10140461098849773,-0.0038343037661397825,0.005204290644824505
1772565974559036000,2.656035888671875,0.1040986723780632,0.002555831095809117,0.002248600910697132
1772565974569064000,2.66606396484375,0.10664368068575858,0.0015139893261017277,0.003679985420685261
1772565974579092700,2.6760927734375,0.11143149948418139,-0.004695455206697807,0.0047337687899358565
1772565974589120800,2.686120849609375,0.10559797102510929,0.002184463333035819,0.0054128188289701935
1772565974599148800,2.696148681640625,0.10290390963554381,0.004333773154299706,0.0019090210922528058
1772565974609177900,2.706177734375,0.10559504841566085,-0.00004433233207091689,-0.003007492986600846
1772565974619206000,2.716205810546875,0.10125380434095858,-0.00296090476536192,-0.0030282800463028252
1772565974629234000,2.72623388671875,0.10334873079359531,0.010143628476839512,0.002801659083040431
1772565974639263000,2.736262939453125,0.10798457390069961,-0.0007321775989141315,-0.0002693367269821465
1772565974649290800,2.746290771484375,0.11187339803278445,-0.004529761517280712,0.0016559413803275674
1772565974659319800,2.75631982421875,0.10169921002089977,0.005057753747026435,-0.0036444574495777485
1772565974669348000,2.76634814453125,0.10394377407729626,0.0010889186147134751,-0.0029355785278603434
1772565974679376100,2.776376220703125,0.10483926161229609,-0.0064111959162866695,-0.005791351551469415
1772565974689405000,2.786405029296875,0.10573358010351658,0.0033558999988948924,-0.0024182949217967688
1772565974699433200,2.79643310546875,0.10558218893408775,0.00010953848881181329,-0.005415065584983676
1772565974709461000,2.8064609375,0.11201602137386799,-0.00040610114943701774,0.0033760523043572903
1772565974719490000,2.816489990234375,0.0992974095761776,0.002486839246517047,0.003084595077112317
1772565974729518000,2.82651806640625,0.10917524498999118,-0.002895324149285443,-0.0027841508258134124
1772565974739547100,2.836547119140625,0.1100719015687704,0.00014722188438754527,-0.0059851388242095705
1772565974749575200,2.8465751953125,0.1070785649716854,-0.0010529202861478551,0.0031668665330857036
1772565974759603000,2.85660302734375,0.1034884315252304,-0.0037659603708190843,-0.007136190289165824
1772565974769632000,2.866632080078125,0.0943605376958847,0.005560602402361109,-0.008928151739854366
1772565974779660000,2.876659912109375,0.10258709877133369,0.005054506910592317,-0.0007443520938977599
1772565974789688000,2.88668798828125,0.10692717380225658,-0.002115334486425854,-0.002087382466997951
1772565974799717000,2.896717041015625,0.10618015482723712,0.005664980658865533,0.010044880810100585
1772565974809745200,2.9067451171875,0.10213935500383377,-0.0014768950189929454,-0.01003607644913718
1772565974819774200,2.916774169921875,0.1156055702984333,-0.004126893504546023,-0.01069320691730827
1772565974829802000,2.926802001953125,0.10827332771420478,0.007194505480816587,-0.0028809257311746476
1772565974839830300,2.936830322265625,0.11231471205949782,-0.00489948987881653,0.00003278802474960685
1772565974849859000,2.946859130859375,0.1136626195371151,-0.004261730831395834,0.0027888635335490105
1772565974859887000,2.95688720703125,0.10587912605404853,0.00091258480027318,0.000487454723380506
1772565974869915100,2.9669150390625,0.11021744751930236,-0.006470693851448595,0.001179839168023318
1772565974879944200,2.976944091796875,0.10138707533180713,-0.0037568683154880996,0.004349135120213032
1772565974889972000,2.986971923828125,0.10138941341936587,-0.005519210946047679,0.004639806896168738
1772565974900001000,2.9970009765625,0.10498188495337962,0.00169573910117615,0.0022029351380653678
1772565974910029000,3.007029052734375,0.11036708512306213,0.0027322288423310965,-0.007627846263628452
1772565974920057000,3.01705712890625,0.10094050060808658,-0.004147968258615583,0.0006829955617897212
1772565974930086100,3.027086181640625,0.10737667113542557,0.002628900898597203,-0.0036966077619232235
1772565974940114000,3.037114013671875,0.1108165824562311,-0.0012311720630386843,-0.005684073518402874
1772565974950142200,3.04714208984375,0.09794599496722221,-0.0016377755359746515,-0.002864138993155211
1772565974960171000,3.0571708984375,0.10542787515521049,-0.004330498918402008,-0.00016971227740868926
1772565974970199000,3.067198974609375,0.11066343772113323,0.0023644778087502346,0.0028871910751797256
1772565974980228000,3.07722802734375,0.09809212543964385,0.0013917603190755471,-0.005722834626212716
1772565974990256000,3.087256103515625,0.10557342110574244,-0.002334114636527374,-0.00408003585524857
1772565975000284200,3.0972841796875,0.10647183125019073,-0.0014008112752111627,-0.002389032294694334
1772565975010313000,3.10731298828125,0.11155834073424338,-0.002500525278574787,-0.004252141019143164
1772565975020341200,3.11734130859375,0.11290507916808128,0.003354000302753411,-0.00672483300929889
1772565975030369000,3.127369140625,0.11200725354552268,0.002382305726385675,-0.00833519081538543
1772565975040398000,3.137398193359375,0.10347791013121604,-0.0013666395775508134,-0.007507087694481015
1772565975050426000,3.147426025390625,0.10662029981017113,-0.002404901150683872,0.00025169147243723274
1772565975060455200,3.157455078125,0.11260580396056175,-0.005626128219510428,-0.006451715156342834
1772565975070483000,3.16748291015625,0.10123334607481956,-0.0035870921059977263,-0.0004098777088336646
1772565975080511000,3.177510986328125,0.11171148546934127,0.002786758341430686,-0.0036290589510463178
1772565975090540300,3.187540283203125,0.10797054537534713,-0.003160582922771573,-0.004975632988102734
1772565975100568000,3.197568115234375,0.11126257265806197,-0.00405647231657058,-0.0034850291041657326
1772565975110596000,3.20759619140625,0.11156360143125056,-0.0035546557076973836,-0.0005729227834381163
1772565975120625000,3.217625,0.09929390244483947,0.00362142820043955,-0.004789681961946189
1772565975130653200,3.227653076171875,0.11231295849382876,0.003590635769953951,-0.0050515295022167265
1772565975140681000,3.237680908203125,0.11231295849382876,0.00006873612096533179,-0.008911839925870298
1772565975150710000,3.2477099609375,0.10512859994769096,-0.006387413181900046,0.001939206167962402
1772565975160738000,3.257738037109375,0.10647416933774947,0.004474245637492277,0.0006028795302845537
1772565975170767000,3.26776708984375,0.10407996767759323,-0.0010954259873135015,-0.0019456724413670597
1772565975180795100,3.277795166015625,0.10797346798479557,-0.0001355131802847609,-0.002392968684295192
1772565975190823200,3.2878232421875,0.09690086982846259,-0.00024505623567383733,0.008436413567001
1772565975200852200,3.297852294921875,0.11156477047502994,-0.007189737974153831,0.0013738821690902113
1772565975210880000,3.3078798828125,0.10842471888363361,-0.0006517601733095944,-0.00026800328642129895
1772565975220908300,3.317908203125,0.11830196977555751,-0.0008902953366516157,-0.006801852901419624
1772565975230937000,3.32793701171875,0.11261515631079673,-0.0020395201707025987,0.0020565946030896157
1772565975240965000,3.337965087890625,0.1093225445061922,-0.003864644105476327,-0.0015691307465545833
1772565975250994000,3.347993896484375,0.10169219575822352,-0.005597756074974313,-0.010782300839712843
1772565975261022200,3.358022216796875,0.10737959374487399,0.005850502426759339,-0.006211230064509436
1772565975271050000,3.368050048828125,0.10797639059424399,0.006134817527164705,-0.004265146631188691
1772565975281079000,3.3780791015625,0.10677928976416587,-0.001354798442707397,0.005015919332718477
1772565975291107000,3.388107177734375,0.11321487576961517,0.0027045873501570896,-0.001205850392114371
1772565975301135000,3.398135009765625,0.11231821919083594,-0.0015393794956849887,-0.01418911360851489
1772565975311164200,3.4081640625,0.0984036756068468,0.0034702516601420935,-0.013088148362981155
1772565975321192000,3.41819189453125,0.09840426012873649,-0.0029733989207539704,-0.0027479744007345287
1772565975331221000,3.428220947265625,0.09945347692072391,-0.005651550355134531,0.002136199177941307
1772565975341249000,3.4382490234375,0.09960253000259399,-0.0037390266981208696,-0.004428082107938826
1772565975351277000,3.448277099609375,0.10738310087621211,-0.0066273457178846,-0.008258353586355224
1772565975361306000,3.45830615234375,0.11112462549209594,-0.001851779046258889,-0.006291273030778393
1772565975371334100,3.468334228515625,0.11112521001398563,-0.00035672731606755406,-0.003627953839348629
1772565975381362200,3.478362060546875,0.10753332300186157,-0.0036181539645418525,0.001572930138837546
1772565975391391000,3.488390869140625,0.11680910086929798,0.0031112867212155833,-0.0017839516741689294
1772565975401419300,3.498419189453125,0.10603460887670517,0.0033750293910503387,0.00015261501213535665
1772565975411448000,3.508447998046875,0.10663725094497203,-0.00732172575679142,-0.0048668114519212395
1772565975421476000,3.51847607421875,0.0994540614426136,0.0005071138384984806,0.0004620828201062977
1772565975431504100,3.528504150390625,0.1058896474480629,-0.007064179932302795,-0.0037668234539218245
1772565975441533200,3.538533203125,0.11112754810154438,-0.00514561469356995,0.0033301764691714194
1772565975451561000,3.54856103515625,0.10110416673719883,-0.009002984241466037,0.0022464089536108076
1772565975461589000,3.558589111328125,0.10708850184381008,0.003058789348998107,-0.005368860956234857
1772565975471618000,3.5686181640625,0.10753683013319969,0.001338934153295122,-0.0012580737696960569
1772565975481646000,3.57864599609375,0.10484452230930327,-0.0013600819726008921,-0.001346153911948204
1772565975491675100,3.588675048828125,0.1102332296103239,-0.003254042493039742,0.003541152338730171
1772565975501703000,3.598702880859375,0.11936053891777991,0.00031023955952841787,-0.008465128204831853
1772565975511731200,3.608731201171875,0.10649112047255038,-0.0036019334821030496,-0.005050122996419668
1772565975521760000,3.618760009765625,0.10634148286879062,-0.002183970142691396,0.00600116751040332
1772565975531788000,3.6287880859375,0.09855915842950344,-0.004236852118466049,-0.008253047223575413
1772565975541816000,3.638816162109375,0.10574176340997218,-0.0038611917730653656,-0.004149347364949063
1772565975551845000,3.64884521484375,0.10573884080052375,0.002356700927671045,-0.010513594300393015
1772565975561873200,3.658873046875,0.10423837310969829,-0.005659674296085723,-0.004079286936577409
1772565975571902000,3.66890185546875,0.11172083781957626,-0.0037387938026804475,0.007951561792660504
1772565975581930200,3.67893017578125,0.10693301902115344,-0.0045537132150260725,-0.004258433762611821
1772565975591958000,3.6889580078125,0.10797989772558211,0.0017226864736061543,-0.004745915885455906
1772565975601987000,3.698987060546875,0.10797931320369243,0.0018426276254234835,0.0057097742152400315
1772565975612015000,3.70901513671875,0.10379179838597774,0.009314644006523303,-0.0009553736292291432
1772565975622043100,3.719043212890625,0.10933014329075813,-0.0013000314815901218,0.00048043132754974066
1772565975632072000,3.729072021484375,0.10872925478816031,-0.0002396950739668682,0.0022952439308632166
1772565975642100000,3.739099853515625,0.10394085146784782,-0.0006952157225459814,-0.005649093536566943
1772565975652129300,3.74912939453125,0.11381576427221297,-0.004598228210187517,-0.0032408998836763203
1772565975662157000,3.759156982421875,0.10902736095190048,-0.005708933965023606,0.0019648885984905064
1772565975672184800,3.769184814453125,0.10274199707210063,-0.00867119500383269,0.00939472807198763
1772565975682214000,3.7792138671875,0.11067162102758883,0.0000610779708949849,0.007261889894912019
1772565975692242000,3.789241943359375,0.10662731407284735,-0.00244473540415056,-0.001312845297390595
1772565975702269700,3.799269775390625,0.1102197856068611,0.0031238174092257393,-0.011682172288885339
1772565975712298800,3.809298828125,0.10872516313493251,-0.0038727086809230964,-0.002460627093026414
1772565975722326800,3.819326904296875,0.1030395187139511,-0.013399689397029579,0.005710915859555825
1772565975732355800,3.82935595703125,0.10483516995906829,-0.005491761250118725,-0.006256777106132358
1772565975742383900,3.8393837890625,0.1036369000852108,-0.0014708991030463949,0.00325487361010164
1772565975752412000,3.849411865234375,0.10318681823015212,-0.0012076952893286942,0.0007494118615053594
1772565975762441000,3.85944091796875,0.10797580607235431,-0.008460415497096255,0.0023990422320552167
1772565975772468700,3.86946875,0.10827391223609446,-0.005129677338921465,0.00653954870342277
1772565975782497000,3.8794970703125,0.10169044219255446,-0.003547901739925146,-0.0035755569318309424
1772565975792525800,3.88952587890625,0.10154022006690501,-0.011059300283342599,0.0004480177621357143
1772565975802553900,3.899553955078125,0.10124328294694424,-0.0039002679747063666,0.002792261067032814
1772565975812583000,3.9095830078125,0.11021803204119204,-0.004783937207749113,-0.002010463039577007
1772565975822611000,3.91961083984375,0.10183949527442454,-0.004148959205881693,-0.007338453129306435
1772565975832639000,3.929638916015625,0.11456044515967369,0.0005393675737082958,-0.0008128964186180383
1772565975842667800,3.939667724609375,0.10094342321753501,-0.0060883069377392525,-0.005592678041057661
1772565975852696000,3.949696044921875,0.11171849973201751,-0.0049348123539472,-0.0038592966435011472
1772565975862723800,3.959723876953125,0.09735328977108001,-0.003357160374219529,0.003832472568657249
1772565975872753000,3.9697529296875,0.11037176129817962,-0.006356040796102024,-0.0033863362363539635
1772565975882780700,3.97978076171875,0.11336451337337493,0.0011079977745190263,-0.0016921269385609774
1772565975892809000,3.98980908203125,0.11575871503353118,-0.002010326042259112,-0.006718485466903075
1772565975902838000,3.999838134765625,0.10857377196550369,-0.005406238391133957,0.00007491926657967269
1772565975912865800,4.00986572265625,0.10797288346290587,-0.009089927305979654,0.0047906774757895615
1772565975922894800,4.019894775390625,0.11485504419207572,-0.0028946437292732296,-0.0007589742742944508
1772565975932923000,4.0299228515625,0.11201251424252986,-0.0018047843996435403,-0.012025149640813469
1772565975942951000,4.039950927734375,0.10587795701026916,0.0000773395525291562,-0.00522538823178038
1772565975952979700,4.049979736328125,0.10812193654477596,-0.004539593358128331,0.00014931794335134327
1772565975963008000,4.060008056640625,0.10153729745745659,-0.0006931790290866047,-0.007139341227477416
1772565975973035800,4.070035888671875,0.10902034668922424,-0.005644709622394294,-0.0016696045794989912
1772565975983064800,4.08006494140625,0.10797405250668525,-0.005817065948038362,-0.0035291239742189645
1772565975993092900,4.0900927734375,0.10498188495337962,-0.008706882805144414,0.00014698898894712327
1772565976003122000,4.100121826171875,0.10438391906023024,-0.006858309496124274,0.0001395820006262511
1772565976013150000,4.11014990234375,0.10154022006690501,-0.004978875257959589,-0.00449751234864816
1772565976023178000,4.120177978515625,0.10303484253883362,-0.0027305346421664578,-0.0014564732854720204
1772565976033207000,4.13020703125,0.11485562871396542,-0.004230655273119919,0.00761405520029366
1772565976043234800,4.14023486328125,0.1070744733184576,-0.0058372639192733914,0.0014756803094409406
1772565976053262800,4.150262939453125,0.11096622005999088,-0.0031916493478929622,-0.000838953308481723
1772565976063292000,4.1602919921875,0.11381108809709549,-0.00636625622943975,-0.00893297404544428
1772565976073320000,4.17031982421875,0.11560732386410236,-0.008724797487747855,-0.0017207045790739357
1772565976083349000,4.180348876953125,0.1043815809726715,0.0015749165999470278,0.008107272944180295
1772565976093376800,4.190376708984375,0.10812135202288627,0.0008367933174362406,-0.003917401772597804
1772565976103404800,4.20040478515625,0.09854162277281284,-0.012297523141675627,-0.006678847576258704
1772565976113433900,4.210433837890625,0.10437690479755402,-0.012069650936243124,-0.0059263304422143845
1772565976123462000,4.2204619140625,0.1191910275697708,-0.001348199738562107,0.0013745397562161088
1772565976133490000,4.230489990234375,0.10991408065855503,-0.005506849221396259,0.0001746441808529198
1772565976143519000,4.24051904296875,0.10886603291034698,-0.00675579896972049,-0.008135667921602726
1772565976153546800,4.250546630859375,0.09928981079161167,-0.004467537335492671,-0.005411083529610186
1772565976163575800,4.260575927734375,0.10677110645771026,-0.0004178874853532761,0.003464616503799334
1772565976173603800,4.270603759765625,0.11365560527443885,-0.006459341340372338,0.007385680671362206
1772565976183632000,4.2806318359375,0.1069219131052494,-0.00657940122319851,0.0014652045811992139
1772565976193661000,4.290660888671875,0.1082721586704254,-0.0070235236949287355,-0.0096887151830364
1772565976203689000,4.30068896484375,0.1069260047584772,0.006165765221277252,-0.0005364814968779682
1772565976213717000,4.310717041015625,0.11111527314186095,-0.006871383606828749,0.006455057890899479
1772565976223745800,4.320745849609375,0.1139583876132965,-0.01165554914344102,-0.0013146993277594447
1772565976233773800,4.33077392578125,0.11620470523536204,-0.004945662541524507,-0.009721841134503483
1772565976243803000,4.340802978515625,0.11246493418514728,0.00287425852837041,-0.004878465357096865
1772565976253831000,4.350830810546875,0.10632979243099688,0.0018604190104408189,0.00004786686287261545
1772565976263858700,4.360858642578125,0.10902385382056236,-0.00542805293072015,0.0024461875757202504
1772565976273888000,4.370887939453125,0.10558218893408775,0.003644809076027013,-0.00475840090769343
1772565976283915800,4.380915771484375,0.12114508424699305,-0.00748344652398955,-0.009962728085136041
1772565976293943800,4.39094384765625,0.11097089623510836,-0.005916818261775187,-0.005714313393039628
1772565976303972900,4.400972900390625,0.11022329273819922,-0.008293251369800417,-0.001558152694813907
1772565976314001000,4.4110009765625,0.1099281091839075,-0.006410734691983088,-0.005237672324618324
1772565976324029000,4.42102880859375,0.104542909014225,-0.003388053269404918,-0.01091382739804685
1772565976334057700,4.4310576171875,0.10035422515273093,0.0031754790978040545,-0.004911299047619104
1772565976344086000,4.4410859375,0.11022913795709609,0.0032516678728628902,0.002374428380606696
1772565976354114800,4.45111474609375,0.10947802732884883,0.0028580197796225547,0.0010558291958644985
1772565976364142800,4.461142822265625,0.09406476961970328,-0.000008375102700665592,-0.00034210970224812624
1772565976374171000,4.4711708984375,0.10199614714086055,-0.00043598026446998116,-0.0016464976985473185
1772565976384200000,4.481199951171875,0.10274433515965938,0.0009930981240002439,0.0013112378621939569
1772565976394228000,4.49122802734375,0.10873042383193969,-0.010328757519088684,0.0021223076499067247
1772565976404255700,4.501255859375,0.10199790070652962,-0.006811977003212086,-0.007200286767631769
1772565976414285000,4.51128515625,0.1082815110206604,-0.00941040056515485,-0.0028951186533086
1772565976424312800,4.521312744140625,0.10663491285741329,-0.0028653080369345843,-0.0029394327190704643
1772565976434342000,4.531341796875,0.09900222602188587,-0.0013899291215930133,-0.006579734583338722
1772565976444370000,4.541369873046875,0.1066343283355236,-0.001838449207227677,-0.004962526911357418
1772565976454398000,4.55139794921875,0.10214578474462031,-0.008026563257630914,-0.000788794023822993
1772565976464426800,4.5614267578125,0.10872983931005001,0.00039182146233506497,0.0010546053531579672
1772565976474454800,4.571454833984375,0.09466215099096298,-0.008002438029949552,0.0006764653563033788
1772565976484482800,4.58148291015625,0.09975041404068469,0.005101519823516719,0.005607948675425723
1772565976494511900,4.591511962890625,0.10932663615942001,-0.004905810021748766,0.00009508527177385985
1772565976504540000,4.601539794921875,0.09989946712255478,-0.005150633361982181,-0.006669111633533611
1772565976514568700,4.611568603515625,0.10274258159399031,-0.0027677933460567147,-0.00858453506710939
1772565976524597000,4.621596923828125,0.10109481438696384,-0.005866339316708036,0.0026969839990139007
1772565976534624800,4.631624755859375,0.10528642085790633,-0.004070825068908743,-0.006455167488753796
1772565976544653800,4.64165380859375,0.10543547393977641,-0.010163643784984014,-0.0032014629224315283
1772565976554681900,4.651681884765625,0.11037468390762806,-0.007255537785938941,-0.007203592969570309
1772565976564710000,4.6617099609375,0.10453764831721782,-0.0064747078728629275,-0.0006560892885550856
1772565976574739000,4.671739013671875,0.10588321770727634,-0.0024161668967921284,-0.0032681623499374833
1772565976584767000,4.68176708984375,0.10154606528580189,-0.003842569270986132,-0.0018853388225659727
1772565976594796000,4.691796142578125,0.11246961036026477,-0.0044336670319316904,-0.0004750701658427715
1772565976604823800,4.70182373046875,0.11246785679459571,0.000765139153599739,0.0004623385484330356
1772565976614851800,4.711851806640625,0.10094342321753501,0.00037089283873792736,0.0016268066173885016
1772565976624881000,4.721880859375,0.09974632238745688,-0.006660846128687262,-0.0036107378430664536
1772565976634909000,4.731908935546875,0.10752689326107501,-0.003085581457801163,-0.006759319800790399
1772565976644936700,4.741936767578125,0.10587971057593822,-0.009934826298058032,0.008557811456965282
1772565976654965800,4.7519658203125,0.0972013140797615,-0.010414974497817456,-0.002934665212407708
1772565976664993800,4.761993896484375,0.09211012842059135,-0.0036740123376250264,-0.005040679314639419
1772565976675023600,4.772023681640625,0.10512801542580127,-0.004196113682701252,-0.0018936956589575855
1772565976685051400,4.782051513671875,0.10976561209857463,-0.004492356682918034,-0.0024320037867408243
1772565976695079700,4.79207958984375,0.10722469544410705,-0.006637615950149484,-0.0024374654131475836
1772565976705108500,4.8021083984375,0.112760117739439,-0.006636049614148214,-0.004130377802997827
1772565976715136500,4.812136474609375,0.11246376514136791,-0.011147595054726116,-0.0038002142668701706
1772565976725164300,4.822164306640625,0.11291501604020594,-0.00927563630354125,-0.0018908735142089425
1772565976735193600,4.832193603515625,0.10932546711564063,-0.003632461051107384,0.002731023265933618
1772565976745221600,4.8422216796875,0.10588321770727634,-0.009426374452421442,-0.002180805504648015
1772565976755250400,4.85225048828125,0.10947393567562103,-0.0048699075913056725,-0.007716090802662074
1772565976765278500,4.862278564453125,0.10647943003475666,-0.0067524516685865815,0.007758103313483297
1772565976775306500,4.872306396484375,0.10932079094052315,-0.0014139082188019529,-0.004175312923267484
1772565976785335600,4.88233544921875,0.10617781673967838,-0.009974925413005984,-0.0034150143415667116
1772565976795363300,4.89236328125,0.10513327612280846,0.008570634405920282,0.002005512869823724
1772565976805391600,4.9023916015625,0.104386257147789,-0.006749857852701097,0.0005172836060635745
1772565976815420400,4.91242041015625,0.1160579902410507,-0.0061671214947244144,0.003398675128119066
1772565976825448400,4.922448486328125,0.11052139890193939,-0.005500944636994972,-0.00667450019470416
1772565976835476500,4.9324765625,0.09346446563899516,-0.00563820681637153,-0.006263763969345018
1772565976845505500,4.942505615234375,0.11007365513443947,0.00016071612020023167,0.000757841763133183
1772565976855533600,4.952533447265625,0.11620938141047954,-0.00486628172895871,0.0020383922261185943
1772565976865562400,4.962562255859375,0.11381517975032329,-0.0043567932702833784,-0.004837795419991016
1772565976875590700,4.972590576171875,0.10902677643001078,-0.004824629977741278,0.004315926970355212
1772565976885618400,4.982618408203125,0.1045388173609972,-0.00016468904241919517,-0.00017515563750639557
1772565976895647500,4.9926474609375,0.10154606528580189,-0.006374489768245257,-0.006484494047937914
1772565976905675500,5.002675537109375,0.10154548076391219,-0.007472774432925507,0.0050911765260156245
1772565976915703600,5.01270361328125,0.1094751047194004,-0.008538736863736993,-0.004560686378506943
1772565976925732600,5.022732666015625,0.1070785649716854,-0.0006613910847576334,0.00008187873032875359
1772565976935760400,5.032760498046875,0.11006839443743228,-0.0033543473626254125,-0.0030753614578861743
1772565976945789700,5.042789794921875,0.10617723221778869,-0.006588516111415811,-0.006887549290340393
1772565976955817500,5.0528173828125,0.10692425119280814,-0.011443449895875528,-0.0004964417474344373
1772565976965845500,5.062845458984375,0.10288462041318416,-0.016355109703098423,0.0013868238490540533
1772565976975874300,5.072874267578125,0.10976795018613338,-0.010967265485180542,-0.0035397458329331126
1772565976985902600,5.082902587890625,0.10468144070208071,-0.004823470067116431,-0.0038288375731557606
1772565976995930400,5.092930419921875,0.10887246265113353,-0.002556872275425121,0.008033020397881046
1772565977005959400,5.10295947265625,0.10094283869564533,-0.005012083407817408,-0.0011393062282353639
1772565977015987500,5.112987548828125,0.10169044219255446,-0.003380299221212044,0.00181119587412104
1772565977026016500,5.1230166015625,0.1012403603374958,-0.0007672169462544843,-0.0006636606736574322
1772565977036044500,5.13304443359375,0.10049158779680728,-0.0045953056007390835,-0.0003606317396275699
1772565977046072600,5.143072509765625,0.10542962872087955,0.0008587676872266456,0.004386690651625395
1772565977056101600,5.1531015625,0.11350830575823784,-0.005143258339702151,0.0012025624564848839
1772565977066129400,5.16312939453125,0.11590309194028377,-0.005002644292614423,0.0016922913353424518
1772565977076157700,5.17315771484375,0.10647592290341854,-0.009404418348940088,-0.004331745593994856
1772565977086186500,5.1831865234375,0.11380875000953673,-0.0016923644005786627,0.0020928623597137627
1772565977096214500,5.193214599609375,0.10363163938820362,-0.006678071258123964,-0.00021952450219541787
1772565977106243600,5.20324365234375,0.10198737931251525,-0.01177606568399351,-0.005794201095681637
1772565977116271600,5.213271728515625,0.10093991608619689,-0.004537154805869795,-0.00506286374698393
1772565977126299400,5.22329931640625,0.09689970078468323,0.001509596278774552,0.0016806008975487202
1772565977136328400,5.233328369140625,0.10557692823708056,-0.006022141799773089,0.008625707327714189
1772565977146356500,5.2433564453125,0.10527823755145073,-0.0013231840283144264,0.00026203020336106416
1772565977156384500,5.253384521484375,0.10018822093605995,-0.004633916011499241,-0.0030303076066076754
1772565977166413600,5.26341357421875,0.10692132858335972,-0.0028570333989337087,-0.011137242624070495
1772565977176441300,5.27344140625,0.10587269631326197,-0.0063236865961924195,-0.0022159407501108944
1772565977186470400,5.283470458984375,0.1097626894891262,-0.006205503576621413,0.0020454156219493597
1772565977196498400,5.29349853515625,0.11290274108052253,-0.0018266263386933132,-0.0034513734297361223
1772565977206526500,5.3035263671875,0.10841536653339862,-0.0075483649863628665,0.0021614980159793047
1772565977216555500,5.313555419921875,0.10572247418761253,-0.0018048620314570143,-0.003596206994215026
1772565977226583600,5.32358349609375,0.10692074406147002,-0.0004554704162292182,0.011518286964064463
1772565977236611600,5.333611572265625,0.1194920563429594,-0.007848019219795242,-0.003595786869106814
1772565977246640400,5.343640380859375,0.10482874021828174,0.0007401554093929007,-0.008114935660827905
1772565977256668700,5.353668701171875,0.1120107606768608,-0.0019869771327124908,0.004945721907028928
1772565977266696400,5.363696533203125,0.09749474406838417,-0.006099910610564984,-0.0009362579368054866
1772565977276725500,5.3737255859375,0.09914134223163128,-0.008850227665435523,0.00012191847977228462
1772565977286753500,5.38375341796875,0.10901683955788612,-0.008368344166316091,-0.001438709299918264
1772565977296782600,5.393782470703125,0.10348024821877479,-0.00015149163412861525,-0.0030598533615004268
1772565977306810600,5.403810546875,0.10138473724424839,0.000307577244983986,-0.003273971036216244
1772565977316838400,5.41383837890625,0.10467501096129417,-0.005847926877182908,-0.0005113835882395505
1772565977326867500,5.423867431640625,0.10273089115619659,-0.009171961299935355,-0.0036296069403178987
1772565977336895500,5.4338955078125,0.11111118148863315,-0.008539668445498682,-0.00003102532592602074
1772565977346923500,5.443923583984375,0.10123743772804736,-0.0054175269701285285,0.0034057807223405686
1772565977356952300,5.453952392578125,0.10796937633156775,-0.005846027181041427,0.004643295761197805
1772565977366980600,5.463980712890625,0.11215806019306182,-0.00780383758477401,-0.004963705088291317
1772565977377009400,5.474009521484375,0.10871464174091815,-0.008711709677311592,-0.007687513162149116
1772565977387037400,5.484037353515625,0.10063362661600113,-0.008783898130687884,-0.009658018650673329
1772565977397065500,5.4940654296875,0.12113280928730964,-0.005311326649296097,-0.002471988737257197
1772565977407094500,5.504094482421875,0.11065934606790542,-0.008630607265117577,-0.0007456398686859757
1772565977417122600,5.51412255859375,0.10542378350198268,-0.007979527511820197,-0.00042066396432928737
1772565977427150600,5.524150634765625,0.11125965004861355,0.0020468906264053655,-0.00968408467369154
1772565977437179600,5.5341796875,0.10721885022521019,-0.0016842678590910508,0.0025557214979548006
1772565977447207400,5.54420751953125,0.1167950723439455,-0.0036270085578551515,-0.004977514417935163
1772565977457236500,5.554236572265625,0.10123217703104019,-0.011069579648762009,-0.012367414606688543
1772565977467264500,5.564264404296875,0.10273089115619659,-0.0014552037769928574,-0.0032663265858776866
1772565977477292500,5.57429248046875,0.10617430960834026,-0.002424094474921003,0.003573319308971986
1772565977487321600,5.584321533203125,0.09420447035133839,-0.004441402813815511,-0.0000032970687840133903
1772565977497349400,5.594349365234375,0.11036474703550338,-0.003315435557765886,0.00014638620074838398
1772565977507377400,5.60437744140625,0.10797112989723681,-0.0029590142023749647,-0.0007450644799508153
1772565977517406500,5.614406494140625,0.11066519128680229,-0.004918715169094503,0.001948056194698438
1772565977527434500,5.6244345703125,0.1058762034446001,-0.01282525507651735,-0.001100152394780889
1772565977537463600,5.634463623046875,0.10542787515521049,-0.006526565924263559,0.0017872852755710482
1772565977547491600,5.64449169921875,0.11395663404762744,-0.0005594422473572194,-0.0053676919124554835
1772565977557519400,5.654519287109375,0.09764905784726143,-0.007280978187872097,-0.006654096727492288
1772565977567548400,5.66454833984375,0.1010924762994051,-0.004218165684305131,0.010477335676923393
1772565977577576400,5.674576416015625,0.10752630873918533,-0.009769160008104518,-0.0018116981976199894
1772565977587604500,5.6846044921875,0.11216273636817932,-0.009424397124466485,0.0010608432976994663
1772565977597633500,5.694633544921875,0.09510229597389698,-0.004290564200235531,-0.00887667728094384
1772565977607661600,5.70466162109375,0.1103641625136137,-0.001772553497320041,0.0022176760494709014
1772565977617689600,5.714689697265625,0.11515373487770557,-0.004791558825201355,-0.002559256028756499
1772565977627718400,5.724718505859375,0.1058762034446001,-0.009283015892398543,-0.008254946919716894
1772565977637746700,5.73474658203125,0.09704758482277392,-0.004878469923674128,-0.0018381569462828336
1772565977647775500,5.744775390625,0.10752221708595752,-0.007250752012967132,-0.00321014855238609
1772565977657803500,5.754803466796875,0.10737199496030807,-0.0037471780385356394,0.0016692118538543582
1772565977667831300,5.764831298828125,0.09899521175920963,-0.004871989950537681,-0.005204482441069558
1772565977677859600,5.774859619140625,0.10363280843198298,-0.00858660372660961,0.0011370138064492493
1772565977687887600,5.7848876953125,0.10228782356381416,-0.007503845424624159,0.006867593347700312
1772565977697915600,5.79491552734375,0.10123860677182674,0.0004673389505362138,-0.0012594985418021678
1772565977707944700,5.80494482421875,0.10109013821184634,-0.004629504697863013,0.0008816508058924228
1772565977717972500,5.814972412109375,0.10363280843198298,0.00048403892358765005,-0.0014336221328470856
1772565977728001500,5.82500146484375,0.11021744751930236,-0.004867665401869453,-0.0029811712352558967
1772565977738029600,5.835029541015625,0.10752572421729564,-0.00698321908400394,-0.0037709881723858416
1772565977748057600,5.8450576171875,0.09570610708594321,-0.011575766472076065,-0.0029226185815874484
1772565977758086700,5.855086669921875,0.10318506466448306,-0.0033693348692031577,-0.001295921562053263
1772565977768114700,5.86511474609375,0.09929565601050853,0.00040995990722440183,-0.004643113098107278
1772565977778142700,5.875142822265625,0.11799977195858954,-0.009852792304102331,-0.00880886360858567
1772565977788171500,5.885171630859375,0.11126374170184135,-0.005248686908977106,-0.006540370687330141
1772565977798199600,5.895199462890625,0.10348200178444385,-0.006420479767862707,-0.0009365958635229617
1772565977808228600,5.905228515625,0.1075233861297369,-0.007669767442904412,0.0005421988516114652
1772565977818256600,5.915256591796875,0.10857260292172431,-0.0014284208013443276,-0.007192322656884789
1772565977828284400,5.925284423828125,0.10587971057593822,-0.0012710885148961096,-0.005293265836220235
1772565977838313500,5.9353134765625,0.10677695167660713,-0.0053944063894450665,0.0014394399522803722
1772565977848341500,5.945341552734375,0.10752513969540595,-0.007611351786553859,0.005084034399176016
1772565977858369500,5.95536962890625,0.10842413436174392,-0.0059494464563205835,-0.008747086951369418
1772565977868398600,5.965398681640625,0.108573187443614,0.0030906457919860257,0.0005490578506607562
1772565977878426600,5.975426513671875,0.10348317082822323,-0.008027408074424602,-0.009273156652087345
1772565977888455700,5.98545556640625,0.09674889413714409,0.0026660500046331434,0.004578559961915016
1772565977898483500,5.9954833984375,0.10348433987200259,-0.0029053249534917993,0.0018713102972134946
1772565977908511700,6.00551171875,0.10947159758806228,-0.007607077470235526,-0.007589861473953351
1772565977918540500,6.01554052734375,0.11830080073177814,-0.005873006519512273,-0.003259074861183762
1772565977928568600,6.025568603515625,0.10169102671444416,-0.008733460284816101,0.004491977657005191
1772565977938596600,6.0355966796875,0.11022153917253016,-0.012686042968649416,0.004889142014738172
1772565977948625700,6.045625732421875,0.10932605163753031,-0.00849292952721007,0.001741108046285808
1772565977958653700,6.05565380859375,0.11546236243546008,-0.008937074831826613,-0.0022350564425345507
1772565977968682500,6.0656826171875,0.10603285531103611,-0.0014341198897687717,0.0029110468748025594
1772565977978710500,6.07571044921875,0.10827858841121196,-0.004369958712533116,0.008343620717013254
1772565977988738600,6.085738525390625,0.11650865661799907,-0.010843945066188462,-0.00032475670864805576
1772565977998767600,6.095767578125,0.11441314564347266,-0.00813003733183723,-0.0014976638123858719
1772565978008795400,6.10579541015625,0.10468377878963947,-0.005758613759069703,-0.0000051145665347576134
1772565978018823700,6.11582373046875,0.10767711538672446,-0.00007540789034683257,0.003170136202406138
1772565978028852700,6.125852783203125,0.10528232920467853,-0.003280647372175008,-0.003268408945109695
1772565978038880500,6.135880615234375,0.11336275980770587,-0.008636689946032129,0.0005932714517228305
1772565978048908500,6.145908447265625,0.11620412071347236,-0.0011656736453529446,-0.0006999649628996849
1772565978058937600,6.1559375,0.10183774170875548,-0.005842702712793834,0.0018526969282887874
1772565978068965600,6.165965576171875,0.10572656584084034,0.0007509873306611552,0.0027789814603514968
1772565978078994400,6.175994384765625,0.11230828231871127,0.010402489475579932,0.0010292973819654434
1772565978089022700,6.186022705078125,0.10258066903054713,-0.006919624929036945,0.0017632376797031611
1772565978099050500,6.196050537109375,0.10677052193582057,-0.0007865975001594051,-0.006334180590743198
1772565978109079600,6.20607958984375,0.10722001926898955,-0.000800105435703881,-0.0048408641599118705
1772565978119107600,6.216107666015625,0.11440496233701705,-0.008278916883771307,0.0006066697894129902
1772565978129135600,6.226135498046875,0.11395546500384807,-0.0035787946351105346,-0.008596800893638283
1772565978139164700,6.23616455078125,0.10497662425637244,-0.009279527027369476,-0.0017436196637805551
1772565978149192400,6.2461923828125,0.1042249291062355,-0.002504306404548697,-0.006000144597096369
1772565978159221800,6.2562216796875,0.09898819749653338,-0.005014800521288998,0.0035058800959493963
1772565978169249500,6.26624951171875,0.11260872657001018,-0.007034392148815095,-0.005875248708948492
1772565978179277600,6.276277587890625,0.11410802521705626,-0.0003554167083930224,-0.005359718668553978
1772565978189306600,6.286306640625,0.10228840808570384,-0.002899516267213039,-0.0036128841343801466
1772565978199334700,6.296334716796875,0.11082067410945892,-0.004294715218967758,-0.002435647915396839
1772565978209362400,6.306362548828125,0.10244096829891204,-0.00532559263666626,-0.0015449096207506953
1772565978219391500,6.3163916015625,0.10393792885839938,-0.004976290575228632,-0.004348541465168818
1772565978229419500,6.32641943359375,0.11007365513443947,-0.007022916340152733,-0.0018073782155290244
1772565978239448600,6.336448486328125,0.10588380222916602,-0.006586346987215802,0.0014839184148237108
1772565978249476600,6.3464765625,0.10154372719824313,-0.0032953974167350677,0.008809731258265674
1772565978259504600,6.356504638671875,0.11949731703996658,-0.0030599401264684275,-0.0031803105365484953
1772565978269533700,6.36653369140625,0.11291384699642658,-0.0072984727453673254,-0.0005630589765496551
1772565978279561500,6.3765615234375,0.10663082120418547,-0.003334615182271227,0.004572559479391202
1772565978289589800,6.38658984375,0.10992284848690033,-0.0003701621863758191,0.004889333810983225
1772565978299618600,6.39661865234375,0.10393675981462001,-0.0033287516970653087,0.00043590719923377035
1772565978309646600,6.406646484375,0.10947335115373134,-0.009627536747441627,0.00021588950669392941
1772565978319675600,6.416675537109375,0.11665712517797946,-0.01023051674242597,0.002826556062279269
1772565978329703700,6.42670361328125,0.10498480756282806,0.0038302166794892396,0.0056595692648086695
1772565978339731700,6.436731689453125,0.10797989772558211,-0.0030160461858147756,0.0032145689991768447
1772565978349760500,6.446760498046875,0.11426701517105102,-0.0020613803760614244,-0.0006800272865686565
1772565978359788500,6.45678857421875,0.10154664980769157,-0.0014147804350592196,-0.0011547229930758476
1772565978369816600,6.466816650390625,0.10738251635432243,-0.001653521094378084,-0.003420914359390735
1772565978379845600,6.476845703125,0.10573591819107532,-0.007818030506907962,0.0014890329813584684
1772565978389873400,6.486873291015625,0.10259411303400992,-0.006532465942087583,0.0031132914486341175
1772565978399901700,6.496901611328125,0.11456453681290149,-0.0011445258260471746,0.004570906378421932
1772565978409930500,6.506930419921875,0.11067512815892695,-0.00807910172904376,-0.0010052771855611354
1772565978419958500,6.51695849609375,0.10154723432958125,-0.012899818150070495,-0.00008987024053931236
1772565978429987600,6.526987548828125,0.11561083099544048,-0.008642293136334047,-0.002694901639781892
1772565978440015600,6.537015625,0.10049743301570414,0.003270281241787597,0.0037794089408591386
1772565978450043600,6.547043701171875,0.11247019488215446,0.004614393893699161,-0.0012030465136747806
1772565978460072400,6.557072509765625,0.10858020170629024,-0.003369092840608209,-0.008485787400370464
1772565978470100700,6.567100830078125,0.10663549737930297,-0.0021761430292623115,-0.0050382042297627775
1772565978480128500,6.57712841796875,0.10109832151830196,-0.006790486690611578,-0.0034391715352889147
1772565978490157600,6.587157470703125,0.099153032669425,-0.0024923648050054906,-0.004919089628430083
1772565978500185600,6.597185546875,0.10723404779434204,-0.006879397949925623,-0.0030079131117090583
1772565978510214700,6.607214599609375,0.10917992116510868,-0.008878668308630586,0.003285844137100503
1772565978520242700,6.61724267578125,0.11725918272435665,0.003210596076957881,-0.003197617864375934
1772565978530270500,6.6272705078125,0.10468962400853633,-0.008412338571669533,-0.008265961504075676
1772565978540299800,6.6372998046875,0.10244505995213984,-0.009160558556509204,-0.001958495390322059
1772565978550327600,6.64732763671875,0.10842997958064078,-0.002881807080586441,0.0012928619552869348
1772565978560355600,6.65735546875,0.10214169309139251,-0.0019132908419938757,-0.0011456720369402318
1772565978570384400,6.66738427734375,0.09929974766373634,-0.006193424979760311,-0.008300439162412658
1772565978580412700,6.67741259765625,0.10947568924129009,-0.00894572849574033,0.002029505666764453
1772565978590441500,6.68744140625,0.10663082120418547,-0.002537258826079778,0.0006412479124497622
1772565978600469500,6.697469482421875,0.11156827760636806,-0.004160138187021948,0.0011249671756289898
1772565978610497500,6.70749755859375,0.11007248609066009,0.0031600714661180972,0.0019078429153189063
1772565978620526600,6.717526611328125,0.11441314564347266,-0.0018737990818219257,-0.0008914141480810939
1772565978630554600,6.7275546875,0.11231646562516688,-0.00412671540803276,0.005596093840850517
1772565978640582700,6.737582763671875,0.11261574083268641,-0.007255291190766729,-0.003676012498466298
1772565978650611700,6.74761181640625,0.10872457861304283,-0.00951645475551486,-0.004470496477559208
1772565978660639500,6.757639404296875,0.10169219575822352,-0.01212387447466608,-0.0001088763351086527
1772565978670667800,6.767667724609375,0.10453589475154876,0.0020683900721604003,0.003064611735008657
1772565978680696800,6.77769677734375,0.10797755963802337,-0.007526262752409093,0.002405252777133137
1772565978690724600,6.787724609375,0.10737900922298431,-0.007258332531224004,-0.003718673463258892
1772565978700753700,6.797753662109375,0.10304068775773048,0.0055018716521793975,-0.00899728058646433
1772565978710781700,6.80778173828125,0.10678279689550399,-0.009766502260137349,-0.005457699150312692
1772565978720809700,6.817809814453125,0.10618600004613399,-0.01027387639353983,-0.0025401403363328424
1772565978730838500,6.827838623046875,0.10214578474462031,-0.004423593162489124,0.0004323726684320718
1772565978740866600,6.837866455078125,0.11187222898900508,-0.0023206660664873194,0.001613645741716027
1772565978750894600,6.84789453125,0.11381693331599235,-0.00807907432958018,0.007972266653971745
1772565978760923600,6.857923583984375,0.10947744280695915,-0.011377540486236102,-0.0016835600396152585
1772565978770951400,6.867951416015625,0.11261866344213485,-0.006588767273165285,-0.0028094313975423574
1772565978780980500,6.87798046875,0.11830547690689563,-0.005920663319830782,-0.0015080299427732825
1772565978791008800,6.8880087890625,0.10917407594621181,-0.002592276948946528,-0.0003548139201942831
1772565978801036500,6.89803662109375,0.11276713200211524,0.005175580573570915,0.0008156272318214177
1772565978811065600,6.908065673828125,0.11710311537981033,-0.0040183048638049515,0.004877917367825284
1772565978821093600,6.91809375,0.11067103650569915,-0.004191784567455761,-0.00041637138170190155
1772565978831121700,6.92812158203125,0.10723170970678329,-0.004670763723435812,-0.009144360906956717
1772565978841150500,6.938150390625,0.10543664298355579,-0.0062703352740267285,-0.004468267987854779
1772565978851178800,6.9481787109375,0.10947685828506946,-0.005214387347153388,0.004194200286827981
1772565978861207800,6.958207763671875,0.11321662933528423,0.001264731839345768,-0.0021044888654258103
1772565978871235600,6.968235595703125,0.10678162785172461,-0.0124757201196393,-0.008140745955519378
1772565978881263600,6.978263671875,0.11246785679459571,-0.009120176313770935,-0.0007864376699551939
1772565978891292700,6.988292724609375,0.11531097126603126,0.000940614451514557,0.005943765634205192
1772565978901320700,6.99832080078125,0.11336451337337493,-0.006275746668083593,0.005958908404409885
1772565978911348500,7.008348388671875,0.10708090305924416,-0.013238178692385553,0.001857838894287124
1772565978921377500,7.01837744140625,0.1063338840842247,-0.011715955827478319,-0.0025554840359371155
1772565978931405600,7.028405517578125,0.10618483100235461,-0.004893032738566398,-0.0044391606243792915
1772565978941433600,7.03843359375,0.11486322749853134,-0.008348908813484013,-0.0008290529689751564
1772565978951462400,7.04846240234375,0.11127134048640727,-0.0017764031219528987,-0.005490021384181454
1772565978961490700,7.05849072265625,0.10633563764989376,-0.004902860012836754,-0.0021092837715521455
1772565978971519700,7.068519775390625,0.10768354512751102,-0.0017739371702307834,0.001873904113098979
1772565978981547500,7.078547607421875,0.1124731174916029,-0.006855788745475001,0.0006625829614233226
1772565978991575800,7.088575927734375,0.10813187341690063,-0.008516716828173957,0.0015252733385190368
1772565979001604600,7.0986044921875,0.10079670822322367,0.0037731435968540606,0.005582485440606251
1772565979011632600,7.108632568359375,0.10528642085790633,-0.010001598790800198,0.00427466337820515
1772565979021660700,7.11866064453125,0.11411445495784282,-0.0034888787287985904,0.0031804566670209167
1772565979031689700,7.128689697265625,0.10827800388932228,-0.0032311548077967015,-0.000594111701939255
1772565979041717500,7.138717529296875,0.10438742619156836,-0.011481526017095893,-0.0031079576863907274
1772565979051746600,7.14874658203125,0.10513736777603626,-0.002092218472319655,0.008769481446268037
1772565979061774800,7.15877490234375,0.11112111836075782,-0.0072910474907374005,0.008474992011720315
1772565979071802600,7.168802734375,0.11411270139217376,-0.008490536640724166,0.005113991146022454
1772565979081831700,7.178831787109375,0.11949848608374596,-0.0006987091541523113,0.0008594389740843325
1772565979091859500,7.188859375,0.10857611005306243,-0.0018290648909518494,-0.0016584255983587354
1772565979101887700,7.1988876953125,0.10244155282080172,-0.005525330159580334,-0.0011796930375508963
1772565979111916500,7.20891650390625,0.10797931320369243,-0.005463727032300084,0.0035181276561692355
1772565979121944600,7.218944580078125,0.11456219872534275,-0.00946068771397695,-0.00005264350268989801
1772565979131973600,7.2289736328125,0.10423603502213954,-0.0038297919878037645,-0.002041862824838608
1772565979142001700,7.239001708984375,0.10752923134863376,-0.0029013428981183097,0.0018885536929592489
1772565979152029400,7.249029541015625,0.10274024350643157,-0.0009621367301559075,0.0024851587460841982
1772565979162058500,7.25905859375,0.10782558394670486,-0.007915330568654462,-0.0047637620694004
1772565979172086800,7.269086669921875,0.10872399409115314,-0.008740511080110445,0.0005717172070406377
1772565979182114600,7.279114501953125,0.10423661954402923,-0.005462124163680709,-0.0062232675621751695
1772565979192143600,7.2891435546875,0.10199614714086055,-0.0005640681901248172,-0.004812597046652808
1772565979202171600,7.299171630859375,0.09885434198379515,0.0010505456659710033,0.00002770085767842829
1772565979212199700,7.30919970703125,0.10918109020888805,-0.005567698863428085,0.0016818338734097779
1772565979222228500,7.319228515625,0.11785890218317507,-0.007806321802805177,0.004435616960423067
1772565979232256800,7.3292568359375,0.10484101517796515,-0.0016522241864353417,0.0005717172070406377
1772565979242285800,7.339285888671875,0.1064864442974329,-0.011004396324907429,-0.0020238248446490617
1772565979252313600,7.349313720703125,0.10843582479953766,-0.012101009622309356,-0.0009408793129958211
1772565979262341600,7.359341552734375,0.11367606354057788,-0.009154201880958862,0.0007162402442656457
1772565979272370700,7.36937060546875,0.10634382095634937,-0.0062609144251327955,-0.0006515592439100146
1772565979282398700,7.379398681640625,0.10439619401991367,-0.0035849047154886647,0.0034006844221148636
1772565979292426500,7.389426513671875,0.10319909318983554,-0.011737144745979457,0.006732230864465236
1772565979302455600,7.39945556640625,0.11412439182996749,-0.0035706980936229225,0.000959173021512106
1772565979312483600,7.409483642578125,0.11098200215101242,-0.0038916234439471736,-0.003585466404492035
1772565979322512600,7.4195126953125,0.11337561928927897,-0.001224071035394445,-0.009604516631457954
1772565979332540400,7.42954052734375,0.12205284674167632,-0.0027739490922074764,0.001678582470398396
1772565979342568700,7.439568603515625,0.10214753831028937,0.0032186515192501246,0.0015043310151901096
1772565979352597800,7.44959765625,0.1069347725868225,0.001170651214569807,0.0039547289751470085
1772565979362625500,7.45962548828125,0.10020049589574337,-0.007510279731987975,-0.0054822125370614224
1772565979372653800,7.46965380859375,0.10977847158014774,-0.00039828316916245963,-0.0026204572972375897
1772565979382682600,7.4796826171875,0.1006476551413536,-0.012333398172655143,0.008911529398616403
1772565979392710700,7.489710693359375,0.11052373698949813,-0.003250521661969833,-0.002116261501610279
1772565979402739500,7.499739501953125,0.1109738188445568,0.001486019040364772,-0.003732391461357474
1772565979412767700,7.509767822265625,0.10334171653091907,-0.011207759710168465,-0.005730013285670429
1772565979422795500,7.51979541015625,0.11650924113988875,-0.00017521500301081685,-0.002474043697025627
1772565979432824600,7.529824462890625,0.10364040721654891,0.005990591317461803,0.0009645615826826543
1772565979442852600,7.5398525390625,0.11127192500829695,-0.002502804000629112,-0.0002735653775278479
1772565979452880600,7.549880615234375,0.11157003117203712,-0.0018714564276859163,0.0018969196625053882
1772565979462909700,7.55990966796875,0.10573474914729594,-0.0022972212588181717,0.00043547794097103176
1772565979472937500,7.5699375,0.1109691426694393,-0.006057962031825445,0.0016660700486972927
1772565979482965800,7.5799658203125,0.10348609343767165,0.0001857911959523335,-0.0067638315791264175
1772565979492994600,7.58999462890625,0.10468260974586009,-0.005697284626425244,-0.003788240701286122
1772565979503022600,7.600022705078125,0.10752397065162658,-0.007749344618292525,0.0034824992203619327
1772565979513051400,7.610051513671875,0.10497954686582088,-0.004490909077925607,0.01016629696637392
1772565979523079700,7.62007958984375,0.10752163256406784,-0.003746269289660267,0.006385581984417512
1772565979533107500,7.630107421875,0.09734335289895533,-0.0003905199878150597,0.0028000151152256874
1772565979543136500,7.640136474609375,0.09689268652200698,-0.004457390400813892,-0.0010915124305989593
1772565979553164800,7.650164794921875,0.10138298367857933,-0.00189191926040221,-0.0031528836735058574
1772565979563192600,7.660192626953125,0.10946458332538604,-0.003373029230209067,0.009789079418126493
1772565979573221600,7.6702216796875,0.11664485021829604,0.00012938940017484128,-0.0019625870435498655
1772565979583249700,7.680249755859375,0.10272796854674815,-0.001307123376079835,-0.004748938959604129
1772565979593278700,7.69027880859375,0.10392331581115723,-0.002942537991609424,-0.007704016772378235
1772565979603306500,7.700306396484375,0.10511924759745597,-0.0024209892023820427,-0.000042003377666696904
1772565979613334500,7.71033447265625,0.1058674356162548,-0.005201431967457756,-0.004679727914603427
1772565979623363800,7.72036376953125,0.1048217259556055,-0.008991512999380937,-0.0008302220127545297
1772565979633391600,7.7303916015625,0.11320143176615237,-0.011226126483920962,-0.0014111637058667839
1772565979643419600,7.740419677734375,0.11380056670308113,-0.005988824052060954,0.0011471790074370802
1772565979653448700,7.75044873046875,0.103026659232378,-0.006278335917391814,-0.001282952482625842
1772565979663476700,7.760476806640625,0.10931026954650878,-0.007565891509898938,0.00180819106628187
1772565979673505300,7.77050537109375,0.10377075559794902,-0.008030595545354298,0.0075934873363003134
1772565979683533300,7.780533203125,0.11185118620097637,-0.005616479041753337,0.0007289444622118026
1772565979693561300,7.790561279296875,0.11020400351583957,-0.013848332780250347,0.012301244902145117
1772565979703590400,7.80059033203125,0.10990414378643035,-0.014305196002544835,-0.008503076461888848
1772565979713618200,7.8106181640625,0.1075099421262741,-0.001585063534625806,-0.00015144596835598348
1772565979723646500,7.820646484375,0.09778408240377902,-0.006858679388882592,0.0013482636706437915
1772565979733675500,7.830675537109375,0.1125987896978855,0.0009697766139172017,0.002558580175321549
1772565979743703300,7.840703369140625,0.10137421585023403,-0.008524461743212305,0.007730438988422975
1772565979753731600,7.850731689453125,0.11573942581117153,-0.01002560985404998,-0.0029257147209718823
1772565979763760400,7.860760498046875,0.11558745011985301,-0.0008203719055978581,-0.0031840368635952473
1772565979773788400,7.870788330078125,0.11079904679954052,-0.004475391848385334,0.004570833313185721
1772565979783817200,7.880817138671875,0.10526303998231887,-0.0005870106742950156,-0.00340399975720793
1772565979793845500,7.890845458984375,0.0988309611082077,-0.004733736823895014,-0.0005734159737825394
1772565979803873300,7.900873291015625,0.09868132350444793,-0.0001046887837583199,-0.010448502308083698
1772565979813902300,7.91090234375,0.10750877308249474,-0.008073507671896367,-0.0033124490162357687
1772565979823930400,7.920930419921875,0.10915478672385215,-0.0044101217595627525,-0.00036275063147768374
1772565979833958400,7.93095849609375,0.11289631133973597,-0.007538898471696302,-0.006325184433534741
1772565979843987500,7.940987548828125,0.11573884128928184,-0.0027124920953996478,-0.005908968315459787
1772565979854015200,7.95101513671875,0.11558978820741175,-0.008863087147008628,-0.002411134528648108
1772565979864044500,7.96104443359375,0.11364274579286575,-0.009396321807452477,0.0127544502960518
1772565979874072300,7.971072265625,0.11184651002585887,-0.003198293717810884,0.0008580781340599059
1772565979884100400,7.981100341796875,0.11229308474957943,-0.003762480638944544,-0.00878938258998096
1772565979894129200,7.991129150390625,0.1079547632843256,-0.006993580647814087,-0.00934140871586278
1772565979904157400,8.001157470703125,0.12186989139020442,-0.002939113058662042,-0.008480280108191072
1772565979914185200,8.011185302734376,0.10571195279359817,-0.005198714853986166,0.0008700973654165863
1772565979924214300,8.02121435546875,0.10466565861105918,-0.0009729229856515303,-0.002977317044045776
1772565979934242600,8.03124267578125,0.09823124164938926,-0.004523738201870583,0.005999167349562048
1772565979944271400,8.041271240234375,0.10466565861105918,-0.0017095484308199955,-0.007179207446984946
1772565979954299400,8.05129931640625,0.10332067374289035,-0.004837302229646593,0.0024284875222481787
1772565979964327400,8.061327392578125,0.09628478375673294,-0.011556915641133673,-0.002389580283965915
1772565979974356500,8.0713564453125,0.11453881784975528,-0.0019444394655060023,-0.005435523851122706
1772565979984384300,8.08138427734375,0.10690730005800723,-0.00840758933131583,-0.0023041670228354633
1772565979994412500,8.09141259765625,0.10451251387596129,-0.016905505560897288,-0.007268566230870783
1772565980004441300,8.10144140625,0.11169511885643005,0.0006009478681022301,-0.000917863763589412
1772565980014469400,8.111469482421874,0.11513736826479434,-0.0035933848494663833,-0.0017688911023549735
1772565980024497200,8.1214970703125,0.1055582235366106,-0.0064614008667180315,-0.007729114681016653
1772565980034526500,8.1315263671875,0.10855214465558528,0.0015117060374701394,-0.004781900514289736
1772565980044554500,8.141554443359375,0.11573650320172309,-0.006648087111813947,0.0018808818431571125
1772565980054583300,8.151583251953125,0.11049977159202098,-0.006305018428340554,0.00019281915836036204
1772565980064611300,8.161611328125,0.10077508091330528,-0.005121215471252799,-0.0038972631668671965
1772565980074639400,8.171639404296876,0.1093050088495016,-0.003086855532857589,-0.008996796529274433
1772565980084668400,8.18166845703125,0.10511690950989723,-0.0056693691396154456,-0.0010638207060750574
1772565980094696200,8.1916962890625,0.10990765091776847,-0.009687080348376184,0.003710718485666439
1772565980104724500,8.201724365234375,0.10796177754700183,-0.005937577922013588,-0.0069599569394253194
1772565980114753500,8.21175341796875,0.10466799669861793,-0.00983877291190438,-0.010962306182272731
1772565980124781300,8.22178125,0.1134966153204441,-0.005562913090456277,-0.0012601652620825917
1772565980134810400,8.231810302734376,0.10751111117005348,0.0021439075603615493,0.009091808735812083
1772565980144838400,8.24183837890625,0.11678864260315894,-0.0034751333312364294,-0.00128155510998331
1772565980154866400,8.251866455078124,0.11544307321310043,-0.004633747048140503,-0.0019521569810807705
1772565980164895200,8.261895263671875,0.10781213994324207,-0.004575399890448898,-0.006896499781776219
1772565980174923500,8.271923583984375,0.11005611947774886,-0.00411138997473754,-0.006469470008742064
1772565980184951300,8.281951416015625,0.10302315210103988,-0.003601216529472731,-0.0027014592447318136
1772565980194980400,8.29198046875,0.10601473513245582,0.0011070798924891277,-0.0115765930225607
1772565980205008400,8.30200830078125,0.10526654711365699,-0.0016291584046790376,-0.00800959385652095
1772565980215036400,8.312036376953126,0.10721300500631331,-0.0015126193529227748,0.0013800013826228677
1772565980225065500,8.3220654296875,0.097039986038208,-0.0034478023663163182,0.004633550685318187
1772565980235093200,8.33209326171875,0.10976093592345713,0.0004951950718415901,-0.015683361621107905
1772565980245122600,8.34212255859375,0.09883972893655299,0.00034186310707591473,-0.011982406477630138
1772565980255150300,8.352150390625,0.09838847803771496,-0.01102991435865406,0.0013977562350220977
1772565980265178400,8.362178466796875,0.11215689114928244,-0.01789165335430298,-0.0014930424361955374
1772565980275207200,8.372207275390625,0.09734159933328627,-0.009641652037762105,-0.0013032646182924508
1772565980285235500,8.3822353515625,0.10511983211934565,-0.008104359467886388,0.0005973631049506366
1772565980295263200,8.39226318359375,0.11364625292420387,-0.0040477090548025445,0.0009336823872290552
1772565980305292300,8.402292236328124,0.1022726259946823,-0.003642393356654793,0.0067473371020518235
1772565980315320600,8.412320556640625,0.1097539216607809,-0.004087063817656599,-0.003133640116918832
1772565980325349400,8.422349365234375,0.10062719687521457,-0.0018705750782741233,0.0013473777546547353
1772565980335377400,8.43237744140625,0.09808335761129855,-0.00287494808153715,0.0014043321062810717
1772565980345405400,8.442405517578125,0.11289864942729473,-0.0018560670623090118,-0.004545351812057197
1772565980355434500,8.4524345703125,0.11125322030782699,-0.007244943326688371,0.0035813656181097027
1772565980365462300,8.462462158203126,0.10527005424499511,-0.0024143265661550686,-0.0000858881851658225
1772565980375490300,8.472490234375,0.11170447120666503,0.003878416902502067,-0.005334913020860404
1772565980385519400,8.482519287109374,0.12457096704244613,-0.0011849263350944966,-0.003980064345803111
1772565980395547400,8.49254736328125,0.10227496408224106,-0.0027864249812904742,0.005408160920161754
1772565980405576400,8.502576416015625,0.11619126123189925,-0.0008127411549910902,-0.0041932504387572405
1772565980415604500,8.5126044921875,0.11110416722595691,0.0057599700325168665,-0.005242631627526134
1772565980425632500,8.522632568359375,0.11290157203674316,-0.008040299522038549,-0.011178981140255928
1772565980435661300,8.532661376953126,0.1100584575653076,-0.0043972257453715425,0.000025938158854842185
1772565980445689300,8.542689453125,0.1073661497414112,0.0038007302901009094,-0.00420627431711182
1772565980455717400,8.55271728515625,0.1045253733575344,-0.009103841666900552,-0.009003335867915302
1772565980465746400,8.562746337890625,0.10213175621926784,-0.011015241945907472,0.00044094870053231714
1772565980475774200,8.572774169921875,0.10647066220641135,-0.004121632807538844,-0.0020507402510382233
1772565980485802500,8.582802490234375,0.10542144541442394,0.0006196525685722008,-0.003286145531199872
1772565980495831600,8.59283154296875,0.10422317554056644,-0.00046670876287389543,0.004811802462209015
1772565980505859300,8.602859375,0.11394786621928214,-0.00893616608295124,-0.013973269767593591
1772565980515888400,8.612888427734376,0.11409516573548316,-0.008142823748174124,-0.00029903774550184606
1772565980525916400,8.62291650390625,0.10631167225241661,-0.006374964692280627,0.0018021723174490034
1772565980535944400,8.6329443359375,0.10915420220196247,-0.00602153901157435,-0.0025327333480119705
1772565980545973200,8.64297314453125,0.10630933416485785,-0.004807751908176578,-0.007720785244088619
1772565980556001500,8.65300146484375,0.11229542283713817,-0.004382649230747483,-0.0011116327700205146
1772565980566029300,8.663029296875,0.11349018557965755,-0.0030433588844258337,0.004285878891963512
1772565980576058400,8.673058349609375,0.11393851386904716,0.00018196897078305482,-0.004759834812954068
1772565980586086400,8.68308642578125,0.10166823036074638,-0.0031997595891123634,-0.005837711443845183
1772565980596115500,8.693115478515624,0.11064999371767044,-0.003707987672463059,-0.013647161352075636
1772565980606143500,8.7031435546875,0.11079846227765083,-0.004161480760737322,-0.00277724616099149
1772565980616171300,8.713171142578124,0.100473467618227,-0.0025833949561696497,-0.007355148535780608
1772565980626200300,8.723200439453125,0.10061901356875896,-0.0044317719023674726,0.0038119412372820075
1772565980636228400,8.733228271484375,0.10779694237411022,-0.005121183505211956,-0.0025833858230151236
1772565980646256400,8.74325634765625,0.10300853905379771,-0.00024391915793530643,-0.010351955731585621
1772565980656285200,8.75328515625,0.10615268229842185,-0.0036774646700359877,-0.0033574754680506884
1772565980666313500,8.7633134765625,0.10615443586409092,-0.008717463564663193,-0.0023171178359538314
1772565980676342500,8.773342529296874,0.11034604233503341,-0.009890124073228798,-0.000263034850358963
1772565980686370600,8.78337060546875,0.1134878474920988,-0.004298519177827984,-0.007813779023475945
1772565980696398600,8.793398681640625,0.11752747827172279,-0.005575649274443276,0.0011826521796174346
1772565980706427600,8.803427734375,0.1036105966001749,-0.006189849349763244,0.0003930179055780172
1772565980716455700,8.81345556640625,0.10959668527245521,0.0008085353373317048,-0.003012406623736024
1772565980726483500,8.8234833984375,0.11259177543520926,-0.0009221061138669028,-0.004064765220880508
1772565980736512800,8.8335126953125,0.10256664050519466,-0.006463560857763513,-0.00509752406841144
1772565980746540500,8.84354052734375,0.11094400822818279,-0.005228342807269655,-0.007879263741429894
1772565980756568600,8.853568603515624,0.11109364583194255,-0.002222639918955974,-0.0017439027915708719
1772565980766597600,8.86359765625,0.10840133800804615,0.0007924655519425868,-0.0013697905158624052
1772565980776625700,8.873625732421875,0.11139350556135177,-0.0039124790023081,0.00009434548625722527
1772565980786654500,8.883654541015625,0.1069043774485588,0.0016671203614678234,-0.005078399242833256
1772565980796682500,8.8936826171875,0.10660568676292896,-0.001961029840703122,0.00034972675312310453
1772565980806710500,8.90371044921875,0.11154372768700122,-0.00916058138939552,-0.003960574194043874
1772565980816739600,8.913739501953126,0.118424134850502,-0.007934770488063804,-0.01030132152289152
1772565980826767600,8.923767578125,0.111243867957592,-0.00422712074231822,-0.010062726994045078
1772565980836795600,8.933795654296874,0.10899813485741615,-0.0031191595004172994,-0.002907594542391598
1772565980846824700,8.94382470703125,0.09179097946882248,-0.0046726268869591876,-0.0013214030631817876
1772565980856852500,8.9538525390625,0.10046937596499919,0.00082526270984672,-0.0020934468816034496
1772565980866881500,8.963881591796875,0.10705576861798763,-0.0045831722049508245,-0.0036712906575761734
1772565980876909600,8.97390966796875,0.1140893205165863,-0.008161272720317355,0.0026465141871012746
1772565980886937600,8.9839375,0.10316869805157183,-0.003591284223925322,0.011196425465401262
1772565980896966700,8.993966552734374,0.10930559337139129,-0.0025323725884081796,-0.005008256616070866
1772565980906994700,9.00399462890625,0.12112871763408184,0.0017853581799659878,-0.0027079985833726823
1772565980917022500,9.0140224609375,0.10317395874857901,-0.004966956491302699,-0.002669904195843264
1772565980927051500,9.024051513671875,0.11170330216288565,-0.0012352271836483851,-0.0007286248018033802
1772565980937079600,9.03407958984375,0.09973054029643535,-0.005904894928541034,-0.0043854485426098105
1772565980947107600,9.044107666015625,0.09868541515767573,-0.0024248662264784795,-0.009154434776399285
1772565980957136600,9.05413671875,0.11484627636373042,0.0014101818917552009,-0.0008913776154629886
1772565980967164400,9.064164306640626,0.11080606106221676,-0.006172217794950119,0.002436990489112213
1772565980977193500,9.074193359375,0.1040723688930273,-0.012450119887501932,-0.0015839903889689594
1772565980987221500,9.084221435546874,0.11020575708150863,-0.00012890990956220775,-0.0038985600748099383
1772565980997249500,9.09424951171875,0.09973054029643535,-0.007709332268312573,-0.013710892504360526
1772565981007278600,9.104278564453125,0.10691372979879378,-0.004843832435132935,0.003684378468012437
1772565981017306600,9.114306640625,0.10481821882426738,-0.0033742256734520196,-0.003949002487258986
1772565981027334700,9.124334716796875,0.1055669913649559,-0.009487593987211584,-0.008560651868022977
1772565981037363500,9.134363525390626,0.10796060850322246,0.0006462802805937826,-0.010410919377207756
1772565981047391700,9.144391845703124,0.0998807624220848,-0.002644358762633055,0.0003502199434675276
1772565981057420500,9.154420654296874,0.10003040002584457,0.002595724714780226,-0.0025404691298957912
1772565981067448600,9.164448486328125,0.1166384204775095,0.0006472164289327338,0.000017535656690597534
1772565981077476600,9.1744765625,0.11065291632711886,-0.006176437312341295,-0.0014265804707072674
1772565981087505700,9.184505615234375,0.10526537806987762,-0.0048048064658418295,-0.008508446756750344
1772565981097533400,9.194533447265625,0.11334756223857402,-0.0008770887952065095,-0.0009310337724164128
1772565981107561500,9.2045615234375,0.11110416722595691,-0.005447556782211177,0.0012081610802095384
1772565981117590800,9.2145908203125,0.10975742879211901,0.000008023476251401006,0.0027313063937239347
1772565981127618600,9.22461865234375,0.10825871466696262,-0.0029341172231361267,-0.001021707730554044
1772565981137646600,9.234646484375,0.10511457142233847,-0.0061817071425030005,-0.0017075345702469349
1772565981147675400,9.24467529296875,0.11423778907656669,-0.005248006488964892,-0.005547605923470109
1772565981157703700,9.25470361328125,0.10451134483218193,-0.0015509238030062987,0.002042429080419242
1772565981167732500,9.264732421875,0.10855214465558528,-0.00043948739580810067,0.011564820386376231
1772565981177760500,9.274760498046875,0.09852642520368099,-0.0031939965686062347,-0.0015922193611972034
1772565981187788500,9.28478857421875,0.11034604233503341,-0.0025774310062639414,-0.0005147263227961957
1772565981197817600,9.294817626953124,0.10630641155540943,0.00164635613465216,-0.012591478286683559
1772565981207845600,9.304845703125,0.11079437062442302,-0.003940376222808845,-0.010417677911557257
1772565981217873700,9.314873779296875,0.11378712269961833,0.00028940683405380695,-0.0038467568223364648
1772565981227902700,9.32490283203125,0.11618015531599521,0.0006959326751763001,-0.0019595365699380633
1772565981237930500,9.334930419921875,0.10899755033552647,-0.01072483503143303,-0.0008204678037203848
1772565981247959600,9.34495947265625,0.10824936231672763,-0.0065339774791616945,-0.011128072936926036
1772565981257987600,9.354987548828126,0.11019582020938395,-0.008419955622544512,-0.0012866970759816466
1772565981268015600,9.365015625,0.10256605598330497,-0.005526115610869601,-0.0025505064667202533
1772565981278044700,9.375044677734374,0.10885258890688419,-0.012237956707854755,-0.0005161510949023068
1772565981288072700,9.38507275390625,0.1145376488059759,-0.0070647142218425866,-0.008024681827798485
1772565981298100500,9.3951005859375,0.11094809988141059,-0.010740133065264671,-0.002272895101737231
1772565981308129500,9.405129638671875,0.1094493857562542,-0.0040798623253125695,-0.010403868581913412
1772565981318157600,9.415157470703125,0.11483926210105419,-0.0006526232564123347,-0.0015967859384603798
1772565981328186600,9.4251865234375,0.11424363429546355,-0.0006202416570391505,-0.0016419950533658266
1772565981338214700,9.435214599609376,0.11244973661601543,0.00018821604847908018,-0.003780450120475143
1772565981348242400,9.445242431640626,0.1034708958685398,-0.006193347347946837,-0.0028155506110750135
1772565981358271500,9.455271484375,0.10571604444682597,-0.010752604387770407,-0.002661583892069757
1772565981368299500,9.465299560546875,0.11065408537089824,-0.0065657151911407705,-0.007943816877622157
1772565981378327600,9.47532763671875,0.10197685791850089,-0.0048632038558833295,-0.010998108148016035
1772565981388356600,9.485356689453125,0.10870996556580066,-0.00764034955217503,0.0035928733928129075
1772565981398384600,9.495384521484375,0.10721534309387207,-0.007343238902278244,-0.0004842398529872298
1772565981408412700,9.50541259765625,0.10945873810648918,0.002992587678413838,0.0013929521957412362
1772565981418441500,9.51544140625,0.11170564025044441,0.00031192462653853,-0.00790657187346369
1772565981428469800,9.5254697265625,0.11155658716857432,-0.004688815403357148,0.00032743272292427714
1772565981438498600,9.53549853515625,0.11515081226825713,-0.010995112473331391,-0.0013459164499305188
1772565981448526600,9.545526611328125,0.09794307235777377,-0.0008338159090606496,-0.0033138372557237742
1772565981458554600,9.5555546875,0.10123509964048862,-0.0024197151273256164,0.002725853900471702
1772565981468583700,9.565583740234375,0.10781915420591831,-0.0010694375961087643,0.006775366753293201
1772565981478611500,9.575611572265625,0.11440320877134799,-0.00689891550114844,-0.0013295955027919262
1772565981488639500,9.585639404296876,0.10886369482278824,-0.005386761939106509,-0.009136095402110368
1772565981498668500,9.59566845703125,0.10706453644633293,-0.005306148150679655,-0.008133804758079349
1772565981508696600,9.605696533203124,0.09958382530212402,0.001603338976833038,-0.004284728114493191
1772565981518725600,9.6157255859375,0.11215279949605464,0.0023964164501288905,0.004944635061640292
1772565981528753400,9.62575341796875,0.11589490863382816,-0.008466813271841966,-0.006673559479787945
1772565981538781700,9.63578173828125,0.10526946972310543,-0.0024529187106061725,-0.000491674240771681
1772565981548810500,9.645810546875,0.1069172369301319,0.001379124599788338,0.0016760799860581755
1772565981558838500,9.655838623046876,0.1127519344329834,0.0007892963473219424,0.0014688487098552287
1772565981568866600,9.665866455078126,0.10796411563456058,-0.0016047728820936754,-0.002009732387214899
1772565981578895600,9.6758955078125,0.10182722031474113,0.005482637228746898,-0.0046149281832389534
1772565981588923600,9.685923583984374,0.12112813311219214,0.0003418128747260198,-0.0005445552054792642
1772565981598951700,9.69595166015625,0.10391922415792941,-0.0044956583182793105,0.005961721416004002
1772565981608980700,9.705980712890625,0.1127472582578659,-0.0006512487166561186,0.00654167672842741
1772565981619008500,9.716008544921875,0.10840893679261207,-0.0019603128880728033,0.0006792692347429692
1772565981629037600,9.72603759765625,0.10421791484355926,-0.0007059334793826565,-0.01092307015042752
1772565981639065600,9.736065673828126,0.10182488222718238,-0.002030149554158561,-0.003008844693470746
1772565981649093600,9.74609375,0.11244915209412575,-0.003231268972228281,-0.001660407492890954
1772565981659122400,9.756122314453124,0.12007950084209441,-0.0015277347236638888,0.000024422055203467605
1772565981669150500,9.766150390625,0.10616145012676716,0.0023408731708768754,-0.009950644921697676
1772565981679179300,9.77617919921875,0.1088560960382223,0.0002514266109559685,-0.01045165324639529
1772565981689208300,9.786208251953125,0.11514145991802215,0.0010830733958166092,-0.005389017828274518
1772565981699236000,9.796236083984375,0.1057148754030466,-0.0009387375882593914,0.00557224717438221
1772565981709265200,9.80626513671875,0.10915829385519027,-0.0012992688631871714,-0.0031403803849592805
1772565981719293200,9.816293212890624,0.10826163727641105,-0.00402474373774603,-0.00656186099993065
1772565981729321200,9.8263212890625,0.11275018086731434,0.003525534644490108,-0.0032776882301084696
1772565981739350300,9.836350341796875,0.10137713845968246,0.004350281331106089,-0.00675656158812344
1772565981749378300,9.84637841796875,0.10930793145895004,-0.004475432947580702,-0.01311312754061073
1772565981759406000,9.856406005859375,0.10616729534566402,0.0009921117433113976,-0.008104322935268282
1772565981769435100,9.86643505859375,0.11275427252054214,0.002299499980872497,-0.003936152138840407
1772565981779463200,9.876463134765626,0.10257774642109871,-0.003868626160849817,0.0013977379687130451
1772565981789491200,9.8864912109375,0.10512041664123535,-0.005504145807656459,-0.0037518268141895532
1772565981799520300,9.896520263671874,0.11140811860859394,-0.003408447603462264,-0.004400554780196398
1772565981809548000,9.906548095703124,0.10242401716411113,0.004275544727616943,-0.009686550625413655
1772565981819577300,9.916577392578125,0.1465536662697792,0.0030082738713128492,-0.015398279335722326
1772565981829605000,9.926605224609375,0.10628186163604258,0.00032925935382954773,0.0041748197329230605
1772565981839633200,9.936633056640625,0.12077858902215957,-0.001676020620553754,-0.00873591710338369
1772565981849662200,9.946662109375,0.1080459486991167,-0.0028672716651577503,-0.003806589208729565
1772565981859690200,9.956690185546876,0.07018178972899913,-0.012903539910539984,-0.0027359825688414276
1772565981869718300,9.96671826171875,0.0805091224759817,-0.003614445903804153,-0.008946984304487704
1772565981879747000,9.9767470703125,0.07932254303991794,-0.0024229162979871035,0.003333911929372698
1772565981889775400,9.986775390625,0.09460077619254588,-0.0038935733724385496,0.011140877619571983
1772565981899804200,9.99680419921875,0.09043196607530117,-0.0053367259520338845,0.0020202537812292576
1772565981909832200,10.006832275390625,0.09762918410301208,-0.005743836315046064,-0.0024435206945985556
