time,seconds_elapsed,z,y,x
1772565924142770200,0.071770263671875,-0.001876735594123602,-0.001951274462044239,0.0016738995909690857
1772565924152798200,0.081798095703125,-0.000231168232858181,-0.0006729569286108017,-0.000827607698738575
1772565924162827300,0.0918271484375,0.0009697135537862778,-0.0008310591802000999,0.0011070724576711655
1772565924172855000,0.10185498046875,0.002884525805711746,-0.002461446449160576,-0.00019547995179891586
1772565924182884000,0.111884033203125,0.0005118846893310547,0.0013636117801070213,-0.002668366301804781
1772565924192912100,0.121912109375,0.002034946344792843,0.00027650967240333557,0.000038736965507268906
1772565924202940200,0.131940185546875,-0.0018267026171088219,-0.0011728527024388313,0.00044445600360631943
1772565924212969200,0.14196923828125,-0.0018512033857405186,-0.000293477438390255,-0.0010762088932096958
1772565924222997200,0.151997314453125,-0.002473847009241581,-0.0003062877804040909,-0.001895285677164793
1772565924233026300,0.1620263671875,-0.0010290821082890034,-0.00015022698789834976,-0.0019786423072218895
1772565924243054000,0.17205419921875,-0.0004635383374989033,0.00094591174274683,-0.0030137249268591404
1772565924253083100,0.182083251953125,0.000522363930940628,-0.0025958260521292686,0.0012976666912436485
1772565924263111200,0.192111083984375,0.0013292552903294563,-0.00003567151725292206,-0.0019293134100735188
1772565924273139200,0.20213916015625,0.001104750670492649,-0.0007432736456394196,-0.0013772398233413696
1772565924283168300,0.212168212890625,-0.00035475753247737885,-0.00008319318294525146,0.0011280993930995464
1772565924293196300,0.2221962890625,0.0005821427330374718,0.00055729690939188,0.0006045219488441944
1772565924303225300,0.232225341796875,-0.0018658004701137543,0.0018494809046387672,0.001047533005475998
1772565924313253000,0.242253173828125,-0.0012689861468970776,0.0030857203528285027,-0.0010917838662862778
1772565924323281400,0.252281494140625,0.0015472257509827614,-0.00024372804909944534,0.000023657456040382385
1772565924333310200,0.262310302734375,-0.00023363018408417702,-0.0015566665679216385,-0.0007108426652848721
1772565924343338200,0.272338134765625,0.0008664298802614212,0.0006288383156061172,-0.0005857301875948906
1772565924353367000,0.282366943359375,0.0009314101189374924,0.0005052676424384117,-0.0013133054599165916
1772565924363395300,0.292395263671875,-0.0006002942100167274,0.0005391379818320274,-0.0010983822867274284
1772565924373424400,0.30242431640625,-0.00008097756654024124,0.0006965305656194687,0.0006079054437577724
1772565924383452200,0.3124521484375,-0.0009051417000591755,-0.0018098307773470879,0.002860544715076685
1772565924393480200,0.322480224609375,0.00014387723058462143,-0.002388003282248974,-0.0005672094412147999
1772565924403509200,0.33250927734375,0.0005906485021114349,0.0012032194063067436,0.0006471229717135429
1772565924413537300,0.342537353515625,0.0008660200983285904,0.003149723634123802,0.0023424914106726646
1772565924423566000,0.352566162109375,-0.0001945430412888527,-0.00020335055887699127,0.0004337457939982414
1772565924433594000,0.362593994140625,0.00009361095726490021,-0.0019141649827361107,0.0006723655387759209
1772565924443623400,0.37262353515625,0.00038859713822603226,-0.0011209649965167046,0.0009461715817451477
1772565924453651200,0.382651123046875,0.00008952431380748749,0.00023431703448295593,-0.0026477640494704247
1772565924463679200,0.39267919921875,-0.0012407158501446247,-0.000823289155960083,0.0006365287117660046
1772565924473708000,0.4027080078125,0.000747067853808403,0.0042236680164933205,0.0015689018182456493
1772565924483736300,0.412736328125,0.0007349774241447449,-0.0017378684133291245,-0.0028831730596721172
1772565924493765000,0.42276513671875,0.0012068897485733032,0.0013809595257043839,0.0019217017106711864
1772565924503793200,0.432793212890625,-0.0005025416612625122,-0.0021608807146549225,-0.0014991769567131996
1772565924513822200,0.442822265625,-0.0018383832648396492,0.0011409064754843712,-0.002459512557834387
1772565924523850200,0.452850341796875,-0.000897443387657404,-0.000516427680850029,-0.0005246922373771667
1772565924533878000,0.4628779296875,-0.0021941368468105793,0.00038025807589292526,-0.002041096333414316
1772565924543907000,0.472906982421875,-0.0013971496373414993,-0.0008859233930706978,-0.0027862340211868286
1772565924553935400,0.482935302734375,0.0007458962500095367,0.0026004211977124214,0.0009445878677070141
1772565924563964200,0.492964111328125,-0.0005571660585701466,-0.0007601138204336166,0.002054790034890175
1772565924573992200,0.5029921875,0.0009640315547585487,-0.00033454038202762604,-0.00040650367736816406
1772565924584021000,0.51302099609375,-0.0004693572409451008,-0.0008368166163563728,0.002452611457556486
1772565924594049300,0.52304931640625,0.0025501344352960587,0.001960301771759987,0.0029434324242174625
1772565924604077000,0.5330771484375,0.0001049339771270752,-0.0010749036446213722,0.0016564899124205112
1772565924614106000,0.543106201171875,0.000022642314434051514,0.0012955758720636368,-0.000058319419622421265
1772565924624134000,0.5531337890625,-0.0007673101499676704,-0.0032473737373948097,0.0012941076420247555
1772565924634162700,0.56316259765625,-0.0009497366845607758,0.0007526939734816551,-0.0032843993976712227
1772565924644190700,0.573190673828125,-0.00030796974897384644,-0.0002184305340051651,0.0010235593654215336
1772565924654219800,0.5832197265625,0.0006297295913100243,0.0002090074121952057,-0.00038818223401904106
1772565924664247800,0.593247802734375,0.00018448568880558014,-0.0008448036387562752,-0.00032495055347681046
1772565924674275800,0.60327587890625,-0.0004189861938357353,0.0007200697436928749,0.0008236709982156754
1772565924684304600,0.6133046875,-0.001594366505742073,0.0002884427085518837,0.0008738064207136631
1772565924694333000,0.6233330078125,-0.00002523232251405716,0.0004088180139660835,-0.00009505124762654305
1772565924704361700,0.63336181640625,-0.00024191243574023247,-0.0007963180541992188,0.00228144321590662
1772565924714389800,0.6433896484375,-0.00025203218683600426,0.0019366173073649406,0.0023573432117700577
1772565924724418800,0.653418701171875,-0.00031008943915367126,-0.0025651901960372925,0.00014558807015419006
1772565924734446800,0.66344677734375,0.0012241574004292488,-0.00012413598597049713,-0.0011297999881207943
1772565924744475000,0.673474853515625,-0.00013898545876145363,0.000060692429542541504,-0.0007147826254367828
1772565924754503700,0.683503662109375,0.0015129735693335533,0.0014905435964465141,-0.000916650053113699
1772565924764532000,0.693531982421875,0.0019909171387553215,0.0017822831869125366,-0.00015281233936548233
1772565924774560800,0.703560791015625,-5.951151251792908e-7,0.001219024881720543,-0.0027246270328760147
1772565924784588800,0.7135888671875,-0.00023281387984752655,0.001236981712281704,0.002322763204574585
1772565924794617900,0.723617919921875,0.0002596043050289154,0.0022212862968444824,0.000150422565639019
1772565924804646000,0.73364599609375,-0.001983791124075651,0.0007636453956365585,-0.0010829279199242592
1772565924814674000,0.743673828125,-0.000676711555570364,-0.0009034937247633934,0.0011972705833613873
1772565924824702700,0.75370263671875,0.0036569442600011826,-0.001767813228070736,-0.0018412899225950241
1772565924834730800,0.763730712890625,-0.00048400508239865303,-0.00038110557943582535,-0.001684696413576603
1772565924844759800,0.773759765625,0.0017358576878905296,0.0024044523015618324,-0.0021088342182338238
1772565924854787800,0.783787841796875,0.000491362065076828,-0.002267797477543354,0.0013205180875957012
1772565924864815600,0.793815673828125,-0.00016266945749521255,-0.0017105741426348686,-0.0020030434243381023
1772565924874844700,0.8038447265625,-0.0010463064536452293,0.0005584387108683586,-0.0005915681831538677
1772565924884872700,0.813872802734375,-0.00006723124533891678,-0.0009442586451768875,0.0005302596837282181
1772565924894901800,0.82390185546875,0.002251848578453064,-0.0015163049101829529,-0.00034059397876262665
1772565924904929800,0.8339296875,-0.00043865712359547615,0.000051433220505714417,0.00272963335737586
1772565924914958600,0.84395849609375,-0.0008176248520612717,0.0012216269969940186,0.0031046061776578426
1772565924924987000,0.85398681640625,0.001997985877096653,0.0006007356569170952,-0.0005551655776798725
1772565924935015700,0.864015625,0.00036147329956293106,0.0004955409094691277,0.0007966547273099422
1772565924945043700,0.874043701171875,0.00045339297503232956,0.0008800933137536049,-0.0010514715686440468
1772565924955071700,0.88407177734375,0.0014281095936894417,0.00163270253688097,0.0012801261618733406
1772565924965100800,0.894100830078125,-0.00006407313048839569,-0.0009881723672151566,0.0005471762269735336
1772565924975128800,0.90412890625,-0.0008718096651136875,-0.000730643980205059,-0.002552743535488844
1772565924985157600,0.91415771484375,-0.0007032384164631367,0.0003259992226958275,-0.0008616619743406773
1772565924995186000,0.92418603515625,-0.0004664836451411247,0.00004530232399702072,-0.00203531701117754
1772565925005214700,0.934214599609375,0.0003033997491002083,0.0002546170726418495,0.005539299920201302
1772565925015242800,0.94424267578125,-0.0008332375437021255,0.001750514842569828,-0.003312514629215002
1772565925025270800,0.954270751953125,0.0007656598463654518,-0.00039221998304128647,0.0012824535369873047
1772565925035299800,0.9642998046875,0.0028021791949868202,0.001687975600361824,0.0003668591380119324
1772565925045328000,0.974327880859375,-0.0006109029054641724,-0.000667124055325985,-0.0013786633498966694
1772565925055356700,0.984356689453125,-0.001265508122742176,0.00013155769556760788,0.0007622516714036465
1772565925065385000,0.994385009765625,0.000985567457973957,-0.0003568297252058983,-0.00043006381019949913
1772565925075413800,1.004413818359375,-0.0008829063735902309,0.000488724559545517,-0.0028261099942028522
1772565925085441800,1.01444189453125,-0.001763768494129181,-0.000555877573788166,-0.0005217851139605045
1772565925095469800,1.0244697265625,0.00012015178799629211,-0.0015268661081790924,0.00003215251490473747
1772565925105499000,1.034498779296875,0.0006117904558777809,0.0009852815419435501,-0.0009228009730577469
1772565925115526700,1.044526611328125,-0.0012329807505011559,-0.0006373822689056396,0.001482832245528698
1772565925125555700,1.0545556640625,-0.003396271727979183,-0.0019958335906267166,0.0011671963147819042
1772565925135584000,1.064583984375,0.0008496064692735672,0.0008508190512657166,-0.0027042413130402565
1772565925145612800,1.07461279296875,-0.0020574363879859447,-0.00015351269394159317,-0.00019408157095313072
1772565925155640800,1.084640869140625,0.0015298416838049889,-0.00015830621123313904,0.0030270121060311794
1772565925165668600,1.094668701171875,-0.0017683235928416252,-0.002465377561748028,-0.0020955130457878113
1772565925175698000,1.104697998046875,-0.000003180466592311859,0.0012428080663084984,0.0014004185795783997
1772565925185725700,1.1147255859375,-0.0015714801847934723,-0.0009652376174926758,-0.002591195981949568
1772565925195754800,1.124754638671875,0.0007569221779704094,0.00013864226639270782,0.0007089930586516857
1772565925205782800,1.13478271484375,-0.0040947450324893,-0.001326696015894413,-0.000051944516599178314
1772565925215811800,1.144811767578125,-0.0007617990486323833,0.0027207760140299797,-0.0002402300015091896
1772565925225839900,1.15483984375,0.00014723371714353561,-0.0013642339035868645,-0.0020186598412692547
1772565925235867600,1.16486767578125,0.0006883880123496056,0.001074422150850296,-0.0006548548117280006
1772565925245896700,1.174896728515625,-0.0013079517520964146,-0.0001585204154253006,0.000023123808205127716
1772565925255924700,1.1849248046875,0.0011645276099443436,0.00019088666886091232,0.0009949114173650742
1772565925265953800,1.194953857421875,-0.000333624891936779,-0.0013087745755910873,0.0008381139487028122
1772565925275981600,1.204981689453125,0.00019554514437913895,0.001496066339313984,-0.0006031887605786324
1772565925286010600,1.2150107421875,-0.00008570961654186249,0.0006286604329943657,-0.0007413653656840324
1772565925296039000,1.225038818359375,-0.0011347285471856594,-0.0006256885826587677,0.001235499046742916
1772565925306066700,1.235066650390625,0.0006839204579591751,0.0016854079440236092,-0.0007213517092168331
1772565925316095700,1.245095703125,-0.0020111980848014355,-0.002860075794160366,-0.0016089831478893757
1772565925326123800,1.255123779296875,0.0020462721586227417,-0.0015342952683568,0.0017059287056326866
1772565925336152800,1.26515283203125,-0.0006198184564709663,-0.0025588134303689003,0.001293404959142208
1772565925346180600,1.2751806640625,0.000517629086971283,0.0008698683232069016,-0.001787522342056036
1772565925356209700,1.285209716796875,0.0011104494333267212,0.0018981155008077621,-0.0002226489596068859
1772565925366238000,1.295238037109375,0.0003759767860174179,0.0011368906125426292,0.00007303152233362198
1772565925376266800,1.305266845703125,0.002188790589570999,-0.0003896337002515793,0.00018275389447808266
1772565925386294800,1.315294677734375,0.0004376070573925972,-0.0016481168568134308,0.0003431537188589573
1772565925396322800,1.32532275390625,-0.0016388599760830402,-0.00014715921133756638,-0.002753303386271
1772565925406352000,1.335351806640625,0.0001754332333803177,-0.002483324147760868,0.0016364110633730888
1772565925416379600,1.345379638671875,-0.00024561211466789246,0.0008373716846108437,-0.0006232811138033867
1772565925426408700,1.35540869140625,0.00023751333355903625,0.0008521461859345436,-0.0038034003227949142
1772565925436437000,1.36543701171875,-0.00014252029359340668,-0.0004999414086341858,0.003412967547774315
1772565925446464800,1.37546484375,0.001430269330739975,0.00008844677358865738,-0.0010132198221981525
1772565925456493800,1.385493896484375,-0.0026651397347450256,-0.0009222226217389107,0.0009332848712801933
1772565925466521900,1.39552197265625,-0.0020013591274619102,0.0014978284016251564,-0.00020233029499650002
1772565925476551000,1.405551025390625,-0.0010681874118745327,0.0009175259619951248,0.0006101997569203377
1772565925486578700,1.41557861328125,-0.00021308986470103264,0.003082125447690487,-0.0009949770756065845
1772565925496607700,1.425607666015625,-0.0003326660953462124,-0.0009605530649423599,0.0016809669323265553
1772565925506635800,1.4356357421875,-0.0007522758096456528,-0.0001542419195175171,0.0005390900187194347
1772565925516664800,1.445664794921875,0.0009702565148472786,-0.0003158962354063988,0.00029993848875164986
1772565925526692900,1.45569287109375,-0.00032094214111566544,0.00010840315371751785,-0.001140151172876358
1772565925536720600,1.465720703125,0.0002479087561368942,-0.0009336918592453003,0.001021803356707096
1772565925546750000,1.47575,-0.00028338050469756126,0.0006629452109336853,0.00019271858036518097
1772565925556777700,1.48577783203125,-0.0009571602568030357,-0.0015770401805639267,-0.0013753506354987621
1772565925566806800,1.495806884765625,-0.00040252506732940674,-0.0010504378005862236,0.0004397430457174778
1772565925576834600,1.50583447265625,-0.0000035837292671203613,-0.0005758628249168396,0.00024346774443984032
1772565925586863900,1.51586376953125,-0.0008267681114375591,0.000392853282392025,0.0012140888720750809
1772565925596892000,1.525891845703125,-0.0012800381518900394,-0.0014495216310024261,-0.000132671557366848
1772565925606919700,1.535919677734375,0.0005255667492747307,0.000011285766959190369,-0.003633404616266489
1772565925616948700,1.54594873046875,0.0017210599035024643,-0.004210356622934341,-0.0017239181324839592
1772565925626977800,1.555977783203125,0.0009229611605405807,0.0017609847709536552,0.0019814185798168182
1772565925637006600,1.566006591796875,-0.0002392427995800972,0.0011002551764249802,0.0021257614716887474
1772565925647034600,1.57603466796875,-0.0006921808235347271,0.0001584365963935852,-0.00042226212099194527
1772565925657063400,1.5860634765625,-0.0003012288361787796,0.0008111773058772087,0.00028241053223609924
1772565925667091700,1.596091796875,-0.0005880305543541908,-0.000538739375770092,0.0020404793322086334
1772565925677119500,1.606119384765625,0.0005709771066904068,-0.0009235665202140808,0.002085752785205841
1772565925687148500,1.6161484375,-0.002871147356927395,0.0018968647345900536,0.0017461287789046764
1772565925697176600,1.626176513671875,0.00122026726603508,-0.001205451786518097,-0.002440893556922674
1772565925707205600,1.63620556640625,0.00006876327097415924,-0.0009817956015467644,0.0034567266702651978
1772565925717233700,1.646233642578125,-0.00043324194848537445,-0.0002611437812447548,0.003752870485186577
1772565925727262500,1.656262451171875,0.0016007991507649422,0.002917869947850704,-0.0018567582592368126
1772565925737290500,1.66629052734375,-0.0006525013595819473,0.0001260777935385704,0.0017430363222956657
1772565925747318500,1.676318603515625,-0.0007865289226174355,-0.0004452178254723549,-0.0010089385323226452
1772565925757347600,1.68634765625,-0.0008821366354823112,-0.0009006187319755554,0.0003045322373509407
1772565925767375400,1.696375244140625,-0.0002355608157813549,-0.0012940485030412674,0.00005476968362927437
1772565925777404700,1.70640478515625,-0.0014550224877893925,-0.0009936438873410225,0.00046303216367959976
1772565925787432700,1.7164326171875,-0.00030799582600593567,-0.0010217484086751938,-0.00014976365491747856
1772565925797461500,1.72646142578125,0.000055791810154914856,-0.002913658507168293,-0.001863507553935051
1772565925807489500,1.736489501953125,-0.0010190992616117,-0.0010481178760528564,-0.0022301324643194675
1772565925817517600,1.746517578125,0.00027200113981962204,0.0007969196885824203,-0.0011302470229566097
1772565925827546600,1.756546630859375,0.0016677454113960266,-0.0008450783789157867,0.0023006731644272804
1772565925837574400,1.766574462890625,0.00011219270527362823,0.00017331447452306747,0.00013818638399243355
1772565925847603500,1.776603515625,-0.0008647884242236614,-0.0008332394063472748,0.005031243897974491
1772565925857631700,1.7866318359375,-0.001963342074304819,-0.0016918424516916275,0.0010173274204134941
1772565925867660500,1.79666064453125,-0.00028954679146409035,-0.0013921614736318588,-0.00044948840513825417
1772565925877688600,1.8066884765625,0.0006103347986936569,-0.0019586151465773582,0.0029348572716116905
1772565925887716600,1.816716552734375,0.00017350167036056519,0.001318885013461113,0.0003549098037183285
1772565925897745700,1.82674560546875,-0.00023502716794610023,0.0009010350331664085,-0.0002243276685476303
1772565925907773400,1.8367734375,0.0003234799951314926,-0.001003362238407135,-0.00029410282149910927
1772565925917802500,1.846802490234375,-0.0005713421851396561,0.0015032049268484116,0.00026116613298654556
1772565925927830500,1.85683056640625,0.0005140732973814011,-0.0015526749193668365,0.0011590034700930119
1772565925937859600,1.866859619140625,0.001621948555111885,0.0012929132208228111,0.003904456738382578
1772565925947887600,1.8768876953125,-0.001654145773500204,0.0009789615869522095,0.0033012377098202705
1772565925957915600,1.88691552734375,0.0009392406791448593,0.00012941285967826843,-0.004489840008318424
1772565925967944700,1.89694482421875,-0.00020606629550457,0.002066529355943203,-0.00027368776500225067
1772565925977972500,1.906972412109375,-0.0013741287402808666,0.0011613210663199425,0.0015204842202365398
1772565925988001500,1.91700146484375,-0.0010886266827583313,-0.00039643701165914536,0.0008717966265976429
1772565925998029600,1.927029541015625,0.001734590157866478,0.00028719566762447357,0.0011849845759570599
1772565926008058600,1.93705859375,0.0010189898312091827,-0.0005284715443849564,-0.0014090035110712051
1772565926018086700,1.947086669921875,-0.00007849838584661484,-0.0009977202862501144,0.0011273911222815514
1772565926028115500,1.957115478515625,0.0010041845962405205,0.0008974829688668251,0.0021566427312791348
1772565926038143700,1.967143798828125,0.0003996472805738449,-0.0006524771451950073,-0.0010724402964115143
1772565926048171500,1.977171630859375,-0.00014707772061228752,0.0020483452826738358,-0.002670027781277895
1772565926058200600,1.98720068359375,-0.00008129701018333435,-0.000028121285140514374,0.002753766253590584
1772565926068228600,1.997228515625,0.00023079849779605865,-0.000517088919878006,0.00008839694783091545
1772565926078257700,2.007257568359375,0.0005152234807610512,0.001089329831302166,-0.0026900791563093662
1772565926088285700,2.01728564453125,-0.0014917110092937946,0.0003212234005331993,-0.001518169417977333
1772565926098313500,2.0273134765625,0.0007852911949157715,-0.001998656429350376,-0.0004023048095405102
1772565926108342500,2.037342529296875,0.0004923120141029358,0.0012259036302566528,-0.001258710864931345
1772565926118370600,2.04737060546875,0.0015874039381742477,0.00030045490711927414,0.0005690162070095539
1772565926128399600,2.057399658203125,-0.0008663637563586235,0.0037657637149095535,0.0007750834338366985
1772565926138427400,2.067427490234375,0.002157655544579029,-0.0012159459292888641,0.0019245040602982044
1772565926148456400,2.07745654296875,-0.002982429228723049,-0.0005540130659937859,-0.0020158090628683567
1772565926158484500,2.087484375,-0.002492940053343773,-0.001380125992000103,-0.0018435027450323105
1772565926168513500,2.097513427734375,-0.00017061596736311913,0.0007650386542081833,-0.0012277839705348015
1772565926178541600,2.10754150390625,0.001065623015165329,0.000051577575504779816,-0.0004112585447728634
1772565926188569600,2.117569580078125,-0.0003267512656748295,0.0018400168046355247,0.0028618215583264828
1772565926198598700,2.1275986328125,0.0005542226135730743,-0.000013809651136398315,0.0030450462363660336
1772565926208626400,2.13762646484375,-0.0006502442993223667,0.00020961370319128036,0.0002351207658648491
1772565926218655500,2.147655517578125,-0.00027686916291713715,0.0007776664569973946,-0.0015337513759732246
1772565926228683500,2.15768359375,0.00018318463116884232,0.0014652712270617485,-0.0008847350254654884
1772565926238712600,2.167712646484375,0.0005499012768268585,-0.0017488980665802956,0.0003557656891644001
1772565926248740600,2.17774072265625,0.0012258430942893028,-0.0017236554995179176,-0.003889551619067788
1772565926258768600,2.1877685546875,-0.0001917574554681778,-0.0017849085852503777,-0.0012112106196582317
1772565926268797700,2.197797607421875,-0.0006649810820817947,-0.0003013135865330696,-0.00031301286071538925
1772565926278825500,2.207825439453125,-0.00028334977105259895,0.0027780989184975624,0.0002057710662484169
1772565926288854500,2.2178544921875,-0.0013875393196940422,0.0006973994895815849,0.001127659808844328
1772565926298882600,2.227882568359375,0.0019115842878818512,-0.001443249173462391,0.0014158138073980808
1772565926308911600,2.23791162109375,0.00003130454570055008,-0.0003727329894900322,-0.0016622762195765972
1772565926318939600,2.247939697265625,-0.0004379446618258953,-0.0008086925372481346,-0.0005291011184453964
1772565926328967700,2.2579677734375,-0.0003251209855079651,-0.00003320910036563873,0.00047690374776721
1772565926338996700,2.267996826171875,0.0005332157015800476,0.00023576989769935608,-0.00013695470988750458
1772565926349024500,2.2780244140625,-0.0003238511271774769,-0.0014112070202827454,0.0016802349127829075
1772565926359053600,2.288053466796875,0.0000660354271531105,-0.0018919073045253754,-0.002111573703587055
1772565926369081600,2.29808154296875,-0.0003804350271821022,-0.00022012833505868912,-0.0004822877235710621
1772565926379110700,2.308110595703125,-0.0009133336134254932,-0.0024199001491069794,-0.002001354470849037
1772565926389138400,2.318138427734375,0.0005442630499601364,0.0006295870989561081,0.0020494069904088974
1772565926399166500,2.32816650390625,0.0007040528580546379,0.0008588852360844612,-0.00021774228662252426
1772565926409195800,2.33819580078125,0.0006900457665324211,-0.0018492965027689934,0.0024360651150345802
1772565926419223600,2.3482236328125,0.0011955136433243752,0.001721469685435295,-0.00033761700615286827
1772565926429252600,2.358252685546875,0.0014799954369664192,-0.0003611631691455841,-0.0008405046537518501
1772565926439280400,2.3682802734375,-0.0000342782586812973,-0.0007401313632726669,0.0007725721225142479
1772565926449309700,2.378309814453125,-0.0005508479662239552,0.0008327160030603409,0.0030234442092478275
1772565926459337500,2.38833740234375,0.0007458450272679329,0.00019675306975841522,0.000684655737131834
1772565926469366500,2.398366455078125,0.0003278059884905815,-0.001545500010251999,-0.000004498288035392761
1772565926479394600,2.40839453125,0.00037813931703567505,0.0018439050763845444,-0.0013272901996970177
1772565926489422600,2.418422607421875,0.0005198679864406586,0.00021348055452108383,-0.0016592438332736492
1772565926499451600,2.42845166015625,0.0025412077084183693,-0.001992681995034218,0.0005631642416119576
1772565926509479400,2.4384794921875,-0.0014744722284376621,-0.0005680955946445465,0.0012378338724374771
1772565926519508500,2.448508544921875,0.0013162540271878242,0.0002534892410039902,-0.00021971389651298523
1772565926529536500,2.45853662109375,0.0012784730643033981,-0.0011247051879763603,-0.0022966666147112846
1772565926539564500,2.468564453125,0.0018398677930235863,0.0007895752787590027,0.0020051375031471252
1772565926549593600,2.478593505859375,-0.00032977107912302017,0.0003520362079143524,-0.0007842704653739929
1772565926559621600,2.48862158203125,-0.0007255170494318008,-0.0003414507955312729,-0.0003331308253109455
1772565926569650700,2.498650634765625,0.0013067489489912987,-0.0015468159690499306,-0.0016360883601009846
1772565926579678500,2.508678466796875,0.0008393637835979462,-0.002523397095501423,0.0010851300321519375
1772565926589707500,2.51870751953125,-0.0008442392572760582,0.0014824513345956802,-0.0008778548799455166
1772565926599735600,2.528735595703125,-0.0018181572668254375,-0.0020004305988550186,-0.0006453609094023705
1772565926609764600,2.5387646484375,0.00016125477850437164,-0.0015380745753645897,0.0027144290506839752
1772565926619788800,2.548788818359375,0.00036685075610876083,-0.0003380533307790756,0.0013181334361433983
1772565926629816800,2.55881689453125,-0.0006203516386449337,-0.0010519549250602722,0.00013109808787703514
1772565926639846000,2.568845947265625,0.0010462542995810509,0.00012090150266885757,-0.0010470841079950333
1772565926649873700,2.578873779296875,-0.0006607426330447197,-0.0015321644023060799,-0.001153274904936552
1772565926659902700,2.58890283203125,0.0004356810823082924,0.0021174317225813866,-0.0009695165790617466
1772565926669931000,2.598930908203125,-0.00036468449980020523,-0.0014362083747982979,0.000024442560970783234
1772565926679959800,2.608959716796875,0.0007421253249049187,0.0020599886775016785,0.0014494997449219227
1772565926689987800,2.61898779296875,0.0017388202250003815,0.0015788087621331215,0.002244667150080204
1772565926700015900,2.629015869140625,0.0003036428242921829,0.0022339457646012306,-0.0004555121995508671
1772565926710045000,2.639044921875,-0.001077369786798954,0.0029809363186359406,0.0003624693490564823
1772565926720072700,2.64907275390625,0.0020774109289050102,-0.00025267433375120163,-0.0026671425439417362
1772565926730101800,2.659101806640625,-0.001644753385335207,0.0017661862075328827,-0.0019421447068452835
1772565926740129800,2.6691298828125,0.000512939877808094,0.00021675974130630493,0.0026448839344084263
1772565926750158800,2.679158935546875,-0.0006698244251310825,0.0020469464361667633,-0.002986602019518614
1772565926760187000,2.689186767578125,0.0006862571462988853,-0.0017142361029982567,0.00022730045020580292
1772565926770215000,2.69921484375,-0.00211624288931489,0.00045101530849933624,-0.00045950431376695633
1772565926780244000,2.709243896484375,-0.0001367153599858284,-0.0019796518608927727,0.00003397976979613304
1772565926790271700,2.719271728515625,-0.003310393076390028,0.0005303574725985527,-0.00048153335228562355
1772565926800300800,2.72930078125,-0.0033404864370822906,-0.0010947035625576973,0.00010196538642048836
1772565926810328800,2.739328857421875,-0.0007839808240532875,0.0010534832254052162,-0.000462566502392292
1772565926820358000,2.74935791015625,-0.0017027715221047401,-0.0005936818197369576,0.0011526402086019516
1772565926830386000,2.759385986328125,-0.0007439493201673031,-0.00027667172253131866,-0.000546598806977272
1772565926840413700,2.76941357421875,-0.000225964467972517,0.0008940538391470909,-0.001966063864529133
1772565926850443000,2.779443115234375,-0.001104553695768118,0.00010056048631668091,0.000829760916531086
1772565926860470800,2.789470703125,0.001002805307507515,0.00030509103089571,-0.0001859692856669426
1772565926870499800,2.799499755859375,0.0005804290995001793,0.0006701508536934853,-0.000990657601505518
1772565926880527600,2.809527587890625,-0.0000182492658495903,-0.0020313598215579987,-0.0002947733737528324
1772565926890557000,2.819556884765625,-0.0023039481602609158,0.0009489236399531364,0.001693075057119131
1772565926900585000,2.8295849609375,0.0015110298991203308,-0.0009270068258047104,-0.0006478438153862953
1772565926910612700,2.83961279296875,-0.0009799627587199211,0.0009645605459809303,-0.00007500965148210526
1772565926920641800,2.849641845703125,-0.0013259071856737137,0.00043139513581991196,-0.00040204543620347977
1772565926930669800,2.859669921875,-0.0005133864469826221,-0.0007032090798020363,-0.0006448361091315746
1772565926940699000,2.869698974609375,-0.002651638351380825,0.0034928666427731514,0.00021722866222262383
1772565926950726700,2.8797265625,-0.0009434367530047894,-0.0013218438252806664,-0.0004634079523384571
1772565926960755700,2.889755615234375,0.0008054608479142189,-0.0008509969338774681,-0.0006631449796259403
1772565926970783700,2.89978369140625,-0.0019128313288092613,0.0021016299724578857,-0.001202198676764965
1772565926980811800,2.909811767578125,-0.0016355966217815876,0.002053959295153618,0.0014846641570329666
1772565926990840800,2.9198408203125,-0.000991334207355976,0.0028938641771674156,0.0006909146904945374
1772565927000868900,2.929868896484375,-0.0009599090553820133,-0.0021783923730254173,0.001651783473789692
1772565927010898000,2.93989794921875,-0.0003309226594865322,0.0005160653963685036,-0.0010120738297700882
1772565927020925700,2.94992578125,0.00039665307849645615,-0.00010178796947002411,0.0004875524900853634
1772565927030954800,2.959954833984375,0.0005695810541510582,-0.0009016646072268486,0.002769279293715954
1772565927040982800,2.969982666015625,-0.00269944965839386,0.0014408519491553307,-0.0006060111336410046
1772565927051010800,2.9800107421875,-0.0004245978780090809,-0.0004203319549560547,-0.0007616225630044937
1772565927061039900,2.990039794921875,0.00018446706235408783,-0.0003931671380996704,0.0012069856747984886
1772565927071068000,3.00006787109375,-0.0007451418787240982,-0.00000501144677400589,-0.0008939681574702263
1772565927081097000,3.010096923828125,-0.0005201050080358982,0.00008021015673875809,0.003328207414597273
1772565927091124700,3.020124755859375,0.00010966882109642029,-0.0007536904886364937,-0.001985411159694195
1772565927101153800,3.03015380859375,-0.0012432173825800419,0.0010127844288945198,-0.003809410147368908
1772565927111181800,3.040181884765625,0.0014278208836913109,-0.0010753823444247246,-0.0008006608113646507
1772565927121209900,3.0502099609375,-0.0015096459537744522,-0.001547294668853283,0.0032140547409653664
1772565927131239000,3.060239013671875,-0.000985503662377596,0.0002951277419924736,0.0008005439303815365
1772565927141267000,3.070266845703125,0.0011570090427994728,0.001507132314145565,-0.0008937586098909378
1772565927151296000,3.0802958984375,-0.0005880245007574558,-0.00034186895936727524,0.002225145697593689
1772565927161323800,3.09032373046875,-0.00000798795372247696,0.0005875742062926292,-0.0024098199792206287
1772565927171352800,3.100352783203125,-0.0008338992483913898,-0.0005539879202842712,0.00010262569412589073
1772565927181380900,3.110380859375,0.00039221998304128647,-0.0005952669307589531,0.0013958564959466457
1772565927191409000,3.120408935546875,0.0006581563502550125,-0.002991262823343277,0.00015938887372612953
1772565927201437700,3.130437744140625,-0.0014880849048495293,-0.0010602045804262161,-0.0005876272916793823
1772565927211465700,3.1404658203125,0.0007990030571818352,-0.0003973888233304024,-0.002923519816249609
1772565927221495000,3.1504951171875,0.0006450721994042397,-0.000147317536175251,-0.000031859613955020905
1772565927231522800,3.160522705078125,-0.0017728866077959538,0.0032281633466482162,0.0014532594941556454
1772565927241552000,3.1705517578125,-0.00045329052954912186,-0.0014712503179907799,-0.001680482178926468
1772565927251579600,3.18057958984375,-0.0005560927093029022,0.00021581072360277176,-0.00018191244453191757
1772565927261609000,3.19060888671875,-0.00037126941606402397,-0.00047155097126960754,-0.0016538416966795921
1772565927271636700,3.20063671875,0.001616116613149643,-0.0002736244350671768,0.00114824203774333
1772565927281664800,3.210664794921875,-0.0016739522106945515,0.00032984837889671326,-0.002031572163105011
1772565927291693800,3.22069384765625,-0.0007958575151860714,-0.00015146471560001373,0.0017302567139267921
1772565927301721900,3.230721923828125,-0.00014684535562992096,0.0010738559067249298,0.00002370355650782585
1772565927311751000,3.2407509765625,0.00013854354619979858,0.0025497954338788986,-0.0013038702309131622
1772565927321778700,3.25077880859375,0.0011191191151738167,-0.00006942357867956161,0.0033971420489251614
1772565927331807700,3.260807861328125,0.0007781703025102615,0.00043617747724056244,0.0008452716283500195
1772565927341835800,3.270835693359375,-0.0019086925312876701,0.0002239234745502472,0.0012860246933996677
1772565927351863800,3.28086376953125,-0.002017051912844181,0.0010437360033392906,-0.0007358286529779434
1772565927361892900,3.290892822265625,0.0021063201129436493,-0.0030359597876667976,-0.0012713903561234474
1772565927371921000,3.3009208984375,0.0010180054232478142,-0.00015661120414733887,-0.0014962740242481232
1772565927381950000,3.310949951171875,0.00004941411316394806,0.0006963992491364479,0.0014126966707408428
1772565927391977700,3.320977783203125,-0.0024193646386265755,0.0006633736193180084,0.0021381545811891556
1772565927402006800,3.3310068359375,0.00006749480962753296,0.002461007796227932,0.00004570884630084038
1772565927412034800,3.341034912109375,-0.002654036972671747,0.000017902813851833344,-0.0005008582957088947
1772565927422062800,3.351062744140625,-0.0022332575172185898,0.0031226156279444695,-0.002575727179646492
1772565927432091600,3.361091552734375,-0.0025262273848056793,0.0017142556607723236,0.001836635172367096
1772565927442120000,3.371119873046875,0.0015276363119482994,0.0011813566088676453,-0.00033410731703042984
1772565927452149000,3.38114892578125,-0.00001859758049249649,0.0004956377670168877,-0.0010755904950201511
1772565927462176800,3.3911767578125,0.0019196514040231705,-0.0011222325265407562,-0.0007136669009923935
1772565927472205800,3.401205810546875,-0.0001425342634320259,0.0009053004905581474,-0.0005594533868134022
1772565927482233900,3.41123388671875,-0.00020804814994335175,-0.0002667568624019623,-0.001989304553717375
1772565927492262000,3.421261962890625,-0.00040195928886532784,-0.0006731841713190079,-0.0027405116707086563
1772565927502290700,3.431290771484375,0.0006188303232192993,-0.0002824990078806877,0.002266231458634138
1772565927512319000,3.441319091796875,0.0022990424185991287,-0.0008985046297311783,-0.00046469923108816147
1772565927522348000,3.45134814453125,0.000029763206839561462,0.002054142765700817,-0.0010404745116829872
1772565927532375800,3.461375732421875,-0.0009784926660358906,0.0003881668671965599,0.001065957359969616
1772565927542404900,3.47140478515625,0.0006471006199717522,-0.0003572516143321991,0.0009093638509511948
1772565927552433000,3.481432861328125,0.002159997820854187,0.001323970966041088,-0.000049688853323459625
1772565927562461000,3.4914609375,0.00034478772431612015,0.0018973499536514282,0.0006565814837813377
1772565927572489700,3.50148974609375,-0.00227539986371994,0.0004780879244208336,-0.001348960679024458
1772565927582517800,3.511517822265625,0.0007627345621585846,-0.001511293463408947,-0.0004333658143877983
1772565927592546800,3.521546875,-0.0020073954947292805,-0.0007777037099003792,0.0010432065464556217
1772565927602574800,3.531574951171875,0.0004664147272706032,-0.002774542197585106,-0.0004047537222504616
1772565927612604000,3.54160400390625,-0.0004949886351823807,-0.0003362121060490608,0.00037411320954561234
1772565927622631200,3.551631103515625,-0.0007362710312008858,0.0016531683504581451,0.0011562835425138474
1772565927632659200,3.5616591796875,-0.00029454566538333893,-0.0003246767446398735,0.0003061974421143532
1772565927642688300,3.571688232421875,0.000529969111084938,0.0002590874210000038,-0.0004951478913426399
1772565927652716000,3.581716064453125,-0.000001537613570690155,-0.002764505334198475,-0.0012707733549177647
1772565927662745300,3.591745361328125,-0.00013469532132148743,0.0034659598022699356,0.00011380389332771301
1772565927672773000,3.601773193359375,0.00013834144920110703,-0.0019631125032901764,-0.0016391109675168991
1772565927682802200,3.61180224609375,-0.0008049500174820423,0.0039054295048117638,0.0019114152528345585
1772565927692830200,3.621830322265625,0.00015077833086252213,-0.0025323713198304176,0.0010848860256373882
1772565927702858200,3.631858154296875,0.00013027247041463852,0.000032252632081508636,0.00035597896203398705
1772565927712887000,3.641886962890625,-0.0009337984956800938,-0.0007379408925771713,0.0005691791884601116
1772565927722915000,3.6519150390625,-0.0003180759958922863,0.00030974671244621277,-0.0028910660184919834
1772565927732944100,3.661944091796875,-0.00015947874635457993,-0.001984749920666218,0.0009151306003332138
1772565927742972200,3.67197216796875,-0.0005538933910429478,0.0017961394041776657,-0.0015078135766088963
1772565927753001200,3.682001220703125,-0.00011096522212028503,-0.0022322554141283035,-0.0016951793804764748
1772565927763029000,3.692029052734375,0.00030102580785751343,0.0006319740787148476,-0.001643247902393341
1772565927773057300,3.702057373046875,-0.0007724813185632229,0.0011521382257342339,0.0010719173587858677
1772565927783086000,3.712086181640625,0.00003711972385644913,0.0009252363815903664,0.00012329919263720512
1772565927793114000,3.722114013671875,-0.0019770958460867405,-0.0009249597787857056,0.0009939889423549175
1772565927803143200,3.73214306640625,-0.0009248810820281506,-0.0007313480600714684,-0.0025653261691331863
1772565927813171200,3.742171142578125,-0.0017310683615505695,0.0007055941969156265,-0.0007942556403577328
1772565927823200300,3.7522001953125,-0.0016325311735272408,-0.0011895112693309784,0.00021561561152338982
1772565927833228000,3.76222802734375,0.00039103254675865173,0.0010447939857840538,-0.0008353660814464092
1772565927843256300,3.77225634765625,-0.0017717205919325352,-0.0027659237384796143,0.0018965043127536774
1772565927853285000,3.78228515625,0.00177701935172081,-0.0004867417737841606,-0.0002744430676102638
1772565927863313200,3.792313232421875,-0.00016575586050748825,-0.00022149085998535156,0.0022622174583375454
1772565927873342200,3.80234228515625,-0.0006636013276875019,0.00012104399502277374,0.001102871261537075
1772565927883370200,3.812370361328125,-0.0005980879068374634,-0.00035246554762125015,-0.000051342882215976715
1772565927893399300,3.8223994140625,-0.0020185946486890316,-0.00177073385566473,-0.0009499150328338146
1772565927903427000,3.832427001953125,-0.0020257849246263504,-0.001161135733127594,-0.000034320168197155
1772565927913455400,3.842455322265625,0.00031337421387434006,0.00021203886717557907,0.0003230595029890537
1772565927923484200,3.852484130859375,0.00048541463911533356,0.001980643719434738,0.0006250622682273388
1772565927933512200,3.86251220703125,0.001481473445892334,-0.0007741237059235573,-0.0013590147718787193
1772565927943541000,3.872541015625,-0.001716450322419405,-0.0007110070437192917,0.0021497001871466637
1772565927953569300,3.8825693359375,-0.00003084447234869003,0.0009733708575367928,-0.0012184041552245617
1772565927963598300,3.892598388671875,0.0006157709285616875,-0.002040795050561428,-0.00023356731981039047
1772565927973626000,3.902626220703125,0.0005995836108922958,0.0009523993358016014,0.0004082941450178623
1772565927983654100,3.912654052734375,-0.0029011410661041737,-0.00019702129065990448,-0.0017565893940627575
1772565927993683200,3.92268310546875,-0.00009359791874885559,0.00024868734180927277,0.0017468859441578388
1772565928003711200,3.932711181640625,-0.0022848471999168396,0.001952577382326126,0.00038867397233843803
1772565928013740000,3.942739990234375,0.0009532012045383453,0.000861004926264286,-0.000841227825731039
1772565928023768000,3.95276806640625,-0.0012423084117472172,0.0005307728424668312,0.0010773134417831898
1772565928033797400,3.96279736328125,-0.000914369709789753,0.0005384180694818497,0.000871751457452774
1772565928043825200,3.9728251953125,-0.00045311031863093376,-0.0018637534230947495,-0.0015778238885104656
1772565928053853200,3.982853271484375,-0.0013519125059247017,0.0010919086635112762,0.0006840620189905167
1772565928063882200,3.99288232421875,-0.0008115572854876518,-0.0017771143466234207,-0.0010038497857749462
1772565928073910300,4.00291015625,-0.0004292302764952183,0.0004096059128642082,-0.002481414470821619
1772565928083939000,4.01293896484375,0.00024827849119901657,-0.000025288201868534088,-0.0017967158928513527
1772565928093967000,4.022967041015625,0.0006862422451376915,-0.0024690628051757812,-0.002420361153781414
1772565928103996200,4.03299609375,-0.0009065945632755756,-0.003104493021965027,-0.0038283744361251593
1772565928114024200,4.043024169921875,0.0022202087566256523,0.0007886253297328949,0.00040130922570824623
1772565928124053200,4.05305322265625,-0.0005337661132216454,0.002987065352499485,-0.0010559726506471634
1772565928134081000,4.0630810546875,-0.00033389078453183174,-0.0008710091933608055,-0.0027245464734733105
1772565928144109300,4.073109375,-0.0024329940788447857,-0.0002662055194377899,-0.0003791004419326782
1772565928154138000,4.08313818359375,0.00017978809773921967,-0.0007942086085677147,0.002310542855411768
1772565928164166100,4.093166259765625,0.000164874829351902,-0.0014663906767964363,-0.00031746458262205124
1772565928174195000,4.10319482421875,-0.0016387347131967545,-0.00039710383862257004,0.0006188796833157539
1772565928184223200,4.11322314453125,0.0020683854818344116,-0.0014767488464713097,0.002085481770336628
1772565928194251000,4.1232509765625,-0.001316022127866745,-0.0012378077954053879,-0.00027539581060409546
1772565928204280000,4.133280029296875,0.0012051928788423538,0.0017137732356786728,-0.000891651026904583
1772565928214308400,4.143308349609375,-0.0004970659501850605,-0.0009004082530736923,0.0003124205395579338
1772565928224337200,4.153337158203125,0.001615886576473713,-0.000909462571144104,-0.0009682937525212765
1772565928234365200,4.163365234375,-0.0018211198039352894,-0.0005206326022744179,-0.0017043356783688068
1772565928244394000,4.17339404296875,0.0009959721937775612,-0.0014138566330075264,-0.0015216427855193615
1772565928254422300,4.18342236328125,0.0013662111014127731,-0.0011479202657938004,0.0010567912831902504
1772565928264451300,4.193451416015625,0.002531876787543297,0.00014930590987205505,0.0010282956063747406
1772565928274479000,4.20347900390625,0.001913631334900856,0.0016967980191111565,-0.0009893360547721386
1772565928284507400,4.21350732421875,-0.000016361474990844727,-0.0006928564980626106,0.0001124134287238121
1772565928294536200,4.2235361328125,-0.002295455429702997,-0.0025348542258143425,-0.0006336355581879616
1772565928304564200,4.233564208984375,0.0007378850132226944,0.0007951622828841209,-0.0038520656526088715
1772565928314593000,4.243593017578125,-0.00370064377784729,0.0009285202249884605,0.00003260793164372444
1772565928324621300,4.253621337890625,-0.0007248278707265854,-0.0009609926491975784,0.003055295441299677
1772565928334650000,4.263650146484375,0.0007924754172563553,0.0007686764001846313,0.0010677254758775234
1772565928344678100,4.27367822265625,0.0012718439102172852,-0.00006302911788225174,-0.0006092670373618603
1772565928354706200,4.2837060546875,0.00120462104678154,0.0018883254379034042,-0.00121241994202137
1772565928364735200,4.2937353515625,-0.00030006468296051025,-0.0012225126847624779,-0.00036659976467490196
1772565928374763300,4.30376318359375,-0.0010245623998343945,-0.0015200814232230186,-0.0002286531962454319
1772565928384792000,4.3137919921875,-0.0018996773287653923,-0.0003067450597882271,-0.00033917464315891266
1772565928394820000,4.323820068359375,-0.0007558129727840424,-0.0005230996757745743,0.0007404531352221966
1772565928404849200,4.33384912109375,0.0009344955906271935,0.0009512268006801605,0.0009772083722054958
1772565928414877200,4.343877197265625,-0.0007502422668039799,-0.0002202838659286499,0.00038860272616147995
1772565928424905000,4.353905029296875,0.0004993127658963203,0.00037093833088874817,0.00006875675171613693
1772565928434934000,4.36393408203125,-0.000730189960449934,0.0022224681451916695,0.0003882916644215584
1772565928444962300,4.37396240234375,-0.0005158055573701859,0.0006498713046312332,0.000932374969124794
1772565928454991000,4.3839912109375,-0.0015083681792020798,0.0008543534204363823,-0.0021112863905727863
1772565928465019100,4.39401904296875,0.0017918208613991737,0.0005190614610910416,0.0013673342764377594
1772565928475047200,4.404047119140625,-0.0011884868144989014,-0.0015901820734143257,0.0001125037670135498
1772565928485076200,4.414076171875,-0.002687047701328993,-0.000855681486427784,-0.000043291132897138596
1772565928495104000,4.42410400390625,0.003076259046792984,0.002040673978626728,0.0002803197130560875
1772565928505133000,4.434133056640625,-0.0006518997251987457,-0.001215573400259018,-0.00015910156071186066
1772565928515161300,4.444161376953125,-0.00010041287168860435,0.0017660986632108688,-0.0012853499501943588
1772565928525190100,4.454190185546875,0.0005632471293210983,-0.0005460577085614204,0.0004680752754211426
1772565928535218200,4.46421826171875,-0.0006442749872803688,-0.0012882445007562637,-0.001665615476667881
1772565928545247000,4.4742470703125,0.002100112847983837,-0.0019356589764356613,0.00009047286584973335
1772565928555275300,4.484275146484375,-0.0004029683768749237,-0.00019636470824480057,-0.00040475931018590927
1772565928565303000,4.494302978515625,0.0018367497250437737,-0.0006134156137704849,-0.0007834606803953648
1772565928575332000,4.50433203125,0.0022929422557353973,0.0003655655309557915,-0.001157776452600956
1772565928585360100,4.514360107421875,-0.0009076446294784546,0.0020992839708924294,0.00033892039209604263
1772565928595389200,4.52438916015625,-0.0028023156337440014,0.0008187275379896164,-0.0017361915670335293
1772565928605417200,4.534417236328125,-0.00006698258221149445,-0.00047903135418891907,-0.0005849073641002178
1772565928615446000,4.544446044921875,0.0010446030646562576,-0.0006903624162077904,-0.0009112739935517311
1772565928625474800,4.554474853515625,-0.0047989049926400185,-0.0017862524837255478,-0.0003418903797864914
1772565928635502600,4.564502685546875,0.0006969599053263664,-0.000243418850004673,0.0003940518945455551
1772565928645531600,4.57453173828125,0.0029238946735858917,0.000025560148060321808,0.0005788756534457207
1772565928655559400,4.584559326171875,0.0014548497274518013,0.0013048304244875908,-0.0007188250310719013
1772565928665588700,4.594588623046875,0.00033019669353961945,-0.0030606230720877647,-0.0007499838247895241
1772565928675616500,4.604616455078125,-0.00036788545548915863,0.0016024233773350716,-0.0021060514263808727
1772565928685645600,4.6146455078125,-0.0025458186864852905,0.0007984153926372528,0.0008378070779144764
1772565928695673300,4.62467333984375,-0.0003894544206559658,0.0012802332639694214,0.0015867254696786404
1772565928705701600,4.63470166015625,0.0021786317229270935,-0.0007293885573744774,-0.0014253100380301476
1772565928715730700,4.644730712890625,0.00017602555453777313,0.002865990623831749,0.00015148799866437912
1772565928725758500,4.654758544921875,-0.0004849708639085293,-0.00157989002764225,-0.0026040845550596714
1772565928735787500,4.66478759765625,0.00017657969146966934,0.0009141433984041214,-0.002326671965420246
1772565928745815600,4.674815673828125,0.0006950972601771355,-0.0005282247439026833,0.0013948292471468449
1772565928755844600,4.6848447265625,-0.000860714353621006,0.0009919051080942154,-0.0014918921515345573
1772565928765872400,4.694872314453125,-0.0010173083283007145,0.00042518414556980133,0.0013331891968846321
1772565928775900700,4.704900634765625,0.00028820615261793137,-0.0007918365299701691,-0.003475923091173172
1772565928785929700,4.7149296875,0.000947871245443821,-0.0011737337335944176,-0.002062050625681877
1772565928795957500,4.72495751953125,0.00188432727009058,-0.0006527192890644073,0.0017992598004639149
1772565928805986600,4.734986572265625,-0.0005175783298909664,0.0017827413976192474,0.000327864196151495
1772565928816014600,4.7450146484375,0.0011668279767036438,0.00006722006946802139,0.0002758498303592205
1772565928826043600,4.755043701171875,-0.000015082769095897675,-0.00020495522767305374,0.00015014829114079475
1772565928836071400,4.765071533203125,-0.00013772351667284966,0.0002133455127477646,-0.0038114588242024183
1772565928846099700,4.775099609375,0.001278012990951538,-0.0001062341034412384,-0.001659891102463007
1772565928856128800,4.785128662109375,0.0010410016402602196,0.0011086910963058472,-0.0005049929022789001
1772565928866156500,4.795156494140625,-0.0025795656256377697,0.001107625663280487,0.002810908481478691
1772565928876185600,4.805185546875,-0.0009987317025661469,0.0014866329729557037,-0.0007465002126991749
1772565928886213600,4.815213623046875,-0.0005180314183235168,-0.0011437712237238884,-0.000661811325699091
1772565928896242700,4.82524267578125,-0.00038402481004595757,-0.000975404866039753,0.00056809326633811
1772565928906270500,4.8352705078125,0.000022374093532562256,0.0017612595111131668,0.0011507929302752018
1772565928916298800,4.845298828125,0.0012484127655625343,0.002632584422826767,0.0002709450200200081
1772565928926327600,4.85532763671875,0.001163192093372345,0.00028846971690654755,0.000007025431841611862
1772565928936355600,4.86535546875,0.001352987252175808,0.0021104589104652405,-0.0006361082196235657
1772565928946384600,4.875384521484375,-0.0013245553709566593,0.002079833298921585,0.0010539339855313301
1772565928956412700,4.88541259765625,-0.0021934700198471546,0.0007543331012129784,0.00041871704161167145
1772565928966441700,4.895441650390625,-0.0014717532321810722,0.002603098750114441,-0.0007149907760322094
1772565928976469500,4.905469482421875,0.0001081293448805809,-0.0019622985273599625,0.002127767074853182
1772565928986497500,4.91549755859375,-0.0003328896127641201,0.00030431803315877914,0.0001367875374853611
1772565928996526600,4.925526611328125,-0.002227023709565401,-0.0016006743535399437,0.001251304056495428
1772565929006554600,4.9355546875,-0.00026986654847860336,-0.0000642966479063034,-0.00013859989121556282
1772565929016583700,4.945583740234375,0.0011994559317827225,-0.0004952289164066315,-0.0002225041389465332
1772565929026611500,4.955611572265625,-0.0005534361116588116,0.0027663446962833405,-0.0004568621516227722
1772565929036640800,4.965640869140625,-0.0005302927456796169,-0.0019559208303689957,0.0024894853122532368
1772565929046668500,4.97566845703125,0.0009139394387602806,-0.0003742687404155731,0.00021834159269928932
1772565929056696600,4.985696533203125,0.001414228230714798,-0.00020037777721881866,0.0005729235708713531
1772565929066725400,4.995725341796875,0.0008661495521664619,-0.0018752394244074821,-0.000231883954256773
1772565929076753700,5.005753662109375,0.0029579149559140205,-0.0007045790553092957,0.00022970465943217278
1772565929086782700,5.01578271484375,-0.000060245394706726074,0.000002489425241947174,-0.0005665803328156471
1772565929096810500,5.025810546875,-0.0001564868725836277,0.0010528238490223885,-0.001298360526561737
1772565929106839600,5.035839599609375,0.0014246320351958275,0.000881316140294075,-0.0004088645800948143
1772565929116867600,5.04586767578125,0.001893315464258194,0.0009343791753053665,0.0015866719186306
1772565929126895600,5.0558955078125,0.0014773299917578697,0.0005439594388008118,-0.0008392017334699631
1772565929136924400,5.06592431640625,-0.0006129923276603222,-0.0011114589869976044,-0.00038835546001791954
1772565929146952700,5.07595263671875,0.0010914308950304985,-0.0011428836733102798,0.0024364590644836426
1772565929156981500,5.0859814453125,-0.0003338288515806198,0.002623617649078369,-0.00025774212554097176
1772565929167009500,5.096009521484375,0.0007876278832554817,0.0005594007670879364,-0.0002074083313345909
1772565929177038600,5.10603857421875,-0.0015248996205627918,0.0012964820489287376,0.002286073751747608
1772565929187066600,5.116066650390625,-0.00045111309736967087,0.0006445404142141342,-0.0013371570967137814
1772565929197094700,5.1260947265625,-0.0008232882246375084,-0.0001289593055844307,-0.0008500977419316769
1772565929207123500,5.13612353515625,-0.0023522088304162025,-0.0006948811933398247,0.0024351775646209717
1772565929217151700,5.14615185546875,-0.0007569761946797371,0.0010307496413588524,0.002291534561663866
1772565929227180500,5.1561806640625,0.00006887037307024002,0.001191072165966034,-0.00019665667787194252
1772565929237208600,5.16620849609375,-0.00038224365562200546,-0.001567477360367775,-0.001579667441546917
1772565929247237600,5.176237548828125,-0.0017191502265632153,0.00000804942101240158,-0.0022092387080192566
1772565929257265700,5.186265625,-0.0014121350832283497,0.00023968517780303955,-0.002377208787947893
1772565929267293700,5.196293701171875,-0.0012906952761113644,-0.0004183817654848099,0.0008263080380856991
1772565929277322500,5.206322509765625,0.0009006718173623085,0.00025998707860708237,-0.0017774412408471107
1772565929287350500,5.2163505859375,-0.0010820520110428333,-0.0003341641277074814,0.00021859770640730858
1772565929297379600,5.226379638671875,0.0004249894991517067,0.00303756445646286,0.00298974197357893
1772565929307407600,5.23640771484375,-0.0027953051030635834,0.0015251552686095238,-0.0005298913456499577
1772565929317436400,5.2464365234375,-0.0007855393923819065,0.0007895100861787796,-0.0016670627519488335
1772565929327464700,5.256464599609375,-0.00039778323844075203,0.0008190711960196495,0.003204390872269869
1772565929337492500,5.266492431640625,-0.0026917830109596252,-0.0015741623938083649,-0.0021375659853219986
1772565929347521500,5.276521484375,0.0008893692865967751,-0.00004897080361843109,-0.00023100897669792175
1772565929357549600,5.286549560546875,-0.0001877988688647747,-0.0006017759442329407,-0.0013508056290447712
1772565929367578600,5.29657861328125,-0.00033373991027474403,-0.0021666493266820908,-0.0005454658530652523
1772565929377606700,5.306606689453125,0.0021975552663207054,0.0000020777806639671326,-0.0015592142008244991
1772565929387635500,5.316635498046875,-0.001458432525396347,-0.001340688206255436,0.0012328438460826874
1772565929397663500,5.32666357421875,-0.0002502109855413437,-0.0013694008812308311,-0.0008040415123105049
1772565929407691500,5.33669140625,-0.002487532328814268,0.0011462215334177017,0.0004982440732419491
1772565929417720600,5.346720458984375,-0.0012716464698314667,-0.0007563009858131409,0.0002823485992848873
1772565929427748600,5.35674853515625,-0.00031530531123280525,0.0004194844514131546,-0.00022418517619371414
1772565929437777400,5.36677734375,0.002714402973651886,-0.0006091324612498283,-0.0015063523314893246
1772565929447805700,5.3768056640625,0.0002730833366513252,-0.0003063306212425232,-0.0008184574544429779
1772565929457834500,5.38683447265625,-0.0003596474416553974,-0.0023269038647413254,0.0014975140802562237
1772565929467862500,5.396862548828125,-0.00005551427602767944,-0.001890677958726883,-0.0009629800915718079
1772565929477890600,5.406890625,-0.0004334081895649433,0.00007760990411043167,0.0010074996389448643
1772565929487919600,5.416919677734375,-0.0002672271803021431,0.00014978181570768356,0.000536652747541666
1772565929497947600,5.42694775390625,-0.00043390970677137375,-0.000895804725587368,0.0003900248557329178
1772565929507976400,5.4369765625,-0.000378249678760767,-0.002169327810406685,-0.00023368746042251587
1772565929518004700,5.447004638671875,0.0031968411058187485,0.0006782449781894684,-0.0034535848535597324
1772565929528033500,5.457033447265625,-0.0017819381318986416,0.0006135301664471626,-0.00038695521652698517
1772565929538061600,5.4670615234375,-0.0011395858600735664,0.00020570866763591766,-0.0015991609543561935
1772565929548089600,5.477089599609375,-0.001510297879576683,0.0011916114017367363,-0.0008481494151055813
1772565929558118700,5.48711865234375,-0.00006010476499795914,-0.0011370796710252762,0.0005450081080198288
1772565929568146400,5.497146484375,0.0006722640246152878,0.0013942550867795944,-0.0003631291911005974
1772565929578175500,5.507175537109375,0.0005904175341129303,-0.0004673833027482033,-0.001638071145862341
1772565929588203800,5.517203857421875,-0.00021652039140462875,-0.00007882807403802872,-0.0007208785973489285
1772565929598232600,5.527232666015625,-0.00014131981879472733,-0.0017594164237380028,-0.0005307542160153389
1772565929608260600,5.537260498046875,0.0010890606790781021,-0.0003759041428565979,-0.0006852177903056145
1772565929618288600,5.54728857421875,0.0007320987060666084,-0.00012917350977659225,-0.001212229486554861
1772565929628317200,5.557317138671875,-0.0003249100409448147,0.0008790995925664902,0.0005782139487564564
1772565929638345000,5.567344970703125,0.000540614128112793,-0.0011234376579523087,-0.0025887852534651756
1772565929648374000,5.5773740234375,-0.0019465121440589428,-0.0021309107542037964,0.0020059668458998203
1772565929658402000,5.587402099609375,-0.0007502138614654541,0.0003978665918111801,-0.0000018905848264694214
1772565929668431000,5.59743115234375,0.001066860742866993,-0.0021497132256627083,5.066394805908203e-7
1772565929678459000,5.607458984375,-0.0016110497526824474,-0.0005473894998431206,0.0015023648738861084
1772565929688487200,5.617487060546875,0.000011348165571689606,-0.001741284504532814,-0.0010918201878666878
1772565929698516200,5.62751611328125,-0.0009518740698695183,-0.0000031674280762672424,0.0003516087308526039
1772565929708544000,5.6375439453125,0.00022071599960327148,0.0016999244689941406,0.0012514907866716385
1772565929718573000,5.647572998046875,0.0011535948142409325,-0.002579658292233944,0.00013632932677865028
1772565929728601000,5.65760107421875,0.0006278865039348602,0.00023370422422885895,-0.0029167188331484795
1772565929738630100,5.667630126953125,-0.000448605976998806,-0.0008459007367491722,0.0019091814756393433
1772565929748658000,5.677657958984375,0.0016156099736690521,0.0005759615451097488,0.00025136396288871765
1772565929758686000,5.68768603515625,-0.0005213809199631214,-0.0024733077734708786,-0.00024018064141273499
1772565929768715300,5.69771533203125,0.0013247225433588028,0.0003722803667187691,0.0033116769045591354
1772565929778743000,5.707742919921875,0.0011831680312752724,-0.000007139518857002258,0.0003890623338520527
1772565929788772000,5.717772216796875,-0.0010882425121963024,0.0004141721874475479,-0.00020428979769349098
1772565929798800000,5.7277998046875,0.0010470002889633179,0.004829431883990765,0.00007790373638272285
1772565929808829200,5.7378291015625,0.00041556544601917267,0.002149227075278759,-0.0015223897062242031
1772565929818857000,5.74785693359375,-0.00007169973105192184,-0.0014991024509072304,-0.0007563377730548382
1772565929828885000,5.757885009765625,0.0011504245921969414,0.0011179856956005096,-0.00008388981223106384
1772565929838913800,5.767913818359375,0.000512310303747654,0.0014357585459947586,-0.00005669333040714264
1772565929848942000,5.777942138671875,-0.000245092436671257,0.0030805272981524467,-0.00033392850309610367
1772565929858971100,5.78797119140625,0.00014022644609212875,-0.0018968256190419197,-0.0013050185516476631
1772565929868999000,5.7979990234375,0.0020345328375697136,-0.0007383506745100021,-0.0002275034785270691
1772565929879028000,5.808028076171875,-0.0001922384835779667,0.0014064274728298187,-0.00015721097588539124
1772565929889056000,5.818055908203125,-0.00011260993778705597,0.0007078796625137329,-0.0006112800911068916
1772565929899084000,5.828083984375,-0.00011777691543102264,0.0015927786007523537,-0.0015353024937212467
1772565929909112800,5.83811279296875,0.0019317921251058578,-0.0002903426066040993,-0.0004924088716506958
1772565929919141000,5.84814111328125,0.0022438252344727516,0.0028884252533316612,-0.001779092475771904
1772565929929170200,5.858170166015625,0.0000637611374258995,0.0010673552751541138,-0.0013953307643532753
1772565929939198000,5.868197998046875,-0.0004778048023581505,-0.0004542134702205658,0.00047349603846669197
1772565929949227000,5.87822705078125,-0.000859968364238739,-0.00024675391614437103,0.0017456882633268833
1772565929959255000,5.888255126953125,0.0008330484852194786,-0.0015528248623013496,-0.00020812079310417175
1772565929969283000,5.898282958984375,0.0006375731900334358,-0.0014561517164111137,0.0003881608135998249
1772565929979311900,5.908311767578125,0.0011406615376472473,0.0020007072016596794,0.0012840107083320618
1772565929989340200,5.918340087890625,0.00010389275848865509,0.00027710944414138794,-0.0007983148097991943
1772565929999369200,5.928369140625,-0.000019476749002933502,0.001629810780286789,0.0005386215634644032
1772565930009397000,5.93839697265625,0.001253780908882618,-0.0024038124829530716,0.0020805918611586094
1772565930019426000,5.948426025390625,0.0007491512224078178,0.00038496870547533035,-0.0013917223550379276
1772565930029454000,5.9584541015625,0.00035926513373851776,0.0003522112965583801,0.0005004536360502243
1772565930039482000,5.968482177734375,-0.0009820517152547836,0.00153306033462286,0.0016117491759359837
1772565930049511000,5.978510986328125,0.0008888188749551773,0.0010401085019111633,-0.0010751141235232353
1772565930059539200,5.988539306640625,0.00045069772750139236,0.0018416550010442734,0.003287574276328087
1772565930069568000,5.998568115234375,0.0023247646167874336,-0.0009083254262804985,0.0007080361247062683
1772565930079596000,6.008595947265625,0.000512528233230114,0.0007944963872432709,-0.0007919133640825748
1772565930089623800,6.018623779296875,0.0020193448290228844,0.0007617399096488953,-0.0010952474549412727
1772565930099653000,6.028653076171875,-0.0005551367066800594,-0.0005626408383250237,0.0009248717688024044
1772565930109681200,6.03868115234375,-0.0013413019478321075,0.0021242229267954826,0.0009248717688024044
1772565930119710000,6.0487099609375,-0.0006775972433388233,-0.0018002763390541077,0.00009424705058336258
1772565930129738000,6.058738037109375,0.002223384566605091,0.0031777042895555496,0.0002881251275539398
1772565930139767000,6.06876708984375,-0.0033975327387452126,0.0007749497890472412,-0.000025663059204816818
1772565930149795000,6.078795166015625,0.0011364994570612907,0.0013075824826955795,-0.0017282217741012573
1772565930159824100,6.08882421875,-0.0013942364603281021,0.0010653827339410782,0.0007377667352557182
1772565930169852000,6.098851806640625,0.0006843609735369682,-0.00061081163585186,-0.0020974348299205303
1772565930179880200,6.108880126953125,-0.00027295155450701714,0.002074331045150757,-0.0012906468473374844
1772565930189909000,6.118908935546875,-0.0011443374678492546,0.001017855480313301,-0.0005553481169044971
1772565930199937000,6.12893701171875,0.0013198032975196838,-0.0005671698600053787,-0.001137828454375267
1772565930209965800,6.1389658203125,-0.0027929162606596947,0.0019066398963332176,-0.001128507312387228
1772565930219994000,6.148994140625,0.0011849747970700264,0.00016553793102502823,0.00042390869930386543
1772565930230022000,6.15902197265625,-0.0038702371530234814,0.0021724961698055267,-0.00014787213876843452
1772565930240051000,6.169051025390625,-0.0004968065768480301,0.0011680033057928085,-0.0016830055974423885
1772565930250079000,6.179078857421875,0.0010275868698954582,0.0009224601089954376,0.0022350368089973927
1772565930260108000,6.18910791015625,0.000461590476334095,-0.0019305022433400154,-0.001667248085141182
1772565930270136000,6.199135986328125,-0.0007373644039034843,-0.0000537727028131485,0.0013514445163309574
1772565930280164900,6.209164794921875,-0.0012219985947012901,0.0003191698342561722,-0.0004014349542558193
1772565930290193200,6.219193115234375,0.002558891661465168,0.0009615244343876839,-0.0015953299589455128
1772565930300222000,6.229221923828125,0.00009674485772848129,-0.0008889539167284966,-0.0005648629739880562
1772565930310250000,6.23925,0.0028443289920687675,-0.002568875439465046,0.00020026275888085365
1772565930320278000,6.249278076171875,-0.00044622644782066345,-0.001148986630141735,-0.00286868866533041
1772565930330307000,6.25930712890625,0.0005609812214970589,0.0008643632754683495,0.0003140554763376713
1772565930340335000,6.269335205078125,0.0017091836780309677,-0.002535637468099594,0.0008558537811040878
1772565930350364000,6.279364013671875,0.00010462943464517593,0.0020551197230815887,-0.0025117136538028717
1772565930360392200,6.28939208984375,-0.00016375724226236343,0.0017456971108913422,0.0023480714298784733
1772565930370420000,6.299419921875,-0.0002710828557610512,-0.00008629169315099716,-0.0010695629753172398
1772565930380449000,6.309448974609375,0.001115976832807064,-0.002266964875161648,0.00014890870079398155
1772565930390477000,6.31947705078125,-0.0001879069022834301,-0.00005254615098237991,0.000840265303850174
1772565930400506000,6.329506103515625,-0.00021002581343054771,-0.0010282257571816444,0.0013987012207508087
1772565930410534100,6.3395341796875,0.00228855200111866,0.001490059308707714,0.0011864472180604935
1772565930420563000,6.34956298828125,-0.0005037542432546616,-0.0005779154598712921,0.001926568802446127
1772565930430591200,6.35959130859375,0.0007545892149209976,-0.00007937196642160416,0.0009260191582143307
1772565930440619000,6.369618896484375,-0.0014270497485995293,-0.00003904104232788086,-0.0037003071047365665
1772565930450648000,6.37964794921875,-0.00028854841366410255,-0.0010230783373117447,0.00022013206034898758
1772565930460675800,6.38967578125,-0.000850981567054987,0.0011096308007836342,0.0007882826030254364
1772565930470705200,6.399705078125,0.0003439793363213539,-0.0010046521201729774,0.0003685681149363518
1772565930480733000,6.40973291015625,-0.0007146187126636505,0.001023951917886734,-0.001509503461420536
1772565930490762000,6.419761962890625,0.0008944626897573471,0.0009198226034641266,-0.0017265514470636845
1772565930500790000,6.4297900390625,-0.0005401554517447948,0.00023895315825939178,-0.000007197726517915726
1772565930510818000,6.439818115234375,0.0005677193403244019,0.000037884339690208435,-0.0000141216441988945
1772565930520847000,6.44984716796875,0.0001896638423204422,-0.003140960820019245,-0.0020141336135566235
1772565930530875000,6.459875,-0.001559233758598566,-0.0018887417390942574,0.0025244257412850857
1772565930540904000,6.469904052734375,-0.0013442174531519413,0.0002692015841603279,-0.00012432830408215523
1772565930550932000,6.479931884765625,0.0010427739471197128,0.0006838561967015266,0.001153190154582262
1772565930560961000,6.4899609375,0.0020217588171362877,0.001100100576877594,-0.00021868199110031128
1772565930570989000,6.499989013671875,-0.002976462244987488,-0.0005545215681195259,0.0005786684341728687
1772565930581017000,6.51001708984375,-0.000975209753960371,0.0022987481206655502,0.0022789519280195236
1772565930591046100,6.520046142578125,-0.0014631007798016071,0.0011871447786688805,0.0016592349857091904
1772565930601074000,6.530073974609375,-0.002193653490394354,-0.000473732128739357,-0.002403758931905031
1772565930611103000,6.54010302734375,-0.0006026811897754669,0.00015903543680906296,-0.0030535701662302017
1772565930621131000,6.550131103515625,-0.0014778734184801579,0.0013826657086610794,-0.0013736221008002758
1772565930631161300,6.560161376953125,-0.0010991720482707024,0.002314506098628044,-0.0018820199184119701
1772565930641189600,6.570189697265625,0.0017839595675468445,0.0017494084313511848,-0.0006339619867503643
1772565930651217400,6.580217529296875,-0.00014709867537021637,-0.00003943685442209244,-0.0009154579602181911
1772565930661246500,6.59024658203125,0.0016176588833332062,0.0007575852796435356,-0.00041834544390439987
1772565930671274500,6.6002744140625,-0.0008782553486526012,-0.001773749478161335,-0.000109152402728796
1772565930681303600,6.610303466796875,-0.0001209392212331295,-0.0019569871947169304,0.0013549216091632843
1772565930691331600,6.62033154296875,0.0023030703887343407,-0.002172171138226986,0.0011586472392082214
1772565930701360400,6.6303603515625,-0.0004818430170416832,-0.00048803817480802536,-0.0007574274204671383
1772565930711388700,6.640388671875,-0.0015076925046741962,0.0004573836922645569,0.0005685607902705669
1772565930721416400,6.65041650390625,-0.0002397550269961357,0.00024294015020132065,-0.00039216969162225723
1772565930731445500,6.660445556640625,0.00007263384759426117,-0.0011102119460701942,0.0007471307180821896
1772565930741473500,6.6704736328125,0.0008544614538550377,0.000835830345749855,-0.0007437788881361485
1772565930751502600,6.680502685546875,-0.001085118856281042,-0.00042064860463142395,-0.001685206312686205
1772565930761530600,6.690530517578125,0.0018445365130901337,-0.0013672010973095894,-0.00017631007358431816
1772565930771559400,6.700559326171875,-0.0018878835253417492,0.0006536059081554413,0.00031637493520975113
1772565930781587700,6.710587646484375,0.0008265925571322441,-0.0010559670627117157,-0.0009657582268118858
1772565930791615500,6.720615478515625,-0.0007308237254619598,-0.0023923413828015327,0.0011732927523553371
1772565930801644500,6.73064453125,-0.000479190144687891,-0.00030257273465394974,0.0011420692317187786
1772565930811672600,6.740672607421875,0.00026569608598947525,0.0013288799673318863,0.00232424633577466
1772565930821701600,6.75070166015625,0.00007316377013921738,-0.0016815392300486565,0.00039572548121213913
1772565930831729700,6.760729736328125,-0.0004999483935534954,0.0008103800937533379,0.00025324616581201553
1772565930841758500,6.770758544921875,0.001217469573020935,-0.001360415481030941,-0.0016816193237900734
1772565930851786500,6.780786376953125,-0.0026667509227991104,-0.0018094247207045555,0.0009652962908148766
1772565930861814500,6.790814453125,0.0026150941848754883,0.0012786909937858582,0.0010265624150633812
1772565930871843600,6.800843505859375,0.001904563046991825,0.0007860055193305016,0.0007213642820715904
1772565930881871400,6.810871337890625,-0.00007212907075881958,-0.00048298202455043793,0.001954934559762478
1772565930891900400,6.820900390625,0.0010490622371435165,0.00032608676701784134,0.001132284291088581
1772565930901928400,6.830928466796875,-0.0018989285454154015,0.0015434902161359787,-0.0010429024696350098
1772565930911957500,6.84095751953125,-0.0004786648787558079,0.000612182542681694,0.00017842324450612068
1772565930921985500,6.850985595703125,-0.0016437801532447338,0.00009464472532272339,0.0011437763459980488
1772565930932013600,6.861013671875,0.0022590821608901024,-0.000846516340970993,0.002335540484637022
1772565930942042600,6.871042724609375,-0.000783014576882124,-0.002022664062678814,0.0005533406510949135
1772565930952070400,6.8810703125,0.0013033058494329453,-0.00019839871674776077,-0.0014432314783334732
1772565930962099500,6.891099365234375,-0.0004368722438812256,0.0015845932066440582,-0.0010104798711836338
1772565930972127500,6.90112744140625,-0.0012094555422663689,-0.0007222369313240051,0.0006880839355289936
1772565930982155500,6.911155517578125,-0.0009634378366172314,-0.0003344127908349037,0.0007434338331222534
1772565930992184600,6.9211845703125,-0.0007077744230628014,0.0004426976665854454,0.0012313248589634895
1772565931002212600,6.931212646484375,-0.0016066022217273712,0.00009595509618520737,-0.0003848401829600334
1772565931012241700,6.94124169921875,-0.0012875553220510483,0.002484278753399849,-0.0003267833963036537
1772565931022269400,6.95126953125,-0.00040903594344854355,0.000375126488506794,-0.0016589942388236523
1772565931032298500,6.961298583984375,-0.0009009218774735928,0.00012718699872493744,-0.00048161065205931664
1772565931042326500,6.971326416015625,0.00203009694814682,-0.0023620687425136566,0.00180011335760355
1772565931052354600,6.9813544921875,-0.00008285511285066605,-0.0010035904124379158,-0.0003133709542453289
1772565931062383600,6.991383544921875,0.0006820261478424072,-0.0019596097990870476,0.0009392658248543739
1772565931072411600,7.00141162109375,-0.0006492878310382366,0.001222335733473301,0.0012119738385081291
1772565931082440700,7.011440673828125,0.0005156714469194412,-0.0011344989761710167,-0.0009887027554214
1772565931092468500,7.021468505859375,0.0028997333720326424,0.0019643548876047134,0.0007969471625983715
1772565931102497500,7.03149755859375,0.0023715225979685783,-0.0005921637639403343,-0.002308421302586794
1772565931112525600,7.041525634765625,-0.00038777850568294525,0.00013887416571378708,-0.00011504208669066429
1772565931122553600,7.0515537109375,0.0006830189377069473,0.0010879766196012497,0.000623858068138361
1772565931132582400,7.06158251953125,-0.0004906365647912025,-0.0009291013702750206,-0.0013186517171561718
1772565931142610400,7.0716103515625,-0.0005378737114369869,-0.0006778361275792122,0.001338495872914791
1772565931152639700,7.0816396484375,-0.00036183884367346764,-0.0016155345365405083,0.000676967203617096
1772565931162667500,7.09166748046875,0.00011322181671857834,-0.0009587006643414497,-0.002292964141815901
1772565931172696600,7.101696533203125,0.0011214949190616608,-0.0018314179033041,-0.00023194355890154839
1772565931182724400,7.111724365234375,-0.0004532700404524803,-0.000038625672459602356,-0.000887725967913866
1772565931192752600,7.121752685546875,-0.0007866979576647282,-0.001499369740486145,0.000014819670468568802
1772565931202781400,7.131781494140625,-0.00033650873228907585,0.0007338542491197586,0.0003079310990869999
1772565931212809500,7.1418095703125,-0.000623597763478756,-0.0008137086406350136,-0.00019673770293593407
1772565931222838500,7.151838623046875,0.0007404321804642677,0.0003733756020665169,0.001122690737247467
1772565931232866600,7.161866455078125,0.0006975559517741203,0.0008610012009739876,0.0007868660613894463
1772565931242895600,7.1718955078125,0.00022838730365037918,0.0002072751522064209,-0.000497906468808651
1772565931252923400,7.18192333984375,-0.0004965253174304962,-0.0008097859099507332,0.0008211568929255009
1772565931262951700,7.19195166015625,0.0010764552280306816,-0.0006201015785336494,-0.0037262169644236565
1772565931272980500,7.20198046875,0.00041812192648649216,0.00010880548506975174,0.0008435011841356754
1772565931283008500,7.212008544921875,0.0011075111106038094,-0.002810100093483925,0.000013286247849464417
1772565931293037300,7.222037353515625,-0.0007140915840864182,-0.0006851637735962868,-0.0016471943818032742
1772565931303065600,7.232065673828125,0.0009364932775497437,-0.00023190956562757492,-0.0001597842201590538
1772565931313094700,7.2420947265625,-0.001896311528980732,0.002518603578209877,-0.0006884215399622917
1772565931323122400,7.252122314453125,-0.0013703331351280212,0.0002290569245815277,0.0008939784020185471
1772565931333150700,7.262150634765625,-0.00007257470861077309,-0.0018644537776708603,0.0015914598479866982
1772565931343179500,7.272179443359375,0.00014701765030622482,0.0003267116844654083,-0.0012475503608584404
1772565931353207600,7.28220751953125,0.0004218565300107002,0.001209815964102745,-0.001089625060558319
1772565931363236400,7.292236328125,-0.0005113263614475727,-0.0020527634769678116,-0.002416270785033703
1772565931373264600,7.3022646484375,0.0009725866839289665,-0.001361939124763012,-0.0012607253156602383
1772565931383293700,7.312293701171875,0.0005434295162558556,0.00253928080201149,0.0011603394523262978
1772565931393321500,7.322321533203125,-0.001632106490433216,0.0010162191465497017,0.000940629281103611
1772565931403349800,7.332349853515625,-0.0004831487312912941,0.00038653239607810974,-0.000767863355576992
1772565931413378600,7.342378662109375,0.00001699291169643402,-0.00026807282119989395,-0.0014237998984754086
1772565931423406600,7.352406494140625,0.0009970879182219505,-0.002348499372601509,0.0015403181314468384
1772565931433435400,7.362435302734375,-0.0005475450307130814,-0.0009202463552355766,-0.0015987493097782135
1772565931443463700,7.372463623046875,0.0007474878802895546,0.0004751160740852356,-0.0017052339389920235
1772565931453491500,7.382491455078125,0.0009272517636418343,-0.0011653918772935867,0.0007166448049247265
1772565931463520500,7.3925205078125,0.0014740126207470894,-0.0014425264671444893,-0.0008976277895271778
1772565931473548500,7.402548583984375,0.0012713456526398659,-0.0007703443989157677,0.002151159103959799
1772565931483577600,7.41257763671875,-0.0026369523257017136,-0.000002292916178703308,0.0026361625641584396
1772565931493605600,7.422605712890625,0.000019284896552562714,-0.00024011265486478806,-0.0009471205994486809
1772565931503634400,7.432634521484375,0.0017203791067004204,0.0012676995247602463,-0.0007519619539380074
1772565931513662500,7.442662353515625,-0.0006841891445219517,0.0008402615785598755,-0.002509914804250002
1772565931523690500,7.4526904296875,-0.00038654031231999397,-0.0006147446110844612,0.0009055091068148613
1772565931533719600,7.462719482421875,0.0012425156310200691,-0.0008858544752001762,0.0004943171516060829
1772565931543747300,7.472747314453125,0.0010922662913799286,-0.0009687254205346107,-0.0021482803858816624
1772565931553776400,7.4827763671875,0.0007130326703190804,-0.0008797766640782356,-0.00013173464685678482
1772565931563804700,7.4928046875,-0.0006203711964190006,-0.00034254975616931915,0.00041063688695430756
1772565931573833500,7.50283349609375,0.0006781863048672676,-0.000475175678730011,0.0015358226373791695
1772565931583861500,7.512861572265625,0.0012348154559731483,-0.0013431329280138016,0.0007328237406909466
1772565931593889500,7.5228896484375,-0.00036068400368094444,-0.0007063709199428558,0.0023773261345922947
1772565931603918600,7.532918701171875,-0.0006656753830611706,-0.00045152846723794937,-0.002068426925688982
1772565931613946400,7.5429462890625,-0.0005548880435526371,0.0010723322629928589,-0.0018537761643528938
1772565931623975400,7.552975341796875,-0.0013709706254303455,0.001658240333199501,0.0009625209495425224
1772565931634003200,7.563003173828125,0.0011816686019301414,-0.00042088981717824936,-0.0001477506011724472
1772565931644032300,7.5730322265625,-0.0013897824101150036,0.000787767581641674,-0.002627274487167597
1772565931654060000,7.58306005859375,0.0008536642417311668,0.0024695545434951782,-0.0009452220983803272
1772565931664088300,7.59308837890625,-0.000040240585803985596,-0.0016356892883777618,-0.00045524584129452705
1772565931674117000,7.6031171875,-0.000749706756323576,-0.0002066371962428093,-0.00031356606632471085
1772565931684145200,7.613145263671875,-0.0008212528191506863,0.0002353200688958168,0.00042080972343683243
1772565931694174200,7.62317431640625,0.000656534917652607,-0.0018398156389594078,-0.0006276769563555717
1772565931704202200,7.6332021484375,-0.0006964923813939095,0.001210230402648449,-0.0014622528105974197
1772565931714231300,7.643231201171875,-0.001042436808347702,-0.0015392163768410683,-0.00005796831101179123
1772565931724259000,7.653259033203125,-0.0012017106637358665,-0.0026458417996764183,0.0002256380394101143
1772565931734287400,7.663287353515625,-0.0019471296109259129,0.0003110654652118683,0.0012434981763362885
1772565931744316200,7.673316162109375,0.00039925146847963333,0.0018099723383784294,-0.0005074278451502323
1772565931754344200,7.68334423828125,0.0009300196543335915,0.000009675510227680206,0.0008233534172177315
1772565931764373200,7.693373291015625,0.0013154195621609688,0.0017631808295845985,0.0050630634650588036
1772565931774401300,7.7034013671875,-0.00114374328404665,0.0007136287167668343,0.0018747271969914436
1772565931784429300,7.71342919921875,0.0006055282428860664,0.0016862954944372177,0.0005428032018244267
1772565931794458000,7.7234580078125,0.0008723773062229156,-0.0011321278288960457,-0.0004473598673939705
1772565931804486400,7.733486328125,-0.00043756188824772835,-0.0008140066638588905,0.004355656448751688
1772565931814515200,7.74351513671875,0.0007808338850736618,-0.002008700743317604,-0.0018361927941441536
1772565931824543200,7.753543212890625,-0.0002785264514386654,-0.00040051620453596115,-0.0005934364162385464
1772565931834572300,7.763572265625,0.0009230915457010269,-0.0006242217496037483,0.00017941230908036232
1772565931844600300,7.773600341796875,0.0008722096681594849,0.0007602814584970474,-0.004153080750256777
1772565931854628000,7.783628173828125,0.0007065609097480774,-0.0018072724342346191,0.0008078557439148426
1772565931864657200,7.7936572265625,0.00001091044396162033,0.0004968540742993355,0.0019775028340518475
1772565931874685200,7.803685302734375,-0.0011757942847907543,0.0016454756259918213,-0.00037992699071764946
1772565931884714200,7.81371435546875,0.001310083083808422,-0.000833519734442234,-0.0009766086004674435
1772565931894742300,7.8237421875,0.0005252491682767868,0.0014357594773173332,-0.0016820798628032207
1772565931904771000,7.83377099609375,0.0008292356505990028,-0.00023912359029054642,-0.0004146294668316841
1772565931914799000,7.843799072265625,-0.0006605368107557297,-0.0015608500689268112,-0.0010750931687653065
1772565931924827100,7.8538271484375,-0.00010957103222608566,-0.00043250806629657745,-0.0010355529375374317
1772565931934856200,7.863856201171875,0.00007631815969944,0.0015241168439388275,-0.00048001762479543686
1772565931944884200,7.87388427734375,-0.0003801342099905014,0.00041958037763834,0.001480878796428442
1772565931954913000,7.8839130859375,0.0007975157350301743,-0.0004970794543623924,-0.0005958536639809608
1772565931964941300,7.89394140625,-0.000921999104321003,-0.0006958432495594025,-0.0008520032279193401
1772565931974970000,7.90397021484375,-0.00023943092674016953,-0.0001280568540096283,0.003943018149584532
1772565931984998100,7.913998046875,0.0011016111820936203,-0.0004030289128422737,0.0018070042133331299
1772565931995026200,7.924026123046875,-0.0003633936867117882,0.0008337423205375671,-0.0009496337734162807
1772565932005055200,7.93405517578125,0.0009090406820178032,-0.0016287053003907204,0.0006104116328060627
1772565932015083300,7.944083251953125,-0.000023331493139266968,0.0028611179441213608,0.0019095013849437237
1772565932025112000,7.954112060546875,0.001776120625436306,-0.00016405992209911346,-0.0011414820328354836
1772565932035140400,7.964140380859375,-0.00009395135566592216,-0.0009840475395321846,0.0016748113557696342
1772565932045169200,7.974169189453125,-0.002474565990269184,0.00034050922840833664,0.00012289034202694893
1772565932055197200,7.984197265625,-0.0017405985854566097,0.00009283516556024551,-0.0009050900116562843
1772565932065225200,7.99422509765625,-0.00024264072999358177,-0.0018407003954052925,-0.0022679781541228294
1772565932075254300,8.004254150390626,0.0005794772878289223,0.0001510772854089737,-0.0009262776002287865
1772565932085282000,8.014281982421876,0.00007598288357257843,0.0007648570463061333,-0.00015027634799480438
1772565932095311000,8.02431103515625,-0.000053180381655693054,0.0016016215085983276,0.0010750442743301392
1772565932105339400,8.03433935546875,-0.000049472786486148834,-0.0010098721832036972,0.0008044466376304626
1772565932115367200,8.0443671875,0.0019106138497591019,0.0009598014876246452,-0.0012789443135261536
1772565932125396200,8.054396240234375,0.0001298319548368454,-0.0015748217701911926,0.003122348338365555
1772565932135424300,8.06442431640625,-0.0001950734294950962,0.0004806052893400192,-0.0003141947090625763
1772565932145453300,8.074453369140626,0.00008727610111236572,-0.0003492198884487152,0.0023018596693873405
1772565932155481000,8.084481201171876,-0.0007691960781812668,-0.001123666763305664,-0.001771977636963129
1772565932165510100,8.09451025390625,-0.0015201163478195667,-0.0011561084538698196,0.0006292345933616161
1772565932175538200,8.1045380859375,0.0011441102251410484,-0.00020535942167043686,0.0003791642375290394
1772565932185566200,8.114566162109375,-0.0009856554679572582,0.0006211232393980026,0.0017690942622721195
1772565932195595300,8.12459521484375,-0.002094062976539135,-0.002107817679643631,-0.00035983650013804436
1772565932205623000,8.134623046875,-0.0014515835791826248,-0.0019127242267131805,0.00038142362609505653
1772565932215652400,8.14465234375,0.0007596388459205627,0.000907297246158123,0.0005063260905444622
1772565932225680100,8.15468017578125,0.0027694860473275185,-0.0009625498205423355,-0.0028025046922266483
1772565932235709200,8.164709228515624,0.00006051827222108841,-0.00043044984340667725,-0.0018450981006026268
1772565932245737200,8.1747373046875,-0.00018660910427570343,-0.0008367607370018959,-0.0013057147152721882
1772565932255765200,8.18476513671875,0.0009593488648533821,0.0010660672560334206,-0.0011848071590065956
1772565932265794300,8.194794189453125,-0.0004195007495582104,-0.0004935022443532944,0.000011317897588014603
1772565932275822000,8.204822021484375,-0.00007089274004101753,0.0008985316380858421,-0.0025141574442386627
1772565932285851100,8.21485107421875,-0.001062203198671341,0.0011021578684449196,-0.0018210210837423801
1772565932295879200,8.224879150390626,-0.0024931197986006737,-0.0011990796774625778,0.0027369786985218525
1772565932305908200,8.234908203125,0.0010582255199551582,0.0015554903075098991,0.00004951516166329384
1772565932315936000,8.24493603515625,0.002167964354157448,0.002607438713312149,0.0006354101933538914
1772565932325964300,8.25496435546875,-0.00022957613691687584,-0.0005972273647785187,0.0019185859709978104
1772565932335993300,8.264993408203125,-0.0008543538860976696,-0.0002584727481007576,-0.0012250090949237347
1772565932346021000,8.275021240234375,0.0002548797056078911,0.00005940347909927368,-0.0003328337334096432
1772565932356050200,8.28505029296875,0.00008656829595565796,-0.00003700330853462219,0.0002573225647211075
1772565932366078200,8.295078125,0.0011748848482966423,-0.0008252644911408424,-0.0009504384361207485
1772565932376107300,8.305107177734374,0.000691520981490612,-0.0007613487541675568,-0.0017382013611495495
1772565932386135000,8.315135009765624,0.00019449274986982346,-0.00034458283334970474,0.00024878885596990585
1772565932396163300,8.325163330078125,0.0010847877711057663,-0.00308337714523077,0.0010855533182621002
1772565932406192400,8.3351923828125,-0.0006208517588675022,-0.001714298501610756,-0.0016406192444264889
1772565932416220200,8.34522021484375,-0.0005580009892582893,0.0008513908833265305,0.0011823312379419804
1772565932426249200,8.355249267578126,0.0011778520420193672,0.0015766452997922897,-0.0007756706327199936
1772565932436277200,8.36527734375,0.000479305163025856,-0.0013126181438565254,-0.0021317522041499615
1772565932446305300,8.37530517578125,0.0017216149717569351,0.0020392443984746933,-0.00019778264686465263
1772565932456334000,8.385333984375,0.0032952772453427315,-0.0019597578793764114,0.0007508355192840099
1772565932466362000,8.395362060546875,0.0010752063244581223,0.002172817476093769,-0.0023945579305291176
1772565932476391400,8.405391357421875,0.0006136810407042503,0.0005690623074769974,0.00030002882704138756
1772565932486419200,8.415419189453125,-0.0006343652494251728,-0.0009215278550982475,0.0004772697575390339
1772565932496448300,8.4254482421875,0.0004540691152215004,0.0004247007891535759,-0.00142662413418293
1772565932506476300,8.435476318359376,-0.0015105055645108223,0.0006535788998007774,-0.00003588385879993439
1772565932516504300,8.44550439453125,-0.0014585736207664013,0.00016994960606098175,0.001786517444998026
1772565932526533000,8.455533203125,-0.0018898393027484417,0.0010582543909549713,-0.0006725131534039974
1772565932536561200,8.46556103515625,0.000547485426068306,-0.001068812794983387,0.0002601258456707001
1772565932546590200,8.475590087890625,-0.0004457645118236542,0.0002309093251824379,0.0007261456921696663
1772565932556618200,8.4856181640625,-0.0002995571121573448,-0.0005824193358421326,-0.0002664146013557911
1772565932566647300,8.495647216796876,-0.0001663779839873314,-0.00018136575818061829,-0.0006272848695516586
1772565932576675000,8.505675048828126,-0.0015911688096821308,-0.0005432888865470886,-0.0015697772614657879
1772565932586703400,8.515703369140626,-0.002915323246270418,0.00026676710695028305,0.0009183785878121853
1772565932596732200,8.525732177734374,-0.0013488521799445152,-0.0005183331668376923,0.0008555282838642597
1772565932606760200,8.53576025390625,0.0005521019920706749,-0.0006636781617999077,-0.0010512820445001125
1772565932616789000,8.5457890625,-0.0015571215189993382,0.00021569710224866867,-0.0000326232984662056
1772565932626816500,8.55581640625,0.0009480537846684456,0.001742623746395111,-0.0006499406881630421
1772565932636845600,8.565845458984375,0.00041009485721588135,0.0021487558260560036,-0.0018829843029379845
1772565932646873600,8.57587353515625,-0.0019106012769043446,0.00012017041444778442,-0.00041489163413643837
1772565932656901600,8.585901611328126,-0.0025862455368041992,0.001561206765472889,-0.0010402020998299122
1772565932666930400,8.595930419921874,0.0008051181212067604,-0.00059549231082201,0.00006776908412575722
1772565932676958500,8.60595849609375,0.0008778227493166924,-0.0018197475001215935,0.0005444749258458614
1772565932686987500,8.615987548828125,-0.00294336024671793,0.0008266186341643333,-0.001304103061556816
1772565932697015600,8.626015625,-0.00044158659875392914,-0.001763838343322277,-0.00011340389028191566
1772565932707043600,8.636043701171875,0.0001612156629562378,-0.0013222265988588333,-0.001965433359146118
1772565932717072400,8.646072265625,-0.0011615762487053871,-0.0018591200932860374,0.0004330091178417206
1772565932727100700,8.6561005859375,0.002926468849182129,0.0009060967713594437,-0.0018202364444732666
1772565932737129500,8.66612939453125,0.00199862290173769,0.0005116825923323631,-0.0005634906701743603
1772565932747157500,8.676157470703124,-0.00022151554003357887,0.0011264951899647713,0.00035780807957053185
1772565932757186600,8.6861865234375,-0.0004875650629401207,0.0006407340988516808,-0.0016419589519500732
1772565932767214600,8.696214599609375,-0.0001862887293100357,0.0006951615214347839,0.002610943280160427
1772565932777242400,8.706242431640625,0.0005508745089173317,0.0002797078341245651,-0.0010823281481862068
1772565932787271400,8.716271484375,0.0009632650762796402,-0.0028071338310837746,0.003140650223940611
1772565932797299700,8.7262998046875,-0.0002474081702530384,-0.0009719496592879295,-0.0009467690251767635
1772565932807328500,8.73632861328125,0.000012201257050037384,0.0010441243648529053,0.00016066757962107658
1772565932817356500,8.7463564453125,-0.0011558611877262592,0.00011974107474088669,-0.000055048614740371704
1772565932827385300,8.75638525390625,-0.001167012844234705,-0.00012555066496133804,-0.001347281038761139
1772565932837413600,8.76641357421875,0.00005111750215291977,0.0007357150316238403,0.0020152260549366474
1772565932847441400,8.77644140625,-0.0013785064220428467,-0.0012752190232276917,-0.0019459770992398262
1772565932857470500,8.786470458984375,-0.0017476207576692104,0.0032212622463703156,-0.00025939708575606346
1772565932867498800,8.796498779296876,-0.0005217515863478184,-0.0009525008499622345,0.0020775296725332737
1772565932877527600,8.806527587890624,0.0006819972768425941,0.002857150509953499,0.00024234456941485405
1772565932887555600,8.8165556640625,-0.0012644645757973194,-0.0014483723789453506,0.001579280011355877
1772565932897584400,8.82658447265625,0.0005118642002344131,-0.002955455332994461,0.0015353383496403694
1772565932907612700,8.83661279296875,0.0007818285375833511,-0.0006250264123082161,-0.003954973071813583
1772565932917640400,8.846640380859375,0.00046624429523944855,0.00010947417467832565,-0.0017658551223576069
1772565932927669500,8.85666943359375,0.0006514787673950195,-0.00010483711957931519,0.0015532439574599266
1772565932937697500,8.866697509765626,-0.0003418801352381706,-0.00023559853434562683,0.0002887751907110214
1772565932947726600,8.8767265625,-0.00030888384208083153,0.00029031652957201004,0.0004883166402578354
1772565932957754600,8.886754638671874,0.00017687678337097168,-0.00012673437595367432,0.0015423959121108055
1772565932967783400,8.896783447265625,-0.0019055400043725967,-0.0006679948419332504,-0.0022671669721603394
1772565932977811500,8.9068115234375,0.0014979802072048187,-0.0002064686268568039,0.0020250496454536915
1772565932987839500,8.916839599609375,-0.000585438683629036,0.0009522233158349991,-0.00030980678275227547
1772565932997868500,8.92686865234375,-0.001912758219987154,-0.00004433188587427139,0.00021962914615869522
1772565933007896300,8.936896240234375,0.001077522523701191,-0.0013140859082341194,0.000098472461104393
1772565933017925400,8.94692529296875,-0.0009534037671983242,0.0005272235721349716,-0.0004512039013206959
1772565933027953700,8.95695361328125,-0.0001696585677564144,-0.0015059113502502441,-0.0007137805223464966
1772565933037981400,8.9669814453125,0.0022985590621829033,0.0011692335829138756,0.000238033477216959
1772565933048010500,8.977010498046875,0.0009286990389227867,0.0025793882086873055,-0.002019288018345833
1772565933058038500,8.98703857421875,0.0010253721848130226,-0.000331181101500988,0.00037915492430329323
1772565933068067600,8.997067626953125,-0.0017651645466685295,-0.00008036009967327118,0.0009964336641132832
1772565933078095400,9.007095458984375,0.0022285114973783493,-0.0002404162660241127,0.0008757929317653179
1772565933088124400,9.01712451171875,0.0027829036116600037,0.0010823644697666168,-0.0012342124246060848
1772565933098152700,9.027152587890624,-0.0007668235339224339,-0.0017200801521539688,0.0006848610937595367
1772565933108180500,9.037180419921874,-0.0016209688037633896,0.001187601126730442,-0.00017028069123625755
1772565933118209500,9.04720947265625,0.00024777092039585114,-0.0014494610950350761,-0.0022440841421484947
1772565933128237600,9.057237548828125,0.00026557687669992447,0.001551678404211998,-0.0014293990097939968
1772565933138266600,9.0672666015625,-0.001694775652140379,0.000566309317946434,-0.0006232601590454578
1772565933148294400,9.07729443359375,-0.00008914992213249207,-0.0017903344705700874,0.0018876572139561176
1772565933158323500,9.087323486328126,0.00012869667261838913,-0.000739184208214283,-0.000006116926670074463
1772565933168351700,9.097351806640624,0.002268371172249317,0.0004192870110273361,0.0004544476978480816
1772565933178379500,9.107379638671874,-0.0010691029019653797,-0.00030136480927467346,-0.003116584848612547
1772565933188408600,9.11740869140625,0.0005454933270812035,0.000483853742480278,0.0015765936113893986
1772565933198436600,9.1274365234375,0.000589701347053051,0.0006433762609958649,-0.00002902606502175331
1772565933208465700,9.137465576171875,0.0003464221954345703,-0.00037274323403835297,0.0001689111813902855
1772565933218493400,9.147493408203125,0.0007450981065630913,-0.0025951508432626724,0.00032630376517772675
1772565933228522500,9.1575224609375,-0.0015952535904943943,0.0005717314779758453,-0.0010111643932759762
1772565933238550500,9.167550537109374,-0.0007393136620521545,-0.000053845345973968506,0.002059459686279297
1772565933248578600,9.17757861328125,0.001361648552119732,0.0018664393573999405,0.002009560354053974
1772565933258607600,9.187607666015625,0.0008689640089869499,-0.003059609793126583,-0.0009851641952991486
1772565933268635400,9.197635498046875,-0.000315898098051548,0.0030862046405673027,0.002320514991879463
1772565933278664700,9.207664794921875,-0.00005277758464217186,0.0009085377678275108,-0.00007446575909852982
1772565933288692500,9.2176923828125,0.0007630931213498116,0.001237412914633751,0.0008637364953756332
1772565933298721500,9.227721435546876,-0.001553857233375311,-0.00028831232339143753,0.00024055689573287964
1772565933308749300,9.237749267578126,-0.0011610849760472775,0.0015579788014292717,-0.0005043107084929943
1772565933318777600,9.247777587890624,-0.000041758641600608826,-0.0001813312992453575,0.001516229473054409
1772565933328806700,9.257806640625,-0.0026711663231253624,0.0020454581826925278,0.0011660675518214703
1772565933338834400,9.26783447265625,-0.0011046947911381721,0.001346910372376442,-0.00022410228848457336
1772565933348863500,9.277863525390625,0.00004604272544384003,0.0009593302384018898,-0.0032536997459828854
1772565933358891500,9.2878916015625,-0.0005459776148200035,-0.003094799816608429,0.002400723285973072
1772565933368919600,9.29791943359375,0.001214190386235714,-0.001440318301320076,-0.0011825701221823692
1772565933378948400,9.3079482421875,0.0003103138878941536,0.00000444706529378891,0.0016947085969150066
1772565933388976600,9.3179765625,0.00008846074342727661,0.000873863697052002,0.0022921464405953884
1772565933399005700,9.328005615234375,-0.000492374412715435,-0.000050518661737442017,-0.00036622071638703346
1772565933409033500,9.338033447265625,0.002259800210595131,0.0011237412691116333,-0.0037213501054793596
1772565933419062500,9.3480625,-0.002003920264542103,0.0009623542428016663,0.0022563813254237175
1772565933429090600,9.358090576171875,0.0012695109471678734,0.0001894105225801468,-0.002820227760821581
1772565933439118600,9.36811865234375,0.0000742841511964798,-0.0001687845215201378,-0.0022569689899683
1772565933449147400,9.3781474609375,-0.000627394299954176,0.002230060286819935,0.002095676027238369
1772565933459175700,9.38817578125,-0.0005592177622020245,0.0011019445955753326,0.0000421120785176754
1772565933469204500,9.39820458984375,-0.002018251456320286,0.001103241927921772,-0.002747796941548586
1772565933479232500,9.408232421875,0.0021131103858351707,0.000777270644903183,0.0027953065000474453
1772565933489261600,9.418261474609375,0.001044698990881443,0.0016537569463253021,0.0009770137257874012
1772565933499289600,9.42828955078125,0.000773322768509388,0.000967993400990963,-0.0014608441852033138
1772565933509317600,9.438317626953125,0.0010151686146855354,-0.001524427905678749,-0.0009115021675825119
1772565933519346400,9.448346435546876,-0.0003363853320479393,0.0008665584027767181,-0.0008286777883768082
1772565933529374700,9.458374755859374,-0.00045662885531783104,-0.0006473315879702568,-0.0017477762885391712
1772565933539403500,9.468403564453125,-0.0014899354428052902,0.000006474554538726807,0.0033620307222008705
1772565933549431600,9.478431640625,-0.0017349142581224442,-0.0006322413682937622,-0.0027693328447639942
1772565933559459300,9.488459228515625,-0.0016470300033688545,0.0005427449941635132,-0.0015245713293552399
1772565933569488600,9.498488525390625,-0.0022832509130239487,-0.00014421157538890839,0.0007856343872845173
1772565933579516700,9.5085166015625,-0.0008230395615100861,0.0012930957600474358,-0.0003416812978684902
1772565933589545500,9.51854541015625,-0.0002584117464721203,0.000008978880941867828,-0.0011088741011917591
1772565933599573500,9.528573486328124,-0.00019103381782770157,0.0011589322239160538,-0.0015416378155350685
1772565933609602600,9.5386025390625,-0.0005131037905812263,0.0007425304502248764,-0.000644125510007143
1772565933619630600,9.548630615234375,0.0008147479966282845,0.0016437442973256111,-0.0013277586549520493
1772565933629657900,9.558657958984375,-0.0009846976026892662,0.004215366207063198,0.00018752645701169968
1772565933639687200,9.568687255859375,-0.002052358817309141,-0.0010952427983283997,0.0007135001942515373
1772565933649715000,9.57871484375,-0.001818239688873291,-0.0005829334259033203,-0.0016011171974241734
1772565933659744000,9.588743896484376,0.001370096579194069,0.0020634494721889496,-0.0006977729499340057
1772565933669772000,9.59877197265625,-0.0006763334386050701,0.0013228803873062134,0.001053894404321909
1772565933679801000,9.608801025390624,-0.00005368655547499657,0.0010949131101369858,-0.0006316201761364937
1772565933689829000,9.6188291015625,0.0012980252504348755,-0.0018443390727043152,0.0011954037472605705
1772565933699857000,9.62885693359375,-0.0012365048751235008,-0.0017972011119127274,-0.002164706587791443
1772565933709886000,9.638885986328125,-0.00003935396671295166,0.00105361919850111,0.0004499424248933792
1772565933719914000,9.6489140625,-0.0006385650485754013,-0.0019664056599140167,0.000742889940738678
1772565933729943000,9.658943115234376,-0.001155727542936802,-0.0010731583461165428,-0.00008937157690525055
1772565933739970800,9.668970703125,0.0018986519426107407,-0.0009032487869262695,0.0013335556723177433
1772565933750000000,9.679000244140624,0.0016756029799580574,0.0008322624489665031,-0.0014055515639483929
1772565933760028200,9.689028076171875,-0.0023601511493325233,2.905726432800293e-7,-0.0015046210028231144
1772565933770056000,9.699055908203125,0.0006318716332316399,0.0014429036527872086,-0.00022403476759791374
1772565933780085000,9.7090849609375,0.0013187006115913391,-0.0026967134326696396,0.00008782139047980309
1772565933790113000,9.719113037109375,-0.0013678488321602345,-0.0009375130757689476,-0.0010134517215192318
1772565933800142000,9.72914208984375,-0.00024958793073892593,-0.001355363056063652,0.0003386354073882103
1772565933810169900,9.739169921875,0.0009921547025442123,0.0008445708081126213,-0.00023463135585188866
1772565933820198100,9.7491982421875,-0.00014181947335600853,0.00035614706575870514,-0.0005097361281514168
1772565933830227200,9.759227294921875,0.000023881904780864716,-0.0006102826446294785,-0.0007183547131717205
1772565933840255000,9.7692548828125,0.0013735722750425339,-0.0005295891314744949,-0.0002507036551833153
1772565933850284000,9.779283935546875,-0.0005848268046975136,-0.000003390014171600342,-0.0009124376811087132
1772565933860312000,9.78931201171875,-0.0018253270536661148,-0.0007762396708130836,0.001344590913504362
1772565933870341000,9.799341064453126,-0.0010133502073585987,0.0021307524293661118,-0.0006836527027189732
1772565933880369000,9.809368896484376,-0.001175004057586193,-0.0003387965261936188,-0.0014714160934090614
1772565933890397200,9.819397216796874,-0.0013691154308617115,0.00016792584210634232,0.0021506608463823795
1772565933900426200,9.82942626953125,0.0018650274723768234,-0.0007551256567239761,-0.0007758866995573044
1772565933910454000,9.8394541015625,-0.0006539830937981606,-0.00023127347230911255,0.0002318308688700199
1772565933920483000,9.849483154296875,0.0008994387462735176,-0.0023245178163051605,0.0020651505328714848
1772565933930511000,9.859510986328125,-0.00025538401678204536,-0.0012283511459827423,0.0010317317210137844
1772565933940540200,9.8695400390625,-0.0001408676616847515,-0.002654740586876869,-0.000740335788577795
1772565933950568000,9.87956787109375,-0.0008544633165001869,-0.0017992900684475899,-0.0015111868269741535
1772565933960596000,9.889595947265626,-0.0010342267341911793,-0.0010211141780018806,0.00002172868698835373
1772565933970625000,9.899625,-0.00036465562880039215,-0.0007854234427213669,-0.0013824980705976486
1772565933980653000,9.909653076171875,-0.000460796058177948,-0.0037678973749279976,0.000373058021068573
1772565933990682000,9.91968212890625,-0.0017622257582843304,0.0005432069301605225,-0.002639493439346552
1772565934000710000,9.9297099609375,-0.000006137415766716003,0.0007767658680677414,-0.000035987235605716705
1772565934010739200,9.9397392578125,-0.0006943424232304096,0.0067495061084628105,0.004464258905500174
1772565934020767000,9.94976708984375,-0.001626448705792427,0.017934780567884445,0.006105298642069101
1772565934030795000,9.959794921875,-0.0009686965495347977,0.016704561188817024,0.011076364666223526
1772565934040824000,9.969823974609374,0.00008857809007167816,0.00993853434920311,0.006665105000138283
1772565934050852000,9.97985205078125,0.00117953447625041,0.006233015097677708,0.0029302393086254597
1772565934060881200,9.989881103515625,0.0019446606747806072,-0.0024819141253829002,0.002041808795183897
1772565934070909000,9.999908935546875,-0.00028642918914556503,-0.0034829992800951004,-0.002996310591697693
1772565934080937200,10.009937255859375,0.00007496215403079987,-0.007194380275905132,-0.0033792732283473015
1772565934090966000,10.019966064453126,0.0011658784933388233,-0.009365600533783436,-0.001228533685207367
1772565934100994000,10.029994140625,-0.0016064727678894997,-0.012833569198846817,-0.007615326438099146
1772565934111022800,10.04002294921875,0.0011972347274422646,-0.008715087547898293,-0.006651613861322403
1772565934121051100,10.050051025390625,0.00017298292368650436,-0.0051629627123475075,-0.003913084976375103
1772565934131080200,10.060080078125,0.0000041155144572257996,-0.00438897917047143,-0.001802066806703806
