time,seconds_elapsed,z,y,x
1772527349572730600,0.072730712890625,0.1153045415252447,-0.04931786539852619,0.024131109432876108
1772527349582728700,0.082728759765625,0.10097791000902652,-0.01609013405740261,0.01778407849371433
1772527349592725500,0.0927255859375,0.009035539370775222,-0.018719898039102553,-0.004710954169929027
1772527349602723600,0.1027236328125,-0.031062370000779625,-0.033528175592422486,-0.014934242020547389
1772527349612721400,0.112721435546875,-0.028232407271862027,-0.09701134446561335,-0.05348316838443279
1772527349622719500,0.122719482421875,-0.044699557948112485,-0.1517687705695629,-0.07244739657342433
1772527349632717600,0.132717529296875,-0.09979425318241118,-0.18914076210856437,-0.00985474679917097
1772527349642715400,0.14271533203125,-0.14702391413003205,-0.17997370531260967,0.07226093409061432
1772527349652713500,0.15271337890625,-0.1281824355378747,-0.07681377508938313,0.051855274921655654
1772527349662710500,0.16271044921875,-0.0494110966399312,0.03483808914721012,0.05304828409850597
1772527349672708600,0.17270849609375,0.05681231280714273,0.05684241568446159,0.10489274536520242
1772527349682706700,0.182706787109375,0.18144027073383331,0.11022563082575797,0.07725947303026914
1772527349692704500,0.19270458984375,0.24350831211209295,0.1194049625813961,0.040784722591936586
1772527349702702600,0.20270263671875,0.19883096599578856,0.06628185968101025,-0.002926408840715885
1772527349712700700,0.21270068359375,0.13445640124082564,0.07654372597634791,0.013174246610701084
1772527349722697500,0.222697509765625,0.07351824067533015,0.0969271733134985,0.047669513669610024
1772527349732695300,0.2326953125,0.048588966602087016,0.003183306211233139,0.03501929093301296
1772527349742693400,0.242693359375,0.024752456201612948,-0.06343231546878814,0.0713616471633315
1772527349752691500,0.25269140625,0.02204144367724657,-0.1277665482133627,0.13547756098210811
1772527349762689300,0.262689208984375,0.013163725216686725,-0.11868307804763316,0.09712181910276413
1772527349772687400,0.272687255859375,0.0035109307304024696,-0.03896013751327991,0.051993222087621686
1772527349782684400,0.282684326171875,0.008157295231521129,-0.017625088539719582,0.02479775664806366
1772527349792682500,0.2926826171875,0.007322013451159,0.03139934687018394,0.015156652599573134
1772527349802680600,0.3026806640625,0.03792933316081762,0.09020283349454403,-0.03201806329041719
1772527349812678400,0.312678466796875,0.06943389397114515,0.03377835096120834,-0.08319295473247766
1772527349822676500,0.322676513671875,0.10075666847378015,-0.08395254092812537,-0.09396189376711844
1772527349832674600,0.332674560546875,0.09529138880521058,-0.09736030403375626,-0.1051876366585493
1772527349842672400,0.34267236328125,0.0687125939592719,-0.11314122601151466,-0.10085136101990938
1772527349852669400,0.35266943359375,0.03414484618604183,-0.1328074649900198,-0.11485036801695823
1772527349862667300,0.362667236328125,-0.011349953792989254,-0.07883855891525746,-0.07654138788878917
1772527349872665300,0.372665283203125,0.00012596446722745895,-0.062408233118057245,-0.03698123865574598
1772527349882663400,0.382663330078125,0.0457642645701766,-0.07092705513834953,-0.00025748189240694044
1772527349892661200,0.3926611328125,0.051718204538524146,-0.09832242706418037,0.006122574533522129
1772527349902659300,0.402659423828125,0.003715513391792774,-0.15909166080355644,-0.03183978411406278
1772527349912656400,0.412656494140625,-0.05330430468618869,-0.1611018315821886,0.0690352500423789
1772527349922654500,0.422654541015625,-0.06256371594071387,-0.12684475719332694,0.10076017560511827
1772527349932652500,0.432652587890625,-0.043428222838044164,-0.08492810796201229,0.12706336838006974
1772527349942650400,0.442650390625,-0.0027738486275076866,-0.07694295442700386,0.10124708233922719
1772527349952648400,0.4526484375,0.004324585200846195,-0.014911737927794455,0.08854980559051036
1772527349962646500,0.462646484375,0.04732610705941915,0.04727554591596126,0.06685206078439951
1772527349972644400,0.472644287109375,0.11442162121087313,0.04103752830922603,0.02867664390802383
1772527349982641400,0.482641357421875,0.13389379892200232,0.059229018560051916,0.005889934821426868
1772527349992639200,0.49263916015625,0.12506985647529362,0.11276304034888744,0.009546119241416453
1772527350002637300,0.50263720703125,0.12361439696997403,0.11742869407236575,-0.048149406141042704
1772527350012635400,0.512635498046875,0.12468261072337626,0.05095277312397956,-0.04932751000970602
1772527350022633200,0.52263330078125,0.09295943872630595,-0.009525953236222266,-0.016666764901578427
1772527350032631300,0.53263134765625,0.03791121298223734,-0.025220950496196746,0.01194090542346239
1772527350042628600,0.542628662109375,0.015917700099945066,-0.06884381912350654,0.017463175976276397
1772527350052626400,0.55262646484375,-0.015242577317357063,-0.10762217032909392,0.05676175166368484
1772527350062624500,0.56262451171875,-0.04685469015538692,-0.05412906507253647,0.07501344766914844
1772527350072622300,0.572622314453125,-0.033500703063607216,-0.021421558213233948,0.08112374724298715
1772527350082620400,0.582620361328125,0.0405924148902297,-0.014029694396257399,0.08116641734093427
1772527350092618500,0.592618408203125,0.11502660136669873,0.010376432585716248,0.048642158094048496
1772527350102616300,0.6026162109375,0.1449111597597599,-0.0007394201904535293,0.005941372747719288
1772527350112613400,0.61261328125,0.14534282917529343,0.003868365865945816,-0.01840016456544399
1772527350122611500,0.622611572265625,0.10515022725760936,0.011068506503105162,-0.05268149661272764
1772527350132609300,0.632609375,0.024250059637427327,0.011350830575823784,-0.054848026996850964
1772527350142607400,0.642607421875,-0.04779518587589263,-0.014879589223861693,-0.0416556602075696
1772527350152605400,0.65260546875,-0.07664455600231886,-0.060413844430446624,-0.009885434198379516
1772527350162603300,0.662603271484375,-0.08395897066891193,-0.06707856301665306,0.025521979269385337
1772527350172600600,0.6726005859375,-0.03234101163446903,-0.07676759786009787,0.03494388760924339
1772527350182598400,0.682598388671875,0.014016250392794609,-0.0905611454129219,0.032497371239960195
1772527350192596500,0.692596435546875,-0.008386720073223114,-0.06973755309283733,0.02653086405098438
1772527350202594600,0.702594482421875,-0.033683073893189426,-0.02824117510020733,0.033822774624824525
1772527350212592400,0.71259228515625,-0.004940963533520699,-0.011893266889452933,0.049013914015889164
1772527350222590500,0.722590576171875,0.012452654337882995,0.006084288349747657,0.04795505261272192
1772527350232588500,0.732588623046875,0.051236558501422405,0.025506197178363797,0.028034254351258277
1772527350242585300,0.74258544921875,0.07247340779751539,0.00587853664457798,0.007550269249081611
1772527350252583400,0.75258349609375,0.020013444980978963,-0.024579145461320874,0.008496025666594504
1772527350262581200,0.762581298828125,-0.03872574423551559,-0.02793780823945999,0.06726297967284918
1772527350272579300,0.772579345703125,-0.0352051688939333,-0.0048597149908542634,0.10883885264247656
1772527350282577400,0.782577392578125,-0.007310615274310111,0.008286766830086707,0.12223609435409306
1772527350292575200,0.7925751953125,0.01907353378236294,0.008627543091773986,0.1453372762173414
1772527350302572500,0.802572509765625,0.011204700103402137,0.040701428222656245,0.16426906344145537
1772527350312570400,0.8125703125,0.022297464264929293,0.012356792747974394,0.1663303798854351
1772527350322568400,0.822568359375,0.035571371857821936,0.001980944684147835,0.12351999668478965
1772527350332566500,0.83256640625,0.02948240733295679,0.0009656301617622375,0.10999269885271787
1772527350342564400,0.842564453125,0.03264291719049215,-0.026744214540719985,0.09007365415692328
1772527350352562400,0.8525625,0.02200052714496851,0.009262333863973618,0.08328414014726877
1772527350362560500,0.862560546875,0.019100129528343675,0.041648353683948515,0.09179740920960902
1772527350372557300,0.872557373046875,0.049019466973841186,0.03210544931292534,0.08857201742231845
1772527350382555400,0.882555419921875,0.057551732997596264,-0.011105915904045104,0.07877513829022645
1772527350392553200,0.89255322265625,0.02087064633220434,-0.05362170007228851,0.06089578272849321
1772527350402551300,0.90255126953125,-0.04854863459169864,-0.06535831509530544,0.05089928937107324
1772527350412549400,0.91254931640625,-0.0709998281136155,-0.0365250193208456,0.06900719299167395
1772527350422547500,0.92254736328125,-0.04612199196666479,-0.07687982606291771,0.0735401602461934
1772527350432544500,0.93254443359375,-0.022768588908016682,-0.08145546341538429,0.028168694385886192
1772527350442542300,0.942542236328125,-0.02462766077816486,-0.058711132165789603,0.03320756533592939
1772527350452540400,0.95254052734375,0.020889058771729467,-0.022487726140022278,0.032950375704467294
1772527350462538500,0.96253857421875,0.0847182646036148,-0.0019166472762823105,0.0105658176779747
1772527350472536300,0.972536376953125,0.1335521458774805,-0.03471767763793468,-0.04171615822315216
1772527350482534400,0.982534423828125,0.11646306391060351,-0.061326867622137064,-0.06371230145394802
1772527350492531200,0.99253125,0.07995499572455883,-0.05517009855806827,-0.07760814033746719
1772527350502529300,1.002529296875,0.029120003761351106,0.001025251394510269,-0.05191898780763149
1772527350512527400,1.01252734375,0.015114274762570858,0.03882803556621074,-0.024837211875617504
1772527350522525200,1.022525146484375,0.05823328552097082,0.05754734908342361,-0.021564181554317472
1772527350532523500,1.0325234375,0.09673895726501941,0.04992693720757961,-0.020412088909745215
1772527350542521600,1.042521484375,0.1173027296051383,-0.025908932760357856,-0.021975977225601673
1772527350552519400,1.05251953125,0.08824936133921146,-0.06126666186749935,-0.0033449265137314795
1772527350562516500,1.0625166015625,0.05397153642326593,-0.09292495193481445,-0.024183131881058216
1772527350572514600,1.0725146484375,0.014041092573106288,-0.1347813954114914,-0.03613426643759012
1772527350582512400,1.082512451171875,-0.007929039433598517,-0.10886661743223666,-0.0000713116705417633
1772527350592510500,1.092510498046875,-0.006674947719275951,-0.08399813363552093,0.03382569723427296
1772527350602508300,1.10250830078125,0.012799568079411983,-0.08399696459174155,0.04201923282295465
1772527350612506400,1.11250634765625,0.033812545491755004,-0.0653337651759386,0.05322276388257741
1772527350622503400,1.12250341796875,0.055064884617924685,-0.06624678836762905,0.06722235540151596
1772527350632501200,1.132501220703125,0.057417000702023505,-0.06671791301071643,0.07877075437605381
1772527350642499300,1.142499267578125,0.026801205424964426,-0.05750117185413837,0.07917962743788957
1772527350652497400,1.152497314453125,-0.0002688800692558288,-0.04513327319025993,0.09040829293876886
1772527350662495500,1.16249560546875,-0.04023556427657604,-0.017934885141253472,0.09450111521035433
1772527350672493600,1.17249365234375,-0.03999006508290767,0.05022913502454757,0.16997312030196188
1772527350682491400,1.182491455078125,0.0367997446089983,0.029808862808346746,0.18980244088768958
1772527350692488400,1.192488525390625,0.1039481579914689,0.05312193385660648,0.1470262522175908
1772527350702486500,1.202486572265625,0.10336568192839622,0.026414544194936752,0.05201835652887821
1772527350712484400,1.212484375,0.07777735942453146,0.01994037974476814,0.029063889659941194
1772527350722482400,1.222482421875,0.056767012360692023,0.009627075523138046,0.03080605715215206
1772527350732480800,1.232480712890625,0.03637187458574772,0.020187632504105567,0.0473325368002057
1772527350742478600,1.242478515625,0.02614624864757061,0.026153847432136536,0.05577887810617685
1772527350752475600,1.2524755859375,0.009418693469464778,0.04624912547767162,0.03297434110194444
1772527350762473700,1.2624736328125,0.009825228443741799,0.024050737673044203,-0.017473112848401067
1772527350772471600,1.272471435546875,0.01058978307545185,-0.01490238557755947,-0.04825111294984817
1772527350782469600,1.2824697265625,-0.0037219431325793265,-0.06640402475595474,-0.04187544043809175
1772527350792467700,1.2924677734375,-0.052820612822473044,-0.06392331385612487,-0.01953267572671175
1772527350802465800,1.3024658203125,-0.05445084437280893,-0.017197218516469,0.029648119288682936
1772527350812463900,1.3124638671875,-0.008594517605006693,-0.0017675941944122313,0.05108984350711107
1772527350822460700,1.322460693359375,0.027072131320834157,-0.01931786393225193,0.06158434951454401
1772527350832458800,1.332458740234375,0.046964580270648,-0.047402387166023255,0.06400602370351553
1772527350842456800,1.342456787109375,0.04265373133420944,-0.055312137377262115,0.0593713496401906
1772527350852454700,1.35245458984375,0.013388473883271216,-0.03451367949843406,0.07804068653583526
1772527350862452700,1.36245263671875,0.017220307131111622,-0.012888707667589186,0.07358429164886474
1772527350872450600,1.372450439453125,0.01656798070222139,0.0124655138194561,0.0774421361207962
1772527350882447600,1.382447509765625,0.027358254785835742,0.034684359890222546,0.09174538676142692
1772527350892445700,1.39244580078125,0.033707039290666575,0.03411912722289562,0.09027677551358938
1772527350902443500,1.402443603515625,0.05362725303024053,0.00982289035618305,0.07336860307157039
1772527350912441900,1.41244189453125,0.05206073436588048,-0.014290391159057616,0.06342851607650518
1772527350922440000,1.42243994140625,0.04971592480540275,-0.014050152662396431,0.048019057759642596
1772527350932437800,1.432437744140625,0.05110328751057386,-0.02027589530944824,0.03269786224812269
1772527350942435800,1.442435791015625,0.023036007672548292,-0.03509878591001034,0.01877718118429184
1772527350952432600,1.4524326171875,0.00963818143904209,-0.029697803649306295,-0.005636836843192577
1772527350962430700,1.4624306640625,-0.00717559071779251,0.005361234772205352,0.016501637467741966
1772527350972428800,1.4724287109375,-0.007357669286429881,0.01606967579126358,0.043647710807621476
1772527350982426600,1.482426513671875,0.007927870389819144,0.01314998895227909,0.03654080141186714
1772527350992424700,1.4924248046875,0.033821313320100306,-0.017815642675757408,0.016079904924333095
1772527351002422800,1.5024228515625,0.03202595433592796,-0.030933482924103736,0.010797872868180274
1772527351012419600,1.512419677734375,0.023326515051722525,-0.02600362530648708,0.008171323756873607
1772527351022417700,1.522417724609375,0.04154489330947399,-0.00814940418601036,-0.003378536522388458
1772527351032415700,1.532415771484375,0.05367693739086389,0.005405658435821533,-0.01380523799061775
1772527351042413800,1.542413818359375,0.043941140796244144,0.0321767609834671,-0.013596271415054798
1772527351052412000,1.552411865234375,0.040406829190254206,0.025585692155361175,0.012065700846910476
1772527351062409700,1.56240966796875,0.03986994583457708,0.013946692287921905,0.02648527134358883
1772527351072406800,1.57240673828125,0.0398734529659152,0.0035942250996828075,0.03969137439727783
1772527351082404600,1.582404541015625,0.05351385578364134,-0.04880640874505043,0.039300036992132664
1772527351092402700,1.592402587890625,0.05454261430948972,-0.06883329772949218,0.05716711759418249
1772527351102400800,1.60240087890625,0.05273877975791692,-0.08341945696473121,0.07779840221256017
1772527351112398600,1.612398681640625,0.03297434110194444,-0.10293021312057972,0.09008826720416545
1772527351122396700,1.622396728515625,-0.005195815077424049,-0.10566636008620262,0.09967267262935638
1772527351132394800,1.632394775390625,-0.01285071374475956,-0.10190437720417976,0.0872694103911519
1772527351142391800,1.642391845703125,-0.01073357546031475,-0.10341127463579178,0.05123801980614662
1772527351152390000,1.652389892578125,-0.0016828385204076767,-0.12265139715671539,0.018156126676499844
1772527351162387700,1.6623876953125,-0.041003041517734526,-0.07891337771713733,0.031578210568428036
1772527351172385800,1.6723857421875,-0.03345744844377041,-0.0003121346890926361,0.0505763410270214
1772527351182383900,1.6823837890625,0.03369125719964504,0.048863691890239716,-0.0017798691540956495
1772527351192381700,1.692381591796875,0.08799801692664623,0.05060381355583667,-0.04036678944081068
1772527351202378800,1.702378662109375,0.1034580363869667,0.027902736926078794,-0.029639643721282482
1772527351212376600,1.71237646484375,0.09361351872086525,-0.018608838880062102,-0.01416647251844406
1772527351222374700,1.722374755859375,0.045604982355237,-0.06553542522788047,-0.011394377456605433
1772527351232372700,1.732372802734375,-0.006348492243885994,-0.09998480731844901,-0.013987024298310278
1772527351242370600,1.74237060546875,-0.030157530115544794,-0.12868015592694282,0.0024766192466020584
1772527351252368600,1.75236865234375,-0.03961889368295669,-0.12350830624699592,0.04940963533520698
1772527351262366700,1.76236669921875,-0.05696691884696483,-0.05327040241658687,0.07950695969611406
1772527351272363800,1.77236376953125,-0.027304186511039732,0.01984159554541111,0.09681494511067866
1772527351282361900,1.78236181640625,0.024144261175394057,0.07399345697164535,0.09160188663750886
1772527351292359700,1.792359619140625,0.08834726875573397,0.07488076120018959,0.09109569068104029
1772527351302357800,1.802357666015625,0.11448679540157318,0.06470481962263584,0.10734423017054795
1772527351312355800,1.81235595703125,0.11055237856209277,0.0686538495093584,0.10961977388709783
1772527351322353700,1.822353759765625,0.07829407677501439,0.07488543737530708,0.10228285512775181
1772527351332350700,1.832350830078125,0.06533318065404892,0.031024083817005155,0.06553600974977015
1772527351342348800,1.842348876953125,0.04261018445342779,0.004521861338615417,0.05897299797236919
1772527351352346600,1.8523466796875,0.008556231421232224,-0.012452654337882995,0.07270312490016222
1772527351362344700,1.8623447265625,-0.005023381119966507,-0.030618425625562665,0.0857186738178134
1772527351372342800,1.8723427734375,-0.002147533422708511,-0.04214227468073368,0.06183335583955049
1772527351382340600,1.882340576171875,0.006349661287665367,-0.06503215188086033,0.03843874398767948
1772527351392338000,1.892337890625,0.019957623140513896,-0.053043607923388476,0.028593349538743495
1772527351402335700,1.902335693359375,0.0479535913079977,-0.03481237018406391,0.02610562437623739
1772527351412333800,1.912333740234375,0.05920388411879539,-0.05463818363845348,-0.02226180842965841
1772527351422332000,1.922331787109375,0.030867139689624307,-0.0646492900431156,-0.044754210744798184
1772527351432329700,1.932329833984375,-0.01862286740541458,-0.03431085040271282,-0.05213175377547741
1772527351442327800,1.942327880859375,-0.001949088241159916,-0.030128011760115623,-0.0636520956993103
1772527351452324600,1.95232470703125,0.05374503419101238,-0.04174596883952617,0.015488953293859957
1772527351462322700,1.96232275390625,0.053498950475454325,0.007811550533771514,0.04091156384199857
1772527351472320800,1.97232080078125,0.05508768097162246,-0.02633972539305687,-0.014677052389085291
1772527351482318600,1.982318603515625,0.10592296519577503,-0.00378887088894844,0.0005094108268618584
1772527351492316700,1.992316650390625,0.12775894942879676,0.0011439093381166458,-0.03325432708710432
1772527351502314800,2.002314697265625,0.12591127573549746,-0.010671616140007972,-0.020745850908756254
1772527351512312600,2.0123125,0.07256897712647914,0.00841477712392807,-0.007777648264169693
1772527351522310000,2.022309814453125,0.028248189362883567,-0.0406862306535244,-0.0023158757269382477
1772527351532307700,2.0323076171875,0.01717208407521248,-0.03167874833345413,0.005396306085586547
1772527351542305800,2.042305908203125,0.0035989012748003004,-0.014577391406893729,0.02659749954640865
1772527351552303900,2.052303955078125,0.030828853505849838,-0.047051089510321616,0.013293196815252303
1772527351562301700,2.0623017578125,0.02182838544845581,-0.02054945155382156,0.03167728702872991
1772527351572299800,2.0722998046875,0.032145781323313714,-0.02689385214447975,0.025843174047768116
1772527351582296600,2.082296630859375,0.05605974087417125,-0.03137362790703773,0.02027472626566887
1772527351592294700,2.092294677734375,0.05583879159986972,-0.03632277474701404,0.01562923854738474
1772527351602292700,2.102292724609375,0.035302491788566114,-0.04544949953258037,0.034871991416811944
1772527351612290600,2.11229052734375,0.017666589593887328,-0.015196984609961509,0.05386223082989454
1772527351622288600,2.12228857421875,0.04309183049052953,0.02872866635620594,0.06636340048462153
1772527351632286700,2.13228662109375,0.07144932544678449,0.04035772935152054,0.04532938028424978
1772527351642283800,2.14228369140625,0.08523761230260134,0.0010498013138771057,0.028595979887247085
1772527351652281900,2.15228173828125,0.03540069146603346,-0.042055765441060065,0.024372516973316667
1772527351662279700,2.16227978515625,-0.015713409699499605,-0.023927403554320333,0.053093292284011835
1772527351672277800,2.17227783203125,-0.02331628591865301,-0.0023918635725975034,0.06363017612844706
1772527351682275800,2.18227587890625,-0.01485883869677782,-0.003103226712346077,0.06773731918632983
1772527351692273700,2.192273681640625,-0.013400748842954635,-0.00025368250012397763,0.06697247229367494
1772527351702271700,2.202271728515625,-0.004906184481084347,-0.00378887088894844,0.058639528234303
1772527351712268500,2.2122685546875,0.008037175983190536,-0.007712181812524795,0.06240180337727069
1772527351722266600,2.2222666015625,0.003167231859266758,-0.030433132186532017,0.07367284671515226
1772527351732264400,2.232264404296875,0.014886311225593089,-0.02824059057831764,0.0489554618269205
1772527351742262500,2.242262451171875,0.01598901177048683,-0.023740941071510313,0.03034808425158262
1772527351752260400,2.25226025390625,0.03037555678039789,-0.014350012391805647,0.03477642208784818
1772527351762258400,2.262258544921875,0.023541326846182344,-0.0326776962429285,0.06461714133918285
1772527351772255700,2.272255859375,0.011208499495685099,-0.050177697098255154,0.08779723365753889
1772527351782253600,2.282253662109375,-0.01975099465250969,-0.05474456662237644,0.10148644405305385
1772527351792251600,2.292251708984375,-0.037676819704473015,-0.044617140361666675,0.10929594876021147
1772527351802249500,2.30224951171875,-0.02888064204752445,-0.05203823027312755,0.0983861399501562
1772527351812247600,2.31224755859375,-0.00967354501336813,-0.030101708275079724,0.08199439259767533
1772527351822245600,2.32224560546875,0.027088205672800538,-0.007262099957466125,0.08237111695557832
1772527351832243500,2.332243408203125,0.050367666712403295,-0.036389994764328,0.060981122924387454
1772527351842240500,2.342240478515625,0.04261573741137981,-0.07332125679850578,0.06982464685440062
1772527351852238600,2.352238525390625,-0.0030213936477899547,-0.03529693883061409,0.09511895484775304
1772527351862236400,2.362236328125,-0.014232815752923489,0.0019230770170688628,0.10541793828308582
1772527351872234500,2.372234375,-0.0006517419070005417,0.012173252874612808,0.09722469495534897
1772527351882232300,2.382232421875,0.024512509965896604,-0.012075637719035148,0.0718409551128745
1772527351892230400,2.39223046875,0.03827800046801567,-0.026944705548882484,0.060221536728739734
1772527351902227700,2.402227783203125,0.03334901963323354,-0.03415712114572525,0.05235124174505472
1772527351912225500,2.4122255859375,0.029705110172927377,-0.05257306780219078,0.02582943778336048
1772527351922223600,2.4222236328125,0.019152151976525783,-0.0067167410343885415,0.013727496579289436
1772527351932221700,2.4322216796875,0.016922785489261148,0.07060615262091159,0.026939737112820147
1772527351942219500,2.442219482421875,0.06887918269783258,0.10282675274610519,0.027113632375001907
1772527351952217600,2.452217529296875,0.1450909002408385,0.08366787876784801,0.011100070685148239
1772527351962215400,2.46221533203125,0.16658143203705547,0.024796587604284284,-0.011414835722744465
1772527351972212500,2.47221240234375,0.11088497151732445,-0.027974633118510246,-0.013556816187500953
1772527351982210600,2.48221044921875,0.05133154330849647,-0.05238602079749107,-0.018505963027477264
1772527351992208400,2.49220849609375,0.024751579418778417,-0.08052490456700324,-0.027306816859543323
1772527352002206500,2.50220654296875,0.00526069700717926,-0.06371230145394802,-0.007941314393281936
1772527352012204500,2.51220458984375,0.011791560080647467,-0.023472645524144173,0.029746026705205438
1772527352022202400,2.522202392578125,0.04557517173886299,0.018736849173903464,0.04239186552762985
1772527352032199700,2.53219970703125,0.06988397582620381,-0.01459258897602558,0.027030922527611256
1772527352042197500,2.542197509765625,0.04747369883656501,-0.032848961156606675,0.030735330003499983
1772527352052195600,2.552195556640625,0.011122867038846015,-0.004492050722241401,0.02976823853701353
1772527352062193700,2.562193603515625,-0.006955225965380668,-0.020609657308459282,0.021224574336409566
1772527352072191500,2.57219140625,-0.015459727199375628,-0.03894493994414806,0.005407412001490593
1772527352082189600,2.582189453125,-0.00047813890576362607,-0.019423077872395514,0.012186404617130756
1772527352092186400,2.592186279296875,0.011062661284208297,0.005041501298546791,0.03820610427558422
1772527352102184400,2.602184326171875,0.02200257297158241,-0.03015782237648964,0.028266601802408694
1772527352112182500,2.6121826171875,0.02509703185558319,-0.047747255080938335,0.03138298025727272
1772527352122180400,2.622180419921875,0.01729483367204666,-0.04338379917442799,0.023413608813285827
1772527352132178400,2.632178466796875,0.002480126377940178,-0.046534956681728364,0.00042670097947120663
1772527352142176500,2.642176513671875,-0.02108896525800228,-0.05017243640124797,0.013104103983938693
1772527352152174600,2.652174560546875,-0.026327158172428606,-0.008755553385615348,0.02489215693324804
1772527352162171600,2.662171630859375,-0.005038870950043201,0.03051145811975002,0.02896072154641151
1772527352172169500,2.67216943359375,0.005333762243390083,0.031052725389599797,0.02897738042026758
1772527352182167600,2.68216748046875,0.020904256340861318,0.03233750450313091,0.06183131001293659
1772527352192165600,2.69216552734375,0.015316811597347258,0.04681085101366043,0.0875131560191512
1772527352202163500,2.70216357421875,0.06088496907353401,0.06948328607082367,0.06737696144133806
1772527352212161500,2.71216162109375,0.09047317486852408,0.041516251736879346,0.037381636150181294
1772527352222158300,2.722158447265625,0.06838964561522007,-0.01559913567006588,0.0060267129436135285
1772527352232156400,2.732156494140625,0.024062428110837936,-0.05119242709875107,0.0017518121033906935
1772527352242154500,2.742154541015625,-0.027376082703471184,-0.05627426040768623,0.03785977505594492
1772527352252152300,2.75215234375,-0.059146600973606106,-0.061276014217734334,0.06575520545840263
1772527352262150400,2.762150390625,-0.0714338356167078,-0.06807225022912025,0.06860474967062473
1772527352272148700,2.772148681640625,-0.05215571917295456,-0.04414250858724117,0.10244359864741563
1772527352282145500,2.7821455078125,-0.02615004803985357,-0.01656067417860031,0.11603753197491168
1772527352292143600,2.7921435546875,0.002113631153106689,0.012788754424452781,0.1065863975405693
1772527352302141400,2.802141357421875,0.02789513814151287,0.04855097267925739,0.10092793338745831
1772527352312139500,2.812139404296875,0.05786415994763374,0.009821136790513992,0.05654021786749363
1772527352322137600,2.8221376953125,0.04238718935251236,-0.01843114422559738,0.020982874535024166
1772527352332135400,2.832135498046875,0.019433307005465028,-0.024817630392313002,0.0157855981528759
1772527352342133500,2.842133544921875,0.021929215474426746,-0.08538169694840908,-0.0014908230796456337
1772527352352130600,2.852130615234375,0.009579729250073433,-0.09390051896870136,0.006356675550341606
1772527352362128400,2.86212841796875,-0.003132745067775249,-0.09032733665704727,0.014042846138775348
1772527352372126500,2.87212646484375,-0.005041793559491634,-0.07327391052544116,0.009548165068030356
1772527352382124500,2.88212451171875,-0.008246727080643177,-0.028799393504858016,0.033272739526629444
1772527352392122600,2.89212255859375,0.0012780571117997168,-0.023904607200622558,0.01828033757805824
1772527352402120700,2.90212060546875,-0.0028647417813539504,-0.04180032937526702,-0.0030038579910993575
1772527352412117500,2.912117431640625,-0.004631751453876495,-0.04942717099189758,-0.015023381608724594
1772527352422115600,2.922115478515625,0.0018593641310930252,-0.03596329378485679,-0.007244856561720371
1772527352432113700,2.93211376953125,0.000029226094484329223,-0.06955810487270354,-0.03618278175443411
1772527352442111500,2.942111572265625,-0.003000350859761238,-0.048913376250863075,-0.027001988694071766
1772527352452109600,2.952109619140625,0.0027379005312919615,0.0022977555483579635,0.00878682530671358
1772527352462107600,2.962107666015625,0.0625017566204071,0.006891513079404831,0.010557049849629402
1772527352472104400,2.9721044921875,0.06425269194096327,-0.014886018964648246,0.027320260863006113
1772527352482102500,2.9821025390625,0.02942570870965719,-0.05748831237256526,0.0540597992286086
1772527352492100400,2.992100341796875,-0.01104424884468317,-0.05526186849474907,0.11447247461527585
1772527352502098700,3.0020986328125,-0.019511048416793346,-0.045963878795504565,0.15299655879884957
1772527352512096800,3.0120966796875,-0.008256079430878163,-0.005205167427659034,0.14776099623292685
1772527352522094600,3.022094482421875,0.013491349735856055,0.014984218642115592,0.14119652315080164
1772527352532092700,3.0320927734375,0.034536183591187,0.010717793369293212,0.13862784170657397
1772527352542089500,3.04208935546875,0.05538549487441778,0.0027548516660928723,0.10341039785295725
1772527352552087600,3.052087646484375,0.05573445444256067,0.005496259328722953,0.07118892094492912
1772527352562085600,3.062085693359375,0.04201455664783716,-0.027207740399241447,0.00770458302795887
1772527352572083500,3.07208349609375,0.011684008052945137,-0.019579729738831517,-0.02173077029287815
1772527352582081500,3.08208154296875,-0.026817864298820493,0.011143909826874732,0.021834230667352676
1772527352592079600,3.09207958984375,-0.005932020397484302,0.04338146108686924,0.034894787770509715
1772527352602076400,3.102076416015625,0.031195348730683324,0.049840427967906,0.04758329669088125
1772527352612074500,3.112074462890625,0.0565454785645008,0.012852467310428618,0.03437105615735054
1772527352622072600,3.122072509765625,0.047702539156377316,-0.022671266013383862,0.021518004325032234
1772527352632070700,3.132070556640625,0.04341594787836075,-0.00810498052239418,0.02930938885360956
1772527352642068700,3.14206884765625,0.04779284778833389,0.0035778584867715833,0.029434184277057646
1772527352652066600,3.152066650390625,0.02954641247987747,-0.035242578294873234,0.028613515543937682
1772527352662063600,3.162063720703125,-0.025997487826645373,-0.03361410031020641,0.054981297987699504
1772527352672061400,3.1720615234375,-0.08534954824447631,-0.1115706156939268,0.025664894871413706
1772527352682059500,3.1820595703125,-0.05351940874159336,-0.08338613921701908,0.03487783663570881
1772527352692057600,3.1920576171875,-0.003729834178090095,0.04852525371611118,0.03712503104060888
1772527352702055400,3.202055419921875,0.0871735488012433,0.030079496443271635,-0.007913841864466666
1772527352712053500,3.212053466796875,0.12480185318887232,-0.0025561142235994336,-0.04312222562879324
1772527352722051600,3.222051513671875,0.11966945873647927,-0.009199205499887467,-0.09407792136222123
1772527352732048400,3.23204833984375,0.11368921528309583,-0.03842763807177543,-0.05866875432878732
1772527352742046700,3.242046630859375,0.09403525126427412,-0.04995265617072582,-0.006318681627511978
1772527352752044800,3.252044921875,0.03585340366959572,-0.027803368204832077,0.012144026780128478
1772527352762043000,3.26204296875,-0.009524199670553207,-0.0832154588252306,0.03428746952712536
1772527352772041000,3.272041015625,-0.024158581961691378,-0.12875380568504333,0.060470250792801376
1772527352782039000,3.2820390625,-0.04894640173763037,-0.11934241873919964,0.10061170704513787
1772527352792035800,3.292035888671875,-0.05988368307650089,-0.0961246247589588,0.09798486567288636
1772527352802034000,3.302033935546875,-0.043376200389862056,-0.06033785658478737,0.09052841218709945
1772527352812032000,3.312031982421875,-0.02300473575145006,-0.014714754050970077,0.10473492445498704
1772527352822029800,3.32202978515625,0.00298369198590517,0.010433131209015846,0.09824263982623815
1772527352832028000,3.33202783203125,0.04496317732036113,0.03915069164931774,0.10219956075847149
1772527352842026000,3.34202587890625,0.09046236121356487,0.04622516008019447,0.08639496564418077
1772527352852022800,3.352022705078125,0.09284487243592739,0.03135843033790588,0.06402794327437877
1772527352862020900,3.362020751953125,0.09505758004933595,0.03053717708289623,0.0370914210319519
1772527352872018700,3.372018798828125,0.060843175758421415,0.01574409709870815,0.004309679892659187
1772527352882017000,3.38201708984375,0.040645606382191175,-0.01721767678260803,-0.006272212137281894
1772527352892015000,3.39201513671875,0.008384966507554053,-0.03728489777743816,0.012641454908251762
1772527352902013000,3.402012939453125,-0.018259294790029523,-0.025597382593154906,0.04854951137453317
1772527352912011000,3.412010986328125,0.004595218835771083,0.013676643174886703,0.0987526351749897
1772527352922007800,3.4220078125,0.03780015382319689,0.04348725954890251,0.08709463834613561
1772527352932006000,3.432005859375,0.041836277471482754,0.06310615225434303,0.08294511745125055
1772527352942004000,3.44200390625,0.03636602936685085,0.03868891935646534,0.11553718123733997
1772527352952001800,3.452001708984375,0.043292613759636875,-0.009378653720021248,0.1563464537486434
1772527352962000000,3.461999755859375,0.03159749979078769,-0.027065701580047605,0.17003478736132382
1772527352971998000,3.471998046875,0.017260931402444838,-0.02000584619641304,0.17259674680382012
1772527352981994800,3.481994873046875,0.018880349297821522,-0.017528057906031607,0.14077274478077886
1772527352991992800,3.491992919921875,0.034006022237241265,-0.025044424885511396,0.11314034922868013
1772527353001991000,3.501990966796875,0.042213294090330596,-0.05532090520560741,0.06273147372305393
1772527353011989000,3.511989013671875,0.03256926743239164,-0.06161445239186287,-0.0028261633366346356
1772527353021987000,3.521987060546875,0.020162498062849043,-0.015028057783842086,-0.037111002515256404
1772527353031985000,3.53198486328125,0.059065352430939674,0.0200379949003458,-0.05856295586675405
1772527353041983000,3.54198291015625,0.11490940472781658,0.019540566772222517,-0.09580138415396212
1772527353051980000,3.55197998046875,0.15858020415008067,0.0004313771545886993,-0.0990200539395213
1772527353061977900,3.561977783203125,0.1409618376120925,-0.021176643541455268,-0.08383446750640869
1772527353071976000,3.571975830078125,0.09642653031498193,-0.046590486261248586,-0.09285451704710722
1772527353081974000,3.58197412109375,0.05313567012101412,-0.04285013068914413,-0.08533844232857227
1772527353091971800,3.591971923828125,0.034247722038626666,-0.0703267511576414,-0.038621991600096224
1772527353101970000,3.601969970703125,0.015909809054434298,-0.057065118524432176,-0.01909428430944681
1772527353111967000,3.611967041015625,-0.004640227021276951,-0.02305003619790077,-0.006884791077673435
1772527353121965000,3.621965087890625,0.02477203768491745,-0.019818214669823645,-0.0004652794241905212
1772527353131963100,3.631963134765625,0.032678865286707874,0.03345511035621166,0.009313771790266037
1772527353141961000,3.6419609375,0.04333762194514274,0.04000760073959827,0.05072948576211929
1772527353151959000,3.651958984375,0.11064853241294621,-0.044999417677521705,0.08227028692960739
1772527353161957000,3.66195703125,0.11869389170259237,-0.09059563220441341,0.06075491295307874
1772527353171954000,3.671953857421875,0.04737871402949095,-0.12053016721904278,0.03820902688503265
1772527353181952000,3.681951904296875,-0.006453998444974422,-0.13400339677631853,0.022282851217687128
1772527353191949800,3.69194970703125,-0.04600333402305841,-0.1481400586783886,0.015697919869422913
1772527353201948000,3.701947998046875,-0.07220394320636987,-0.11066811389625072,0.014089023368060588
1772527353211946000,3.711946044921875,-0.054230479620397086,-0.1101589953303337,-0.005665770676732063
1772527353221943800,3.72194384765625,-0.04249824851155281,-0.13380875098705292,-0.007818857057392596
1772527353231942000,3.73194189453125,-0.0203147660151124,-0.0992184991210699,-0.002276420499384403
1772527353241939000,3.74193896484375,0.009107143302261828,-0.049290977391600606,-0.005309212324023246
1772527353251937000,3.75193701171875,0.04599339715093374,0.004480944806337356,-0.003100596363842487
1772527353261935000,3.76193505859375,0.07170359246879815,0.04287058895528316,0.013267770113050937
1772527353271933000,3.771932861328125,0.06066928049623966,0.04762041383087635,0.0018231237739324568
1772527353281931000,3.781930908203125,0.04821691841930151,0.006432078874111175,-0.019528291812539098
1772527353291929000,3.79192919921875,0.026714696185290814,-0.023847908577322958,-0.02760755337178707
1772527353301926000,3.80192578125,0.009704816934466362,-0.04479541953802108,-0.022687924887239933
1772527353311924000,3.811924072265625,-0.0008060556858777999,-0.044320787763595576,-0.0025800796210765837
1772527353321921800,3.821921875,0.02103665054887533,-0.02388005728125572,0.017829671201109884
1772527353331920000,3.831919921875,0.06467091735303401,-0.04011281467974186,0.01842471448481083
1772527353341918000,3.84191796875,0.06423281819671392,-0.04249474138021469,0.02020049198567867
1772527353351915800,3.851915771484375,0.05512275228500366,-0.03293839300572872,0.033816052623093125
1772527353361913000,3.8619130859375,0.04393588009923696,-0.04654547807574272,0.0478773112013936
1772527353371911000,3.871910888671875,0.03644786243140697,-0.039738720670342446,0.043755262835323806
1772527353381909000,3.881908935546875,0.024923428854346275,-0.06136193893551826,0.01235182431191206
1772527353391907000,3.891906982421875,0.004402911134064197,-0.10412497586309909,-0.0008691840499639511
1772527353401905000,3.90190478515625,-0.035549744547903536,-0.10009119030237197,-0.020715455770492552
1772527353411903000,3.911903076171875,-0.04576747944056987,-0.06904723274111747,-0.01605272465646267
1772527353421901000,3.921901123046875,-0.008891746985912323,-0.030731238350272177,0.013805530251562595
1772527353431897900,3.93189794921875,0.006280395443737506,-0.006666472151875495,0.024035247842967507
1772527353441896000,3.94189599609375,-0.043297582195699215,-0.02596270877420902,0.028878596220910546
1772527353451893800,3.951893798828125,-0.07535919236689806,-0.04481880041360855,0.06892097601294517
1772527353461891800,3.961891845703125,-0.061524728281795976,-0.07231237201690674,0.09280366364270448
1772527353471890000,3.971889892578125,-0.06734305917173623,-0.08786065428256988,0.10829553954601287
1772527353481887700,3.9818876953125,-0.08902969806194305,-0.08940437659323215,0.13039426636844872
1772527353491885000,3.991885009765625,-0.08046557559520005,-0.04014847051501274,0.13801350920051336
1772527353501883100,4.001883056640625,-0.014368424831330776,-0.007515197935700416,0.1105208143800497
1772527353511881000,4.011880859375,0.09628215340822935,-0.001963409027457237,0.07886603144407271
1772527353521879000,4.021879150390625,0.1711816193088889,0.02706862418949604,0.05418927082717418
1772527353531876900,4.031876953125,0.18119389475733041,0.062441550865769385,0.021066461165249347
1772527353541875000,4.041875,0.1739724190711975,0.09457155009806155,0.02556932554244995
1772527353551872000,4.0518720703125,0.16825930212140083,0.1053665003567934,0.042728257875144476
1772527353561869800,4.061869873046875,0.17218728922009466,0.11870645892322063,0.08074293123185634
1772527353571868000,4.071867919921875,0.14924305148422717,0.08441255965530872,0.08327946397215127
1772527353581866000,4.081865966796875,0.08133768225461244,0.020410335344076155,0.051098026813566684
1772527353591863800,4.09186376953125,0.024065058459341523,0.01918283937573433,0.058201136817038056
1772527353601862000,4.10186181640625,-0.004162088115513324,0.05818213985562324,0.07657002946138382
1772527353611859700,4.111859619140625,0.02857435257732868,0.04239128100574016,0.06838321587443351
1772527353621857000,4.12185693359375,0.040805180858075614,-0.030167174726724623,0.031138650107383727
1772527353631855000,4.131855224609375,0.01680763467699289,-0.1473901170939207,0.00994885482341051
1772527353641853000,4.14185302734375,-0.025430501593649384,-0.19969079769551754,0.003951075713336467
1772527353651851000,4.15185107421875,-0.0916980404883623,-0.204371064466238,0.04862696052491665
1772527353661849000,4.16184912109375,-0.09034487231373786,-0.249056593888998,0.03464315109699964
1772527353671847000,4.171846923828125,-0.1078542255192995,-0.19636486814320087,0.03465864092707634
1772527353681844000,4.181843994140625,-0.09156652306318283,-0.1243190381079912,-0.004350888685882091
1772527353691841800,4.191841796875,-0.01310731885433197,-0.04096154046356678,-0.06410626920759678
1772527353701840000,4.20183984375,0.07982903125733137,0.11062895092964171,-0.09953969389945268
1772527353711838000,4.211837890625,0.18386808240264654,0.15287176337540148,-0.11524842742383479
1772527353721835800,4.221835693359375,0.19683277791589499,0.05383446604013443,-0.13096359068900346
1772527353731833900,4.231833740234375,0.13888941525220871,0.13049626543819903,-0.06816869634091853
1772527353741830100,4.241830078125,0.10905717156827449,0.014944471153616905,-0.12806465437710285
1772527353751828200,4.251828125,0.09552987373620271,-0.020257190608978272,-0.14173603685498237
1772527353761826300,4.261826416015625,0.07422989607602358,-0.018887655821442605,-0.11040011060982942
1772527353771824000,4.27182421875,0.074775547260046,-0.017453239104151724,-0.08093348536789417
1772527353781822200,4.281822265625,0.08208002505451441,-0.05003507375717163,-0.05594517458379268
1772527353791820000,4.291820068359375,0.06294511647373438,-0.09195932177305222,-0.05310673628747463
1772527353801818000,4.301818115234375,0.012806874603033066,-0.11070844590663909,-0.025170681613683698
1772527353811815200,4.311815185546875,-0.035332886926829815,-0.11103694720864295,-0.0076028762191534035
1772527353821813000,4.32181298828125,-0.041320729164779184,-0.10954524734616279,-0.01395516785532236
1772527353831811000,4.33181103515625,-0.07493862886726856,-0.1244113925665617,-0.03301028919816017
1772527353841809200,4.34180908203125,-0.09167173700332641,-0.12431202384531498,-0.05791033717691898
1772527353851807200,4.35180712890625,-0.0894520151272416,-0.11297522179484366,-0.05865531032532453
1772527353861805300,4.361805419921875,-0.06374649598449468,-0.09565759176909923,-0.05349398203939199
1772527353871802000,4.371802001953125,-0.027306232337653634,-0.058275663357973094,-0.027897476229071617
1772527353881800200,4.38180029296875,-0.008733926075696945,-0.027571897536516187,0.010174188011884688
1772527353891798300,4.39179833984375,-0.005963876840472221,0.02284311544895172,0.047638241748511785
1772527353901796000,4.401796142578125,-0.040567280448973175,0.039570962888002395,0.11838263379633426
1772527353911794200,4.411794189453125,-0.03812339442819357,-0.0059200376987457275,0.15957915205955506
1772527353921792300,4.421792236328125,-0.03274403947740793,-0.06159399412572383,0.17806991751790047
1772527353931789000,4.4317890625,-0.023820728309452532,-0.11635200475156307,0.17242518962919712
1772527353941787100,4.441787109375,-0.032117432011663914,-0.1226420448064804,0.18509060993492601
1772527353951785000,4.451784912109375,0.02419599136263132,-0.03440612747073173,0.18601853843480348
1772527353961783300,4.461783203125,0.0950640097901225,0.09150690183043479,0.1790849397793412
1772527353971781400,4.471781494140625,0.17797259462326764,0.14332768996059894,0.1680883294686675
1772527353981779200,4.481779296875,0.18458061458617447,0.14532617030143738,0.14250965157598255
1772527353991777300,4.49177734375,0.12898030791729687,0.13093056520223617,0.14310615616440772
1772527354001774000,4.501774169921875,0.06568740091919899,0.11742343337535857,0.11753624610006809
1772527354011772200,4.511772216796875,-0.004062134872376918,0.12035130352079867,0.13095482286065815
1772527354021770200,4.521770263671875,-0.05111263986080885,0.09001344840228558,0.13169190496355293
1772527354031768000,4.53176806640625,-0.06219108323603868,0.04712240118086338,0.126430623434484
1772527354041766100,4.54176611328125,-0.050666357398033136,-0.007715104421973228,0.13451076177656648
1772527354051764200,4.55176416015625,-0.04184884469211101,-0.04757540564537048,0.11739157693237065
1772527354061761000,4.561760986328125,-0.02195025826245546,-0.08878653695583343,0.06083002401590347
1772527354071759000,4.571759033203125,-0.03313011618554592,-0.10702946513295172,0.010361819538474083
1772527354081757200,4.581757080078125,-0.02181231109648943,-0.09243804520070552,-0.016502806511521338
1772527354091755300,4.59175537109375,0.010342530316114425,-0.02196516357064247,-0.00246522106975317
1772527354101753300,4.60175341796875,0.03129121032059193,0.0648415977448225,0.03960895681083202
1772527354111751200,4.611751220703125,0.05206365697532892,0.096717329955101,0.06419453201293945
1772527354121748200,4.621748291015625,0.04686725737601519,0.051826633349061006,0.06668605656772851
1772527354131746000,4.63174609375,0.01579728859066963,0.022982816180586813,0.08326777353435755
1772527354141744000,4.641744140625,-0.003450432714819908,0.002114215674996376,0.09113105425536631
1772527354151742200,4.6517421875,0.001607142935693264,-0.01643091031908989,0.06649111851751804
1772527354161740000,4.661739990234375,0.019273732529580593,-0.021189503023028373,0.06096534083336591
1772527354171738000,4.671738037109375,0.048803778396546836,-0.05378945785462856,0.06740005005598068
1772527354181735200,4.681735107421875,0.02906447418183088,-0.07506020942032336,0.07089461417347193
1772527354191733200,4.691733154296875,0.0014767945542931557,-0.06654547905325889,0.08165449311882257
1772527354201731300,4.7017314453125,-0.01137450371235609,-0.037249826464056966,0.08844985234737396
1772527354211729200,4.711729248046875,-0.0118140641734004,-0.0347778833925724,0.10427490572780371
1772527354221727200,4.721727294921875,0.004790741407871246,-0.03433540032207966,0.10200842210054396
1772527354231725300,4.731725341796875,-0.027203941006958485,0.0038444004684686658,0.09956862773299216
1772527354241722000,4.74172216796875,-0.10175795447081327,0.04473521378338337,0.1543678471520543
1772527354251720200,4.75172021484375,-0.013439035026729105,0.001547229442000389,0.07944412359297275
1772527354261718300,4.76171826171875,0.037760990856587885,0.012581249153614044,0.0664753364264965
1772527354271716000,4.771716064453125,0.019306758016347885,0.021483517533540726,0.011461305212974547
1772527354281714200,4.781714111328125,0.007386018598079681,0.012144026780128478,0.0026928923457860943
1772527354291712300,4.791712158203125,0.01272387249469757,0.004687865555286407,0.0326689284145832
1772527354301710000,4.8017099609375,0.015744681620597837,0.056904375004768366,0.05611643949747085
1772527354311707100,4.81170703125,0.040726270402967925,0.029067689052224156,0.06291530585736035
1772527354321705200,4.821705322265625,0.05783230350464582,-0.010751111117005347,0.07091156530827283
1772527354331703300,4.831703369140625,0.051634617908298965,-0.01860533174872398,0.06484335131049156
1772527354341701400,4.841701416015625,0.03930734351575375,-0.008732757031917572,0.024006606270372866
1772527354351699200,4.85169921875,0.05748626654595136,-0.022397125247120855,-0.04449702111333608
1772527354361697300,4.861697265625,0.07357640060335398,-0.07010229475200176,-0.08172785061597823
1772527354371694000,4.871694091796875,0.0778013248220086,-0.08134089712500572,-0.0866416338816285
1772527354381692200,4.881692138671875,0.07011310840696096,-0.06351824018657207,-0.058937926658988
1772527354391690200,4.891690185546875,0.08035860808938741,-0.0846136351853609,-0.05081102656573057
1772527354401688000,4.90168798828125,0.06797171246409416,-0.11279285096526145,-0.06576777267903089
1772527354411686100,4.91168603515625,0.04020458461642265,-0.10796236206889152,-0.05750380220264196
1772527354421684200,4.921684326171875,-0.005325578936934471,-0.040003509086370466,-0.023852000230550764
1772527354431682000,4.93168212890625,-0.003098550537228584,-0.0241162041246891,0.011480594435334205
1772527354441679400,4.941679443359375,0.04252776686698198,-0.016694529691338538,-0.00030979660153388974
1772527354451677200,4.95167724609375,0.06987959191203116,-0.002804536026716232,0.007566928122937679
1772527354461675300,4.96167529296875,0.07314999188482761,-0.009887772285938262,-0.0009980711266398428
1772527354471673300,4.97167333984375,0.06353694488704204,-0.0264864403873682,0.017907412612438202
1772527354481671200,4.981671142578125,0.01564268255084753,0.03342471521794796,0.059197162117063995
1772527354491669200,4.991669189453125,0.014846271476149558,0.06265197874605655,0.09140285693407058
1772527354501666000,5.001666015625,0.0420586880505085,-0.01627835010588169,0.0601335661843419
1772527354511664000,5.0116640625,0.0027387773141264913,-0.06381985348165035,0.03588262976408005
1772527354521662200,5.021662109375,-0.03750701609551906,-0.07895137163996696,0.0046349663242697715
1772527354531660000,5.031659912109375,-0.03632511283457279,-0.0915939955919981,-0.008128653658926486
1772527354541658000,5.041658203125,-0.02985357873290777,-0.1072094978749752,0.024462825605273245
1772527354551656200,5.05165625,-0.03289075447171926,-0.0679699588984251,0.03304331468492746
1772527354561653200,5.0616533203125,-0.006765840873122215,-0.015367665001749992,0.05750029507130384
1772527354571651300,5.0716513671875,0.07893705085366964,-0.013154080605506897,0.05030190799981355
1772527354581649200,5.081649169921875,0.08302315112352371,-0.010232640200853347,0.029490882900357243
1772527354591647200,5.091647216796875,0.05165303034782409,-0.017258593314886092,0.025282909816503524
1772527354601645300,5.101645263671875,0.01053834514915943,-0.043314825591444964,0.01829553514719009
1772527354611643100,5.11164306640625,-0.02666208921521902,-0.020948095482587813,0.043593642532825466
1772527354621640200,5.12164013671875,-0.02960778727829456,-0.00013794716596603394,0.05345481907278299
1772527354631638000,5.131637939453125,-0.027358254785835742,0.005904840129613876,0.05518938778042793
1772527354641636000,5.141635986328125,0.002664543034136295,-0.041076106753945345,0.07252630702853202
1772527354651634200,5.15163427734375,0.016536124259233474,-0.06686579704880714,0.08839724537730216
1772527354661632000,5.161632080078125,0.0032969957187771793,-0.07058160270154476,0.08565349962711334
1772527354671630000,5.171630126953125,0.008424421735107898,-0.061682841452956196,0.0964276993587613
1772527354681628200,5.181628173828125,0.006734861212968826,-0.02040098299384117,0.1115861055240035
1772527354691625200,5.191625244140625,0.03702040162235498,0.057470192193984984,0.1091720301195979
1772527354701623300,5.201623291015625,0.060139703664183614,0.09690496148169041,0.07770517097115516
1772527354711621400,5.211621337890625,0.06047901862114668,0.04986322432160377,0.05344166733026504
1772527354721619200,5.221619140625,0.042942192886769766,0.02111819135248661,0.059656888583302495
1772527354731617300,5.2316171875,0.04391951348632574,-0.014444120416045187,0.08280863159000873
1772527354741616000,5.2416162109375,0.06595540420562028,-0.005871522381901741,0.10512976899147033
1772527354751613000,5.251613037109375,0.0253515911385417,0.06520458583831787,0.1187380231052637
1772527354761611000,5.261611083984375,0.0016235095486044882,0.08276245436072349,0.1271186056986451
1772527354771609000,5.271609130859375,0.021862287718057632,0.05323650014698505,0.14111673591285942
1772527354781607000,5.28160693359375,0.06117635323554277,0.03139583973884583,0.12630144409686325
1772527354791605000,5.29160498046875,0.06540449232459068,0.04526888226866722,0.08870324258655309
1772527354801602800,5.301602783203125,0.06654723261892795,0.04978489838838577,0.049321957051753997
1772527354811600000,5.311599853515625,0.03536240528225899,0.014082301366329193,-0.006702712509036064
1772527354821598000,5.321597900390625,-0.002567220139503479,-0.0026344401568174363,0.0035682138755917547
1772527354831595800,5.331595703125,-0.0011737199544906616,-0.010028057539463042,0.041432372845709324
1772527354841593900,5.34159375,0.021061200468242166,0.019095745614171027,0.06459434498548507
1772527354851592000,5.351592041015625,0.03399199371188879,0.05132803617715835,0.018517361204326153
1772527354861590000,5.361590087890625,0.06330196708738803,0.06406944432854653,-0.0338584304600954
1772527354871588000,5.371588134765625,0.10279898795634508,0.08421089960336685,-0.02321954754590988
1772527354881585000,5.3815849609375,0.09176175337433815,0.09646247841119766,0.008969196136295795
1772527354891583000,5.3915830078125,0.09578034136593341,0.11878478485643863,0.0728980629503727
1772527354901581000,5.4015810546875,0.10884440560042857,0.09793021287620067,0.06946575041413307
1772527354911579000,5.411578857421875,0.08819646210819482,0.04838789107203483,0.029314357289671897
1772527354921577000,5.421576904296875,0.04522036695182323,-0.03442658573687076,0.04592939200401306
1772527354931575000,5.431574951171875,-0.029464871676266192,-0.14065584040284157,0.08027560598105192
1772527354941571800,5.44157177734375,-0.09454290852546691,-0.2141016003638506,0.10746990237683057
1772527354951570000,5.45156982421875,-0.1124117426931858,-0.22054186254441738,0.13670914860367775
1772527354961568000,5.461568115234375,-0.10853373221606015,-0.18412147264182566,0.096946754796803
1772527354971566000,5.471566162109375,-0.10581512090712786,-0.11036942321062088,0.08270634025931357
1772527354981564200,5.481564208984375,-0.031367490427196026,-0.040568157231807705,0.0525306899651885
1772527354991562000,5.49156201171875,0.038076340416073794,-0.03356266238391399,0.020469956576824187
1772527355001559000,5.50155908203125,0.08935176962316035,-0.07097732402086257,0.00613952566832304
1772527355011556900,5.511556884765625,0.08672405146807431,-0.07835106765925884,-0.016118775629997254
1772527355021555000,5.521554931640625,0.058631929449737066,-0.07392799052000046,-0.05451309595406055
1772527355031553000,5.531552978515625,0.01752133590430021,-0.07721358806192874,-0.04956833302825689
1772527355041550800,5.54155078125,-0.010914484985172748,-0.01616378381550312,-0.028773382280766962
1772527355051549000,5.551548828125,0.006152092888951301,0.009572130465507507,-0.058581952828168866
1772527355061547000,5.561547119140625,0.06921411374062299,0.01865852324068546,-0.09073971685022116
1772527355071543800,5.571543701171875,0.11519435914903879,0.017775310665369033,-0.07839636810570955
1772527355081542000,5.5815419921875,0.11922142270803451,-0.01424012227654457,-0.07109919683486222
1772527355091540000,5.5915400390625,0.08323445578664541,-0.016759411621093748,-0.0456792166352272
1772527355101538000,5.6015380859375,0.03748071261048317,-0.06583353139162063,-0.03593991290926933
1772527355111536000,5.6115361328125,-0.019627368272840975,-0.11209960800409316,-0.010364157626032829
1772527355121534000,5.621533935546875,-0.07700111435502767,-0.11127075596451759,0.06769903300255536
1772527355131531000,5.631531005859375,-0.08971008154153823,-0.0663835664898157,0.13283639882355927
1772527355141528800,5.64152880859375,-0.04293985479921102,-0.028002105647325515,0.1474427240639925
1772527355151527000,5.65152685546875,0.038923897156119346,-0.04883855744898319,0.12409107457101344
1772527355161525000,5.66152490234375,0.08971300415098667,-0.0446814377695322,0.11119301455318926
1772527355171522800,5.671522705078125,0.11438859572410583,0.0014858546435832975,0.1215112872108817
1772527355181521000,5.68152099609375,0.13812369157671928,0.02539104636609554,0.09137772249281406
1772527355191518000,5.69151806640625,0.12585194676369427,0.062141106614470476,0.08168985669314861
1772527355201516000,5.70151611328125,0.10783961247205734,0.03550152149200439,0.07737842323482036
1772527355211514000,5.71151416015625,0.08319266247153281,0.04085691104531288,0.06656506053656339
1772527355221512000,5.721511962890625,0.06914543241858483,0.06534428656995296,0.08613368435949087
1772527355231510000,5.731510009765625,0.04673515542894602,0.020317980885505675,0.035198154631257056
1772527355241508000,5.741508056640625,-0.024977789390087126,-0.056961658149957656,-0.015120996764302253
1772527355251506000,5.751505859375,-0.08898995057344436,-0.1069739355534315,-0.03231412362754345
1772527355261503000,5.7615029296875,-0.10402297679334878,-0.07996785520613194,-0.01679126806408167
1772527355271501000,5.7715009765625,-0.06351736340373754,-0.019555764341354368,-0.020540099203586577
1772527355281499000,5.781498779296875,0.006371580858528614,0.019081717088818548,-0.049641398264467715
1772527355291497000,5.7914970703125,0.07689999206811189,0.0028711715221405028,-0.05945932018458843
1772527355301495000,5.8014951171875,0.10961305188536644,-0.04265957655310631,-0.08253858247697353
1772527355311492900,5.811492919921875,0.12350275328904389,-0.060733577904105183,-0.08284925586134195
1772527355321490200,5.821490234375,0.12803835089206694,-0.0806920778274536,-0.09698708680719137
1772527355331488000,5.831488037109375,0.132221481795609,-0.07744096707701682,-0.10798340485692023
1772527355341486000,5.841486083984375,0.11916852347701787,-0.07732581626474856,-0.10203735593408346
1772527355351484200,5.851484130859375,0.12192249836027622,-0.08531272336542606,-0.08556056064665317
1772527355361482000,5.86148193359375,0.12555296381711958,-0.07482932327389717,-0.0893871331974864
1772527355371480000,5.87147998046875,0.11634732857644557,-0.07384966458678245,-0.12591916678100823
1772527355381476900,5.881476806640625,0.09873334595263003,-0.057038230517506595,-0.13535393460243939
1772527355391475000,5.891474853515625,0.10308014298528433,-0.03907704189121723,-0.11179039592444896
1772527355401473000,5.90147314453125,0.12264905906915664,-0.04576280326545238,-0.10773644435852765
1772527355411470800,5.911470947265625,0.10765957973003387,-0.07810673750936985,-0.12693389678150416
1772527355421469000,5.921468994140625,0.052937809461355206,-0.13808335956633092,-0.1519341902643442
1772527355431467000,5.931467041015625,-0.003509469425678253,-0.18598259033858774,-0.14064853387922047
1772527355441464000,5.941464111328125,-0.012967325861752033,-0.17916297345161436,-0.1316518652141094
1772527355451462100,5.951462158203125,0.03220598707795143,-0.12256138078570365,-0.09508300675153732
1772527355461460000,5.9614599609375,0.08729425257146357,0.006936521264910698,-0.061305240312218665
1772527355471458000,5.9714580078125,0.1629880837202072,0.03021218291223049,-0.06412117451578378
1772527355481456000,5.9814560546875,0.19307050277292728,-0.05751403133571147,-0.0892062236726284
1772527355491454000,5.991453857421875,0.12785188840925693,-0.05983867489099502,-0.04493804287910461
1772527355501452000,6.0014521484375,0.051638417300581926,-0.02942717001438141,-0.0036833646878600117
1772527355511448800,6.01144873046875,-0.01690437304973602,-0.0004068272352218628,0.0735860452145338
1772527355521447000,6.021447021484375,-0.06249445009678602,-0.036191841843724246,0.11267828467488288
1772527355531445000,6.031445068359375,-0.07673164976388215,-0.046864627027511596,0.06545856059938669
1772527355541442800,6.04144287109375,-0.07022182947844266,-0.0929489173322916,0.1058107369929552
1772527355551441000,6.05144091796875,-0.06848404590040445,-0.08466974928677082,0.14961802227646112
1772527355561439000,6.06143896484375,-0.08971826484799385,-0.06334580622911452,0.14208879581540823
1772527355571436000,6.07143603515625,-0.04579553649127483,-0.022010171756148337,0.11687369053810834
1772527355581434000,6.08143408203125,0.029886604219675064,0.021956980264186857,0.08572247321009635
1772527355591432000,6.091431884765625,0.09105243606120347,0.08835515980124473,0.1009182887762785
1772527355601430000,6.101429931640625,0.14968027385771274,0.11295417900681495,0.029940964755415914
1772527355611428000,6.111427978515625,0.22122370732873678,-0.0009463409394025802,0.0010854571491479873
1772527355621426000,6.121426025390625,0.19741233136951922,0.02304536002278328,-0.0034971944659948346
1772527355631423000,6.131423095703125,0.07769757218658924,0.039408465802669525,0.022817104224860666
1772527355641420800,6.1414208984375,-0.005563187085092068,0.05189911406338214,0.059009238329529756
1772527355651419000,6.1514189453125,-0.05561755006462335,0.06226034907996654,0.08773965825140476
1772527355661417000,6.1614169921875,-0.06661971333324909,0.023619360518455503,0.12404635864645241
1772527355671414800,6.171414794921875,-0.033924481433629985,0.000034486791491508485,0.12728899382948874
1772527355681412900,6.181412841796875,0.027045535574853417,0.01630231550335884,0.11498773066103457
1772527355691411000,6.191410888671875,0.08326806579530238,0.011695113968849181,0.06985241164416074
1772527355701408000,6.201407958984375,0.12085925304293632,-0.02574702019691467,0.05270955366343259
1772527355711406000,6.211406005859375,0.10818009647279977,0.0007809212446212769,0.05861556283682584
1772527355721404200,6.221404052734375,0.11469985363036393,0.02941314148902893,0.07390460964441299
1772527355731402000,6.231402099609375,0.0971162661448121,0.02551438048481941,0.06390227106809615
1772527355741400000,6.241400146484375,0.06099690501540899,-0.05186521179378032,0.037571313503384586
1772527355751398100,6.251398193359375,0.020307459491491316,-0.14089140272438525,0.006327157194912433
1772527355761395000,6.26139501953125,-0.05083411518037319,-0.17222177601158617,-0.016357845082879064
1772527355771393000,6.27139306640625,-0.07492109321057797,-0.1700602140635252,-0.026980069123208522
1772527355781391000,6.28139111328125,-0.04306961865872144,-0.14352642740309238,-0.03790653680711984
1772527355791389000,6.291388916015625,0.03297463336288929,-0.1588578520476818,-0.05982873801887035
1772527355801387000,6.301386962890625,0.0659197483703494,-0.18421733423173425,-0.06649579469263553
1772527355811385000,6.311385009765625,0.04811345804482698,-0.13734043224453926,-0.05821838021278381
1772527355821382100,6.321382080078125,0.05759381857365369,-0.09348667747080326,-0.0395946360245347
1772527355831380200,6.331380126953125,0.08159224153757094,-0.07049333989620209,-0.04262772011011839
1772527355841378000,6.3413779296875,0.1004950949281454,-0.107017774695158,-0.07218465398401022
1772527355851376000,6.351376220703125,0.06754091983139515,-0.10214753831028937,-0.08771130893975496
1772527355861374200,6.361374267578125,0.003801730370521545,-0.05747253028154373,-0.05949234567135572
1772527355871372000,6.3713720703125,-0.012983400213718414,-0.02650339152216911,-0.038921851329505444
1772527355881370000,6.3813701171875,-0.01192570785433054,-0.01575637205839157,-0.02555325119048357
1772527355891367000,6.391366943359375,-0.027326690603792666,-0.07847206369042396,-0.013435820156335829
1772527355901365000,6.401364990234375,-0.07645867804139853,-0.09713701667189598,0.01525748262554407
1772527355911363000,6.411363037109375,-0.15747165838629007,-0.08166179964244365,0.056817865765094754
1772527355921361000,6.42136083984375,-0.18760434632152317,-0.05280921464562416,0.11618073983788489
1772527355931359000,6.43135888671875,-0.16957798350453376,-0.08735971902310848,0.17402356473654507
1772527355941357000,6.441357177734375,-0.1169207445502281,-0.16745266191363334,0.17733283541500566
1772527355951354000,6.45135400390625,-0.11641805572509765,-0.173536950263381,0.18154782276153564
1772527355961352200,6.461352294921875,-0.080762220454216,-0.15674363637268543,0.17322949174940586
1772527355971350000,6.47135009765625,-0.009808861830830573,-0.06928337958455086,0.13828472735732794
1772527355981348000,6.48134814453125,0.060139995925128455,0.03836860136091709,0.12742781777828932
1772527355991346200,6.49134619140625,0.16076719280034302,0.09488543835282325,0.05407879619002342
1772527356001344000,6.501343994140625,0.21365707146674393,0.15687749188542366,0.017575696440041064
1772527356011341000,6.511341064453125,0.22951778068244455,0.19779928486049175,-0.005484276629984379
1772527356021339000,6.5213388671875,0.2012736829727888,0.182839616137743,-0.03846797008216381
1772527356031337000,6.5313369140625,0.1340478204399347,0.15420798041522502,-0.0277042917445302
1772527356041335000,6.5413349609375,0.08679068696349859,0.1301361999541521,-0.047042906203866
1772527356051332900,6.551332763671875,0.0509273464217782,0.09133914404809475,-0.05829582936316728
1772527356061331000,6.5613310546875,0.026045418621599672,0.04337912299931049,-0.06973959891945124
1772527356071329000,6.5713291015625,0.008523498195409774,-0.026508652219176292,-0.06150251644998789
1772527356081326000,6.581326171875,0.00819733498096466,-0.11098200215101242,-0.05818038628995418
1772527356091324200,6.59132421875,0.033985271710157396,-0.1508493176370859,-0.08149959481805563
1772527356101322000,6.601322021484375,0.003866904561221599,-0.13975509217083454,-0.07299187871366739
1772527356111320000,6.611320068359375,0.0028942601367831227,-0.14145195921659467,-0.06944149275571107
1772527356121318100,6.621318115234375,0.010860708971321582,-0.09342062649726868,-0.035652620400488375
1772527356131316000,6.63131591796875,0.031393209390342236,-0.08293255023062229,0.0041661797687411305
1772527356141313000,6.64131298828125,0.02590864049941301,-0.08674363295137882,0.034740766252577306
1772527356151311000,6.65131103515625,0.019691957941651343,-0.07209843700528144,0.04258651131689548
1772527356161309000,6.661308837890625,0.032519583071768283,-0.04413724789023399,0.024469547607004642
1772527356171307000,6.67130712890625,0.04695844279080629,-0.0335620778620243,-0.03091360917985439
1772527356181304800,6.681304931640625,0.034053953032195564,0.005254267266392707,-0.04747311431467533
1772527356191303000,6.691302978515625,0.04246522302478552,0.028559155008196828,-0.029863807865977286
1772527356201301000,6.701301025390625,0.08953238688707352,0.010883213064074516,-0.041946459847688675
1772527356211298000,6.711298095703125,0.11421820759326219,0.004924596920609474,-0.03879793268889189
1772527356221296000,6.721296142578125,0.10035948584973811,0.0018465046495199202,-0.0036018238842487334
1772527356231294200,6.731294189453125,0.04101648552119732,-0.003499532553553581,0.030740882961452005
1772527356241292000,6.7412919921875,-0.027811259250342845,-0.05158931746184826,0.05343026915341615
1772527356251290000,6.7512900390625,-0.10694763206839561,-0.04211830928325653,0.08781739966273307
1772527356261288000,6.761287841796875,-0.14665420403480528,-0.01644084719121456,0.12445581623017787
1772527356271285000,6.771284912109375,-0.11433423518836498,0.025187048226594923,0.16117051290422676
1772527356281283000,6.781282958984375,-0.0784744017779827,0.08452069620490074,0.181084589163959
1772527356291281000,6.791281005859375,-0.00886924289315939,0.10039864881634712,0.1724298658043146
1772527356301279000,6.801279052734375,0.05061404268890619,0.07873685210645198,0.11325462325811385
1772527356311277000,6.811277099609375,0.07417641232311725,0.045182373028993604,0.08609978208988904
1772527356321275000,6.82127490234375,0.05416559769064188,0.005395721563696861,0.07917261317521333
1772527356331272200,6.831272216796875,0.03169277685880661,0.015702596044540405,0.08480681966990232
1772527356341270000,6.84127001953125,0.04296002080440521,0.012169161221385002,0.06831716490089892
1772527356351268000,6.85126806640625,0.04699935932308435,-0.013698270484805106,0.05060381355583667
1772527356361266200,6.86126611328125,0.014720014747977257,-0.009005728754401206,0.05559913762509822
1772527356371264000,6.871263916015625,0.014001052823662758,-0.022684125494956967,0.056984162242710586
1772527356381262000,6.881261962890625,-0.012495324435830115,-0.05230769486427307,0.059333940239250656
1772527356391260200,6.89126025390625,-0.03923047888725996,-0.05936988833546638,0.05956541090756654
1772527356401257000,6.901257080078125,-0.05562573337107896,-0.07651040822863578,0.04031681281924247
1772527356411255000,6.911255126953125,-0.04910948334485292,-0.053015550872683524,0.04549947615414857
1772527356421252900,6.9212529296875,-0.05435176791250705,-0.03656242872178554,0.05874678800106048
1772527356431251000,6.9312509765625,-0.02973550531119108,-0.02278700134754181,0.07706190463155507
1772527356441249000,6.9412490234375,-0.002663373990356922,-0.012826748347282408,0.107394499053061
1772527356451247000,6.9512470703125,0.011389701281487941,-0.01019289271235466,0.10250555796772241
1772527356461244200,6.961244140625,0.05361731615811586,-0.007821487405896187,0.108470603851974
1772527356471242000,6.971241943359375,0.06813420954942703,-0.02662204946577549,0.10230945087373255
1772527356481240000,6.981239990234375,0.046643677753210065,-0.017300678890943527,0.10849340020567178
1772527356491238100,6.991238037109375,0.008878887504339218,-0.008571428990364074,0.12106792735755442
1772527356501236000,7.001236083984375,-0.018043313951790332,0.014179332000017164,0.09873130012601614
1772527356511234000,7.011234130859375,-0.04238134413361549,0.038245267242193216,0.08210252914726733
1772527356521230800,7.02123095703125,-0.018718144473433493,0.004678513205051422,0.10381488700062036
1772527356531229000,7.03122900390625,0.043675183336436746,-0.03390343864560127,0.12437222959995269
1772527356541227000,7.04122705078125,0.06128595108985901,-0.03735913205742836,0.08682342018932103
1772527356551224800,7.051224853515625,0.029954408758878705,-0.03574818972945213,0.008063187207281589
1772527356561223000,7.061222900390625,0.013183598960936068,-0.040292847421765324,-0.02798749260008335
1772527356571221000,7.071220947265625,0.03154197021126747,-0.060844637063145635,-0.015015782824158668
1772527356581219000,7.081218994140625,0.014095745369791983,-0.04152326599955559,-0.008054711639881133
1772527356591216000,7.091216064453125,-0.0029290391892194748,-0.005903671085834503,-0.01761427488476038
1772527356601214000,7.1012138671875,0.0064794251471757885,-0.0038122517645359038,-0.027210955269634723
1772527356611212000,7.1112119140625,0.0059749827563762665,-0.0061035775721073144,-0.019233108258247374
1772527356621210000,7.121210205078125,0.013745616757869719,-0.017620412364602087,0.015571955402195452
1772527356631208000,7.1312080078125,0.03880407016873359,-0.015849311038851736,0.04832534722983837
1772527356641206000,7.1412060546875,0.045724517081677914,0.01805471212863922,0.05382949760407209
1772527356651203000,7.151203125,0.04776654430329799,0.0008837970972061156,0.06658785689026117
1772527356661201000,7.161200927734375,0.05566606538146734,-0.02470481766760349,0.0891886880159378
1772527356671199000,7.171198974609375,0.04814356092214584,-0.0642664282053709,0.08657119899392128
1772527356681197000,7.181197021484375,0.03025134587883949,-0.05627426040768623,0.09934738619774579
1772527356691195100,7.191195068359375,0.025058453410863876,-0.017595862445235252,0.10716127481907606
1772527356701193200,7.201193115234375,0.05451631082445383,0.001703296786546707,0.09198065682202577
1772527356711191000,7.21119091796875,0.06418079574853182,0.030769232273101806,0.0876096021309495
1772527356721188000,7.22118798828125,0.05951455750316381,0.04605974038541317,0.09099339935034513
1772527356731186200,7.231186279296875,0.05473696783781051,0.05373568184077739,0.09261720115989446
1772527356741183700,7.241183837890625,0.033737142167985436,0.016342062991857528,0.06969429847300052
1772527356751181800,7.251181884765625,0.003972995284199714,-0.05302256513535976,0.02447656186968088
1772527356761180000,7.261179931640625,-0.03326455622017383,-0.023776596906781196,0.04112608337551355
1772527356771177700,7.271177734375,-0.018915420611202716,-0.00017827917635440825,0.017181436425447463
1772527356781174800,7.2811748046875,0.006853519156575202,0.06590484306216239,0.04266542177200317
1772527356791172900,7.2911728515625,0.03402443467676639,0.026990298256278036,0.07682078935205935
1772527356801171000,7.3011708984375,0.04789455459713936,0.043375031346082685,0.11088263342976569
1772527356811169000,7.3111689453125,0.05175824428796768,0.02221124728620052,0.13255582831650972
1772527356821166800,7.321166748046875,0.04260083210319281,-0.003691255733370781,0.13117401856929062
1772527356831165000,7.3311650390625,0.0443938529998064,-0.023957798692584038,0.12273089213371276
1772527356841161700,7.34116162109375,0.027792846810817718,-0.06974339831173419,0.08906096998304128
1772527356851159800,7.351159912109375,-0.0018763152658939361,-0.031523850032687185,0.0781760033532977
1772527356861158000,7.361157958984375,-0.008898761248588561,0.020923545563220975,0.10098813914209603
1772527356871155700,7.37115576171875,0.018364216469228267,0.02727203780710697,0.0970528455197811
1772527356881153800,7.38115380859375,0.05368921235054731,0.03529226265549659,0.0818579067364335
1772527356891152000,7.39115185546875,0.04792641104012727,0.052204234489798544,0.08072481105327606
1772527356901149700,7.401149658203125,0.051159401611983776,0.06763970403075217,0.09990589686334132
1772527356911146800,7.411146728515625,0.0764943338766694,0.062442719909548756,0.09363806864023208
1772527356921144800,7.421144775390625,0.08059709302037954,0.038461540341377255,0.07116057163327932
1772527356931143000,7.431142822265625,0.059629123793542384,-0.008994622838497161,0.056394379656016826
1772527356941141000,7.44114111328125,0.0502779426023364,-0.03683832305371761,0.07736030305624007
1772527356951138800,7.451138916015625,0.016599252623319623,-0.03284077785015106,0.05940495964884757
1772527356961137000,7.461136962890625,-0.017611644536256788,-0.035949265259504315,0.05777326679378748
1772527356971134000,7.471134033203125,-0.016033143173158168,-0.01261456690132618,0.08147562942057847
1772527356981131800,7.4811318359375,-0.00421498734652996,0.017166823378205298,0.10252835432142018
1772527356991129900,7.4911298828125,0.05841127243638038,0.04482406111061573,0.11714841582626104
1772527357001127700,7.501127685546875,0.11929799507558345,0.05515490098893642,0.08210486723482609
1772527357011125800,7.511125732421875,0.12110299867093563,0.016211130088567734,0.033150866712629797
1772527357021123800,7.521123779296875,0.06169628545641899,-0.008790040177106856,0.020787351962924003
1772527357031121700,7.53112158203125,0.015202829828858375,0.00782441001534462,0.03533259466588497
1772527357041119000,7.541118896484375,-0.020995441755652426,0.01776712735891342,0.035841128709912295
1772527357051117000,7.551116943359375,-0.04106996927410364,-0.02716565482318401,0.03477496078312397
1772527357061115000,7.561114990234375,-0.05410773002356291,-0.06339315250217914,0.04525251565575599
1772527357071113000,7.571113037109375,-0.05631897633224726,-0.04805588263869285,0.09231266525536776
1772527357081110800,7.58111083984375,-0.01798193915337324,-0.020374094986915586,0.11085311507433653
1772527357091108900,7.59110888671875,0.027765958803892134,-0.01991349173784256,0.09665800098329783
1772527357101106000,7.60110595703125,0.03721270932406187,-0.023969489130377768,0.09386135600209236
1772527357111103700,7.611103759765625,0.024051906716823578,-0.017870587733387944,0.08287497482448816
1772527357121101800,7.621101806640625,0.031389409998059274,-0.002699322086572647,0.07737783871293068
1772527357131100000,7.631099853515625,0.04608136769533157,-0.007132336097955703,0.0743009154856205
1772527357141097700,7.64109765625,0.0711240390151739,-0.018009703943133355,0.045669864284992215
1772527357151095800,7.651095703125,0.09024813394099473,-0.021449615263938904,0.03402560372054576
1772527357161092900,7.6610927734375,0.06296177534759044,-0.030462358281016347,0.02598638191074133
1772527357171091000,7.671091064453125,0.02981090863496065,-0.03693301559984684,0.004539396995306015
1772527357181089000,7.681089111328125,0.0074298577398061744,-0.05815875898003578,-0.019524200159311292
1772527357191086800,7.6910869140625,-0.011298808127641677,-0.06913841815590858,-0.05724252091795206
1772527357201085000,7.7010849609375,-0.01704787317365408,-0.07334405315220356,-0.05724398222267627
1772527357211083000,7.7110830078125,0.00504588521271944,-0.05884148054718971,-0.022779110302031037
1772527357221080800,7.721080810546875,0.02446341012716293,-0.03944938233494758,-0.007407645907998085
1772527357231078000,7.731077880859375,0.030517887860536573,-0.035011692148447036,0.004591711704432964
1772527357241075700,7.74107568359375,0.035064883640408516,-0.047263855478167534,0.0392895155981183
1772527357251073800,7.75107373046875,0.020266542959213256,-0.07259878774285317,0.0564522473230958
1772527357261072000,7.76107177734375,-0.020686229676008222,-0.07346329561769963,0.06551613600552082
1772527357271069700,7.771069580078125,-0.07407236742675304,-0.029283962151408195,0.07975918089151382
1772527357281067800,7.78106787109375,-0.04157616523057222,-0.014631167420744894,0.08005085731446743
1772527357291064800,7.79106494140625,0.00300941094905138,-0.03893734115958213,0.06760463271737098
1772527357301063000,7.80106298828125,0.03615647826939821,-0.044455812320113176,0.055284664848446845
1772527357311061000,7.81106103515625,0.05238631305843591,-0.022287819653749465,0.03304243790209293
1772527357321058800,7.821058837890625,0.05443418549895286,0.007400631645321846,0.03153524820953607
1772527357331057000,7.831056884765625,0.06048837097138166,0.04909107090532779,0.03893500307202339
1772527357341055000,7.841054931640625,0.07835925096571444,0.05641805279254913,0.03231616945415735
1772527357351052800,7.851052734375,0.08552607385516166,0.03645370765030384,0.020461481009423733
1772527357361049900,7.8610498046875,0.06683978582471609,0.024613632252812385,0.012449147206544876
1772527357371047700,7.871047607421875,0.047374330115318296,-0.0092892218708992,-0.029227263528108595
1772527357381045800,7.881045654296875,0.013543956705927849,-0.03239595669209957,-0.04263765698224306
1772527357391043800,7.8910439453125,0.03329758170694112,-0.011030512580275535,-0.03558452360033989
1772527357401041700,7.901041748046875,0.05277969629019499,-0.004430091401934623,-0.006675239980220795
1772527357411039700,7.911039794921875,0.07318126380592584,-0.050831192570924756,-0.002954173630475998
1772527357421036800,7.921036865234375,0.07774667202532291,-0.09236556448638439,0.0038648587346076964
1772527357431035000,7.931034912109375,0.04389408678412437,-0.0947919148504734,0.010801379999518393
1772527357441033000,7.941032958984375,0.019499357978999612,-0.08619885855019092,0.00992225907742977
1772527357451030800,7.95103076171875,0.04375964674949646,-0.06355740315318108,0.00653992316275835
1772527357461028900,7.96102880859375,0.04632686688899994,-0.031978608062863345,-0.015245207665860652
1772527357471027000,7.97102685546875,0.06379296547472477,-0.016809680503606796,-0.029077333663403985
1772527357481023700,7.981023681640625,0.08179623967707157,-0.03037643356323242,-0.0297106631308794
1772527357491021800,7.991021728515625,0.0783852621898055,-0.03210778740048408,-0.039030572400987146
1772527357501019600,8.00101953125,0.04246551528573036,-0.050860418665409086,-0.0828860807403922
1772527357511017700,8.011017822265625,0.011455752255022525,-0.07595043625831603,-0.1166641394406557
1772527357521015800,8.021015869140625,0.006889759513735771,-0.1004471641331911,-0.09723024791330098
1772527357531013600,8.031013671875,-0.0025578677892684936,-0.08773205946683883,-0.04502952055484056
1772527357541011700,8.04101171875,0.018095336399972437,-0.03823649941384792,-0.020034780029952525
1772527357551009000,8.051009033203124,0.04607055404037237,-0.009051905983686447,-0.03514905479252338
1772527357561006800,8.0610068359375,0.05068360079377889,-0.025489830565452575,-0.0179249482691288
1772527357571005000,8.0710048828125,0.03226823865920305,-0.013708207356929777,0.04568652315884828
1772527357581003000,8.0810029296875,0.013112579551339149,-0.013363339442014694,0.06253419758528471
1772527357591000800,8.091000732421875,0.02010463039577007,-0.024963760864734647,0.07859101389497518
1772527357600999000,8.1009990234375,0.01369593239724636,-0.01878361092507839,0.07646335421651601
1772527357610995700,8.11099560546875,0.01383709443360567,-0.00886836611032486,0.07532090618312358
1772527357620993800,8.120993896484375,0.05178074838072061,-0.0039051907449960707,0.06808832458108663
1772527357630992000,8.130991943359374,0.057202481168508526,-0.013967150554060935,0.028543957439064977
1772527357640989700,8.14098974609375,0.06743745945692062,-0.003997545203566551,0.0275321500480175
1772527357650987800,8.15098779296875,0.07940496062636375,-0.0036971009522676467,0.03317804698050022
1772527357660985900,8.16098583984375,0.08735270476043223,0.006546645164489746,0.03114975602328777
1772527357670983700,8.170983642578125,0.08399111937284469,0.018524667727947235,0.050097325338423246
1772527357680981000,8.18098095703125,0.07463526200652122,-0.025277064597606657,0.018379414038360117
1772527357690978800,8.190978759765626,0.03190788091421127,-0.05064531461000442,-0.010630407346785067
1772527357700977000,8.200976806640625,-0.01688625287115574,-0.034006899020075795,-0.000675122782588005
1772527357710975000,8.21097509765625,-0.014728198054432868,-0.024294483301043508,0.014294190551340579
1772527357720972800,8.220972900390626,0.019811784929037093,-0.05065349791646003,0.006681377460062503
1772527357730971000,8.230970947265625,0.02517974170297384,-0.09468786995410919,-0.02913081741631031
1772527357740967400,8.240967529296874,0.007715981204807758,-0.11497545570135116,-0.04198386924862861
1772527357750965200,8.25096533203125,-0.017069208222627637,-0.08733516910374164,-0.002328150686621666
1772527357760963300,8.26096337890625,-0.010125672695040703,-0.06047814183831215,0.03537701832950115
1772527357770961400,8.27096142578125,0.010749942073225974,-0.04901157592833042,0.04114391129314899
1772527357780959500,8.28095947265625,0.01794569879621267,-0.0438011478036642,0.043969490107893944
1772527357790957600,8.29095751953125,0.025602643290162087,-0.02901215947270393,0.03621376141458749
1772527357800955600,8.30095556640625,0.044021512556076045,-0.0057090252965688705,0.04476823927015066
1772527357810952400,8.310952392578125,0.03995557829141617,0.0018500117808580398,0.026819617864489553
1772527357820950500,8.320950439453124,0.02008651021718979,-0.017338672813773156,0.017619243320822715
1772527357830948400,8.3309482421875,0.012392448583245277,-0.016501637467741966,0.02895341502279043
1772527357840946400,8.340946533203125,0.01535159064978361,0.01972176855802536,0.05122399128079414
1772527357850944500,8.350944580078124,0.012917641501128672,0.11151683968007564,0.07217530163377522
1772527357860942300,8.3609423828125,0.02953735239058733,0.02535188339948654,0.04776479073762893
1772527357870939400,8.370939453125,0.051136605258286,0.08336977260410786,0.08280804706811905
1772527357880937500,8.3809375,0.02896832033097744,-0.0226958159327507,0.06642886693626641
1772527357890935300,8.390935302734375,0.021515666237473488,-0.01366319917142391,0.0848445213317871
1772527357900933600,8.40093359375,-0.004334229812026024,-0.011730185282230377,0.10492430954724549
1772527357910931500,8.410931396484376,-0.01009001685976982,-0.04976677820980548,0.08166647581756115
1772527357920929500,8.420929443359375,-0.00002367313653230667,-0.029964930152893064,0.09479162258952856
1772527357930927600,8.430927734375,0.0029366379737854,-0.0017138181805610656,0.12801204740703107
1772527357940924400,8.44092431640625,0.018286182796955108,0.019921090522408483,0.14326982229351998
1772527357950922500,8.450922607421875,0.014997954906523227,0.004528875601291656,0.10667992104291915
1772527357960920600,8.460920654296874,0.005344283637404442,-0.025362989315390584,0.07872019323259592
1772527357970918400,8.47091845703125,-0.02295037521570921,-0.047016602718830104,0.08878273756355047
1772527357980916500,8.48091650390625,-0.051044835321605204,-0.026385902622342108,0.07956628866791725
1772527357990914300,8.490914306640626,-0.07196370470970868,-0.013975918382406234,0.060168345236778255
1772527358000911400,8.500911376953125,-0.05069938288480043,-0.025239070674777028,0.06604600509852171
1772527358010909400,8.510909423828124,-0.009236907161772251,-0.08265724042057991,0.07023176635056734
1772527358020907500,8.520907470703126,0.0015317396119236945,-0.08945230738818645,0.054902095271646974
1772527358030905600,8.530905517578125,-0.03361410031020641,-0.045239071652293204,0.054333355472981924
1772527358040903700,8.540903564453124,-0.01088701245635748,-0.023153496572375296,0.047746962819993494
1772527358050901500,8.550901611328126,0.027320553123950958,-0.0035059622943401335,0.03563245439529419
1772527358060898600,8.560898681640625,0.07797697364985942,0.019774375528097153,0.03584638940691948
1772527358070896400,8.570896484375,0.10081716648936272,0.02282090361714363,0.044158875200152395
1772527358080894500,8.58089453125,0.09692395844310521,0.027055764707922935,0.05883066689223051
1772527358090892500,8.590892578125,0.07350450441092252,0.030337855118513106,0.04689823703616857
1772527358100890400,8.600890380859376,0.05048778596073389,0.023971827217936514,0.020921791997551918
1772527358110888400,8.610888427734375,0.016214929480850696,-0.021696868023276326,0.0003021978169679642
1772527358120886500,8.620886474609375,-0.013368892399966716,-0.06559855359196662,-0.020826514929533003
1772527358130883300,8.63088330078125,-0.057796063147485255,-0.06169453189074993,-0.011315174740552901
1772527358140881700,8.640881591796875,-0.07116174067705869,-0.04601590124368667,0.014447627547383308
1772527358150879500,8.65087939453125,-0.033247897346317765,-0.026806173861026763,0.032254502394795416
1772527358160877600,8.660877685546875,0.04921703537255525,-0.03444119878411293,0.04096621663868427
1772527358170875600,8.670875732421875,0.0722507049575448,-0.017519874599575994,0.05872808330059051
1772527358180873500,8.68087353515625,0.05245850151181221,0.022102526214718816,0.08312427341043949
1772527358190870500,8.69087060546875,0.05837912373244762,0.009179916277527808,0.0782043526649475
1772527358200868400,8.700868408203124,0.07472001768052577,-0.0162082074791193,0.05476707071512937
1772527358210866400,8.710866455078126,0.05725070422440767,-0.02162497183084488,0.02342383794635534
1772527358220864500,8.720864501953125,0.045378480122983456,-0.02736322322189808,0.013274492114782332
1772527358230862300,8.7308623046875,0.02608516611009836,-0.02200257297158241,0.012312076823413372
1772527358240860400,8.7408603515625,0.04534107072204351,-0.012177344527840613,-0.0029530045866966244
1772527358250858500,8.7508583984375,0.03893266498446464,-0.003438742277026176,0.00196896198540926
1772527358260855600,8.76085546875,0.03356763081997633,0.005444236880540848,0.013811083209514618
1772527358270853600,8.770853515625,0.05144026437997818,-0.004023848688602448,0.006829553759098053
1772527358280851500,8.7808515625,0.05961684883385896,0.011897943064570426,-0.014001052823662758
1772527358290849500,8.790849609375,0.04813683892041445,-0.009625906479358673,-0.045993981672823425
1772527358300847600,8.80084765625,0.048241468338668346,-0.035005262407660484,-0.053629298856854433
1772527358310845400,8.810845458984375,0.021243571297824382,-0.05310965889692306,-0.045857203550636765
1772527358320842500,8.820842529296876,-0.00286561856418848,-0.09180033181905746,-0.03501782962828874
1772527358330840300,8.83084033203125,0.0003977671459317207,-0.09988134694397449,0.039979251427948476
1772527358340838400,8.84083837890625,-0.011908756719529628,-0.06229834300279617,0.06516600739359855
1772527358350836500,8.85083642578125,0.0014236030623316763,-0.03518646419346332,0.07151362285465002
1772527358360834300,8.860834228515625,0.018725450997054575,-0.05329495233595371,0.05864449667036533
1772527358370832400,8.870832275390624,0.014452011461555957,-0.055121583241224285,0.030801088716089723
1772527358380830500,8.88083056640625,0.005034779296815395,-0.04025193088948727,0.039974867513775825
1772527358390827500,8.89082763671875,0.012993337085843085,-0.01773673222064972,0.03378711878955364
1772527358400825600,8.90082568359375,0.04039543101340532,0.015165420427918434,0.007049041728675365
1772527358410823400,8.910823486328125,0.07921411422938109,0.04213175328671932,0.016554244437813757
1772527358420821500,8.920821533203124,0.10804770226478576,0.03518120349645614,0.03769523214399814
1772527358430819600,8.930819580078126,0.08770049528479576,0.011793898168206213,0.06456424210816622
1772527358440817400,8.9408173828125,0.05762099884152412,-0.01235270109474659,0.06103694476485252
1772527358450814500,8.950814453125,0.01421001939922571,-0.07141103926301003,0.04451923294514418
1772527358460812500,8.9608125,-0.029385376699268818,-0.10687924300730228,0.047128830921649933
1772527358470810400,8.970810302734375,-0.06583294686973094,-0.09209843798279761,0.03979337346702814
1772527358480808400,8.980808349609376,-0.0511190696015954,-0.053956631115078924,0.04392711227089166
1772527358490806300,8.99080615234375,-0.002799275329709053,0.008530512458086014,0.045800504927337164
1772527358500804400,9.000804443359375,0.062217971242964264,0.04522445860505104,0.04198328472673893
1772527358510802400,9.010802490234376,0.08982347878813743,0.02263794826567173,0.03865940100103617
1772527358520799500,9.020799560546875,0.07812778029739856,-0.016246785923838613,0.02825549588650465
1772527358530797600,9.030797607421874,0.03126666040122509,-0.029697803649306295,0.036976854741573334
1772527358540795600,9.040795654296875,-0.022357085497677325,-0.04300736707746982,0.0422848980218172
1772527358550793500,9.05079345703125,-0.06482435434907674,-0.05542845723330974,0.06843494606167078
1772527358560791600,9.06079150390625,-0.05951192715466022,-0.04003624231219292,0.06949760685712099
1772527358570789600,9.07078955078125,-0.02319178275614977,-0.025830022305250167,0.0767252200230956
1772527358580786400,9.080786376953125,0.014401158057153224,-0.017001988205313682,0.08808803329765796
1772527358590784500,9.090784423828126,0.035626901437342165,0.017678864553570747,0.09117430887520313
1772527358600782300,9.1007822265625,0.06973346143960953,0.023316578179597855,0.07309680039286613
1772527358610780400,9.110780517578124,0.07570932097882031,0.03826455646455288,0.08297054415345191
1772527358620778500,9.120778564453126,0.0762371442452073,0.014174071303009987,0.07673048072010279
1772527358630776300,9.1307763671875,0.06470365057885646,-0.021997896796464918,0.04734890341311693
1772527358640773600,9.140773681640624,0.014584405669569969,-0.035540099936723704,0.04015665382146835
1772527358650771500,9.150771484375,-0.029556933873891827,-0.021146832925081252,0.04735445637106895
1772527358660769500,9.16076953125,-0.021723463769257066,-0.021689269238710403,0.05800707554966211
1772527358670767600,9.170767578125,0.021660919927060603,-0.026937691286206242,0.0495785621613264
1772527358680765400,9.180765380859375,0.024302374346554276,-0.03879705590605736,0.04409311648756265
1772527358690763500,9.190763427734375,-0.007995967189967632,-0.05434416912794113,0.04151479043215513
1772527358700761600,9.20076171875,-0.03237286807745695,-0.048743280380964274,0.06129004274308681
1772527358710758400,9.21075830078125,-0.029613340236246583,-0.027332243561744688,0.07522767494171857
1772527358720756500,9.220756591796874,0.004819967502355575,0.00019406126737594602,0.07220131285786628
1772527358730754300,9.23075439453125,0.05810907461941242,0.009503741404414177,0.0561383590683341
1772527358740752400,9.24075244140625,0.07123392913043498,0.012380758145451545,0.05486439360976219
1772527358750750500,9.25075048828125,0.05334785156697035,0.010202829584479331,0.04179536093920469
1772527358760748500,9.26074853515625,0.0463002711430192,-0.003557400220632553,0.038697687184810634
1772527358770745600,9.27074560546875,0.04897387426644564,-0.020694412982463835,0.03374269512593746
1772527358780743700,9.28074365234375,0.0592883475318551,-0.06640928545296192,0.01507891118824482
1772527358790741500,9.290741455078125,0.025879414404928684,-0.06608662936985492,-0.019043723165988923
1772527358800739600,9.300739501953124,0.008522036890685558,-0.041730771270394325,-0.010215396805107593
1772527358810737700,9.310737548828126,0.01656155096143484,-0.04392565096616745,0.006988251452147961
1772527358820735500,9.320735595703125,0.02242518229782581,-0.0215630125105381,0.03507861990481615
1772527358830733600,9.330733642578124,0.04719780450463295,-0.008956044393777847,0.031419805136322976
1772527358840730400,9.34073046875,0.05437251843959093,-0.005671031373739242,0.016923954533040523
1772527358850728400,9.350728515625,0.05405804566293954,-0.025133856734633444,-0.0017491817548871038
1772527358860726500,9.3607265625,0.03137012077569962,-0.016631985849142075,-0.012673603612184524
1772527358870724400,9.370724365234375,0.01852086833566427,-0.03647358139455318,-0.0019277531921863555
1772527358880722400,9.380722412109375,0.019669161587953565,-0.043972412717342375,0.006508358980715274
1772527358890720500,9.390720458984376,0.012044365797936916,-0.030050270348787305,0.004203296908736229
1772527358900717600,9.400717529296875,0.024254735812544823,-0.028460370808839796,0.021741291686892508
1772527358910715600,9.410715576171874,0.03081774758994579,-0.04025719158649444,0.04072276327162981
1772527358920713500,9.42071337890625,0.03863455882072449,-0.05934241580665111,0.03734159640073776
1772527358930711600,9.430711669921875,0.04968582192808389,-0.07880290307998657,0.05950082123875618
1772527358940709600,9.440709716796874,0.015509411559998989,-0.0847094967752695,0.07937164287865162
1772527358950707500,9.45070751953125,-0.014099544762074947,-0.048992286705970764,0.07210457448512315
1772527358960705500,9.46070556640625,0.005151099152863025,0.0019131401449441908,0.03417728715091944
1772527358970702600,9.47070263671875,0.02209638873487711,0.014930442628264427,-0.009697218149900436
1772527358980700400,9.480700439453125,0.028527006304264066,0.012469020950794218,-0.021845628844201565
1772527358990698500,9.490698486328125,0.053580783540010446,0.0043611178189516065,-0.008265139520168304
1772527359000696600,9.500696533203126,0.06659633245766163,-0.019180501288175583,-0.015909809054434298
1772527359010694400,9.5106943359375,0.020338439151644707,-0.02905015339553356,-0.012281681685149669
1772527359020692500,9.5206923828125,-0.00343728097230196,-0.03402969537377357,-0.008229191423952578
1772527359030689500,9.530689453125,-0.0640597997173667,-0.007009586501121521,0.026126374903321266
1772527359040687600,9.5406875,-0.08790478568524122,0.03664367726445198,0.0662134706199169
1772527359050685700,9.550685791015624,-0.020015198546648023,0.0004962590843439102,0.09619856677800416
1772527359060683500,9.56068359375,0.032681203374266624,-0.03431260396838188,0.09103080875128507
1772527359070681600,9.570681640625,0.045671617850661275,-0.026608605462312696,0.04571341116577387
1772527359080679700,9.5806796875,0.07241670917421579,-0.0727367349088192,0.04235533290952444
1772527359090677500,9.590677490234375,0.09416150799244642,-0.014589081844687461,0.10081541292369366
1772527359100674600,9.600674560546874,0.032548224644362925,0.024252982246875762,0.07496376330852508
1772527359110672400,9.61067236328125,0.017797814758121967,-0.01936930185854435,0.0792433403238654
1772527359120670500,9.62067041015625,0.015442776064574717,-0.005853986725211143,0.0829860339835286
1772527359130668500,9.63066845703125,0.033001229108870024,-0.028052959051728246,0.03963467577397823
1772527359140666400,9.640666259765625,0.04946896430701017,-0.017283727756142616,0.05006196176409721
1772527359150664400,9.65066455078125,0.02348579726666212,-0.01695113480091095,0.02515139239132404
1772527359160661500,9.66066162109375,0.010106675733625888,-0.012866495835781097,-0.0013768413111567496
1772527359170659600,9.67065966796875,0.021789807003736495,0.0008405424773693085,-0.005085924962162971
1772527359180657700,9.68065771484375,0.020021336026489735,-0.0029682021558284756,0.0026338556349277493
1772527359190655500,9.690655517578126,0.007428396435081959,-0.015828852772712707,0.02319558214843273
1772527359200653600,9.700653564453125,0.0072740826562047,-0.0466857633292675,0.01617898138463497
1772527359210651600,9.710651611328124,0.016842121468484402,-0.04705751925110817,0.013620236812531947
1772527359220650500,9.720650390625,0.008522329151630401,-0.013141805645823477,0.045970016275346276
1772527359230648600,9.730648681640625,0.053901686057448384,0.018311901760101317,0.07541559872925281
1772527359240646700,9.740646728515625,0.08036006939411162,0.03465864092707634,0.05711421836316585
1772527359250644500,9.75064453125,0.11249036088734865,0.013874211573600768,0.07516805370897055
1772527359260641500,9.7606416015625,0.07732201687246561,0.027574820145964622,0.11005319686830044
1772527359270639600,9.7706396484375,0.0213037770524621,-0.04074176023304462,0.08722586351037025
1772527359280637400,9.780637451171875,-0.02449263622164726,-0.07521393867731094,0.09259294350147247
1772527359290635500,9.790635498046875,-0.043857846426963804,-0.05463993720412254,0.07267565237134695
1772527359300633300,9.80063330078125,-0.013186813831329344,-0.025889059016108513,0.04646247596740723
1772527359310631400,9.81063134765625,0.025733283932507036,-0.03017477351129055,0.016261106710135937
1772527359320628700,9.820628662109375,0.034598142911493775,-0.07612871543467044,0.002854220387339592
1772527359330626600,9.83062646484375,0.03505114737600088,-0.07308394091129303,-0.017222645218670368
1772527359340624600,9.840624755859375,0.0280985517591238,-0.048018473237752914,-0.0046039866641163826
1772527359350622700,9.850622802734375,0.021968086180090902,-0.010417349117994308,-0.015601473757624626
1772527359360620500,9.86062060546875,0.030381986521184443,-0.012215922972559929,-0.02197743853032589
1772527359370618600,9.87061865234375,0.03074117522239685,-0.027830256211757658,0.00935761093199253
1772527359380615400,9.880615478515624,0.006252922914922237,-0.030692659905552862,0.035981121702492236
1772527359390613500,9.890613525390625,-0.008326514318585396,-0.006710895815491676,0.07388795077055692
1772527359400611600,9.900611572265625,-0.003877425955235958,0.00556874004304409,0.08376140227019786
1772527359410609400,9.910609375,-0.0009507248535752296,0.034954993525147436,0.08792845882177353
1772527359420607500,9.920607421875,0.033442835396528245,0.05874854156672954,0.11275310347676276
1772527359430605600,9.93060546875,0.050634208694100374,0.035192893934249875,0.12000351299643516
1772527359440603400,9.940603271484376,0.04544306979179382,0.008213117071986197,0.11755144366919994
1772527359450600700,9.9506005859375,0.02959346649199724,-0.010724807631969452,0.11274550469219684
1772527359460598500,9.9605986328125,0.020335516542196272,-0.021731939336657524,0.10105535915941
1772527359470596600,9.9705966796875,0.005661679023504257,-0.03280103036165237,0.09942191273868084
1772527359480594700,9.9805947265625,-0.019552549470961092,-0.02895604537129402,0.10669541087299585
1772527359490592500,9.990592529296874,-0.013966273771226405,-0.017379589346051216,0.09614274493753909
1772527359500590600,10.000590576171875,0.025372049404680727,-0.0017599954098463056,0.06800415342897176
1772527359510587400,10.01058740234375,0.05126753816157579,-0.010577508115768432,0.04331044167727232
1772527359520585500,10.02058544921875,0.04708586856275797,-0.016482932767271995,0.014771452674269676
1772527359530583600,10.03058349609375,0.049800680479407305,-0.0001993219643831253,-0.017281097407639025
1772527359540581400,10.040581298828124,0.04504617942869663,-0.000025718963146209716,-0.05918138002604246
1772527359550579500,10.050579345703126,0.04902385088801384,-0.041588147929310794,-0.06088672263920307
1772527359560577500,10.06057763671875,0.027092005065083503,-0.06031389118731022,-0.03319499811530113
1772527359570575400,10.070575439453124,0.008320376838743686,-0.06654898618459701,-0.007258300565183162
1772527359580572700,10.08057275390625,-0.006515373243391513,-0.07228723757565021,0.017108663450181482
1772527359590570500,10.090570556640625,-0.03317833924144506,-0.08247837672233581,0.05854015951305627
1772527359600568600,10.100568603515624,-0.018473522062599657,-0.07274784082472324,0.07460691269487142
1772527359610566700,10.110566650390625,0.024020634795725346,-0.05003916541039943,0.0793114371240139
1772527359620564500,10.120564453125,0.047964112702012056,-0.07949906865060329,0.04919277771413326
1772527359630562600,10.1305625,0.018406009784340857,-0.0689981329023838,0.02373334228694439
1772527359640559400,10.140559326171875,0.005645604671537876,-0.008119593569636345,0.06455138262659312
1772527359650557400,10.150557373046874,0.04229074324071407,0.023879472759366034,0.07450491362512111
1772527359660555500,10.160555419921875,0.08724193786233662,0.05192834015786647,0.02971241669654846
1772527359670553300,10.17055322265625,0.10594254667907953,0.05801788920462131,-0.035951603347063064
1772527359680551400,10.180551513671874,0.08227116371244192,0.07080021388828754,-0.048911038163304325
1772527359690549500,10.190549560546875,0.06783785695135593,0.04353168321251869,-0.036162323488295074
1772527359700547600,10.200547607421875,0.03753945706039667,-0.004463993671536446,-0.025146131694316863
1772527359710544600,10.210544677734376,0.01706131717711687,-0.03712064712643623,0.0004176408901810646
1772527359720542500,10.22054248046875,0.019610417138040064,-0.033040099814534186,0.03910159181058406
1772527359730540500,10.23054052734375,0.041814357900619506,-0.06139759477078914,0.03420826681107282
1772527359740538000,10.2405380859375,0.028795886373519895,-0.08772972137928009,0.013462708163261413
1772527359750536000,10.250535888671875,0.03830459621399641,-0.0757037680208683,0.0472846060052514
1772527359760534000,10.260533935546874,0.05246259316504001,-0.06618541356921195,0.04511982918679714
1772527359770530800,10.27053076171875,0.04625117130428552,-0.05094809694886207,0.01878711805641651
1772527359780529000,10.28052880859375,0.046946167831122876,-0.011937106031179428,-0.03481061661839485
1772527359790527200,10.29052734375,0.06980564989298582,0.01772328821718693,-0.05257072971463203
1772527359800525000,10.300525146484375,0.09682137485146522,0.016762334230542183,-0.013677227696776388
1772527359810523100,10.310523193359375,0.08384352759569882,-0.021081366473436353,-0.04090308827459812
1772527359820521200,10.320521240234376,0.05526800597459078,-0.03382978888750076,-0.056930093967914576
1772527359830519000,10.33051904296875,0.041808220420777795,-0.04657645773589611,-0.057366439558565616
1772527359840516000,10.34051611328125,0.027907120840251445,-0.056630818760395045,-0.05651362212151289
1772527359850514000,10.350513916015625,0.015667232470214367,-0.07734335192143917,-0.035392215898633
1772527359860512000,10.360511962890625,0.017351824556291102,-0.1208516542583704,-0.0163324183806777
1772527359870510000,10.370510009765624,-0.008658522751927375,-0.12069266430437564,0.0025812486648559567
1772527359880508000,10.3805078125,-0.05397299772799015,-0.09090601332783699,0.04421177443116903
1772527359890506000,10.390506103515625,-0.06218757610470056,-0.05291676667332649,0.06456365758627652
1772527359900503000,10.4005029296875,-0.00917202523201704,-0.01563829863667488,0.09161503838002681
1772527359910501000,10.410501220703125,0.03930149829685688,-0.00784837541282177,0.07772621375918388
1772527359920499200,10.420499267578125,0.05140343950092792,-0.013874211573600768,0.06259060394763946
1772527359930497000,10.4304970703125,0.03992313732653856,-0.04206044161617756,0.053793549507856364
1772527359940495000,10.4404951171875,0.016373627173900604,-0.05000643218457698,0.054449383068084715
1772527359950493200,10.4504931640625,-0.007821195144951344,0.005005845463275909,0.05180675960481167
1772527359960491000,10.460490966796876,0.002507306645810604,0.059684361112117765,0.07480448109358549
1772527359970488000,10.470488037109375,0.06802139682471751,0.07288520346879959,0.07823767041265964
1772527359980486100,10.480486083984376,0.09658347444236277,0.02422200258672237,0.06217150175273418
1772527359990484000,10.49048388671875,0.06150806940793991,-0.030827684462070463,0.048855800844728944
1772527360000482000,10.50048193359375,-0.003993453550338745,-0.03307400208413601,0.0514937481328845
1772527360010479900,10.51047998046875,-0.01944061352908611,-0.04610007239580154,0.03818067757338285
1772527360020478000,10.52047802734375,-0.0006903203517198563,-0.018577274698019026,0.04032265803813934
1772527360030475300,10.530475341796874,0.002494739425182342,0.015263035583496093,0.06882394537925719
1772527360040473000,10.54047314453125,0.024388299064338207,0.0018470891714096069,0.07070289099365472
1772527360050471200,10.55047119140625,0.01193564472645521,-0.05865092641115188,0.06377133816480636
1772527360060469200,10.56046923828125,-0.024959961472451685,-0.08340835104882717,0.060042088508605956
1772527360070467000,10.570467041015625,-0.05842091704756021,0.006931845089793205,0.038617899946868414
1772527360080465200,10.580465087890625,0.0029120880544185636,0.004992985981702804,0.08488309977650642
1772527360090463200,10.590463134765624,0.07205635142922401,-0.028594226321578025,0.09427841237038373
1772527360100460000,10.6004599609375,0.0758650960624218,0.010072481203079223,0.11104863764643669
1772527360110458000,10.6104580078125,0.0843368640705943,-0.034250060126185415,0.06308744755387306
1772527360120456000,10.6204560546875,0.06813479407131671,-0.06023322716653347,0.01410071380585432
1772527360130454000,10.6304541015625,0.05685118351280689,-0.059276364833116525,-0.027107494895160195
1772527360140452000,10.6404521484375,0.03501607606261969,-0.06131050100922584,-0.06005611703395843
1772527360150450000,10.650449951171876,0.026444354811310765,-0.09016367052793502,-0.07760609451085329
1772527360160447200,10.660447265625,0.02235299384444952,-0.05446516515910625,-0.07272679803669452
1772527360170445000,10.670445068359374,0.022278175042569636,0.0006809680014848708,-0.046071138562262054
1772527360180443100,10.680443115234375,0.02343085220903158,0.008238251513242721,-0.0276475931212306
1772527360190441200,10.690441162109375,0.017046704129874704,-0.0019335984110832214,0.017518997816741464
1772527360200439000,10.70043896484375,0.0023670213922858236,-0.03561316517293453,0.02548749247789383
1772527360210437000,10.71043701171875,-0.03881868321597576,-0.036680502143502235,0.08684300167262554
1772527360220435200,10.720435302734375,-0.047742286644876,-0.10229425330460071,0.11265870319157838
1772527360230432000,10.730431884765625,-0.03205605721324682,-0.04290858287811279,0.15953326709121465
1772527360240430000,10.74043017578125,0.07884849578738212,0.041759997364878655,0.15243804813325404
1772527360250428000,10.750427978515624,0.18899229354858396,-0.02483984222412109,0.12210311562418937
1772527360260426000,10.760426025390625,0.03490530916452408,0.0896288329988718,0.038895255583524704
1772527360270424000,10.770424072265625,-0.06104717389792204,0.06732815386354923,0.12726619747579096
1772527360280422000,10.780421875,0.01159457620382309,0.020788521006703375,0.13845949940234423
1772527360290419200,10.790419189453125,0.06305412980616092,0.042399464312195774,0.026223405537009237
1772527360300417000,10.8004169921875,0.0853285054564476,0.05013853413164615,0.004425999748706817
1772527360310415000,10.8104150390625,0.06093932960927486,-0.051184243792295456,-0.0017696400210261345
1772527360320413200,10.8204130859375,-0.008508592887222766,-0.058980596756935115,0.04674713812768459
1772527360330411000,10.830410888671874,-0.0735360685929656,-0.02119534824192524,0.0455813092187047
1772527360340409000,10.8404091796875,-0.07403700385242701,0.01617430520951748,0.06803425630629062
1772527360350407200,10.8504072265625,-0.00739390964359045,0.03659165481626987,0.11510784990936516
1772527360360404000,10.860404052734374,0.09652560677528381,0.022376082459092138,0.11386837124228477
1772527360370402000,10.870402099609375,0.1273614745438099,0.00020925883650779723,0.046158232323825356
1772527360380399900,10.88039990234375,0.10041326186358929,0.008030746242403984,0.040466742683947086
