time,seconds_elapsed,z,y,x
1772567337939241000,0.075240966796875,-3.4929280407220125,-2.331084401986003,1.3785562983810902
1772567337949270000,0.08527001953125,-5.346110852831602,-2.1940157724201677,1.1414429480031132
1772567337959298800,0.095298828125,-7.014756012713908,-2.103441183003783,0.7895374626014381
1772567337969327900,0.105327880859375,-8.263223457413911,-2.083840702737868,0.4003689989931881
1772567337979357000,0.11535693359375,-9.079866588279604,-1.9745923925116657,-0.11403751726411282
1772567337989385000,0.125385009765625,-9.78966087127626,-1.8669681763559578,-0.5585024822890758
1772567337999414000,0.1354140625,-10.60863975161314,-1.9447823606595396,-0.7715774430189282
1772567338009442800,0.14544287109375,-11.207178476214409,-2.1977070281535385,-0.9405802569840103
1772567338019472000,0.155471923828125,-11.096659415400028,-2.240977722342312,-1.1629626328285783
1772567338029501000,0.1655009765625,-10.252418083512783,-1.9725658551201224,-1.272495093758404
1772567338039529000,0.175529052734375,-8.704781229755282,-1.6807593760460615,-0.9445125549316405
1772567338049558000,0.18555810546875,-6.775219526842236,-1.3564774453029036,-0.7473812324605882
1772567338059587000,0.195587158203125,-4.7239849164158105,-0.9395070017293095,-0.6574556815374643
1772567338069615900,0.205615966796875,-2.59075474434793,-0.6734951813861727,-0.6279219824086875
1772567338079645000,0.21564501953125,-0.6088660573482513,-0.494282523573935,-0.8195710740763693
1772567338089674000,0.225674072265625,0.9528536822974681,-0.3791238202601671,-1.2499937774844467
1772567338099701800,0.23570166015625,1.9186533554077148,-0.3045326896563172,-1.8511738103747366
1772567338109731000,0.24573095703125,2.3951328035265207,-0.17420447426140306,-2.0956822394400834
1772567338119760100,0.255760009765625,2.578729375511408,0.08652063785046339,-1.7676184520706533
1772567338129789000,0.265788818359375,2.691468450462818,0.3787748606920242,-0.9787970287840813
1772567338139818000,0.27581787109375,2.952289716425538,0.6301254107370973,-0.2936844017751515
1772567338149845800,0.285845703125,3.0349767674624917,0.7405167535185814,-0.08834902232140301
1772567338159874800,0.295874755859375,2.6353777299284933,0.7008946449652314,-0.37857594058644023
1772567338169903900,0.30590380859375,1.9329297180414198,0.5980407119512557,-0.755126001368463
1772567338179933000,0.315932861328125,1.5969237394958733,0.4218710750967264,-1.002260102762282
1772567338189962000,0.3259619140625,1.7869997366279362,0.35314123774170875,-0.9100982441544532
1772567338199991000,0.335990966796875,2.1002456018328663,0.4017907023593783,-0.5405292378988117
1772567338210018800,0.346018798828125,2.533057173138857,0.3750938340917229,-0.06525704667791724
1772567338220048000,0.3560478515625,3.2631799584150314,0.21268325799852608,0.2109031696487218
1772567338230077000,0.366076904296875,4.303364133641123,0.2261398286819458,0.2543599975267425
1772567338240106000,0.37610595703125,5.049669407433271,0.39813948637545105,0.25602215858530253
1772567338250135000,0.386135009765625,5.532668612709641,0.4591241164311766,0.5549126411035656
1772567338260162800,0.396162841796875,6.03872019227147,0.37169776191264386,0.9104274030435829
1772567338270191900,0.40619189453125,6.126515380102395,0.4028592083737254,1.3106184881865977
1772567338280221000,0.416220947265625,5.60687951182425,0.5423179479464888,1.7616683114945888
1772567338290249700,0.426249755859375,5.342490908768773,0.434997683173418,1.7072794264420865
1772567338300278800,0.43627880859375,5.4432461159378285,0.2667699452340603,1.1096975641742348
1772567338310307000,0.44630712890625,5.506352852714062,0.5324509261876345,0.6788126500818878
1772567338320336000,0.4563359375,5.143739437749981,0.8491346568867564,0.1652964885267429
1772567338330365000,0.466364990234375,4.8878264020949596,1.0215282823339105,-0.17908388033341616
1772567338340394000,0.47639404296875,4.5622231596201654,1.1504174048364162,-0.42430275922305877
1772567338350422800,0.4864228515625,4.043760426774621,1.2286299408078194,-0.7507972514491528
1772567338360451000,0.496451171875,3.574858135911822,1.1769050142675637,-0.8638000188380479
1772567338370479900,0.50647998046875,2.7060616239607334,1.0666749995276332,-0.8266320254385471
1772567338380509000,0.516509033203125,1.2853712342053651,0.7683534394711256,-0.38707313529681414
1772567338390538000,0.5265380859375,-0.14127543360590933,0.07135930907577276,0.443550699724257
1772567338400566800,0.53656689453125,-1.378745098951459,-0.8738377209886908,1.3314026252791284
1772567338410594800,0.5465947265625,-2.568426592683792,-1.9872090052396059,1.739968228600919
1772567338420624100,0.5566240234375,-4.363054924494028,-2.7318445922538634,1.2593643940284847
1772567338430653000,0.56665283203125,-6.0913850300103425,-2.9873168984040617,0.5802119905982166
1772567338440682000,0.576681884765625,-6.953882149556279,-3.0060724522784352,0.2572635734811425
1772567338450711000,0.5867109375,-7.5327569732666015,-2.8071260432094336,0.07601137266531587
1772567338460739800,0.59673974609375,-8.306612517285346,-2.432787119138241,-0.05731799730695784
1772567338470767900,0.606767822265625,-8.864637445190548,-2.2451114611461755,-0.04912300041355192
1772567338480797000,0.616796875,-9.249019039848447,-2.322635722592473,-0.22582637881860135
1772567338490826000,0.626825927734375,-9.155639914405345,-2.4415847580999133,-0.5089172711912542
1772567338500855000,0.63685498046875,-8.618760650381445,-2.4983450484588743,-0.5257775128383189
1772567338510884000,0.646884033203125,-7.957832981884479,-2.512216921944916,-0.04409735427126288
1772567338520912000,0.656911865234375,-7.242292264190316,-2.5501968162491915,0.6494760078951716
1772567338530941000,0.66694091796875,-6.466916963258385,-2.5052055818781254,1.2787892254665494
1772567338540969700,0.6769697265625,-5.354383006614446,-2.3665558206006883,1.5515983047343789
1772567338550999000,0.6869990234375,-4.033361197835207,-1.99601336620301,1.2930882383234799
1772567338561028000,0.697028076171875,-2.7058465199053288,-1.4134043244004248,0.6139495711576193
1772567338571055900,0.707055908203125,-1.2672335199683904,-0.8869199054017662,-0.1617669444274157
1772567338581085000,0.7170849609375,0.18393384111523628,-0.4093775042265653,-0.7458076995335519
1772567338591114000,0.727114013671875,1.522072204390168,0.053576107364892954,-1.061456680357456
1772567338601142800,0.737142822265625,2.69457927595973,0.46576428509801626,-1.1329757100395859
1772567338611171800,0.747171875,3.5067531524568794,0.5889189556017518,-1.241898003181815
1772567338621201200,0.757201171875,4.009791521677375,0.561251196475327,-1.2783986187137664
1772567338631229000,0.76722900390625,4.034228043797612,0.5208791463375091,-1.0716155246697365
1772567338641258000,0.777258056640625,4.09150651281178,0.4576771324932575,-0.5404580723587423
1772567338651286800,0.787286865234375,4.434788035318255,0.397604356585443,-0.0986134550331626
1772567338661315800,0.79731591796875,4.482225493797659,0.41583968597799537,0.0445607613987755
1772567338671345000,0.807344970703125,4.522755657106638,0.5571484373316169,0.09180488013001158
1772567338681373000,0.817373046875,4.454643659389019,0.6753963388323784,0.11131934434659778
1772567338691402000,0.827402099609375,4.1310108402043575,0.4961097390010953,-0.13681670063138007
1772567338701431000,0.83743115234375,4.2317666318953036,0.20952011779248714,-0.49911929608061906
1772567338711459800,0.8474599609375,4.4780636979430914,0.2981786444544792,-0.4124696980882436
1772567338721489000,0.857489013671875,4.942962013861536,0.5588613787293434,0.21605865271575747
1772567338731517000,0.867516845703125,5.68104949440658,0.7866507281839847,0.9854376358423381
1772567338741546000,0.8775458984375,6.039627370244264,0.9468833757162094,1.4792410706624388
1772567338751575000,0.887574951171875,6.247921161112189,1.05744890602082,1.714129876858741
1772567338761603800,0.897603759765625,6.333277723619341,1.2036603347241879,1.8083705875672398
1772567338771633000,0.9076328125,6.071210841509699,1.3423983588069677,2.160089537420869
1772567338781661000,0.917660888671875,5.854715039485693,1.1582406458079815,1.6836010292127728
1772567338791690000,0.92768994140625,5.7638499426901335,0.9582990882217883,1.0009517966426908
1772567338801719000,0.937718994140625,5.565619865196943,0.9086334322988986,0.736107558774203
1772567338811748000,0.947748046875,5.182679701519012,0.9469912200048566,0.8242945954669266
1772567338821777000,0.95777685546875,4.340962335151434,0.5939163254976272,0.8056917479362339
1772567338831805000,0.967804931640625,2.9913077216058968,0.25624767443686725,0.8756788188107312
1772567338841833700,0.977833740234375,1.67302205979228,0.006029051031172275,0.9829446499828248
1772567338851862800,0.98786279296875,0.2647545137584209,-0.5118702027127147,0.9869502323623746
1772567338861892000,0.99789208984375,-1.1091799700409173,-1.0269108521550894,0.8474670159354806
1772567338871921000,1.0079208984375,-2.4388860205352305,-1.3342314189642668,0.7162977466065437
1772567338881950000,1.017949951171875,-3.9442420679241414,-1.4338696048021315,0.8524909085121005
1772567338891978000,1.02797802734375,-5.718769860991835,-1.4357307224988936,1.348261405621469
1772567338902006800,1.0380068359375,-6.7405147086858745,-1.4718360551029444,1.5246940773263573
1772567338912035800,1.048035888671875,-7.1577855965107675,-1.5548378711774944,1.1162913364160805
1772567338922065000,1.05806494140625,-7.9469971150934695,-1.7193834134727715,0.10288723249537869
1772567338932094000,1.068093994140625,-8.730283335280419,-1.7184578230604528,-0.6088913013873621
1772567338942122000,1.0781220703125,-9.21876418683827,-1.6923247261554002,-0.49461522612702097
1772567338952150800,1.08815087890625,-9.347195336440205,-1.6860615741074085,-0.027798536766087633
1772567338962179800,1.098179931640625,-9.149804632380604,-1.7540923232823609,0.622462621024251
1772567338972209000,1.108208984375,-8.773357337853312,-1.9084768293082712,1.2733775756813586
1772567338982237700,1.11823779296875,-8.127073111736774,-2.093672653183341,1.7715554992586373
1772567338992266000,1.128265869140625,-7.2637091462284324,-2.1506047929778696,1.9411461961142717
1772567339002295000,1.138294921875,-6.438699753555655,-2.0609198458775877,1.7767495607703923
1772567339012323800,1.14832373046875,-5.547432466599345,-1.8931100410893558,1.5971769836045802
1772567339022353000,1.158352783203125,-4.620676517632603,-1.7427756872370839,1.577198171545565
1772567339032382000,1.1683818359375,-3.5152427483826876,-1.4868404397502542,1.5248748407207429
1772567339042410000,1.178409912109375,-2.2115151887536046,-1.007703755120933,1.2030269321914762
1772567339052439000,1.18843896484375,-0.9906728330820799,-0.4825421091586351,0.6917075682945549
1772567339062467800,1.1984677734375,0.10942951201200485,-0.03015694559365511,0.29516342481914903
1772567339072497000,1.208496826171875,1.101649574536085,0.32365912266969676,0.10638221673797815
1772567339082526000,1.21852587890625,1.9277029233038425,0.6086877781718969,-0.041660190252214666
1772567339092553700,1.2285537109375,2.564012283372879,0.8613336287245154,-0.279714986198768
1772567339102583000,1.2385830078125,3.1486849797070025,1.0495660438165069,-0.42593291770815844
1772567339112612900,1.24861279296875,3.7067420563161373,1.166781095138192,-0.4498680661775171
1772567339122642000,1.258641845703125,4.16487570040524,1.1969444704726337,-0.46993433732427653
1772567339132671200,1.268671142578125,4.604150914767384,1.2486655976206062,-0.43263241534680125
1772567339142699000,1.278698974609375,5.017143102359771,1.222074820075929,-0.357956602134183
1772567339152728000,1.28872802734375,5.501604196882248,1.2010370004832744,-0.26535211432538924
1772567339162757000,1.298757080078125,6.0341088990837335,1.232093817526102,-0.12579038930218667
1772567339172786000,1.308785888671875,6.3544479374200105,1.234372576113045,0.20464250181876123
1772567339182815000,1.31881494140625,6.606402006316185,1.182240530076623,0.5640222320912406
1772567339192843000,1.328843017578125,6.993639574927091,1.1034256442978978,0.6608265462100505
1772567339202872000,1.3388720703125,7.317375854486227,1.0558847254440187,0.6026973786506802
1772567339212901000,1.348901123046875,7.560083371609449,1.094472814774513,0.5267966632856056
1772567339222930000,1.358929931640625,7.83811588461399,1.1610904822811483,0.4436332999737933
1772567339232959000,1.368958984375,7.951548787048458,1.349803958888352,0.29206202473770826
1772567339242987300,1.3789873046875,7.958635530439019,1.5577005671322346,0.18256876330710947
1772567339253016000,1.38901611328125,7.850752663347125,1.5975851260140537,-0.013181954993121326
1772567339263045000,1.399045166015625,7.503045141091943,1.5975269660860298,-0.08232442826963961
1772567339273074200,1.40907421875,6.907790260466933,1.6154048603430389,0.01718472436107695
1772567339283103000,1.41910302734375,6.10739099291563,1.532085648882389,0.09712539929933846
1772567339293132000,1.429132080078125,5.101459215903282,1.5597189212173224,-0.2634102595426142
1772567339303160000,1.43916015625,3.689454821428656,0.680980860966444,-0.7773955547131598
1772567339313189000,1.449189208984375,1.8924276117831467,-0.06920885304361582,-1.0892843792859463
1772567339323218200,1.45921826171875,-0.003994622594118118,-0.5756891794115304,-1.26713152089864
1772567339333247000,1.4692470703125,-1.6271172177076338,-0.9161997758999466,-1.0941167678784578
1772567339343276000,1.479276123046875,-3.1974037101686,-0.7864534520462155,0.20083499929457901
1772567339353304000,1.489303955078125,-5.127776144942641,-1.0461515591979027,1.5807105635806917
1772567339363332900,1.499332763671875,-6.9876189994633195,-1.8125328218132257,1.5830677942313254
1772567339373362200,1.509362060546875,-8.346782030588388,-2.4123233000412583,0.7427184282813221
1772567339383391200,1.51939111328125,-9.627690440165996,-2.464956281337142,-0.18143654440678655
1772567339393420000,1.529419921875,-10.68206271522045,-2.382328559271991,-0.44475678757838905
1772567339403448000,1.539447998046875,-11.40891334695816,-2.6879110502421852,0.026757293218001722
1772567339413476900,1.549476806640625,-11.718245838111638,-3.3036227357015013,0.8865138818841427
1772567339423506000,1.559505859375,-11.630552357089519,-3.5970547701507805,1.5774901402294634
1772567339433535000,1.569534912109375,-11.086617329335212,-3.3295524189889427,1.6685495905533432
1772567339443564300,1.579564208984375,-10.31715738992691,-2.810845648254454,1.2791548439085483
1772567339453592000,1.589592041015625,-9.504729830929636,-2.3906138647973534,0.7668032874196767
1772567339463621000,1.59962109375,-8.417385845121741,-2.1134540429741144,0.37014874237235634
1772567339473650000,1.60964990234375,-6.954094331002235,-1.7430767160102725,0.08156546312849969
1772567339483679000,1.619678955078125,-5.189858214846253,-1.2650979692444204,-0.0487528519269079
1772567339493708000,1.6297080078125,-3.2779595943957567,-0.8310621168404817,-0.25432130948416887
1772567339503736000,1.639736083984375,-1.3104828791081904,-0.5097817060008645,-0.49936961757987736
1772567339513765000,1.64976513671875,0.32215807045698164,-0.3219911894574761,-0.7964747875839472
1772567339523794200,1.659794189453125,1.6742518938481807,-0.2903057191222906,-1.0727484742224216
1772567339533823000,1.669822998046875,3.0803701528936624,-0.2646893395677209,-1.1721779126804321
1772567339543852000,1.67985205078125,4.466846722880006,-0.12748480866253376,-1.2537817715905606
1772567339553880000,1.689880126953125,5.363437250685691,0.08344137653559446,-1.3954457661226392
1772567339563909000,1.6999091796875,5.846000402632355,0.20012392841577528,-1.395619076862931
1772567339573938200,1.709938232421875,6.2062646241217845,0.18634703973680733,-1.1690444369602948
1772567339583967000,1.719967041015625,6.426422455784678,0.2099289908543229,-0.9022142129063606
1772567339593996000,1.72999609375,6.362908891773223,0.3385167923226952,-0.5721968072511255
1772567339604024000,1.740024169921875,6.260608208727836,0.4823927638158202,-0.12557236263733357
1772567339614053000,1.75005322265625,6.301907018321752,0.5497109808072448,0.1645624203648418
1772567339624082200,1.760082275390625,6.224653682771325,0.6228337924242019,0.2665391686854884
1772567339634111200,1.770111328125,6.081202074170112,0.6225806944459676,0.2653407709474675
1772567339644140000,1.78014013671875,6.1566977523982525,0.695458883652091,0.08926345201889052
1772567339654168000,1.79016796875,6.3134945802628994,0.7650260486140846,-0.19569179118722677
1772567339664196900,1.80019677734375,6.500359214133024,0.8343591125592589,-0.2925909074500203
1772567339674226000,1.810225830078125,6.937071884530782,0.9307242680758238,-0.13540126260919497
1772567339684255200,1.820255126953125,7.282675127983093,1.0509069370314479,0.06400674522272311
1772567339694284000,1.830283935546875,7.462352480697631,1.1123632762521505,0.06253993320632725
1772567339704312000,1.84031201171875,7.51194507138431,1.166814997407794,-0.06491002333853393
1772567339714341000,1.850341064453125,7.471790171128511,1.211942425379157,-0.20133498470596967
1772567339724370000,1.860369873046875,7.251288640594482,1.2540692102298139,-0.3038150429062545
1772567339734399000,1.87039892578125,6.705563806813955,1.1212027085289358,-0.30154830355066803
1772567339744428000,1.880427978515625,6.004600480526685,0.9363739644005894,-0.19971512841917574
1772567339754456000,1.8904560546875,5.012514273515343,0.7737798484340309,-0.24673531133458018
1772567339764485000,1.900485107421875,3.5491947023451327,0.4310080290153622,-0.4253763798039406
1772567339774514000,1.910513916015625,2.277446335300803,0.10859247666597366,-0.5519567139074206
1772567339784543000,1.92054296875,0.48162265622615813,0.0030330840855836865,-0.5856115846194326
1772567339794572000,1.930572021484375,-1.505233297792077,-0.25369798995405435,-0.4573713544797152
1772567339804600000,1.94060009765625,-3.339356020122766,-0.5757450012519956,0.25465006651449945
1772567339814629000,1.950629150390625,-4.91244354147911,-0.8099559081867337,1.1097432299468666
1772567339824658200,1.960658203125,-6.642718351322412,-1.0682692829817533,1.4167092111647128
1772567339834687000,1.97068701171875,-8.282610879451036,-1.0755828208655118,1.3347837921500205
1772567339844716000,1.980716064453125,-9.478588842979073,-0.6571025572508573,0.714486678596586
1772567339854744000,1.990744140625,-10.625565167450905,-0.46782735510766504,-0.2342997177293524
1772567339864773000,2.000773193359375,-11.399572687160967,-0.7101935114473104,-0.6589779957339167
1772567339874802200,2.01080224609375,-11.7296568744421,-1.0877727326139808,-0.3771498898386955
1772567339884831000,2.0208310546875,-11.644753900921344,-1.4832871311828493,0.23408035762393845
1772567339894860000,2.030860107421875,-11.285040299052,-1.7748697383731602,0.6458896738409996
1772567339904889000,2.04088916015625,-10.837575933015346,-1.7942974924206732,0.6502939001493155
1772567339914917000,2.050917236328125,-10.300886638605594,-1.7159969859048723,0.3811551799573004
1772567339924946200,2.0609462890625,-9.766907187676429,-1.731171466422081,0.18298028498375787
1772567339934975200,2.070975341796875,-8.98056099539697,-1.7373641835823654,0.26910984115740283
1772567339945004000,2.081004150390625,-7.691987165758014,-1.5013897741064428,0.5077882306287065
1772567339955033000,2.091033203125,-5.982485679352283,-0.9829419465690851,0.5354121871460229
1772567339965060900,2.101060791015625,-4.2072494457542895,-0.44361061321794987,0.35406887398064135
1772567339975090000,2.11108984375,-2.4456688125431536,-0.008474982878565789,0.08892868537288158
1772567339985119200,2.121119140625,-0.874103970709443,0.3520090188413858,-0.1253515412271954
1772567339995148000,2.13114794921875,0.4793927052170038,0.5865750228241086,-0.252517438399978
1772567340005177000,2.141177001953125,1.6478887875795363,0.725177730089426,-0.35802908284850415
1772567340015205000,2.151205078125,2.7654391110807657,0.8026172358617186,-0.42381044566147025
1772567340025234000,2.16123388671875,3.836580150106549,0.7992755242183804,-0.3490855326101184
1772567340035263000,2.171262939453125,4.752647531798481,0.7335521752029657,-0.18701273710392413
1772567340045292000,2.1812919921875,5.539792180979251,0.6317088805362582,0.012163023741543292
1772567340055321000,2.191321044921875,6.1872320068716995,0.5464139850884676,0.1779770516026765
1772567340065349000,2.20134912109375,6.670631609642506,0.4416071644410491,0.3546569760669023
1772567340075378000,2.2113779296875,6.98894294154346,0.3368643489405513,0.6165194216456263
1772567340085407000,2.221406982421875,7.345245858186483,0.22465017464607953,0.8694527839027345
1772567340095436000,2.23143603515625,7.677101146793365,0.1843432986989617,0.997112876066938
1772567340105465000,2.241465087890625,7.812884412723779,0.1618789534345269,1.0887157856177538
1772567340115492600,2.25149267578125,8.009760737520455,0.1411024151265621,1.0632008206110446
1772567340125521400,2.261521484375,8.251818266302347,0.15561258651614188,0.9286006269853562
1772567340135550500,2.271550537109375,8.16721690607667,0.15245616831183434,0.8459724665287882
1772567340145579500,2.28157958984375,8.117582229813934,0.15584376492351293,0.8912362342309206
1772567340155608300,2.2916083984375,8.25017225266099,0.17645897518992423,0.8089112214393913
1772567340165636600,2.30163671875,8.269450953626633,0.2356891627937555,0.5658510549535974
1772567340175665700,2.311665771484375,8.010289145308732,0.2654550632432103,0.41019707698114216
1772567340185694500,2.321694580078125,7.586456999272108,0.2348337150081992,0.3019883572020568
1772567340195723500,2.3317236328125,7.065562655365467,0.19724077419489622,0.004670896154176443
1772567340205752600,2.341752685546875,6.18685908190608,0.2282251105234027,-0.15284220848735422
1772567340215780600,2.351780517578125,5.171770184969902,0.17833938210904599,-0.06704203039854764
1772567340225809700,2.3618095703125,4.106061692386866,0.07073094804435968,-0.023272227581217882
1772567340235838500,2.37183837890625,2.6869056725919247,-0.10456365954130888,-0.18089505794122815
1772567340245867500,2.381867431640625,1.2701409318476915,-0.3988987803101539,-0.23867325663845984
1772567340255896600,2.391896484375,0.18590367988348006,-0.5710486601293087,-0.2295471529074013
1772567340265924400,2.40192431640625,-1.025424997511506,-0.6227887842386961,-0.16542197806993497
1772567340275953400,2.411953369140625,-2.556173844832182,-0.940903132262826,0.11082604440432041
1772567340285982700,2.421982666015625,-4.126222436884046,-1.4918004002451897,0.34871461693849415
1772567340296011500,2.432011474609375,-5.663384658378362,-1.8337191099658607,0.5898909424390644
1772567340306040600,2.44204052734375,-7.220104397779703,-1.648010368132591,0.6972593572027981
1772567340316068400,2.452068359375,-8.206730001297593,-1.1380679186120628,0.10206002442361786
1772567340326097400,2.462097412109375,-9.11840528551042,-0.6156736915364861,-0.7979977593675255
1772567340336126500,2.47212646484375,-9.94547979401946,-0.49778877812921996,-1.1706966611467302
1772567340346155500,2.482155517578125,-10.425733499979971,-0.9576122750014067,-1.1297269373767078
1772567340356184600,2.4921845703125,-10.630486841762066,-1.3696160360783338,-0.8217119585625827
1772567340366212600,2.502212646484375,-10.411562351286411,-1.3393413093239068,-0.5573069158289581
1772567340376241400,2.512241455078125,-9.891894334304332,-1.126829023978114,-0.5277903870306909
1772567340386270500,2.5222705078125,-9.332624959295988,-1.2391498735174535,-0.6713128689110278
1772567340396299500,2.532299560546875,-8.683400003552435,-1.6692644608244298,-0.8154756214562803
1772567340406328300,2.542328369140625,-7.803947657552361,-2.0021911780551074,-0.7054200134351849
1772567340416356600,2.552356689453125,-7.140074583253264,-2.1438179093167187,-0.5382902998656034
1772567340426385400,2.562385498046875,-6.4841399007380005,-2.245333287203312,-0.39928500314876436
1772567340436414500,2.57241455078125,-5.289871663737297,-2.1227540784999728,-0.2915985354118049
1772567340446443500,2.582443603515625,-3.8020968657463787,-1.629813909445703,-0.23788228892385957
1772567340456472300,2.592472412109375,-2.3988281509131193,-1.0770160685390233,-0.363077525344491
1772567340466500600,2.60250048828125,-1.1347913811594248,-0.7110849073290825,-0.4947676767423749
1772567340476529700,2.61252978515625,0.017568389916419982,-0.5523465900078416,-0.4746640692599117
1772567340486558500,2.622558349609375,0.9901631299942731,-0.39793373467028137,-0.28987068870589133
1772567340496587500,2.63258740234375,1.9565444023847578,-0.22141806085705756,-0.10166603840366005
1772567340506616600,2.642616455078125,2.887525275570154,-0.11829933942705392,0.04055149835795164
1772567340516644400,2.652644287109375,3.751635091009736,-0.052287821120023725,0.11279138966053724
1772567340526673700,2.662673583984375,4.493799027213454,-0.021227204684913157,0.2104049378030002
1772567340536702700,2.67270263671875,5.1531496556520455,-0.01710837118923664,0.3887485576957464
1772567340546731500,2.6827314453125,5.701286811271309,-0.03021130612939596,0.6723670541390776
1772567340556760600,2.692760498046875,6.150057583731413,-0.09358341584354639,0.9960876977376639
1772567340566788400,2.702788330078125,6.535938477036357,-0.21911767496019602,1.2676114133700727
1772567340576817400,2.7128173828125,6.927697906985879,-0.33804216054826974,1.4148488241203128
1772567340586846500,2.722846435546875,7.322432553353905,-0.4251891136035323,1.4634370600700377
1772567340596875500,2.73287548828125,7.68044928817749,-0.47780675119981164,1.482587312350422
1772567340606904600,2.742904541015625,7.9555685440838335,-0.4454214620321989,1.481065509610623
1772567340616932600,2.7529326171875,8.068366655746102,-0.4094948469959199,1.4242501280635596
1772567340626961400,2.76296142578125,8.028044582229851,-0.39950113011747596,1.3406238964803516
1772567340636990500,2.772990478515625,8.000307264998554,-0.35330402708798647,1.3149540331728755
1772567340647019500,2.78301953125,7.946966135433316,-0.2205480000242591,1.3991209475040436
1772567340657048600,2.793048583984375,7.7951663852036,-0.07060118418484926,1.3503354354165493
1772567340667076600,2.80307666015625,7.448847102436423,0.10756108779162168,1.09070447521694
1772567340677105400,2.81310546875,6.903091873517632,0.36003655021339653,0.7501265125807375
1772567340687134500,2.823134521484375,6.058953417482972,0.5707639979690313,0.2752162134747952
1772567340697163500,2.83316357421875,4.937822897407412,0.6326932153984904,-0.051681050865910946
1772567340707192300,2.8431923828125,3.9202562121808526,0.6537000553309917,-0.254476974969916
1772567340717220600,2.853220703125,2.678034383872151,0.6442240787163377,-0.3440997435541823
1772567340727249700,2.863249755859375,1.2856331000119448,0.4486281491190195,-0.6056464377146213
1772567340737278500,2.873278564453125,-0.09668985742628573,0.11369944441616535,-0.5910855225184932
1772567340747307500,2.8833076171875,-1.592558530023694,0.07476210325658321,-0.04151861722390167
1772567340757336600,2.893336669921875,-3.434982632231712,0.2741001419916749,0.6765785343542695
1772567340767364600,2.903364501953125,-5.761242390540242,0.13947218357622623,1.153856439374387
1772567340777393700,2.9133935546875,-7.467617269358039,-0.058627253274619574,1.1014073632780461
1772567340787422500,2.92342236328125,-8.912319818341732,0.17881722875386474,0.6198762577928603
1772567340797451500,2.933451416015625,-10.241796151733398,0.28531390218436714,0.030958580832742152
1772567340807480600,2.94348046875,-10.847466043388843,-0.2952177488222718,-0.17743704470815136
1772567340817508400,2.95350830078125,-10.856343761849402,-0.7638315781325101,-0.05248645809781737
1772567340827537700,2.96353759765625,-10.65981347401142,-0.9530065347716211,0.2967149651100859
1772567340837566700,2.973566650390625,-10.051459457838535,-1.2362073903247712,0.5564309367120266
1772567340847595500,2.983595458984375,-9.133581227332353,-1.4643287482127547,0.602407236597687
1772567340857624600,2.99362451171875,-8.251970826515555,-1.6629215215384958,0.4916197341054678
1772567340867652400,3.00365234375,-7.553978040471673,-1.9942679838404058,0.5011124426592141
1772567340877681400,3.013681396484375,-6.970647990918159,-2.2836013507992026,0.6667856007449329
1772567340887710500,3.02371044921875,-6.187646432891488,-2.287646534536779,0.8608370773792267
1772567340897739500,3.033739501953125,-5.040833774548768,-1.863176675118506,0.8433045624937862
1772567340907768600,3.0437685546875,-3.6851205916166303,-1.1795374085977672,0.5057201191177592
1772567340917796600,3.053796630859375,-2.375659456771612,-0.6314949455246329,0.02920921641476452
1772567340927825400,3.063825439453125,-1.1627683523654937,-0.1082835568472743,-0.34476810780242084
1772567340937854500,3.0738544921875,-0.17116905208826064,0.30086890645176173,-0.5889066075768321
1772567340947883500,3.083883544921875,0.5529647219061851,0.47030718922466036,-0.8719515419159084
1772567340957912300,3.093912353515625,1.4668307941615581,0.6031582010954618,-1.1001247030563652
1772567340967940600,3.103940673828125,2.350216972479224,0.7321966689407825,-1.0094184500843286
1772567340977969400,3.113969482421875,3.196789962184429,0.6542696719124913,-0.7692332910455763
1772567340987998500,3.12399853515625,4.067143640449643,0.46462037575989956,-0.6387352720417082
1772567340998027500,3.134027587890625,4.86622831827104,0.3808353003531694,-0.5292733190648258
1772567341008056300,3.144056396484375,5.672310892155767,0.3582867839366197,-0.41820984917543824
1772567341018084600,3.154084716796875,6.363743004509806,0.33357173713594673,-0.314960267907381
1772567341028113700,3.16411376953125,6.960213106143474,0.3014361849457025,-0.20597513866201042
1772567341038142500,3.174142578125,7.402260707828402,0.35291239742189645,0.01085515601336956
1772567341048171500,3.184171630859375,7.653902057513594,0.39193303295075893,0.12952789533007888
1772567341058200600,3.19420068359375,7.826939241561293,0.32249154019504783,-0.04410535491462797
1772567341068228600,3.204228515625,7.8890207269430155,0.27417817566394803,-0.26914814560748634
1772567341078257700,3.214257568359375,7.823610973921418,0.3416416463449597,-0.3819644139809534
1772567341088286500,3.224286376953125,7.815119039908051,0.42152065422385926,-0.37709706367291507
1772567341098315500,3.2343154296875,7.847295216369629,0.47270197540670633,-0.22694743700409306
1772567341108344000,3.244343994140625,7.74257285913527,0.47551761734932657,-0.08480670093889348
1772567341118371800,3.254371826171875,7.572828286892175,0.4455626240685582,0.00658318234917242
1772567341128401200,3.264401123046875,7.283443774268031,0.4083268261298537,0.13837719141375274
1772567341138430200,3.27443017578125,6.8775570347666735,0.33878625691384073,0.15769005037732423
1772567341148459000,3.284458984375,6.415465008440614,0.20144874727874992,0.07424708467284218
1772567341158487000,3.294487060546875,5.628071352934837,-0.010463526347279548,0.017808409217372534
1772567341168515800,3.304515869140625,4.759237431582808,-0.25030688621103764,0.07552665788829326
1772567341178545000,3.314544921875,4.025203025820851,-0.29863866318166254,0.08941073326878249
1772567341188574000,3.324573974609375,3.192599524757266,-0.2187842052221298,0.0626407997649163
1772567341198603000,3.33460302734375,2.295358424088359,-0.24624241325110197,0.08439034782350063
1772567341208631000,3.344631103515625,1.143543427413702,-0.3867287423059344,0.18903233329802752
1772567341218660000,3.35466015625,-0.6615601211816072,-0.5991624094575643,0.31827246119529007
1772567341228689000,3.36468896484375,-2.816627446526289,-1.0012745988562703,0.6149161511674524
1772567341238718000,3.374718017578125,-4.825137598469853,-1.474466403606534,0.9292068492501974
1772567341248747000,3.3847470703125,-6.822552355903387,-1.4411767129451036,1.3845564155787229
1772567341258776000,3.394776123046875,-8.977015285614133,-1.0779723463505506,2.156818699056655
1772567341268804000,3.40480419921875,-10.853741470396518,-1.0228820350304246,2.7108827605068684
1772567341278833000,3.4148330078125,-12.064545831656455,-1.0789759704351425,2.4441341503217813
1772567341288862000,3.424862060546875,-12.666679365879297,-0.7465235927179455,1.6798755789488553
1772567341298891000,3.43489111328125,-12.716699242067337,-0.3217684866175055,1.0688328351486474
1772567341308919000,3.4449189453125,-12.169735221880673,-0.2057961288332939,0.740186352520436
1772567341318948000,3.454947998046875,-11.23017006022334,-0.31539982836842534,0.6886093100182712
1772567341328977200,3.46497705078125,-10.030236637067794,-0.5582435390919447,0.833118099522218
1772567341339006000,3.475005859375,-8.551448278608918,-0.9357672306790947,0.8920767036430537
1772567341349035000,3.485034912109375,-7.225168110910057,-1.2835691532194613,0.7709887564107776
1772567341359062800,3.495062744140625,-6.034994449746608,-1.5322271031796932,0.8093960092816501
1772567341369092000,3.505092041015625,-4.795502923184633,-1.5937512469395994,1.1089110899716614
1772567341379121200,3.51512109375,-3.506184997180104,-1.380811091570556,1.3014255662970244
1772567341389150000,3.52514990234375,-2.540949972215295,-1.0660191659674048,1.24942313798964
1772567341399179000,3.535178955078125,-1.7994710956662892,-0.5849366079673171,1.0958549898479133
1772567341409207000,3.54520703125,-1.0572036990880966,-0.11491554220765829,0.7297625736616551
1772567341419235800,3.55523583984375,-0.35300387509763237,0.16026099684387443,0.16801336453631519
1772567341429265000,3.565264892578125,0.31287878545820713,0.2562207864299416,-0.39649332660362124
1772567341439294200,3.575294189453125,1.1761264311105013,0.26536884626448154,-0.8075878638811409
1772567341449323000,3.585322998046875,2.220873968729377,0.36185792042165993,-0.7817137101732194
1772567341459351000,3.59535107421875,3.349001215824485,0.4025844830855727,-0.39663784964084625
1772567341469379800,3.6053798828125,4.297026162791252,0.34894027892053125,-0.16954437349587678
1772567341479409000,3.615408935546875,4.997459912246465,0.28103111029863354,-0.058244537567347286
1772567341489438000,3.62543798828125,5.646234201613068,0.21972236285507676,0.12781236011646688
1772567341499467000,3.635467041015625,6.372358857163786,0.14700287134200335,0.4233936815541237
1772567341509495000,3.6454951171875,6.9245286292999975,0.25539047308564183,0.8735906143598258
1772567341519524000,3.655524169921875,7.264188454177975,0.38507571440190075,0.9085925888318568
1772567341529553000,3.665552978515625,7.444326994663476,0.40155484777688977,0.5679859115578234
1772567341539582000,3.67558203125,7.6684660049170255,0.479755985571444,0.2613470068698749
1772567341549611000,3.685611083984375,7.933944741296767,0.6507838756233454,0.07757752600349485
1772567341559639000,3.69563916015625,8.100734555387497,0.787133251003921,-0.13088248827680946
1772567341569668000,3.705668212890625,8.000415986070037,0.8193424529522657,-0.2968451125620864
1772567341579697200,3.715697265625,7.838567720034718,0.7487725406885146,-0.2728020650051534
1772567341589726000,3.725725830078125,7.802748218634724,0.6421952032372356,-0.0886280767248012
1772567341599755000,3.735755126953125,7.825477352315187,0.5837018054753541,0.0376558134490624
1772567341609783000,3.745782958984375,7.669075661247968,0.6088552436932921,0.07942459690859541
1772567341619812000,3.75581201171875,7.402444247701764,0.5721154125779867,0.01923376584537327
1772567341629841200,3.765841064453125,6.961107424634695,0.5107067118912935,-0.1331111971769482
1772567341639870000,3.775869873046875,6.246028479233384,0.4238607876092195,-0.4037023081343621
1772567341649899000,3.78589892578125,5.234447882679104,0.10284311935901641,-0.5818991399675607
1772567341659927000,3.795927001953125,4.00127620678842,-0.5137745750293136,-0.46862486216090615
1772567341669956000,3.8059560546875,2.646372586673498,-1.0968351599916815,-0.10227584086507559
1772567341679985200,3.815985107421875,1.1887182016581297,-1.6237947952866554,0.4292680534802377
1772567341690014200,3.82601416015625,0.43818098938465116,-2.0863550236463544,1.1435387512385844
1772567341700043000,3.83604296875,-1.4678198051989078,-2.3326178951635956,1.6460431597128509
1772567341710071000,3.846071044921875,-3.9026030665904283,-2.698771466952562,1.8273147958815097
1772567341720099800,3.856099853515625,-6.097258305957913,-2.7619001232996583,2.326995671367645
1772567341730129000,3.86612890625,-7.925295570895075,-2.425792437945306,2.612409234534204
1772567341740158200,3.876158203125,-9.681578682219982,-2.0905390313327312,2.443251960659772
1772567341750187000,3.88618701171875,-11.433851388859749,-2.031828483688831,2.226099448292702
1772567341760215000,3.896215087890625,-12.610388738858699,-2.3081030471101402,2.084948810110241
1772567341770244000,3.906244140625,-13.115850535833834,-2.405802958361804,1.8592988107718527
1772567341780273000,3.91627294921875,-13.090175996351242,-2.148895066450536,1.4796940751269458
1772567341790302000,3.926302001953125,-12.56883624676466,-1.719496226197481,1.225366189771518
1772567341800330000,3.936330078125,-11.641878053224087,-1.4620499896258115,1.1386299364089965
1772567341810359000,3.946359130859375,-10.4232948746562,-1.5298039676859974,1.0067071452990173
1772567341820388000,3.95638818359375,-9.0054060983181,-1.594844887395203,0.9986026031680405
1772567341830417000,3.9664169921875,-7.275304306954145,-1.3875555973947047,1.0830362786766141
1772567341840446000,3.976446044921875,-5.482851565617323,-0.9357830127701163,1.0903602648891508
1772567341850474200,3.98647412109375,-3.6895325628399847,-0.42074031750112767,0.9547814354896544
1772567341860501000,3.9965009765625,-3.636896366673708,-0.5338493948087096,1.0057600006420164
1772567341870530000,4.006530029296875,-2.0878858864754437,-0.029542613087594507,0.8080616188727319
1772567341880558800,4.016558837890625,-0.6611714141249656,0.341023806707561,0.49543549300134176
1772567341890588200,4.026588134765625,0.4991705878764391,0.6004235154345631,0.21942111488617955
1772567341900617200,4.0366171875,1.3131640810161829,0.687174454909563,0.09763908444251865
1772567341910645000,4.04664501953125,2.0230653315186498,0.6250526375174522,-0.01547134457193315
1772567341920674000,4.056674072265625,2.4831378347158433,0.5030772399261594,-0.4239204453745857
1772567341930702800,4.066702880859375,2.916317070290446,0.28167116176784035,-0.9953506156347691
1772567341940732000,4.07673193359375,3.5699487365603444,0.09437924239635467,-1.3261021807834505
1772567341950761000,4.086760986328125,4.38921695523262,0.004777881926298141,-1.4662950798496603
1772567341960789000,4.0967890625,5.141414794194698,0.0009165303230285644,-1.4246573936901985
1772567341970818000,4.106818115234375,5.8566965686917305,0.1096580600708723,-1.170871652387455
1772567341980847000,4.11684716796875,6.483710277149081,0.3301327025979757,-0.6874048295993358
1772567341990876000,4.1268759765625,6.916695451456308,0.6180658473700285,-0.181575331822969
1772567342000905000,4.136905029296875,7.259926705080271,0.9397460711821913,0.056751778258942065
1772567342010933000,4.14693310546875,7.352967976871132,1.2476318706586955,0.09075184567943215
1772567342020962000,4.156962158203125,7.597934671097994,1.5678984282806514,-0.034829686645045876
1772567342030991000,4.1669912109375,8.02004890730083,1.8296610667467117,-0.3676450889883563
1772567342041020000,4.17702001953125,8.17434164339006,1.9483003056526182,-0.6393332379348575
1772567342051049000,4.187049072265625,8.14515178926289,1.9774153409779072,-0.7482192176546901
1772567342061077000,4.197076904296875,8.302907817548514,1.961758922162652,-0.8375134849369525
1772567342071106000,4.20710595703125,8.437485214820503,1.923637865822017,-0.998512002275139
1772567342081135000,4.217135009765625,8.11428844896555,1.868710051587224,-0.9766853703923523
1772567342091164200,4.2271640625,7.751894229710102,1.7850713989138602,-0.7693864357806742
1772567342101193000,4.23719287109375,7.388427412787079,1.6781988779082893,-0.7256463705144822
1772567342111220700,4.247220703125,6.5807368191838265,1.5229644770547748,-0.6416698641888797
1772567342121249800,4.257249755859375,5.538593911105394,1.3285001818358897,-0.5357055440694093
1772567342131278800,4.26727880859375,4.638156644743681,1.1988146482586859,-0.5256064671203494
1772567342141308000,4.277307861328125,3.3874463895529505,1.1965569324597716,-0.5070034734591842
1772567342151335700,4.287335693359375,1.6069500434696673,1.189737607833743,-0.3326701121211052
1772567342161364700,4.29736474609375,-0.5323877978235483,0.9522969251975416,-0.004913783265650272
1772567342171393800,4.307393798828125,-2.4963100354999304,0.6007037936806678,0.2380383562684059
1772567342181422600,4.317422607421875,-4.960508191946149,0.24060060797184704,0.5740989145454019
1772567342191452000,4.327451904296875,-7.139899226686358,-0.03367489058673381,0.9026842415709048
1772567342201479700,4.337479736328125,-8.589243463996052,-0.036006548404693604,1.1990674539759754
1772567342211508700,4.3475087890625,-9.627723757913708,0.28050270251035686,1.2469693150967358
1772567342221537800,4.357537841796875,-10.434543413901329,0.16824264324754476,0.9496407116003334
1772567342231566600,4.367566650390625,-10.80247071736455,-0.5935106673061847,0.5171131448674947
1772567342241595600,4.377595703125,-10.697851820504665,-1.3336056882813572,0.39678646433129905
1772567342251624000,4.3876240234375,-10.067660066533088,-1.6648618419513106,0.5838883410234004
1772567342261652700,4.39765283203125,-9.061965020886063,-1.8372125050395727,0.6683084263980388
1772567342271681800,4.407681884765625,-7.906057201939821,-1.8876129049777983,0.5383485328588634
1772567342281710800,4.4177109375,-6.7247180046170945,-1.7864596384018658,0.32728732310421765
1772567342291739600,4.42773974609375,-5.618473503506183,-1.6856497784361242,0.18319653981663286
1772567342301768000,4.437767822265625,-4.881420042183995,-1.6485399449646472,0.25807456107046456
1772567342311796700,4.447796630859375,-4.2033068456083535,-1.6532853859260677,0.47145201187822966
1772567342321825800,4.45782568359375,-3.206743785443902,-1.5181439250305293,0.579779955856502
1772567342331854800,4.467854736328125,-2.052187381106615,-1.138942071098089,0.4691909716110676
1772567342341883600,4.477883544921875,-1.0633920323342085,-0.7131044304579496,0.31885954036824404
1772567342351911700,4.48791162109375,-0.20730828696191309,-0.44767947009205816,0.21709526575449853
1772567342361940700,4.497940673828125,0.5024672913342714,-0.28374153830111026,0.15927563906833528
1772567342371969800,4.5079697265625,1.0691402205973863,-0.20238047517091035,0.11642726194486021
1772567342381998800,4.517998779296875,1.536595235261321,-0.14914368276298046,-0.07499445070773363
1772567342392028000,4.52802783203125,2.0007927094340325,-0.18892536579221486,-0.2880818325277418
1772567342402055700,4.5380556640625,2.5627894635796546,-0.3746346921473741,-0.3829541922032833
1772567342412084700,4.548084716796875,3.135236884590983,-0.668910483944416,-0.26727394923344255
1772567342422113500,4.558113525390625,3.5073669004410504,-1.0352511027380824,0.07393237443417311
1772567342432142800,4.568142822265625,3.7588007448554035,-1.333882167135179,0.4184316021673381
1772567342442171000,4.5781708984375,3.9995045209407802,-1.4492770172923803,0.5624702168762683
1772567342452199700,4.58819970703125,4.274291183891892,-1.4267138878285883,0.6120832658290862
1772567342462228700,4.598228759765625,4.602826388165354,-1.4348575929261742,0.5711352424342185
1772567342472257800,4.6082578125,5.009457808554172,-1.3752248158708213,0.4814291064154356
1772567342482286600,4.61828662109375,5.514067372614145,-1.1832863858677447,0.35204145980626345
1772567342492315000,4.62831494140625,6.074272567167878,-0.9480645483247935,0.21701756087578833
1772567342502345000,4.638344970703125,6.419751891979574,-0.7449814778424799,0.13849194036722182
1772567342512373800,4.648373779296875,6.654933105251192,-0.6392594420462846,0.09701377388471737
1772567342522401800,4.65840185546875,6.906516587269306,-0.5824523899361491,0.08603631579908542
1772567342532430600,4.6684306640625,7.011626482516527,-0.5267117980137467,0.1262971971800085
1772567342542459600,4.678459716796875,6.9599284439831965,-0.4406567318484187,0.2951251569016836
1772567342552488700,4.68848876953125,6.9045420723259445,-0.3583607259556651,0.3615912323094904
1772567342562517800,4.698517822265625,6.660946666452288,-0.3128182874426246,0.2471479837886989
1772567342572545800,4.7085458984375,6.2900610977053635,-0.24819120923131702,0.09371135307215153
1772567342582574800,4.718574951171875,5.982318506091833,-0.12459990087598562,-0.08546974055804311
1772567342592603600,4.728603759765625,5.611718184027075,-0.014282500113546847,-0.14669238062072545
1772567342602632700,4.7386328125,4.918110481199622,-0.009625029696524142,-0.07424604349322617
1772567342612661800,4.748661865234375,4.390588828107714,-0.11790274132490157,0.10287935971617698
1772567342622689800,4.758689697265625,3.9070577079117297,-0.300055251981318,0.273844413664937
1772567342632718800,4.76871875,2.994628390461206,-0.6428852313280106,0.38602373584173616
1772567342642748000,4.778747802734375,1.9240040687859057,-1.1278446307614445,0.6728353292379528
1772567342652776700,4.788776611328125,0.5257897147327661,-1.6529814345434306,1.1775811599634587
1772567342662805800,4.7988056640625,-1.1414473319172858,-2.294244909888506,1.7895706100292503
1772567342672833800,4.808833740234375,-2.743021527567506,-2.7358608421579,1.8515598870828747
1772567342682862800,4.81886279296875,-4.34966002086997,-2.289771563866734,1.6395779092215002
1772567342692892000,4.828891845703125,-5.592307965636253,-1.137247249878943,1.437092512371391
1772567342702920700,4.838920654296875,-7.06512660203576,-0.36805385245233774,0.9016371436707675
1772567342712948700,4.84894873046875,-9.186769212162494,-0.597023936124146,0.4228622780911624
1772567342722977800,4.858977783203125,-11.333645632266999,-1.5131608759209514,0.35424576491750775
1772567342733006600,4.869006591796875,-12.921211760830879,-2.4253058234721423,0.8776100060690194
1772567342743036000,4.879035888671875,-13.744768032085895,-2.8242165864810347,1.700126339817047
1772567342753065000,4.88906494140625,-13.98670631840229,-2.4776538503468033,2.033580441922694
1772567342763092700,4.8990927734375,-13.778874884349108,-1.6564660617887972,1.6153382248476147
1772567342773121800,4.909121826171875,-12.839340117830037,-0.7519356808945536,0.7600456298530102
1772567342783150600,4.919150634765625,-11.557377230763434,-0.045562604518234726,-0.1206285312932916
1772567342793179600,4.9291796875,-9.852581730091572,0.5893503327563405,-0.72596515414007
1772567342803208700,4.939208740234375,-7.684214778190851,1.2630287617549298,-1.1396914281606674
1772567342813236700,4.94923681640625,-5.6640229562819,1.7552999455064535,-1.4144211002275346
1772567342823265800,4.959265869140625,-3.5888802315235138,1.8955755544200539,-1.4586210380904376
1772567342833294800,4.969294921875,-1.7705056979447602,1.9227341949805616,-1.2974328433990479
1772567342843323600,4.97932373046875,-0.4028828815102577,1.8403753529846667,-1.0661732605505734
1772567342853352700,4.989352783203125,0.6220511176139116,1.5602449909180403,-0.8188586149580777
1772567342863380700,4.999380615234375,1.2539701337695122,1.1015759247779846,-0.409657088352926
1772567342873409800,5.009409912109375,1.5605945350080728,0.7848699822470545,0.19571073334971442
1772567342883438800,5.01943896484375,1.7250737340688704,0.6323679289668798,0.4480251417245716
1772567342893467600,5.029467529296875,1.8500772473096847,0.5320756631344556,0.2569207513928413
1772567342903496700,5.03949658203125,2.0707512118011713,0.43456396793127056,-0.11959686842430382
1772567342913525000,5.04952490234375,2.542269822642207,0.38788463434278964,-0.4578486896678805
1772567342923553800,5.0595537109375,3.22668416518867,0.31113661796599623,-0.5457743354780599
1772567342933582800,5.069582763671875,3.9328327851593494,0.16474632556438445,-0.5815883204527199
1772567342943612000,5.07961181640625,4.652970767515898,0.004938040924072265,-0.5784306601393967
1772567342953639700,5.0896396484375,5.393492781731486,-0.18681641081422568,-0.37240254918113347
1772567342963668700,5.099668701171875,6.12753361723423,-0.3101642658025026,-0.03725737044969574
1772567342973697500,5.109697509765625,6.692726537072658,-0.23331512713879346,0.2420467333932407
1772567342983726800,5.119726806640625,6.968300551009178,-0.033790918181836604,0.37547187362387774
1772567342993756000,5.129755859375,7.106473926946521,0.1474859786838293,0.32386275548301635
1772567343003783700,5.13978369140625,7.224708676704764,0.30976562187373635,0.10575433063060044
1772567343013812700,5.149812744140625,7.286045481199026,0.48994507889151573,-0.16280825190758333
1772567343023841800,5.159841796875,7.4114645895034075,0.6127703713104129,-0.3614079846970737
1772567343033870600,5.16987060546875,7.449552035835385,0.6958966905474663,-0.38116540909036994
1772567343043899600,5.179899658203125,7.356211488837003,0.7625500138893723,-0.3051119508489966
1772567343053927700,5.189927734375,7.172043254444002,0.8207745315819979,-0.27760844237357374
1772567343063956700,5.199956787109375,6.69384180483818,0.8798641416713595,-0.2900436341200024
1772567343073985800,5.20998583984375,5.8718643272072075,0.8446762161731719,-0.3086707393091172
1772567343084014600,5.2200146484375,4.85675380296111,0.7415905202299357,-0.26748255048282443
1772567343094043600,5.230043701171875,3.811048233965039,0.752973791770637,-0.16167853549160063
1772567343104072000,5.240072021484375,2.880380664512515,0.8797305784195661,-0.06161226043477654
1772567343114101200,5.250101318359375,1.756139903461933,0.8872975065425038,-0.06662972327060997
1772567343124130300,5.26013037109375,0.2948842790842056,0.6951800667107105,-0.21100407273992894
1772567343134159000,5.2701591796875,-1.393746853250265,0.4991071672514081,-0.06203479669578373
1772567343144188200,5.280188232421875,-3.0771944454669953,0.5276090391144156,0.19144889292046427
1772567343154216200,5.29021630859375,-4.605721525084972,0.9498600534394382,0.34809776368178424
1772567343164245200,5.300245361328125,-6.10082681209445,1.2509016861096023,0.24982049093358216
1772567343174274300,5.3102744140625,-7.744870030161738,0.8753025328442454,0.17234306430369614
1772567343184303400,5.320303466796875,-8.984971213054656,0.11421440820097922,0.37087395137436685
1772567343194331100,5.3303310546875,-9.402194170084595,-0.5397884294688702,0.9265132262520491
1772567343204360200,5.340360107421875,-9.303610461735724,-0.8210603627860545,1.510305048098415
1772567343214389000,5.350388916015625,-8.800129024922848,-0.9983148722678422,1.8464596413344143
1772567343224418000,5.36041796875,-8.145946154510975,-1.3579998325645923,1.7657875833816825
1772567343234447400,5.370447265625,-7.2816159743189806,-1.7076967750713228,1.4579951612770556
1772567343244475100,5.38047509765625,-6.285182678014039,-1.8086238316759466,1.146457707425207
1772567343254504200,5.390504150390625,-5.535557319888472,-1.8419003705948591,0.9012658261403441
1772567343264533200,5.400533203125,-5.134686362722515,-2.040635475000739,0.7326545687761157
1772567343274562000,5.41056201171875,-4.718150803434849,-2.2660072419196364,0.7528335065171122
1772567343284591000,5.420591064453125,-4.06011710281372,-2.2549057099297642,0.9156411191038787
1772567343294619100,5.430619140625,-3.0230244638621806,-1.8785712281271814,0.8101201588377356
1772567343304648200,5.440648193359375,-1.9336130241304634,-1.205075462219119,0.43847982620075343
1772567343314677200,5.45067724609375,-0.9046288728326558,-0.6025123044073581,-0.014338979541137813
1772567343324706000,5.4607060546875,0.1748404340773821,-0.2797697120606899,-0.5541993782676756
1772567343334734000,5.470734130859375,1.1090431919187307,-0.05086012640446424,-1.1070597630165517
1772567343344763400,5.480763427734375,2.0382640696942804,0.12535422637462615,-1.5480305292502046
1772567343354792200,5.490792236328125,3.0629297732710836,0.18678543115407228,-1.8672282885968685
1772567343364821200,5.5008212890625,4.06806309338212,0.15144786805212496,-2.055713509406149
1772567343374850300,5.510850341796875,4.748146713247895,0.09631167176365851,-2.0862948178917167
1772567343384878000,5.520878173828125,5.0499283506304025,-0.031626141363382335,-1.8888297334216535
1772567343394907100,5.5309072265625,5.24405976063311,-0.29715631566941736,-1.5316402432024478
1772567343404936200,5.540936279296875,5.401014993929863,-0.48889761566519735,-1.2503124880447982
1772567343414965200,5.55096533203125,5.4090749662667506,-0.5106801161453127,-1.083834370251745
1772567343424994300,5.560994384765625,5.383767506530881,-0.5190548535197973,-0.9920744435083121
1772567343435022000,5.57102197265625,5.39887564381361,-0.5081558583647012,-0.866275249845162
1772567343445051100,5.581051025390625,5.497181119742989,-0.39350422779023647,-0.7669348048448562
1772567343455080200,5.591080078125,5.694627937904,-0.2705819047376513,-0.7026967259511351
1772567343465109000,5.60110888671875,5.941823414096236,-0.1791302402257919,-0.6149156397107989
1772567343475138300,5.61113818359375,6.273962780341505,-0.05129793329983949,-0.515362721003592
1772567343485166000,5.621166015625,6.52308133355081,0.0862757231786847,-0.3948251741956919
1772567343495195100,5.631195068359375,6.5447168267756695,0.17186024922281504,-0.299798793002218
1772567343505224200,5.64122412109375,6.361911112907529,0.1866775868654251,-0.22804266662858425
1772567343515253000,5.6512529296875,6.089578272849321,0.1437412391975522,-0.22329364547058939
1772567343525281300,5.66128125,5.59999793561697,-0.0012725041538476944,-0.24891455506980417
1772567343535310300,5.671310302734375,4.762802430588007,-0.17841157056242227,-0.16261355131939054
1772567343545339100,5.681339111328125,3.71262994531095,-0.459287490299344,0.14260083699077367
1772567343555368200,5.6913681640625,2.3055776202857494,-0.826807382005453,0.7373255562618375
1772567343565397200,5.701397216796875,0.5715197847723961,-1.3046806225702166,1.1601515939958393
1772567343575425000,5.711425048828125,-0.8932809648662805,-1.7769655416086314,1.3271907066725193
1772567343585454300,5.721454345703125,-2.0539041218966245,-1.9016604272916913,1.4534695005461573
1772567343595483100,5.731483154296875,-3.1543881597846744,-1.7024404619783162,1.7192552570484578
1772567343605512200,5.74151220703125,-4.2370320050776,-1.5005153293594717,2.1846252821318806
1772567343615541200,5.751541259765625,-5.236077529707551,-1.586247154919803,2.288747043124586
1772567343625569000,5.761569091796875,-6.389256215950846,-1.9543840094804763,2.151587958796322
1772567343635598000,5.77159814453125,-6.998937096813321,-2.0261711885794997,2.1313963807694614
1772567343645627100,5.781627197265625,-7.0553767769157885,-1.5585232816919683,1.9875605951562523
1772567343655656200,5.79165625,-7.199084406104683,-0.847389566785097,1.6203797261461614
1772567343665685200,5.801685302734375,-7.438853531688451,-0.4381204913690686,1.0930141403988003
1772567343675713300,5.81171337890625,-7.759043516942858,-0.4466027807712555,0.7700615585632622
1772567343685742000,5.8217421875,-7.814734424504637,-0.36744361159950495,0.9155755065217613
1772567343695771100,5.831771240234375,-7.270394323080778,-0.05724807387590408,1.2452058125555514
1772567343705800200,5.84180029296875,-6.499307074731588,0.22640987779498098,1.3261745153672992
1772567343715828200,5.851828125,-5.346059999427199,0.44329204878807066,1.2423548070386052
1772567343725857300,5.861857177734375,-4.32601084973514,0.5454951166778803,0.9139241591181606
1772567343735886000,5.871885986328125,-3.6709552881419656,0.5197445893496274,0.6312467429172247
1772567343745915100,5.8819150390625,-2.6532161689579485,0.5322247162163257,0.43585393467657263
1772567343755944200,5.891944091796875,-1.8096178111493586,0.660769847586751,0.0704624333012849
1772567343765972200,5.90197216796875,-1.3761100742727517,0.6557289308100939,-0.27544081601090725
1772567343776001300,5.912001220703125,-0.9693757780313491,0.3893339563682675,-0.41919652212522923
1772567343786030300,5.9220302734375,-0.2175555402100086,0.24359686717838047,-0.33414836798012254
1772567343796059100,5.93205908203125,0.607533347439766,0.5628770441114902,-0.2621264302771538
1772567343806088200,5.942088134765625,1.2217384277284145,1.0608397175028919,-0.4602884840354323
1772567343816116000,5.952115966796875,2.140935924139619,1.3955442580610513,-0.6465832090631127
1772567343826145300,5.962145263671875,3.050698068207502,1.654375811511278,-0.5688279884051531
1772567343836174300,5.97217431640625,3.606322949233651,1.8496020310133694,-0.2586631563470699
1772567343846203100,5.982203125,3.7589468753278252,1.8932032723307608,-0.008056775732804089
1772567343856231200,5.992231201171875,3.6332244001626965,1.8508979160428045,-0.05304938007704913
1772567343866260200,6.00226025390625,3.471672486725449,1.6386159323215483,-0.3497473940523341
1772567343876289000,6.0122890625,3.642231297960877,0.9100070587396621,-0.5722481721121817
1772567343886318000,6.022318115234375,2.8754928924709557,1.0176643003821373,-0.8712951238337904
1772567343896347400,6.032347412109375,2.906623359271884,1.3181588205635546,-0.6189911455214023
1772567343906375200,6.042375244140625,3.8110581708371636,1.218494038979709,-0.21342940019071102
1772567343916404200,6.052404296875,4.236876522254944,0.9447235673338175,0.2932296437449753
1772567343926433000,6.06243310546875,4.0066953092277044,0.65451458658427,0.748267002319172
1772567343936462000,6.072462158203125,4.035036437571049,0.39133126766532655,0.8982938245922326
1772567343946491100,6.0824912109375,4.475899797907472,0.24268355172574518,0.8574742498826236
1772567343956519200,6.092519287109375,4.820286651307344,0.2592766668692231,0.7918477123051881
1772567343966548200,6.10254833984375,5.113731837499142,0.29208880314677954,0.6899740225002169
1772567343976577300,6.112577392578125,5.471739219972491,0.39218934579938647,0.789854200400412
1772567343986606000,6.122606201171875,5.669550779792666,0.3755471308171749,1.0492525939531623
1772567343996634400,6.13263427734375,5.667205677971244,0.14687076939493418,1.1803329428896308
1772567344006663200,6.1426630859375,5.298045617842674,-0.16737579728513954,1.2216681389711797
1772567344016692200,6.152692138671875,4.811106150507927,-0.34816987906992436,1.1047831963866948
1772567344026721300,6.16272119140625,4.5495308513075114,-0.38733956768065686,0.826375858720392
1772567344036750000,6.17275,4.183369388473034,-0.3895964066967368,0.4719654778257012
1772567344046778000,6.182778076171875,3.6250124521344897,-0.3642895314827561,0.2901247547985054
1772567344056807200,6.19280712890625,3.1186078213512896,-0.32544162217229605,0.11216448993384838
1772567344066836200,6.202836181640625,2.5025486376285553,-0.3494073119103908,-0.040423999520763754
1772567344076865300,6.212865234375,1.5210001912444828,-0.5717465792655945,0.05753633449906483
1772567344086894300,6.222894287109375,-0.18815993437767028,-0.6652079761646688,0.33077721104659136
1772567344096922000,6.232922119140625,-1.559464069673419,-0.6478055904649198,0.13702835235437377
1772567344106951200,6.242951171875,-2.8734096564561127,-0.5501172235205769,0.23317403816767035
1772567344116980700,6.252980712890625,-4.214824849444628,-0.5647469296365976,0.6456328495357185
1772567344127009500,6.263009521484375,-4.700055174773931,-0.6714899790436029,0.7844562138143927
1772567344137038600,6.27303857421875,-5.354695141303539,-0.9743447986155748,0.4646629362599924
1772567344147066600,6.283066650390625,-6.300132409864664,-1.6037006862848997,-0.005752992302458733
1772567344157095700,6.293095703125,-6.8456894858628505,-2.12618142260015,-0.27830245251972224
1772567344167124700,6.303124755859375,-6.951840414595604,-2.1650281628668306,-0.17822799415644258
1772567344177153500,6.313153564453125,-6.933634311297536,-2.1350749231517314,0.003768083829246461
1772567344187181800,6.323181884765625,-7.006495549368858,-1.9511907663971184,-0.07513305546082556
1772567344197211000,6.3332109375,-6.957530735191702,-1.5550462532311677,-0.30631643126793207
1772567344207239700,6.34323974609375,-6.98776571445763,-1.2810636001393199,-0.49998533832542597
1772567344217268700,6.353268798828125,-7.086617133831977,-1.309935474358499,-0.6760963037952781
1772567344227297800,6.3632978515625,-6.742774470311403,-1.4881100212946534,-0.7803343846440315
1772567344237325600,6.37332568359375,-6.1462722199738025,-1.612963604670763,-0.7591250809419899
1772567344247354600,6.383354736328125,-5.5614504705578085,-1.701670646649599,-0.5609802340468392
1772567344257383700,6.3933837890625,-4.968986681956053,-1.6428040316611527,-0.26586046570632604
1772567344267412700,6.403412841796875,-4.440870570102334,-1.5114403357386588,0.06694088071216829
1772567344277441800,6.41344189453125,-4.090077356791496,-1.6538488650277257,0.668610039693117
1772567344287469600,6.423469482421875,-3.420167924937606,-1.467323253853619,0.8489223293103277
1772567344297498600,6.43349853515625,-2.6360762335866688,-0.8808353247910737,0.5161302347773685
1772567344307527700,6.443527587890625,-1.9040362165123224,-0.4157660362198949,0.0964774293851573
1772567344317556700,6.453556640625,-1.187867137786746,-0.20400486150234937,-0.22672836915962397
1772567344327584800,6.463584716796875,-0.42996378065943713,-0.08741437181979417,-0.4380614546582102
1772567344337613600,6.473613525390625,0.453280358839035,0.08240706505179404,-0.6205532072063535
1772567344347642600,6.483642578125,1.2765712571561336,0.3260908798612654,-0.7110694174990058
1772567344357671700,6.493671630859375,2.041737883284688,0.2982075782880187,-0.7465272459797561
1772567344367700500,6.503700439453125,2.5691531533926724,0.014803455247730015,-0.7754333877947182
1772567344377728800,6.513728759765625,2.938910594892502,-0.17176453376337886,-0.6746368257019668
1772567344387757800,6.5237578125,3.183300366014242,-0.18527429593876002,-0.4412445416737348
1772567344397786600,6.53378662109375,3.4154590165942906,0.03037570291087031,-0.2162525313200429
1772567344407815700,6.543815673828125,3.538030334252119,0.39901086238250133,-0.15555795198576525
1772567344417844700,6.5538447265625,3.6529222033232447,0.7107303948029875,-0.11764432785073295
1772567344427872800,6.563872802734375,3.99547716512084,0.8035871038071811,-0.3820650613438338
1772567344437901800,6.57390185546875,4.369554807907343,0.8726866512574255,-0.7256679247591644
1772567344447930600,6.5839306640625,4.776216038912534,0.9161270029246806,-0.7933654233917593
1772567344457959700,6.593959716796875,5.1734875102818005,0.9271855725556611,-0.6103801882382482
1772567344467987700,6.60398779296875,5.671696559649706,0.8989560878932475,-0.4278034973530099
1772567344478016500,6.6140166015625,6.335696475198865,0.8346399753272533,-0.42419889698978513
1772567344488045600,6.624045654296875,6.671377459573745,0.9320636999860406,-0.2513853473638184
1772567344498075000,6.634074951171875,6.787739985719322,1.0354562699213623,0.17411487801549955
1772567344508103700,6.644103759765625,6.70917089139521,1.05909024348706,0.5307767458977177
1772567344518131700,6.654131591796875,6.524256222549081,1.1249144225284458,0.51984596736487
1772567344528160500,6.664160400390625,6.286071151286364,1.273648355446756,0.19964158825892953
1772567344538189600,6.674189453125,5.838671082657576,1.5175275466978548,-0.03573196924701333
1772567344548218600,6.684218505859375,5.366985298556089,1.544927887059748,-0.19687584987264126
1772567344558247700,6.69424755859375,4.7179947360903025,1.3469453545868395,-0.33608941904529926
1772567344568275700,6.704275634765625,3.740577105900645,0.9046861559778452,-0.38784075866844503
1772567344578304800,6.7143046875,2.452150575777888,0.4438026286587119,-0.4688678406039253
1772567344588333600,6.72433349609375,0.8028022370398044,0.3086281422764063,-0.09465546552184968
1772567344598362600,6.734362548828125,-1.0135007509618996,0.07719342205673456,0.574155101712048
1772567344608390700,6.744390625,-2.9096307243943214,-0.19779606999009847,1.0437238936595619
1772567344618419700,6.754419677734375,-4.382210291340947,-0.7103843578442931,1.1422085255481302
1772567344628448800,6.76444873046875,-5.4861324869841335,-1.2980462991222739,1.0393841108895838
1772567344638477600,6.7744775390625,-6.12070698608458,-1.6747572130218147,0.7900589291922747
1772567344648506600,6.784506591796875,-6.393610904029011,-1.8650687724754214,0.5531163322713226
1772567344658534700,6.79453466796875,-6.8015563296258446,-1.9615359270617365,0.2547256890339777
1772567344668563700,6.804563720703125,-6.940979413363337,-1.8368173682421445,-0.21490067831967025
1772567344678592800,6.8145927734375,-6.938668798333406,-1.6944330966114998,-0.6211959620893002
1772567344688621800,6.824621826171875,-6.922380511355399,-1.6696134203925728,-0.8003329243168235
1772567344698649600,6.834649658203125,-6.856570360839367,-1.6799726095825434,-0.5833994980605319
1772567344708678700,6.8446787109375,-6.820307207325101,-1.7911030802935362,-0.09471147002540528
1772567344718707700,6.854707763671875,-6.699945382410287,-1.9832246117785572,0.2435379583316855
1772567344728736500,6.864736572265625,-6.359101316183805,-1.977454796205461,0.37234161277413363
1772567344738765800,6.874765869140625,-5.681577317672968,-1.608297366425395,0.16662782846204935
1772567344748793600,6.884793701171875,-4.860575407075881,-1.2175532509982585,-0.08504718603072688
1772567344758822700,6.89482275390625,-3.9403912377148864,-0.974234323978424,-0.17551542899580672
1772567344768851700,6.904851806640625,-2.898245407027006,-0.6092673316255212,-0.19421919788401573
1772567344778880500,6.914880615234375,-1.7624053935974835,-0.2074237300351262,-0.21267226168047634
1772567344788909600,6.92490966796875,-0.5967559328377247,0.0401806192189455,-0.32946189066432413
1772567344798937900,6.934937744140625,0.4937988317102194,0.22400047856569288,-0.46505284889303145
1772567344808966700,6.944966552734375,1.4354600888639688,0.34761575231850145,-0.6068487261764705
1772567344818995700,6.95499560546875,2.13951612046957,0.39497780747413636,-0.5315861260518432
1772567344829024800,6.965024658203125,2.46822375870049,0.4790682955682277,-0.2751063781584613
1772567344839052800,6.975052734375,2.519725397878885,0.5139870487362146,0.18146783459419383
1772567344849081900,6.985081787109375,2.6635300577014682,0.44207624325752254,0.4720390179859474
1772567344859110700,6.995110595703125,2.7487136017292735,0.49523734008073805,0.34786731592677533
1772567344869139700,7.0051396484375,3.0474791061609983,0.5733136824518442,0.1586798833985813
1772567344879168800,7.015168701171875,3.3731881470978258,0.6174643743455409,0.0364716451657936
1772567344889196500,7.025196533203125,3.5498142955482006,0.6135536306425928,-0.03260101427752524
1772567344899225600,7.0352255859375,3.9752749195694923,0.4463990748926997,-0.006944814169220626
1772567344909255000,7.0452548828125,4.555039385595918,0.3532636950775981,0.08674331329097039
1772567344919283700,7.05528369140625,5.186478509280085,0.4944654789254069,0.2197501276448369
1772567344929312800,7.065312744140625,5.709895649662614,0.6228682792156934,0.4159269624026492
1772567344939340500,7.075340576171875,6.094256201532483,0.662895753699541,0.5928432529060169
1772567344949369600,7.08536962890625,6.494538545155525,0.8236240757942199,0.5774028514616191
1772567344959398700,7.095398681640625,6.700289665803313,1.0919900580480695,0.3890395034663379
1772567344969427700,7.105427734375,6.732462335133552,1.2810536632671952,0.21530348696690052
1772567344979455700,7.115455810546875,6.592659312167763,1.2956766473814845,0.09689800201794133
1772567344989484800,7.12548486328125,6.360983476668596,1.2855445449456573,-0.02289659920185804
1772567344999513600,7.135513671875,6.246829858744144,1.374181152036786,-0.1569600190697238
1772567345009542700,7.145542724609375,5.966183948370814,1.4308072946220636,-0.34489626422673464
1772567345019571700,7.15557177734375,5.6064837905049325,1.4612898189082741,-0.475151779711619
1772567345029599700,7.165599853515625,5.168322090342641,1.5129343736886978,-0.5142850453021004
1772567345039628800,7.17562890625,4.3928409909486765,1.440644213503599,-0.4450106162089854
1772567345049657600,7.18565771484375,3.4239638100892305,1.1797659566566348,-0.18618235069438813
1772567345059686700,7.195686767578125,2.3754034361839294,0.7403609784349798,-0.006505509436503052
1772567345069714700,7.205714599609375,1.0127209987610577,0.2923497921705246,-0.10900544138103722
1772567345079743700,7.21574365234375,-0.6665577833384275,-0.16875351537913083,-0.24912859967928377
1772567345089772800,7.225772705078125,-2.4035353056907653,-0.4625763027116656,-0.3051326648434624
1772567345099801900,7.2358017578125,-3.8778374586462974,-1.1385776216998695,-0.17616477801632136
1772567345109830700,7.24583056640625,-5.429304099825024,-1.9323697460711,-0.2883014300951734
1772567345119859000,7.25585888671875,-6.949862977042794,-2.1404177454844118,-0.6560963028177619
1772567345129888000,7.265887939453125,-6.973436744853854,-1.723140720179677,-0.4690065184222534
1772567345139916800,7.275916748046875,-6.301975407382845,-1.3829697309091686,-0.3294827507892623
1772567345149945900,7.28594580078125,-6.422824139031768,-1.0879723468393088,-0.6688220750086009
1772567345159975200,7.29597509765625,-6.705298433876037,-0.99948479283005,-1.0982619779244065
1772567345170003000,7.3060029296875,-6.419863535660505,-1.227694121262431,-1.3555501013249158
1772567345180032000,7.316031982421875,-5.809597548386455,-1.2906786929637193,-1.3770114070266484
1772567345190061000,7.32606103515625,-4.825588264846801,-1.218061785042286,-0.8395737784676254
1772567345200089900,7.33608984375,-3.9767210267245767,-1.2408604768276215,-0.13848477997407316
1772567345210118100,7.3461181640625,-3.7835014708697794,-1.4020266058176756,0.17899883239846676
1772567345220147200,7.356147216796875,-4.066274456399679,-1.6120517505228518,0.29065325391832736
1772567345230176000,7.366176025390625,-4.225514001241326,-1.7926751519158481,0.16384930365942418
1772567345240205000,7.376205078125,-4.176671936661005,-1.6985908008128403,-0.19208258771412073
1772567345250234000,7.386234130859375,-4.221567309442162,-1.2425196422114968,-0.6155239808674902
1772567345260262000,7.396261962890625,-3.9593618956446646,-0.6630325318217277,-0.708068555182591
1772567345270291200,7.406291259765625,-3.356844915062189,-0.3268766234114766,-0.5242258629495278
1772567345280320000,7.416320068359375,-2.5485282985150812,-0.07091507243961095,-0.17194263027664272
1772567345290349000,7.42634912109375,-2.014920603507757,0.12017127077877521,0.06056676996983587
1772567345300377000,7.436377197265625,-1.0978443370342255,0.17902531854659318,0.17216224611038342
1772567345310406000,7.446406005859375,0.08034136469364166,0.2522662035852671,0.27969516725344584
1772567345320435000,7.45643505859375,0.8496271165788173,0.34409985315203667,0.5261586211103946
1772567345330464000,7.466464111328125,1.338212597554922,0.37244419636577364,0.8732426777049899
1772567345340493000,7.4764931640625,1.9495476753652095,0.2561523973688483,1.102761335170269
1772567345350521000,7.48652099609375,2.6209388702094554,0.22850655781328677,1.2436658896371722
1772567345360550000,7.4965498046875,3.2038989174067973,0.3279655876919627,1.2947791140198708
1772567345370579000,7.506578857421875,3.850282512244582,0.4097895921587944,1.1277435084745286
1772567345380608000,7.51660791015625,4.416883545315265,0.5379276040330528,0.9016238457977771
1772567345390636800,7.52663671875,4.908657008677721,0.6897831761032343,0.8303773494467139
1772567345400665000,7.5366650390625,5.368128038850426,0.8018591109707951,0.8404698505245148
1772567345410694100,7.546694091796875,5.72916792088747,0.877332285106182,0.9175536747269332
1772567345420723000,7.556722900390625,5.895120115110278,0.9513046992897987,1.127062248212099
1772567345430752000,7.566751953125,6.01190408153832,1.0125237226232886,1.2276016206733882
1772567345440780000,7.576780029296875,6.073511519667506,1.1228797018304466,1.1597631792001426
1772567345450809000,7.58680908203125,6.107107499799132,1.2373363943547009,1.0240912646897136
1772567345460838100,7.596838134765625,6.252682676425576,1.2866332169651984,0.6853577608764171
1772567345470867000,7.606866943359375,6.272950388428568,1.355133921739459,0.33868023925609886
1772567345480896000,7.61689599609375,6.219157423442602,1.3977408913224936,0.1205472644843161
1772567345490924000,7.626924072265625,5.972057808840274,1.4368436521768568,-0.09143632081225514
1772567345500952800,7.636952880859375,5.50864827017486,1.5268284590065477,-0.27029176268465815
1772567345510982100,7.646982177734375,4.846567924511432,1.5487491989135742,-0.4309853057269007
1772567345521011200,7.65701123046875,4.1787692012012005,1.4756433384314178,-0.6231663853794336
1772567345531039000,7.6670390625,3.255772312507033,1.336912620872259,-0.6223905056361109
1772567345541068000,7.677068115234375,1.8581693683505056,1.0214256987422705,-0.27345008058510717
1772567345551096800,7.687096923828125,0.4666191483616829,0.3837900585055351,0.1020254463005811
1772567345561126000,7.6971259765625,-1.0294845020353793,-0.5457631199643016,0.08816285209953785
1772567345571155000,7.707155029296875,-3.0658243256688116,-1.4323308509275317,-0.14842559762150048
1772567345581183000,7.717182861328125,-5.24723137640655,-1.9624287842482326,-0.06105126555114984
1772567345591212000,7.7272119140625,-6.47632659663856,-2.2119486117348073,0.1265986734777689
1772567345601241000,7.737240966796875,-6.791435333105921,-1.9998554285839198,0.1642822151839733
1772567345611270000,7.747269775390625,-6.82370152593851,-1.5913985463336109,-0.12724668905772268
1772567345621298200,7.757298095703125,-6.8114037699013945,-1.5259075447693466,-0.5661722131993622
1772567345631327000,7.767326904296875,-6.927709012901783,-1.6905036482080815,-0.7264869860570877
1772567345641356000,7.77735595703125,-6.807359462946653,-1.967579591140151,-0.5294007448367775
1772567345651385000,7.787385009765625,-6.26543051431775,-2.2636054414749145,-0.2244426693752408
1772567345661414000,7.797413818359375,-5.5619993366122245,-2.4546251491978763,0.15545425414927302
1772567345671442000,7.80744189453125,-4.999007141688466,-2.533421914798021,0.5513108902845532
1772567345681471200,7.81747119140625,-4.9218993520885705,-2.65397780098021,0.8914067684922367
1772567345691500000,7.8275,-5.689887465378642,-2.9828505666449665,1.158473723911494
1772567345701529000,7.837529052734375,-6.705967711439729,-3.19574366800189,1.3676733775779604
1772567345711558100,7.84755810546875,-7.117171846571564,-2.822190341350436,1.2758923349812625
1772567345721586000,7.8575859375,-6.999359706139564,-2.0385849722117184,0.9638346566475927
1772567345731615000,7.867614990234375,-6.76116762061417,-1.2862290200784803,0.2414487492337823
1772567345741644000,7.87764404296875,-5.675041778424382,-0.5943541323930025,-0.40145193539168683
1772567345751673000,7.887673095703125,-4.6427112393081185,0.028663492165505886,-0.6404729094892739
1772567345761701000,7.897701171875,-3.6479327244728803,0.4084989678263664,-0.620243191409111
1772567345771730000,7.90772998046875,-2.778577409595251,0.7223612113639712,-0.3117431324917823
1772567345781759000,7.917759033203125,-1.6649556577146052,1.018785705627501,0.12511691048741339
1772567345791788000,7.9277880859375,-0.10491524945795536,1.0425520734012126,0.513129774319753
1772567345801816800,7.93781689453125,1.3700176026165485,0.8871499147653579,0.6780131702672689
1772567345811845000,7.94784521484375,2.518841016259789,0.6073749420076608,0.9358937796682119
1772567345821874000,7.9578740234375,3.4078403582841155,0.25455343773961064,1.2603846769869327
1772567345831903000,7.967903076171875,4.114217526313662,0.08938888676315546,1.4744351316854356
1772567345841932000,7.97793212890625,4.732919918021559,0.16923983759135006,1.45718983624354
1772567345851960000,7.9879599609375,5.238704955601692,0.3247226602479815,1.202250906317681
1772567345861989000,7.997989013671875,5.520424632686376,0.48827743794023987,0.9039054539289325
1772567345872017000,8.008016845703125,5.833600939786434,0.6013835926383734,0.7440066414609551
1772567345882046000,8.0180458984375,6.131574417057633,0.7902306324973702,0.7770267214007676
1772567345892075000,8.028074951171876,6.392899540889263,1.0677204169273375,0.7909637690775096
1772567345902103800,8.038103759765624,6.756802995663881,1.30237088432312,0.6718969524092971
1772567345912132900,8.0481328125,7.023302307263016,1.3327438107550142,0.6530946367837488
1772567345922161200,8.0581611328125,7.227977907633781,1.125894957998395,0.7327622669342905
1772567345932190000,8.06818994140625,7.4099886717319485,0.9382181309625506,0.8052073984853922
1772567345942219000,8.078218994140625,7.5240212936252355,0.8584916832968592,0.7739585660018027
1772567345952248000,8.088248046875,7.471333075010776,0.9179597713097929,0.6523111582558602
1772567345962276000,8.098276123046874,7.1864020346641535,1.0894304366931318,0.43954321764856574
1772567345972305200,8.10830517578125,6.955152900144458,1.3043228951737285,0.04454492450882681
1772567345982334000,8.118333984375,6.709093149983882,1.5108680888086556,-0.28425672128163276
1772567345992363000,8.128363037109375,6.440502419063448,1.7061837401598692,-0.519555204257369
1772567346002392000,8.13839208984375,5.811773138859868,1.8822154298484324,-0.6178921713035553
1772567346012419800,8.148419921875,4.949935360005497,1.967536628781259,-0.6397508788250387
1772567346022449000,8.158448974609374,4.448576322174072,1.8804729700952767,-0.768617643365264
1772567346032478200,8.168478271484375,3.8628970791459083,1.6926631643295287,-0.8910194496750831
1772567346042507000,8.178507080078125,2.718985987463593,1.2797571937158703,-0.7871722678400576
1772567346052535000,8.18853515625,1.4118763841807842,0.5518985539793968,-0.4369175087874755
1772567346062564000,8.198564208984376,0.1932043582856655,-0.3633227322772145,-0.10954890060797333
1772567346072593000,8.208593017578124,-0.9724503631711006,-1.0046610264241695,0.2019407685793936
1772567346082622000,8.2186220703125,-2.4632091454088685,-1.2946820833861827,0.509942668716237
1772567346092651000,8.228651123046875,-3.973891940778494,-1.3563941509336233,0.49688255000449716
1772567346102679000,8.238678955078125,-5.238690927076339,-1.4082055867135523,0.2189806045770645
1772567346112708000,8.2487080078125,-6.449800408762693,-1.342370009495318,-0.19849051852766422
1772567346122736000,8.258736083984376,-7.410240016144513,-1.0858183836758135,-0.572887346798554
1772567346132765200,8.26876513671875,-7.956440066221356,-0.975413012368977,-1.031673025055602
1772567346142793200,8.278793212890625,-8.135807037812471,-0.9255112096026539,-1.4044824745371938
1772567346152822300,8.288822265625,-7.977911893317103,-1.1672072115957737,-1.3914768624916671
1772567346162851300,8.298851318359375,-7.53721629076302,-1.4731965298011898,-1.1816234210915864
1772567346172880100,8.308880126953126,-7.041432422715425,-1.6838520813643931,-0.811213360901922
1772567346182909200,8.3189091796875,-7.002230293139815,-1.9066653959721325,-0.41052587054409084
1772567346192937500,8.3289375,-7.035262794169784,-2.1440543484210965,-0.0542777893608436
1772567346202966300,8.33896630859375,-6.76857292843461,-2.04970696246773,0.14292289028568192
1772567346212995300,8.348995361328125,-6.549738454329967,-1.7249153286367653,0.13028295148108154
1772567346223024400,8.3590244140625,-6.358068466004729,-1.3996315273746847,0.04134794596526772
1772567346233052200,8.36905224609375,-5.90115881075263,-1.3553902345880866,-0.2158752589728683
1772567346243081200,8.379081298828124,-5.355693504691124,-1.3373966049969195,-0.5103625015635043
1772567346253110300,8.3891103515625,-4.846170449626445,-1.227429625107348,-0.47655192883312697
1772567346263139300,8.399139404296875,-4.061984065729379,-1.1816434409663081,-0.2649526666790247
1772567346273167400,8.40916748046875,-2.966467294859886,-1.0582076154336333,0.0652189796898514
1772567346283196200,8.419196044921875,-1.7736106782227754,-0.8649024271219968,0.39083493551574644
1772567346293225200,8.42922509765625,-0.5523480513125658,-0.6360635686144233,0.48171194194480776
1772567346303254300,8.439254150390624,0.5551075791537762,-0.3639665831387043,0.44266756021417675
1772567346313283300,8.449283447265625,1.6677900043576954,-0.09418664243370294,0.41623942588530477
1772567346323311400,8.459311279296875,2.7514105857282876,0.1935600398555398,0.49387533101253206
1772567346333340200,8.469340087890625,3.6775972103744743,0.3194268919274211,0.5741930956348776
1772567346343369200,8.479369140625,4.558450655344128,0.35442630911618467,0.5926295736227184
1772567346353398300,8.489398193359374,5.322664510792493,0.47253217179775237,0.5741390638926998
1772567346363426300,8.49942626953125,5.799343865397572,0.6922378757789731,0.5735420843802392
1772567346373455400,8.509455322265625,6.176355808070301,0.7872741207793355,0.6028056978633627
1772567346383484400,8.519484375,6.3859741255402565,0.7633946480199694,0.6042233826415613
1772567346393513200,8.52951318359375,6.413390540254116,0.7746259438693522,0.6263325943253935
1772567346403542300,8.539542236328124,6.107328449073433,0.8034452111184597,0.6729458038751035
1772567346413570000,8.549570068359374,5.779452000969648,0.7579051106929778,0.6751295045897364
1772567346423599400,8.559599365234375,5.410048195213079,0.6801715904101729,0.6257528947412967
1772567346433628400,8.56962841796875,5.074738966760039,0.5988473521590233,0.5308438197845593
1772567346443657200,8.5796572265625,4.977537068158388,0.5604910257577895,0.3912672625184059
1772567346453685200,8.589685302734376,4.965516960018873,0.6942565221250057,0.1914848775492981
1772567346463714300,8.59971435546875,5.0576937239348885,0.9143313516795635,-0.10735213034921325
1772567346473744100,8.609744140625,5.1042386174887415,1.1825789682507515,-0.423219092172198
1772567346483773200,8.619773193359375,4.981215464410186,1.419976396267116,-0.685766999264434
1772567346493802200,8.62980224609375,4.924338561934232,1.5450760633587837,-0.9218447960495948
1772567346503831000,8.6398310546875,4.573139105910062,1.556108914026618,-1.047113389967382
1772567346513859300,8.649859375,4.0501749699920415,1.3931839586704968,-1.0547278835590927
1772567346523888400,8.659888427734375,3.386196681752801,1.1479144821047782,-0.8818477897692472
1772567346533917200,8.669917236328125,2.349295765981078,0.7131377482056618,-0.5153583370894194
1772567346543946200,8.6799462890625,0.7456786663264036,0.1974912418246269,-0.10559650972038506
1772567346553974300,8.689974365234375,-1.0529933879166842,-0.3169292298927903,0.10310454677417874
1772567346564003300,8.70000341796875,-2.556132928299904,-0.5971548690274358,0.3505050440192222
1772567346574032400,8.710032470703124,-3.1339825006157156,-0.7211608956634998,0.26857546028606594
1772567346584061400,8.7200615234375,-3.6198423560202118,-0.8769830332770943,-0.04154847350604832
1772567346594090200,8.73009033203125,-4.285501729214191,-1.0179907558575272,-0.5710893574658781
1772567346604118300,8.7401181640625,-4.656481405985355,-1.16687812577188,-0.698980774167925
1772567346614147000,8.75014697265625,-5.03314614265561,-1.4019935803309083,-0.43726212097406386
1772567346624176400,8.76017626953125,-5.548446027556062,-1.583117916983366,0.26170820486508306
1772567346634205400,8.770205322265625,-5.392834610083699,-1.9818387103781103,1.0758820230077952
1772567346644233200,8.780233154296875,-5.059447874125838,-2.487239424815774,1.7921318388193845
1772567346654262300,8.79026220703125,-4.642885426831245,-2.8975527485877275,2.1741630709588526
1772567346664291300,8.800291259765626,-4.407440594187379,-3.025179011547565,2.1753657247468827
1772567346674320100,8.810320068359376,-4.736319497331976,-2.8282445268228646,1.9453420403689146
1772567346684349200,8.82034912109375,-5.1009506818592545,-2.4966531498491764,1.7732672716125846
1772567346694377200,8.830377197265625,-5.027753928223252,-2.1466993099719285,1.3501353827998042
1772567346704406300,8.84040625,-4.930414666977525,-1.6576760221004485,1.0693025715522468
1772567346714435300,8.850435302734375,-4.670706915214658,-1.3890963970959185,0.6568627571456134
1772567346724464000,8.860464111328126,-4.2859886359483,-1.4579694423139093,-0.07004347723685204
1772567346734492400,8.870492431640624,-3.0603041009426115,-1.3105197039872407,-0.6697379477445036
1772567346744521500,8.880521484375,-1.783936257404089,-0.6822077724128961,-0.392092132502608
1772567346754550300,8.89055029296875,-0.5876338842272758,-0.5134527957290411,-0.3271900367422029
1772567346764579300,8.900579345703125,0.9054787676602601,-0.3132324212014675,-0.849036457209289
1772567346774608400,8.9106083984375,2.039376414850354,0.1254854515388608,-1.1790110466361046
1772567346784636200,8.92063623046875,2.422495442226529,0.47171647150069473,-1.1996043373316525
1772567346794665200,8.930665283203124,2.548612469667196,0.6609568945914507,-0.9432159392498433
1772567346804694300,8.9406943359375,3.02912453430295,0.6573565320119261,-0.7037224157370626
1772567346814723300,8.950723388671875,3.5638521732509134,0.7016454633325337,-0.5123474648356438
1772567346824751400,8.96075146484375,3.7822996938645836,0.7922805507645011,-0.28377861890848727
1772567346834780200,8.9707802734375,3.8009804289370774,0.7007926458954811,-0.20390425067208706
1772567346844809200,8.980809326171874,3.864267782977223,0.5713824221283197,-0.12532459842134266
1772567346854838300,8.99083837890625,3.778431327998638,0.4571694752320647,0.08121768173729069
1772567346864867300,9.000867431640625,3.898335472273826,0.2709118673443794,0.31881109811663627
1772567346874895400,9.010895263671875,4.329164929851889,0.09387947618067265,0.3494793542332947
1772567346884924200,9.020924072265625,4.77266214582324,0.09483137007802725,0.36161830297950653
1772567346894953200,9.030953125,5.219243299284577,0.17663433175683022,0.42338359855152663
1772567346904982300,9.040982177734374,5.704826091313362,0.34605040269792076,0.4364984431251883
1772567346915010300,9.05101025390625,6.079716804048418,0.5529365187250077,0.44287754970304666
1772567346925039400,9.061039306640625,6.189204768249392,0.6486971324771642,0.470246764274314
1772567346935068400,9.071068359375,6.217381645941734,0.6665732731685042,0.4384787302222103
1772567346945097200,9.08109716796875,6.191805890658498,0.7726910302840173,0.3543547782499343
1772567346955126300,9.091126220703124,6.053803779634833,1.0405644067153335,0.1546870691690594
1772567346965154000,9.101154052734374,5.800326446694135,1.1710998351201414,-0.02246061893738806
1772567346975183400,9.111183349609375,5.2245519270867105,1.063213753157854,-0.15739399004019797
1772567346985212400,9.12121240234375,4.557625310435891,0.8820862016350031,-0.15196370861977337
1772567346995241200,9.1312412109375,3.80369845572412,0.6246525322839618,0.032353213528916236
1772567347005269200,9.141269287109376,2.7705361419588326,0.44367228027731176,0.18231098915375768
1772567347015298300,9.15129833984375,1.351301211708784,0.4428323223218322,0.3764974903445691
1772567347025327000,9.1613271484375,-0.4557207377284765,0.3152785400763154,0.4936095927484333
1772567347035356200,9.171356201171875,-2.262095621433854,0.11974456979930401,0.7303008452568203
1772567347045384200,9.18138427734375,-3.2950708881944415,-0.014281915591657162,0.9050259823914617
1772567347055413200,9.191413330078126,-3.795369018796086,-0.09202566500753163,0.6331757382184267
1772567347065442300,9.2014423828125,-4.4577042160034175,-0.26733430111855266,0.21122509507946668
1772567347075471000,9.21147119140625,-4.937530636462569,-0.4988023390859365,0.08174677451215684
1772567347085500200,9.221500244140625,-4.785243394976854,-0.9083210053488612,0.22181955433003603
1772567347095528400,9.231528564453125,-4.497137231725454,-1.1942401799499989,0.4989738231953233
1772567347105557200,9.24155712890625,-4.25180287322998,-1.3708043690800666,0.8950047929842024
1772567347115586000,9.2515859375,-3.6992496547341345,-1.5768082954451441,1.2237127234760672
1772567347125615000,9.261614990234374,-3.5225498565256594,-1.401880183084309,1.6051684207499026
1772567347135643000,9.271642822265624,-3.583345978271961,-1.2326692793264984,1.841610593868047
1772567347145672200,9.281672119140625,-4.274383538350462,-1.3495049759417772,1.718270045403391
1772567347155701000,9.291700927734375,-6.068573478743434,-1.4458724695459007,1.3637234709084034
1772567347165730000,9.30172998046875,-7.476054258313774,-1.40953420496881,0.9793381499234587
1772567347175759000,9.311759033203124,-7.750078120198846,-1.256424833445251,0.5413767946388572
1772567347185787000,9.321786865234374,-8.098113559234141,-0.8972431464955211,-0.1612050727609545
1772567347195816000,9.33181591796875,-7.792363018220662,-0.762826492743194,-0.9543510081831366
1772567347205845000,9.341844970703125,-6.687083562749624,-0.8964508270740509,-1.4277474686600267
1772567347215874000,9.3518740234375,-5.264070283004641,-0.9721998955413699,-1.2417283457033335
1772567347225902000,9.361902099609376,-3.3583968206793067,-0.8612257844358682,-0.927727570477873
1772567347235931000,9.371930908203124,-1.2769114488959312,-0.7613605118438601,-0.753116561242193
1772567347245960000,9.3819599609375,0.37151685238778587,-0.812178260411322,-0.7676605618361383
1772567347255989000,9.391989013671875,1.5890835473895073,-0.8590542856156825,-0.6410239675007761
1772567347266017800,9.402017822265625,2.3770798449635504,-0.6831868465781211,-0.35603794556390495
1772567347276046000,9.412046142578125,2.766163918223977,-0.2707861951380968,-0.14667678119279443
1772567347286075100,9.4220751953125,2.662633401122689,0.29021044205427166,-0.1031529159605503
1772567347296104000,9.43210400390625,2.3634908800721166,0.6894220877058803,-0.15447214777674526
1772567347306133000,9.442133056640625,2.2084406036138535,0.6700093850970268,-0.25299440826196223
1772567347316161000,9.4521611328125,2.0187281790971756,0.29350203094556926,-0.5260328027736395
1772567347326190000,9.462190185546875,1.6046078642576933,-0.055879708132147786,-0.8965199467875062
1772567347336219100,9.47221923828125,1.6019740086227654,-0.12994345386102796,-0.9532518878348171
1772567347346248000,9.482248046875,1.938352912133932,-0.2443194823645055,-0.8316741112589836
1772567347356276000,9.49227587890625,2.4463813447266816,-0.49808746881484983,-0.5703599472127855
1772567347366305000,9.502304931640625,3.1086767944455147,-0.6205905435420572,-0.22435153875937683
1772567347376333800,9.512333740234375,4.052161759895086,-0.4989733117386698,-0.0765799024014268
1772567347386363100,9.522363037109375,4.932164725515246,-0.27432781326770783,-0.004057321699941531
1772567347396392200,9.53239208984375,5.437597880917787,0.04079071394130587,0.22044505110643803
1772567347406420000,9.542419921875,5.801446975156664,0.24612799309119582,0.42960868361145255
1772567347416449000,9.552448974609375,6.103458329641819,0.26968349459320307,0.4307709323238581
1772567347426477800,9.562477783203125,6.167433081424236,0.3622941198818385,0.2822891110030934
1772567347436507000,9.5725068359375,5.8733618722885845,0.6414753645300865,-0.08202182859387248
1772567347446535200,9.58253515625,5.527961457931995,0.8851676549069583,-0.29391251144260166
1772567347456564000,9.59256396484375,5.348945199474692,0.8485895902246237,-0.30685251090601084
1772567347466593000,9.602593017578124,4.904076110628247,0.8616966168180108,-0.4216745296113193
1772567347476622000,9.6126220703125,4.209239158266782,0.9371759284332394,-0.6129448510944843
1772567347486651000,9.62265087890625,3.3909254638403654,0.9370297979608178,-0.5331178656637668
1772567347496679200,9.63267919921875,2.66390006005764,0.7158928921326995,-0.2528580319985747
1772567347506708000,9.6427080078125,1.6644874556809663,0.6547565786466002,-0.07129179679751396
1772567347516737000,9.652737060546874,0.7171873158574104,0.716057727305591,0.11714432417303323
1772567347526766000,9.66276611328125,0.09653963530063629,0.5612871445715427,0.11482011900916694
1772567347536793900,9.6727939453125,-0.8127233270734548,0.17035832022726535,0.10425115952603518
1772567347546823000,9.682822998046875,-1.9439806888878344,-0.30077538294941186,0.025855887398868797
1772567347556852200,9.692852294921876,-3.06804726241529,-0.748993782223761,-0.10941204942055045
1772567347566881000,9.702881103515624,-3.7677883534312246,-1.1266568822816014,-0.12859686155766248
1772567347576909000,9.712908935546874,-3.7960505713194608,-1.2341504577949642,-0.0071796093057841055
1772567347586937900,9.722937744140625,-3.894774564921856,-1.367418818295002,0.24051519471071658
1772567347596967000,9.732966796875,-3.9724914263308047,-1.5008882543250917,0.5521054747283458
1772567347606996000,9.742995849609375,-3.580087853258848,-1.5170722041457891,1.0853152564592659
1772567347617025000,9.75302490234375,-3.3245348830878734,-1.5224445448338983,1.599510394988209
1772567347627053000,9.763052978515624,-3.6236142757743597,-1.650526734867692,1.7307374589189886
1772567347637082000,9.77308203125,-4.865016019871831,-1.8861404943376778,1.461201117711514
1772567347647111000,9.78311083984375,-6.039125265941023,-1.8899755424559115,1.0285540893174707
1772567347657140000,9.793139892578125,-6.158262517496943,-1.6162454028204083,0.6019052784249186
1772567347667168000,9.80316796875,-5.936971297889947,-1.0569289737999439,-0.3019318412418477
1772567347677197000,9.813197021484376,-5.3278521425634615,-0.575315085402131,-1.0748482229806482
1772567347687226000,9.82322607421875,-4.36885162807405,-0.39225130511969325,-1.5468553479909897
1772567347697255200,9.833255126953125,-3.3751468799501656,-0.26782822211533786,-1.3713896216221153
1772567347707284000,9.843283935546875,-2.0923487111032006,-0.2044870920613408,-1.0352982298154383
1772567347717312000,9.85331201171875,-0.5514285983800887,0.05232230791151523,-0.7637124817974865
1772567347727341000,9.863341064453126,0.49434360611140726,0.17741086908727882,-0.3042088462631218
1772567347737370000,9.8733701171875,1.1796616194993257,0.022754268121719358,0.2692928695741109
1772567347747399200,9.883399169921875,1.1786106491416692,-0.11551935331970453,0.9311470235325395
1772567347757427000,9.893427001953125,0.691753014871478,-0.31391587342098354,1.162829434902966
1772567347767456000,9.9034560546875,0.29885785889029504,-0.4027132240317762,0.49676034839693456
1772567347777485000,9.913485107421875,0.8649187937349081,-0.33967794505655763,-0.34890922619514164
1772567347787513900,9.923513916015626,3.1872108174562452,0.05788198786526918,-0.336336087282747
1772567347797542100,9.933542236328124,1.8412112192869186,-0.03440846555829048,0.43999877939634024
1772567347807571000,9.943571044921875,-1.3677975884795188,-0.9086476069547236,0.8381393617503344
1772567347817600000,9.95360009765625,-2.001369632539153,-0.8453286887325346,0.9790507112842053
1772567347827629000,9.963629150390625,0.5895248125404119,-0.10299933283403515,0.465771810817346
1772567347837657900,9.973657958984376,1.7505682408094405,0.046496524367481466,0.018392967639677224
1772567347847686100,9.98368603515625,2.2104373303890226,-0.07318214058876037,-0.136763655269891
1772567347857715200,9.993715087890624,3.687120241001248,0.13188245909959076,-0.09453110848981887
