time,seconds_elapsed,z,y,x
1772567337939241000,0.075240966796875,1.2865874767303467,-0.0725109875202179,0.48428285121917725
1772567337949270000,0.08527001953125,1.2930179834365845,-0.24954941868782043,0.5933792591094971
1772567337959298800,0.095298828125,1.219793438911438,-0.4211932420730591,0.6872736215591431
1772567337969327900,0.105327880859375,1.1302558183670044,-0.6722779273986816,0.7788503766059875
1772567337979357000,0.11535693359375,1.0335556268692017,-0.9606460928916931,0.833645224571228
1772567337989385000,0.125385009765625,0.891633927822113,-1.1802562475204468,0.8095635771751404
1772567337999414000,0.1354140625,0.7141828536987305,-1.3008718490600586,0.6635512113571167
1772567338009442800,0.14544287109375,0.5321840047836304,-1.222085952758789,0.44859176874160767
1772567338019472000,0.155471923828125,0.39810484647750854,-0.8967055678367615,0.19326777756214142
1772567338029501000,0.1655009765625,0.3125057816505432,-0.39626193046569824,-0.08396143466234207
1772567338039529000,0.175529052734375,0.275305837392807,0.1687689572572708,-0.3870182931423187
1772567338049558000,0.18555810546875,0.3162679076194763,0.6512652635574341,-0.6988925933837891
1772567338059587000,0.195587158203125,0.4047507345676422,0.9985008835792542,-1.0112738609313965
1772567338069615900,0.205615966796875,0.5227835774421692,1.2606439590454102,-1.308767557144165
1772567338079645000,0.21564501953125,0.6596397757530212,1.4504090547561646,-1.5636805295944214
1772567338089674000,0.225674072265625,0.8185279965400696,1.5387293100357056,-1.771498441696167
1772567338099701800,0.23570166015625,0.9564891457557678,1.3990455865859985,-1.9196052551269531
1772567338109731000,0.24573095703125,0.9814102053642273,0.9878263473510742,-2.0021488666534424
1772567338119760100,0.255760009765625,0.8574053049087524,0.2901906371116638,-2.000328779220581
1772567338129789000,0.265788818359375,0.5975145697593689,-0.5620169043540955,-1.8874790668487549
1772567338139818000,0.27581787109375,0.3045780062675476,-1.3540363311767578,-1.671126365661621
1772567338149845800,0.285845703125,0.07451976835727692,-1.925755262374878,-1.3856523036956787
1772567338159874800,0.295874755859375,-0.029887497425079346,-2.22135066986084,-1.0867429971694946
1772567338169903900,0.30590380859375,-0.03639812767505646,-2.2800607681274414,-0.7991418242454529
1772567338179933000,0.315932861328125,0.018520424142479897,-2.0543580055236816,-0.5132642984390259
1772567338189962000,0.3259619140625,0.09517285972833633,-1.5662187337875366,-0.2539443075656891
1772567338199991000,0.335990966796875,0.171704962849617,-0.9530606269836426,-0.024485182017087936
1772567338210018800,0.346018798828125,0.23297125101089478,-0.35555538535118103,0.16823022067546844
1772567338220048000,0.3560478515625,0.29938948154449463,0.19460882246494293,0.34238556027412415
1772567338230077000,0.366076904296875,0.36319056153297424,0.665159285068512,0.49271005392074585
1772567338240106000,0.37610595703125,0.36970847845077515,0.9168943762779236,0.5935050845146179
1772567338250135000,0.386135009765625,0.29461878538131714,0.9592098593711853,0.615980863571167
1772567338260162800,0.396162841796875,0.1654285043478012,0.8683009147644043,0.5678548812866211
1772567338270191900,0.40619189453125,-0.03527211770415306,0.5959506034851074,0.47175127267837524
1772567338280221000,0.416220947265625,-0.28065958619117737,0.11968553066253662,0.36024022102355957
1772567338290249700,0.426249755859375,-0.44315528869628906,-0.3090516924858093,0.28280961513519287
1772567338300278800,0.43627880859375,-0.4776028096675873,-0.4853665828704834,0.27538368105888367
1772567338310307000,0.44630712890625,-0.45650044083595276,-0.37652212381362915,0.34956949949264526
1772567338320336000,0.4563359375,-0.4061979353427887,-0.06868396699428558,0.5129095315933228
1772567338330365000,0.466364990234375,-0.3342505097389221,0.36743608117103577,0.7478357553482056
1772567338340394000,0.47639404296875,-0.23405535519123077,0.7746291160583496,1.000415563583374
1772567338350422800,0.4864228515625,-0.1485697478055954,1.0908219814300537,1.2036323547363281
1772567338360451000,0.496451171875,-0.12248238921165466,1.3705179691314697,1.303823471069336
1772567338370479900,0.50647998046875,-0.1675550490617752,1.4420368671417236,1.2700191736221313
1772567338380509000,0.516509033203125,-0.26622194051742554,1.2691773176193237,1.1065785884857178
1772567338390538000,0.5265380859375,-0.37347301840782166,1.0260062217712402,0.8717601895332336
1772567338400566800,0.53656689453125,-0.44558629393577576,1.0166069269180298,0.6252126097679138
1772567338410594800,0.5465947265625,-0.3854009807109833,1.1834769248962402,0.4512200653553009
1772567338420624100,0.5566240234375,-0.1585627943277359,1.1771854162216187,0.4078698456287384
1772567338430653000,0.56665283203125,0.15163500607013702,0.9690887331962585,0.5121859312057495
1772567338440682000,0.576681884765625,0.4402790367603302,0.6931089758872986,0.7578359842300415
1772567338450711000,0.5867109375,0.6824706196784973,0.34270137548446655,1.0487850904464722
1772567338460739800,0.59673974609375,0.8321510553359985,-0.11531025171279907,1.2487505674362183
1772567338470767900,0.606767822265625,0.8943326473236084,-0.5649034976959229,1.2917346954345703
1772567338480797000,0.616796875,0.9100028276443481,-0.894208550453186,1.1784045696258545
1772567338490826000,0.626825927734375,0.8977501392364502,-1.0118763446807861,0.9811220765113831
1772567338500855000,0.63685498046875,0.829750120639801,-0.9016623497009277,0.7215516567230225
1772567338510884000,0.646884033203125,0.6754095554351807,-0.6619022488594055,0.38358160853385925
1772567338520912000,0.656911865234375,0.4567262530326843,-0.3856126368045807,-0.060188405215740204
1772567338530941000,0.66694091796875,0.20043696463108063,-0.1406521201133728,-0.5901899933815002
1772567338540969700,0.6769697265625,-0.010301804170012474,0.08475188165903091,-1.124333143234253
1772567338550999000,0.6869990234375,-0.11428386718034744,0.2784947156906128,-1.5290987491607666
1772567338561028000,0.697028076171875,-0.08730526268482208,0.4029264748096466,-1.724277377128601
1772567338571055900,0.707055908203125,0.06673543900251389,0.48372650146484375,-1.7000902891159058
1772567338581085000,0.7170849609375,0.296413779258728,0.4995710551738739,-1.5102125406265259
1772567338591114000,0.727114013671875,0.5273167490959167,0.3965655565261841,-1.2105838060379028
1772567338601142800,0.737142822265625,0.6866758465766907,0.1531873345375061,-0.8837679028511047
1772567338611171800,0.747171875,0.7739622592926025,-0.2444913238286972,-0.5930061340332031
1772567338621201200,0.757201171875,0.7876643538475037,-0.7691148519515991,-0.3991469144821167
1772567338631229000,0.76722900390625,0.70334792137146,-1.3398380279541016,-0.3195580840110779
1772567338641258000,0.777258056640625,0.5027716755867004,-1.79636812210083,-0.35731804370880127
1772567338651286800,0.787286865234375,0.24074457585811615,-2.0404748916625977,-0.4760742485523224
1772567338661315800,0.79731591796875,-0.0013857707381248474,-2.088754653930664,-0.6406133770942688
1772567338671345000,0.807344970703125,-0.19329822063446045,-1.958296298980713,-0.7910681366920471
1772567338681373000,0.817373046875,-0.31325477361679077,-1.720353603363037,-0.9136773943901062
1772567338691402000,0.827402099609375,-0.31385931372642517,-1.3918153047561646,-0.9342617392539978
1772567338701431000,0.83743115234375,-0.217121422290802,-0.9256099462509155,-0.8155047297477722
1772567338711459800,0.8474599609375,-0.08587764948606491,-0.4922145903110504,-0.562687337398529
1772567338721489000,0.857489013671875,-0.03473960608243942,-0.1179884746670723,-0.2261207401752472
1772567338731517000,0.867516845703125,-0.09937825798988342,0.17166437208652496,0.13523772358894348
1772567338741546000,0.8775458984375,-0.23373457789421082,0.3439732789993286,0.4614565074443817
1772567338751575000,0.887574951171875,-0.37475958466529846,0.3817984163761139,0.7311117053031921
1772567338761603800,0.897603759765625,-0.5057399272918701,0.38270166516304016,0.8902817368507385
1772567338771633000,0.9076328125,-0.673496663570404,0.44519540667533875,0.8792349696159363
1772567338781661000,0.917660888671875,-0.7435442805290222,0.5344959497451782,0.7549788951873779
1772567338791690000,0.92768994140625,-0.6939173340797424,0.6116104125976562,0.6106249094009399
1772567338801719000,0.937718994140625,-0.5843226313591003,0.7009135484695435,0.4711717367172241
1772567338811748000,0.947748046875,-0.4497368633747101,0.6770292520523071,0.36559897661209106
1772567338821777000,0.95777685546875,-0.2510918974876404,0.43428364396095276,0.35979071259498596
1772567338831805000,0.967804931640625,-0.037839002907276154,0.010928666219115257,0.4690202474594116
1772567338841833700,0.977833740234375,0.132247194647789,-0.2736213207244873,0.6825270056724548
1772567338851862800,0.98786279296875,0.24067966639995575,-0.24843285977840424,0.9827792644500732
1772567338861892000,0.99789208984375,0.2912227213382721,0.15575653314590454,1.2903249263763428
1772567338871921000,1.0079208984375,0.278080552816391,0.7853981256484985,1.563858985900879
1772567338881950000,1.017949951171875,0.21700908243656158,1.2988425493240356,1.6966360807418823
1772567338891978000,1.02797802734375,0.16056391596794128,1.4294514656066895,1.6354143619537354
1772567338902006800,1.0380068359375,0.17376387119293213,1.2828439474105835,1.4641491174697876
1772567338912035800,1.048035888671875,0.30340468883514404,0.9548659920692444,1.2196887731552124
1772567338922065000,1.05806494140625,0.5649653673171997,0.4567945599555969,0.9573140144348145
1772567338932094000,1.068093994140625,0.8414563536643982,-0.05608685314655304,0.7057026028633118
1772567338942122000,1.0781220703125,1.0147578716278076,-0.41684871912002563,0.5049963593482971
1772567338952150800,1.08815087890625,1.056565523147583,-0.5951652526855469,0.32984715700149536
1772567338962179800,1.098179931640625,0.9740753769874573,-0.6012468338012695,0.15256455540657043
1772567338972209000,1.108208984375,0.8042109608650208,-0.4533543288707733,-0.03328334912657738
1772567338982237700,1.11823779296875,0.6087973117828369,-0.1827787160873413,-0.2388937920331955
1772567338992266000,1.128265869140625,0.44046851992607117,0.1299235224723816,-0.44128257036209106
1772567339002295000,1.138294921875,0.32285743951797485,0.32356393337249756,-0.6431031823158264
1772567339012323800,1.14832373046875,0.2716749310493469,0.30806970596313477,-0.8378252387046814
1772567339022353000,1.158352783203125,0.2823645770549774,0.09586885571479797,-1.012508511543274
1772567339032382000,1.1683818359375,0.32323822379112244,-0.19180339574813843,-1.144005537033081
1772567339042410000,1.178409912109375,0.3677550256252289,-0.4265629053115845,-1.2093696594238281
1772567339052439000,1.18843896484375,0.4047202169895172,-0.5589861869812012,-1.192582130432129
1772567339062467800,1.1984677734375,0.42543157935142517,-0.6186583638191223,-1.1208487749099731
1772567339072497000,1.208496826171875,0.41898593306541443,-0.6398118734359741,-1.0051463842391968
1772567339082526000,1.21852587890625,0.39372143149375916,-0.6526671051979065,-0.8730894327163696
1772567339092553700,1.2285537109375,0.3426734209060669,-0.6336337924003601,-0.740664005279541
1772567339102583000,1.2385830078125,0.26721566915512085,-0.5533080101013184,-0.6201522350311279
1772567339112612900,1.24861279296875,0.18571577966213226,-0.4002862572669983,-0.5222991704940796
1772567339122642000,1.258641845703125,0.09554418921470642,-0.18355394899845123,-0.4643858075141907
1772567339132671200,1.268671142578125,0.007823656313121319,0.08828449249267578,-0.4342785179615021
1772567339142699000,1.278698974609375,-0.09212552756071091,0.37444403767585754,-0.41461578011512756
1772567339152728000,1.28872802734375,-0.2023140788078308,0.6492918133735657,-0.3928590714931488
1772567339162757000,1.298757080078125,-0.3196178674697876,0.8811962008476257,-0.35381829738616943
1772567339172786000,1.308785888671875,-0.44285857677459717,0.9915006160736084,-0.29818883538246155
1772567339182815000,1.31881494140625,-0.5542961359024048,0.9962629675865173,-0.20435987412929535
1772567339192843000,1.328843017578125,-0.6263375878334045,0.9703706502914429,-0.0627734586596489
1772567339202872000,1.3388720703125,-0.6467816233634949,0.9304606914520264,0.11267991364002228
1772567339212901000,1.348901123046875,-0.6366884708404541,0.9501050114631653,0.30145463347435
1772567339222930000,1.358929931640625,-0.6212184429168701,1.0725492238998413,0.4792565107345581
1772567339232959000,1.368958984375,-0.6088438034057617,1.2402530908584595,0.6076682806015015
1772567339242987300,1.3789873046875,-0.6038095355033875,1.414215087890625,0.6601710915565491
1772567339253016000,1.38901611328125,-0.5875357389450073,1.5486503839492798,0.642328679561615
1772567339263045000,1.399045166015625,-0.5574483275413513,1.5431407690048218,0.5629417896270752
1772567339273074200,1.40907421875,-0.5040562152862549,1.3396542072296143,0.4394451677799225
1772567339283103000,1.41910302734375,-0.413658082485199,0.9825985431671143,0.28869563341140747
1772567339293132000,1.429132080078125,-0.24524296820163727,0.5591074824333191,0.12823325395584106
1772567339303160000,1.43916015625,-0.012510145083069801,0.11465176939964294,0.026722809299826622
1772567339313189000,1.449189208984375,0.1873164176940918,-0.20999528467655182,0.04249804466962814
1772567339323218200,1.45921826171875,0.3427906930446625,-0.37414175271987915,0.22519637644290924
1772567339333247000,1.4692470703125,0.4199046492576599,-0.2577008903026581,0.5015550255775452
1772567339343276000,1.479276123046875,0.36586207151412964,-0.0364999920129776,0.8002316355705261
1772567339353304000,1.489303955078125,0.3062669038772583,0.05369115620851517,1.0147991180419922
1772567339363332900,1.499332763671875,0.3942307233810425,-0.0019719181582331657,1.11940598487854
1772567339373362200,1.509362060546875,0.6362571716308594,-0.03994379937648773,1.0957432985305786
1772567339383391200,1.51939111328125,0.8820385932922363,-0.014891047962009907,0.9191747903823853
1772567339393420000,1.529419921875,1.0128253698349,-0.008068561553955078,0.5796281099319458
1772567339403448000,1.539447998046875,1.0238242149353027,-0.06701523065567017,0.1149195209145546
1772567339413476900,1.549476806640625,0.9192879796028137,-0.1715450882911682,-0.33970925211906433
1772567339423506000,1.559505859375,0.7083960771560669,-0.233917698264122,-0.6646785140037537
1772567339433535000,1.569534912109375,0.4550290107727051,-0.21254315972328186,-0.8052145838737488
1772567339443564300,1.579564208984375,0.24938999116420746,-0.1154148057103157,-0.8053620457649231
1772567339453592000,1.589592041015625,0.14282441139221191,0.011295466683804989,-0.7467700839042664
1772567339463621000,1.59962109375,0.14099881052970886,0.15724408626556396,-0.6937685608863831
1772567339473650000,1.60964990234375,0.21977590024471283,0.31942686438560486,-0.6639222502708435
1772567339483679000,1.619678955078125,0.3254370391368866,0.45610687136650085,-0.6818642020225525
1772567339493708000,1.6297080078125,0.44175857305526733,0.5475923418998718,-0.7504720687866211
1772567339503736000,1.639736083984375,0.5599156022071838,0.5875715017318726,-0.8629017472267151
1772567339513765000,1.64976513671875,0.6704993844032288,0.5013932585716248,-0.9997531175613403
1772567339523794200,1.659794189453125,0.7693248987197876,0.275283545255661,-1.1074482202529907
1772567339533823000,1.669822998046875,0.8041633367538452,0.0012163259088993073,-1.1307886838912964
1772567339543852000,1.67985205078125,0.7888981103897095,-0.29825150966644287,-1.0729169845581055
1772567339553880000,1.689880126953125,0.741932213306427,-0.6466014981269836,-0.9723616242408752
1772567339563909000,1.6999091796875,0.6789700388908386,-0.9943487644195557,-0.8660909533500671
1772567339573938200,1.709938232421875,0.5984051823616028,-1.2488811016082764,-0.7630007863044739
1772567339583967000,1.719967041015625,0.504570484161377,-1.3693053722381592,-0.6761981844902039
1772567339593996000,1.72999609375,0.3919791877269745,-1.3715623617172241,-0.6151476502418518
1772567339604024000,1.740024169921875,0.2532445788383484,-1.2231563329696655,-0.5561478137969971
1772567339614053000,1.75005322265625,0.11378204077482224,-0.9116570353507996,-0.48051217198371887
1772567339624082200,1.760082275390625,-0.015391751192510128,-0.5189014673233032,-0.4125911295413971
1772567339634111200,1.770111328125,-0.11014169454574585,-0.10800370573997498,-0.3486499786376953
1772567339644140000,1.78014013671875,-0.15383705496788025,0.30812567472457886,-0.28252458572387695
1772567339654168000,1.79016796875,-0.14618392288684845,0.6756759881973267,-0.19001434743404388
1772567339664196900,1.80019677734375,-0.12043257802724838,0.9508938193321228,-0.08719005435705185
1772567339674226000,1.810225830078125,-0.10599292069673538,1.1254397630691528,0.0395074337720871
1772567339684255200,1.820255126953125,-0.11303845047950745,1.2108142375946045,0.16154983639717102
1772567339694284000,1.830283935546875,-0.1168086975812912,1.2186402082443237,0.2750111520290375
1772567339704312000,1.84031201171875,-0.10390032827854156,1.1587690114974976,0.36096590757369995
1772567339714341000,1.850341064453125,-0.07255145907402039,1.0348111391067505,0.41357478499412537
1772567339724370000,1.860369873046875,-0.020726196467876434,0.8580252528190613,0.43708980083465576
1772567339734399000,1.87039892578125,0.036685697734355927,0.6054473519325256,0.45094701647758484
1772567339744428000,1.880427978515625,0.07952478528022766,0.33418887853622437,0.47301775217056274
1772567339754456000,1.8904560546875,0.10306047648191452,0.046339262276887894,0.5062987804412842
1772567339764485000,1.900485107421875,0.12241358309984207,-0.1645313948392868,0.5859178900718689
1772567339774514000,1.910513916015625,0.15199917554855347,-0.1715344488620758,0.733779788017273
1772567339784543000,1.92054296875,0.19927477836608887,-0.14888161420822144,0.8992825150489807
1772567339794572000,1.930572021484375,0.2784138023853302,-0.21600127220153809,1.057450294494629
1772567339804600000,1.94060009765625,0.3498365581035614,-0.37960925698280334,1.1707946062088013
1772567339814629000,1.950629150390625,0.3840413987636566,-0.5408591628074646,1.213127613067627
1772567339824658200,1.960658203125,0.410906046628952,-0.6728640198707581,1.1712437868118286
1772567339834687000,1.97068701171875,0.39885416626930237,-0.7383028268814087,1.034278392791748
1772567339844716000,1.980716064453125,0.381387323141098,-0.700174868106842,0.8129806518554688
1772567339854744000,1.990744140625,0.3820565640926361,-0.6110063791275024,0.542328417301178
1772567339864773000,2.000773193359375,0.3639802932739258,-0.5155856609344482,0.2758843004703522
1772567339874802200,2.01080224609375,0.2877691686153412,-0.46045663952827454,0.037580110132694244
1772567339884831000,2.0208310546875,0.14023572206497192,-0.4279748797416687,-0.15795207023620605
1772567339894860000,2.030860107421875,-0.02303682267665863,-0.3527997136116028,-0.3168588876724243
1772567339904889000,2.04088916015625,-0.16789788007736206,-0.1984277218580246,-0.4319375455379486
1772567339914917000,2.050917236328125,-0.2515275180339813,-0.03284008428454399,-0.5563369989395142
1772567339924946200,2.0609462890625,-0.2715744078159332,0.029600350186228752,-0.710948646068573
1772567339934975200,2.070975341796875,-0.25917473435401917,-0.04388824850320816,-0.881594181060791
1772567339945004000,2.081004150390625,-0.2324308604001999,-0.1866023689508438,-1.0068023204803467
1772567339955033000,2.091033203125,-0.17512096464633942,-0.3406073749065399,-1.0414551496505737
1772567339965060900,2.101060791015625,-0.06771617382764816,-0.5025830864906311,-0.9904682636260986
1772567339975090000,2.11108984375,0.09369029849767685,-0.649174153804779,-0.8796900510787964
1772567339985119200,2.121119140625,0.2768727242946625,-0.7961755394935608,-0.7540892362594604
1772567339995148000,2.13114794921875,0.459964781999588,-0.9474750757217407,-0.6291465163230896
1772567340005177000,2.141177001953125,0.6260345578193665,-1.069106101989746,-0.5182812809944153
1772567340015205000,2.151205078125,0.753305971622467,-1.1157231330871582,-0.4148770868778229
1772567340025234000,2.16123388671875,0.8117808103561401,-1.0803471803665161,-0.31174784898757935
1772567340035263000,2.171262939453125,0.8035508990287781,-0.984760582447052,-0.23173610866069794
1772567340045292000,2.1812919921875,0.7353783249855042,-0.8586962819099426,-0.17414964735507965
1772567340055321000,2.191321044921875,0.6270416975021362,-0.7122442126274109,-0.1508917212486267
1772567340065349000,2.20134912109375,0.48650774359703064,-0.5525262951850891,-0.15188206732273102
1772567340075378000,2.2113779296875,0.316052109003067,-0.3854734003543854,-0.17407844960689545
1772567340085407000,2.221406982421875,0.13211584091186523,-0.16203583776950836,-0.19117586314678192
1772567340095436000,2.23143603515625,-0.06155481934547424,0.1048445925116539,-0.19895948469638824
1772567340105465000,2.241465087890625,-0.25168970227241516,0.388264000415802,-0.18911691009998322
1772567340115492600,2.25149267578125,-0.4138389229774475,0.6896640658378601,-0.1434069573879242
1772567340125521400,2.261521484375,-0.5493785738945007,0.974485456943512,-0.06452551484107971
1772567340135550500,2.271550537109375,-0.6721023321151733,1.188757300376892,0.010117825120687485
1772567340145579500,2.28157958984375,-0.802182674407959,1.4046803712844849,0.07812986522912979
1772567340155608300,2.2916083984375,-0.8954689502716064,1.6190605163574219,0.1401628851890564
1772567340165636600,2.30163671875,-0.9511260986328125,1.7634295225143433,0.18343620002269745
1772567340175665700,2.311665771484375,-0.9835173487663269,1.7889004945755005,0.1979333907365799
1772567340185694500,2.321694580078125,-1.0068895816802979,1.720964789390564,0.2015407532453537
1772567340195723500,2.3317236328125,-0.9847344756126404,1.5513650178909302,0.23349443078041077
1772567340205752600,2.341752685546875,-0.897055447101593,1.1559935808181763,0.28596779704093933
1772567340215780600,2.351780517578125,-0.7227057218551636,0.6421983242034912,0.3749045729637146
1772567340225809700,2.3618095703125,-0.45533135533332825,0.08173717558383942,0.5043445825576782
1772567340235838500,2.37183837890625,-0.11762069165706635,-0.4688633978366852,0.6983646750450134
1772567340245867500,2.381867431640625,0.2019733488559723,-0.8321372866630554,0.9812304973602295
1772567340255896600,2.391896484375,0.4374766945838928,-0.8186832666397095,1.3099958896636963
1772567340265924400,2.40192431640625,0.5460867881774902,-0.5310544967651367,1.5846184492111206
1772567340275953400,2.411953369140625,0.5461136698722839,-0.13436651229858398,1.7012196779251099
1772567340285982700,2.421982666015625,0.48087167739868164,0.15716524422168732,1.6053516864776611
1772567340296011500,2.432011474609375,0.4090843200683594,0.19497281312942505,1.3075617551803589
1772567340306040600,2.44204052734375,0.38498133420944214,-0.08409079909324646,0.8655031323432922
1772567340316068400,2.452068359375,0.4912712872028351,-0.45799168944358826,0.4198894500732422
1772567340326097400,2.462097412109375,0.6956263184547424,-0.9246828556060791,0.05268712341785431
1772567340336126500,2.47212646484375,0.926384449005127,-1.4814071655273438,-0.17659319937229156
1772567340346155500,2.482155517578125,1.1267647743225098,-1.9716187715530396,-0.2624874413013458
1772567340356184600,2.4921845703125,1.2059197425842285,-2.2013678550720215,-0.21094860136508942
1772567340366212600,2.502212646484375,1.1258183717727661,-2.003350257873535,-0.09113159030675888
1772567340376241400,2.512241455078125,0.9524918794631958,-1.4419432878494263,-0.04336807131767273
1772567340386270500,2.5222705078125,0.812038779258728,-0.7721344232559204,-0.1662217229604721
1772567340396299500,2.532299560546875,0.7518680691719055,-0.25660181045532227,-0.4733414649963379
1772567340406328300,2.542328369140625,0.7307016253471375,0.00041997525840997696,-0.8840194344520569
1772567340416356600,2.552356689453125,0.7213230729103088,-0.121086485683918,-1.3063334226608276
1772567340426385400,2.562385498046875,0.7343487739562988,-0.5038304328918457,-1.5995042324066162
1772567340436414500,2.57241455078125,0.7411941289901733,-0.8994808197021484,-1.6533339023590088
1772567340446443500,2.582443603515625,0.732382595539093,-1.1455340385437012,-1.4775100946426392
1772567340456472300,2.592472412109375,0.7499463558197021,-1.2423367500305176,-1.1680289506912231
1772567340466500600,2.60250048828125,0.8136652708053589,-1.241693377494812,-0.834723711013794
1772567340476529700,2.61252978515625,0.8946408629417419,-1.164308786392212,-0.5577040910720825
1772567340486558500,2.622558349609375,0.9489865899085999,-1.0290485620498657,-0.38250279426574707
1772567340496587500,2.63258740234375,0.9654137492179871,-0.8588308095932007,-0.3139681816101074
1772567340506616600,2.642616455078125,0.9602329134941101,-0.6610713005065918,-0.32088983058929443
1772567340516644400,2.652644287109375,0.9227592945098877,-0.434212327003479,-0.37841305136680603
1772567340526673700,2.662673583984375,0.8487542271614075,-0.17383530735969543,-0.45750337839126587
1772567340536702700,2.67270263671875,0.7238383889198303,0.12002189457416534,-0.5334317088127136
1772567340546731500,2.6827314453125,0.5479734539985657,0.4248615503311157,-0.5969575643539429
1772567340556760600,2.692760498046875,0.35516640543937683,0.7276232838630676,-0.6295272707939148
1772567340566788400,2.702788330078125,0.17213018238544464,1.0006686449050903,-0.6155889630317688
1772567340576817400,2.7128173828125,0.026143141090869904,1.2133004665374756,-0.545047402381897
1772567340586846500,2.722846435546875,-0.08014510571956635,1.368245005607605,-0.4088873565196991
1772567340596875500,2.73287548828125,-0.1670411080121994,1.4770537614822388,-0.216913640499115
1772567340606904600,2.742904541015625,-0.2406187653541565,1.5203661918640137,-0.003455100115388632
1772567340616932600,2.7529326171875,-0.2965264916419983,1.4731101989746094,0.2074504792690277
1772567340626961400,2.76296142578125,-0.34178778529167175,1.366889238357544,0.39530491828918457
1772567340636990500,2.772990478515625,-0.41509875655174255,1.2618021965026855,0.5483301877975464
1772567340647019500,2.78301953125,-0.534251868724823,1.193845510482788,0.6529359221458435
1772567340657048600,2.793048583984375,-0.6672842502593994,1.174072265625,0.7243989109992981
1772567340667076600,2.80307666015625,-0.787308931350708,1.1835155487060547,0.7603023648262024
1772567340677105400,2.81310546875,-0.8863607048988342,1.2145317792892456,0.7822092771530151
1772567340687134500,2.823134521484375,-0.961925208568573,1.2461649179458618,0.7993137836456299
1772567340697163500,2.83316357421875,-1.016610026359558,1.2730063199996948,0.8437443375587463
1772567340707192300,2.8431923828125,-1.0524747371673584,1.3077270984649658,0.9357531070709229
1772567340717220600,2.853220703125,-1.0665993690490723,1.2449058294296265,1.071635127067566
1772567340727249700,2.863249755859375,-0.9950106143951416,1.0443702936172485,1.2557978630065918
1772567340737278500,2.873278564453125,-0.851072371006012,0.7827743291854858,1.4525610208511353
1772567340747307500,2.8833076171875,-0.6589269042015076,0.5644767880439758,1.642039179801941
1772567340757336600,2.893336669921875,-0.4215087592601776,0.33079829812049866,1.6936216354370117
1772567340767364600,2.903364501953125,-0.13509950041770935,0.05014418810606003,1.5716696977615356
1772567340777393700,2.9133935546875,0.16675730049610138,-0.16092143952846527,1.3384073972702026
1772567340787422500,2.92342236328125,0.3922687768936157,-0.32543325424194336,1.0354539155960083
1772567340797451500,2.933451416015625,0.5240851640701294,-0.4552517235279083,0.7075046300888062
1772567340807480600,2.94348046875,0.5798031091690063,-0.45439544320106506,0.4154375195503235
1772567340817508400,2.95350830078125,0.5390953421592712,-0.3558694124221802,0.16936810314655304
1772567340827537700,2.96353759765625,0.43167710304260254,-0.24592949450016022,-0.05917114019393921
1772567340837566700,2.973566650390625,0.2990282475948334,-0.11309580504894257,-0.28061190247535706
1772567340847595500,2.983595458984375,0.1833832859992981,0.02324347198009491,-0.49801650643348694
1772567340857624600,2.99362451171875,0.10572712123394012,0.06692677736282349,-0.7242602705955505
1772567340867652400,3.00365234375,0.06963127851486206,-0.07222992926836014,-0.953861653804779
1772567340877681400,3.013681396484375,0.07109042257070541,-0.42525938153266907,-1.1651411056518555
1772567340887710500,3.02371044921875,0.1088014468550682,-0.8670597672462463,-1.3198970556259155
1772567340897739500,3.033739501953125,0.17792779207229614,-1.280382513999939,-1.3751472234725952
1772567340907768600,3.0437685546875,0.2801593840122223,-1.606398344039917,-1.325415849685669
1772567340917796600,3.053796630859375,0.4188496172428131,-1.7970787286758423,-1.190459132194519
1772567340927825400,3.063825439453125,0.5434598922729492,-1.8415353298187256,-1.0264357328414917
1772567340937854500,3.0738544921875,0.63140869140625,-1.747270941734314,-0.8682150840759277
1772567340947883500,3.083883544921875,0.6649109125137329,-1.4562653303146362,-0.7222200036048889
1772567340957912300,3.093912353515625,0.6148994565010071,-0.9664074778556824,-0.5984886884689331
1772567340967940600,3.103940673828125,0.4663049876689911,-0.4311448037624359,-0.5337784886360168
1772567340977969400,3.113969482421875,0.26506507396698,0.05221707746386528,-0.5087437033653259
1772567340987998500,3.12399853515625,0.051929082721471786,0.4890402555465698,-0.5122056007385254
1772567340998027500,3.134027587890625,-0.17286968231201172,0.8756436109542847,-0.5167105793952942
1772567341008056300,3.144056396484375,-0.41898515820503235,1.2004823684692383,-0.5137751698493958
1772567341018084600,3.154084716796875,-0.6650955677032471,1.4264079332351685,-0.4868309199810028
1772567341028113700,3.16411376953125,-0.885171115398407,1.525085687637329,-0.42211979627609253
1772567341038142500,3.174142578125,-1.0738248825073242,1.447242259979248,-0.3137912154197693
1772567341048171500,3.184171630859375,-1.1856621503829956,1.2206424474716187,-0.20335125923156738
1772567341058200600,3.19420068359375,-1.191148281097412,0.9446358680725098,-0.09644477814435959
1772567341068228600,3.204228515625,-1.1158632040023804,0.7025253176689148,-0.002407025545835495
1772567341078257700,3.214257568359375,-1.023640513420105,0.5296033620834351,0.09161587804555893
1772567341088286500,3.224286376953125,-0.9520682692527771,0.4585534632205963,0.18684245645999908
1772567341098315500,3.2343154296875,-0.9165123701095581,0.4690138101577759,0.2760314643383026
1772567341108344000,3.244343994140625,-0.9158036112785339,0.5120181441307068,0.3568803668022156
1772567341118371800,3.254371826171875,-0.9424200654029846,0.5598551630973816,0.4118621349334717
1772567341128401200,3.264401123046875,-0.979477047920227,0.5619916319847107,0.4603894054889679
1772567341138430200,3.27443017578125,-1.0045223236083984,0.5433716177940369,0.5190881490707397
1772567341148459000,3.284458984375,-1.0293773412704468,0.544237494468689,0.5922600030899048
1772567341158487000,3.294487060546875,-1.091005802154541,0.57965087890625,0.6700149774551392
1772567341168515800,3.304515869140625,-1.2343974113464355,0.708881676197052,0.7694357633590698
1772567341178545000,3.314544921875,-1.4392682313919067,0.9348527193069458,0.8708415031433105
1772567341188574000,3.324573974609375,-1.650187373161316,1.1617802381515503,0.9741791486740112
1772567341198603000,3.33460302734375,-1.7764075994491577,1.314139723777771,1.045697808265686
1772567341208631000,3.344631103515625,-1.721516728401184,1.2978291511535645,1.0524612665176392
1772567341218660000,3.35466015625,-1.476946473121643,1.0155622959136963,0.963230550289154
1772567341228689000,3.36468896484375,-1.0827065706253052,0.529533863067627,0.8280214071273804
1772567341238718000,3.374718017578125,-0.6629486083984375,-0.0562603622674942,0.699688196182251
1772567341248747000,3.3847470703125,-0.363162100315094,-0.6892053484916687,0.5902200937271118
1772567341258776000,3.394776123046875,-0.24974234402179718,-1.3383681774139404,0.48305872082710266
1772567341268804000,3.40480419921875,-0.2354680746793747,-1.769051432609558,0.37887758016586304
1772567341278833000,3.4148330078125,-0.2164831906557083,-1.785108208656311,0.3113501965999603
1772567341288862000,3.424862060546875,-0.13210758566856384,-1.4878932237625122,0.3103841543197632
1772567341298891000,3.43489111328125,0.02833082526922226,-1.0340505838394165,0.3459770381450653
1772567341308919000,3.4449189453125,0.2545098066329956,-0.5220140218734741,0.34756729006767273
1772567341318948000,3.454947998046875,0.4823938310146332,-0.06850861012935638,0.2509249150753021
1772567341328977200,3.46497705078125,0.6621224880218506,0.1721378117799759,0.043673980981111526
1772567341339006000,3.475005859375,0.8217246532440186,0.17886576056480408,-0.21137163043022156
1772567341349035000,3.485034912109375,0.9989266991615295,-0.12404765188694,-0.4745192229747772
1772567341359062800,3.495062744140625,1.1885119676589966,-0.7188774347305298,-0.688635528087616
1772567341369092000,3.505092041015625,1.3648065328598022,-1.451943278312683,-0.8101168274879456
1772567341379121200,3.51512109375,1.4881137609481812,-2.0886728763580322,-0.8295719623565674
1772567341389150000,3.52514990234375,1.5153108835220337,-2.4315807819366455,-0.8150705099105835
1772567341399179000,3.535178955078125,1.4009935855865479,-2.4053683280944824,-0.8348276615142822
1772567341409207000,3.54520703125,1.1959786415100098,-2.0595197677612305,-0.9369409084320068
1772567341419235800,3.55523583984375,0.9744504690170288,-1.5247081518173218,-1.1065092086791992
1772567341429265000,3.565264892578125,0.7911573052406311,-0.9342048168182373,-1.2650963068008423
1772567341439294200,3.575294189453125,0.6439419984817505,-0.3445471525192261,-1.3490498065948486
1772567341449323000,3.585322998046875,0.48186028003692627,0.15251027047634125,-1.3244229555130005
1772567341459351000,3.59535107421875,0.3059917688369751,0.5452144145965576,-1.2233713865280151
1772567341469379800,3.6053798828125,0.15963341295719147,0.8020817637443542,-1.0822653770446777
1772567341479409000,3.615408935546875,0.04200264811515808,0.9165662527084351,-0.9087033867835999
1772567341489438000,3.62543798828125,-0.0689263790845871,0.9333757758140564,-0.6870707869529724
1772567341499467000,3.635467041015625,-0.19299106299877167,0.913835883140564,-0.40864020586013794
1772567341509495000,3.6454951171875,-0.3172224760055542,0.8097339272499084,-0.09951159358024597
1772567341519524000,3.655524169921875,-0.3746711015701294,0.6556969285011292,0.18254566192626953
1772567341529553000,3.665552978515625,-0.3352392315864563,0.5264826416969299,0.4058297574520111
1772567341539582000,3.67558203125,-0.26466840505599976,0.5280779004096985,0.581230878829956
1772567341549611000,3.685611083984375,-0.21764786541461945,0.6782182455062866,0.7129139304161072
1772567341559639000,3.69563916015625,-0.20364443957805634,0.9112975597381592,0.7930660247802734
1772567341569668000,3.705668212890625,-0.20198336243629456,1.1212159395217896,0.7940812110900879
1772567341579697200,3.715697265625,-0.21851174533367157,1.2634207010269165,0.7193886041641235
1772567341589726000,3.725725830078125,-0.25538691878318787,1.3435221910476685,0.6009374260902405
1772567341599755000,3.735755126953125,-0.3067007064819336,1.3577234745025635,0.47584524750709534
1772567341609783000,3.745782958984375,-0.3759238123893738,1.3255239725112915,0.3604750335216522
1772567341619812000,3.75581201171875,-0.4631873369216919,1.3221625089645386,0.25762295722961426
1772567341629841200,3.765841064453125,-0.554819643497467,1.315120816230774,0.19811135530471802
1772567341639870000,3.775869873046875,-0.6576269268989563,1.2975341081619263,0.20022299885749817
1772567341649899000,3.78589892578125,-0.782818615436554,1.294988989830017,0.2874425947666168
1772567341659927000,3.795927001953125,-0.9330992102622986,1.3347326517105103,0.46668609976768494
1772567341669956000,3.8059560546875,-1.0691601037979126,1.3705414533615112,0.705327033996582
1772567341679985200,3.815985107421875,-1.0968514680862427,1.4111030101776123,1.0139102935791016
1772567341690014200,3.82601416015625,-0.9551872611045837,1.5180397033691406,1.3357293605804443
1772567341700043000,3.83604296875,-0.5890750288963318,1.4024739265441895,1.5355415344238281
1772567341710071000,3.846071044921875,-0.019377239048480988,1.0495076179504395,1.538340449333191
1772567341720099800,3.856099853515625,0.598286509513855,0.5687980055809021,1.3437988758087158
1772567341730129000,3.86612890625,1.0889898538589478,0.09895721077919006,1.0373331308364868
1772567341740158200,3.876158203125,1.3508573770523071,-0.4090823233127594,0.6876534223556519
1772567341750187000,3.88618701171875,1.365871548652649,-0.9666280150413513,0.3857674300670624
1772567341760215000,3.896215087890625,1.2096872329711914,-1.4343371391296387,0.17340722680091858
1772567341770244000,3.906244140625,0.9510629773139954,-1.6617324352264404,0.06075412407517433
1772567341780273000,3.91627294921875,0.6337481141090393,-1.5080562829971313,0.024839535355567932
1772567341790302000,3.926302001953125,0.2773904800415039,-1.0130640268325806,-0.005720681510865688
1772567341800330000,3.936330078125,-0.05364789068698883,-0.3465746343135834,-0.10712746530771255
1772567341810359000,3.946359130859375,-0.27031365036964417,0.21890735626220703,-0.32120615243911743
1772567341820388000,3.95638818359375,-0.3641645014286041,0.4992676377296448,-0.6167696118354797
1772567341830417000,3.9664169921875,-0.3523942232131958,0.4705899655818939,-0.9153140187263489
1772567341840446000,3.976446044921875,-0.2557891309261322,0.1724485456943512,-1.1466723680496216
1772567341850474200,3.98647412109375,-0.0819527879357338,-0.2931305170059204,-1.255527138710022
1772567341860501000,3.9965009765625,0.13436593115329742,-0.8073488473892212,-1.2386354207992554
1772567341870530000,4.006530029296875,0.346829354763031,-1.1762652397155762,-1.1253623962402344
1772567341880558800,4.016558837890625,0.5057468414306641,-1.3384355306625366,-0.9791048765182495
1772567341890588200,4.026588134765625,0.5705817937850952,-1.2626248598098755,-0.8577731847763062
1772567341900617200,4.0366171875,0.5505329370498657,-1.0055387020111084,-0.7795808911323547
1772567341910645000,4.04664501953125,0.49834150075912476,-0.7199543714523315,-0.7424010634422302
1772567341920674000,4.056674072265625,0.44025740027427673,-0.46555620431900024,-0.7024933099746704
1772567341930702800,4.066702880859375,0.384731262922287,-0.23826251924037933,-0.6242936849594116
1772567341940732000,4.07673193359375,0.3430567979812622,-0.058531105518341064,-0.48966580629348755
1772567341950761000,4.086760986328125,0.31121861934661865,0.02478884533047676,-0.2972756028175354
1772567341960789000,4.0967890625,0.27726465463638306,0.030295729637145996,-0.0595107302069664
1772567341970818000,4.106818115234375,0.2099830061197281,-0.022589916363358498,0.1961357742547989
1772567341980847000,4.11684716796875,0.11616488546133041,-0.06516613811254501,0.42640334367752075
1772567341990876000,4.1268759765625,0.03430641442537308,-0.018408987671136856,0.6079182028770447
1772567342000905000,4.136905029296875,-0.023255417123436928,0.12388290464878082,0.7306805849075317
1772567342010933000,4.14693310546875,-0.0608726367354393,0.3823239207267761,0.8134065270423889
1772567342020962000,4.156962158203125,-0.07418737560510635,0.745316743850708,0.8634052276611328
1772567342030991000,4.1669912109375,-0.09311363101005554,1.121170997619629,0.8529388904571533
1772567342041020000,4.17702001953125,-0.13854768872261047,1.4224551916122437,0.8043625950813293
1772567342051049000,4.187049072265625,-0.2087486833333969,1.6329575777053833,0.7332215905189514
1772567342061077000,4.197076904296875,-0.27269917726516724,1.7280515432357788,0.6555126905441284
1772567342071106000,4.20710595703125,-0.3203076720237732,1.613916277885437,0.5611711740493774
1772567342081135000,4.217135009765625,-0.34299248456954956,1.3362795114517212,0.475578248500824
1772567342091164200,4.2271640625,-0.3240519165992737,0.9382632970809937,0.4004085659980774
1772567342101193000,4.23719287109375,-0.2845021188259125,0.4464581608772278,0.342384934425354
1772567342111220700,4.247220703125,-0.27063316106796265,0.023109927773475647,0.36135244369506836
1772567342121249800,4.257249755859375,-0.30580392479896545,-0.14698457717895508,0.48191505670547485
1772567342131278800,4.26727880859375,-0.3995363116264343,-0.2133287787437439,0.6502311825752258
1772567342141308000,4.277307861328125,-0.4679049849510193,-0.35356605052948,0.8173954486846924
1772567342151335700,4.287335693359375,-0.3871661424636841,-0.6231429576873779,0.9901272058486938
1772567342161364700,4.29736474609375,-0.10263002663850784,-0.9641562104225159,1.164149522781372
1772567342171393800,4.307393798828125,0.3272717595100403,-1.3968713283538818,1.3006099462509155
1772567342181422600,4.317422607421875,0.7753084301948547,-1.7337234020233154,1.3846989870071411
1772567342191452000,4.327451904296875,1.0731396675109863,-1.819230556488037,1.3784615993499756
1772567342201479700,4.337479736328125,1.149605393409729,-1.653894305229187,1.238642930984497
1772567342211508700,4.3475087890625,1.0855414867401123,-1.3914878368377686,0.9204714894294739
1772567342221537800,4.357537841796875,0.9536710381507874,-1.0663195848464966,0.47032058238983154
1772567342231566600,4.367566650390625,0.7385227680206299,-0.7108752727508545,-0.011505144648253918
1772567342241595600,4.377595703125,0.4218406677246094,-0.31724995374679565,-0.44347864389419556
1772567342251624000,4.3876240234375,0.06991550326347351,0.07814216613769531,-0.7606835961341858
1772567342261652700,4.39765283203125,-0.22840513288974762,0.41342002153396606,-0.9689220190048218
1772567342271681800,4.407681884765625,-0.4196415841579437,0.5987275838851929,-1.0792487859725952
1772567342281710800,4.4177109375,-0.4909203052520752,0.6084102988243103,-1.14987051486969
1772567342291739600,4.42773974609375,-0.462649941444397,0.3527226746082306,-1.2417716979980469
1772567342301768000,4.437767822265625,-0.33066660165786743,-0.12030265480279922,-1.3638752698898315
1772567342311796700,4.447796630859375,-0.10717656463384628,-0.6769391894340515,-1.450604796409607
1772567342321825800,4.45782568359375,0.1696438491344452,-1.2237639427185059,-1.4725713729858398
1772567342331854800,4.467854736328125,0.4476299583911896,-1.7101970911026,-1.422275424003601
1772567342341883600,4.477883544921875,0.6968717575073242,-2.0632777214050293,-1.3380992412567139
1772567342351911700,4.48791162109375,0.8823565244674683,-2.216315269470215,-1.2524744272232056
1772567342361940700,4.497940673828125,0.9737405180931091,-2.1616179943084717,-1.204994559288025
1772567342371969800,4.5079697265625,0.9814700484275818,-1.942274808883667,-1.2075505256652832
1772567342381998800,4.517998779296875,0.925478458404541,-1.622782588005066,-1.2328630685806274
1772567342392028000,4.52802783203125,0.8184779286384583,-1.2648603916168213,-1.261948823928833
1772567342402055700,4.5380556640625,0.6575554013252258,-0.9171032309532166,-1.2764135599136353
1772567342412084700,4.548084716796875,0.4273051619529724,-0.5797313451766968,-1.2659733295440674
1772567342422113500,4.558113525390625,0.1366506814956665,-0.22448137402534485,-1.2137806415557861
1772567342432142800,4.568142822265625,-0.18775802850723267,0.15980945527553558,-1.1078546047210693
1772567342442171000,4.5781708984375,-0.49767300486564636,0.5410388112068176,-0.9579325914382935
1772567342452199700,4.58819970703125,-0.7446717619895935,0.9015317559242249,-0.7717912197113037
1772567342462228700,4.598228759765625,-0.9192907214164734,1.2097493410110474,-0.5577561855316162
1772567342472257800,4.6082578125,-1.0257256031036377,1.4593055248260498,-0.3275575041770935
1772567342482286600,4.61828662109375,-1.080413579940796,1.6346848011016846,-0.08849512785673141
1772567342492315000,4.62831494140625,-1.0909923315048218,1.7027510404586792,0.12087392807006836
1772567342502345000,4.638344970703125,-1.061844825744629,1.6678085327148438,0.2951226830482483
1772567342512373800,4.648373779296875,-1.0030864477157593,1.562853217124939,0.43041250109672546
1772567342522401800,4.65840185546875,-0.9424289464950562,1.3990957736968994,0.5149253010749817
1772567342532430600,4.6684306640625,-0.8961206078529358,1.2010656595230103,0.5477638840675354
1772567342542459600,4.678459716796875,-0.8382618427276611,1.0143775939941406,0.5443145632743835
1772567342552488700,4.68848876953125,-0.7496228218078613,0.848312258720398,0.5311866998672485
1772567342562517800,4.698517822265625,-0.6426108479499817,0.7166095972061157,0.5382629632949829
1772567342572545800,4.7085458984375,-0.5299684405326843,0.6331198811531067,0.6072465181350708
1772567342582574800,4.718574951171875,-0.4334016740322113,0.5587663054466248,0.7295945286750793
1772567342592603600,4.728603759765625,-0.3566216230392456,0.47713932394981384,0.8854048252105713
1772567342602632700,4.7386328125,-0.3175352215766907,0.4902908205986023,1.0666342973709106
1772567342612661800,4.748661865234375,-0.3107373118400574,0.6294905543327332,1.2214899063110352
1772567342622689800,4.758689697265625,-0.33577823638916016,0.8521736860275269,1.2941316366195679
1772567342632718800,4.76871875,-0.40758055448532104,1.1470872163772583,1.2581769227981567
1772567342642748000,4.778747802734375,-0.5062010884284973,1.3417863845825195,1.1123648881912231
1772567342652776700,4.788776611328125,-0.4961085915565491,1.2786445617675781,0.9264131784439087
1772567342662805800,4.7988056640625,-0.26750361919403076,1.0103869438171387,0.7646213173866272
1772567342672833800,4.808833740234375,0.1288813054561615,0.6492902636528015,0.6924572587013245
1772567342682862800,4.81886279296875,0.556032121181488,0.3240557014942169,0.6758953332901001
1772567342692892000,4.828891845703125,0.9517465233802795,-0.07082759588956833,0.6276465058326721
1772567342702920700,4.838920654296875,1.246001958847046,-0.712646484375,0.4560619592666626
1772567342712948700,4.84894873046875,1.3913710117340088,-1.5232282876968384,0.20679545402526855
1772567342722977800,4.858977783203125,1.3304224014282227,-2.2821648120880127,-0.025577062740921974
1772567342733006600,4.869006591796875,1.036588430404663,-2.6961214542388916,-0.18024671077728271
1772567342743036000,4.879035888671875,0.544076144695282,-2.5332937240600586,-0.2685917615890503
1772567342753065000,4.88906494140625,-0.015375141054391861,-1.8825472593307495,-0.33291342854499817
1772567342763092700,4.8990927734375,-0.4575973153114319,-0.9297864437103271,-0.4186006188392639
1772567342773121800,4.909121826171875,-0.6866985559463501,-0.0005384031683206558,-0.5391761064529419
1772567342783150600,4.919150634765625,-0.7070760130882263,0.778825044631958,-0.6901072859764099
1772567342793179600,4.9291796875,-0.5870503783226013,1.3738816976547241,-0.8159775137901306
1772567342803208700,4.939208740234375,-0.39776062965393066,1.6208001375198364,-0.906215250492096
1772567342813236700,4.94923681640625,-0.1740899682044983,1.5672228336334229,-0.9354596138000488
1772567342823265800,4.959265869140625,0.044406160712242126,1.187212347984314,-0.9076953530311584
1772567342833294800,4.969294921875,0.2729950249195099,0.5011744499206543,-0.8357823491096497
1772567342843323600,4.97932373046875,0.5011659264564514,-0.3927919864654541,-0.7371090054512024
1772567342853352700,4.989352783203125,0.6908096671104431,-1.2946587800979614,-0.6360669136047363
1772567342863380700,4.999380615234375,0.7713841199874878,-1.96726655960083,-0.572567880153656
1772567342873409800,5.009409912109375,0.7837721705436707,-2.2186498641967773,-0.5436274409294128
1772567342883438800,5.01943896484375,0.7507396936416626,-2.0814273357391357,-0.5446066856384277
1772567342893467600,5.029467529296875,0.7028452754020691,-1.6248202323913574,-0.5474509000778198
1772567342903496700,5.03949658203125,0.6338601112365723,-0.9805154204368591,-0.5317302346229553
1772567342913525000,5.04952490234375,0.5535621643066406,-0.3016081154346466,-0.48405352234840393
1772567342923553800,5.0595537109375,0.5080450177192688,0.24246317148208618,-0.4070223867893219
1772567342933582800,5.069582763671875,0.5124574899673462,0.552446722984314,-0.2804214060306549
1772567342943612000,5.07961181640625,0.5399226546287537,0.6449359059333801,-0.10268151760101318
1772567342953639700,5.0896396484375,0.544044017791748,0.6338946223258972,0.12231571227312088
1772567342963668700,5.099668701171875,0.49607595801353455,0.6048624515533447,0.36887943744659424
1772567342973697500,5.109697509765625,0.3696364760398865,0.6211099028587341,0.6018383502960205
1772567342983726800,5.119726806640625,0.2057007998228073,0.7191038131713867,0.781792938709259
1772567342993756000,5.129755859375,0.043916329741477966,0.8565257787704468,0.9107565879821777
1772567343003783700,5.13978369140625,-0.08713996410369873,0.98836749792099,0.9978176951408386
1772567343013812700,5.149812744140625,-0.18997809290885925,1.1041287183761597,1.0676919221878052
1772567343023841800,5.159841796875,-0.2858058214187622,1.1973025798797607,1.1157695055007935
1772567343033870600,5.16987060546875,-0.38191816210746765,1.2467989921569824,1.1525157690048218
1772567343043899600,5.179899658203125,-0.45273908972740173,1.2368566989898682,1.1920926570892334
1772567343053927700,5.189927734375,-0.49097445607185364,1.1121703386306763,1.208701252937317
1772567343063956700,5.199956787109375,-0.501218855381012,0.8766810297966003,1.216691017150879
1772567343073985800,5.20998583984375,-0.531036376953125,0.5971465110778809,1.2258877754211426
1772567343084014600,5.2200146484375,-0.580121636390686,0.37273573875427246,1.2715657949447632
1772567343094043600,5.230043701171875,-0.6515258550643921,0.2231353372335434,1.347659707069397
1772567343104072000,5.240072021484375,-0.6754932403564453,0.09430812299251556,1.43327796459198
1772567343114101200,5.250101318359375,-0.6214929223060608,-0.054201580584049225,1.475439429283142
1772567343124130300,5.26013037109375,-0.4976988136768341,-0.24295099079608917,1.4549137353897095
1772567343134159000,5.2701591796875,-0.3163285255432129,-0.3537312150001526,1.3999457359313965
1772567343144188200,5.280188232421875,-0.08583964407444,-0.3465159237384796,1.3245489597320557
1772567343154216200,5.29021630859375,0.21164245903491974,-0.3096690773963928,1.1897311210632324
1772567343164245200,5.300245361328125,0.5493078231811523,-0.41815507411956787,0.9610201716423035
1772567343174274300,5.3102744140625,0.8363983035087585,-0.6056299805641174,0.6716709733009338
1772567343184303400,5.320303466796875,0.9678183794021606,-0.6900641918182373,0.38156241178512573
1772567343194331100,5.3303310546875,0.8982722759246826,-0.6147406101226807,0.1288640946149826
1772567343204360200,5.340360107421875,0.7109543085098267,-0.4076923727989197,-0.07380406558513641
1772567343214389000,5.350388916015625,0.5193862318992615,-0.13471853733062744,-0.25834736227989197
1772567343224418000,5.36041796875,0.38113757967948914,0.1488250195980072,-0.45041561126708984
1772567343234447400,5.370447265625,0.27827292680740356,0.3755140006542206,-0.6693207025527954
1772567343244475100,5.38047509765625,0.17829039692878723,0.4738083481788635,-0.9338000416755676
1772567343254504200,5.390504150390625,0.06324999779462814,0.4035884439945221,-1.222880244255066
1772567343264533200,5.400533203125,-0.0709805116057396,0.18815815448760986,-1.5051921606063843
1772567343274562000,5.41056201171875,-0.2278750240802765,-0.03288549184799194,-1.707328200340271
1772567343284591000,5.420591064453125,-0.3933763802051544,-0.0876411497592926,-1.7915749549865723
1772567343294619100,5.430619140625,-0.5460995435714722,0.005601854994893074,-1.7822121381759644
1772567343304648200,5.440648193359375,-0.657433271408081,0.18892401456832886,-1.7391728162765503
1772567343314677200,5.45067724609375,-0.7044473886489868,0.42298319935798645,-1.6909369230270386
1772567343324706000,5.4607060546875,-0.6895784139633179,0.6191404461860657,-1.6489166021347046
1772567343334734000,5.470734130859375,-0.6342322826385498,0.719802737236023,-1.585207223892212
1772567343344763400,5.480763427734375,-0.559351921081543,0.7050855755805969,-1.4699575901031494
1772567343354792200,5.490792236328125,-0.461358904838562,0.5890429019927979,-1.3035768270492554
1772567343364821200,5.5008212890625,-0.352384477853775,0.35648131370544434,-1.1064400672912598
1772567343374850300,5.510850341796875,-0.2729800045490265,0.02654973417520523,-0.9109552502632141
1772567343384878000,5.520878173828125,-0.2471366822719574,-0.2964858412742615,-0.7277358770370483
1772567343394907100,5.5309072265625,-0.27982446551322937,-0.5224794149398804,-0.5643686652183533
1772567343404936200,5.540936279296875,-0.3568526804447174,-0.6234278678894043,-0.4261804223060608
1772567343414965200,5.55096533203125,-0.4442262351512909,-0.5954753756523132,-0.31233617663383484
1772567343424994300,5.560994384765625,-0.5162194967269897,-0.4689847528934479,-0.21082395315170288
1772567343435022000,5.57102197265625,-0.560725748538971,-0.27420830726623535,-0.10633830726146698
1772567343445051100,5.581051025390625,-0.5737518072128296,-0.04056201130151749,0.011621091514825821
1772567343455080200,5.591080078125,-0.5734240412712097,0.19780319929122925,0.16759754717350006
1772567343465109000,5.60110888671875,-0.568020761013031,0.4275112450122833,0.3577427268028259
1772567343475138300,5.61113818359375,-0.5738135576248169,0.6125527024269104,0.5401108264923096
1772567343485166000,5.621166015625,-0.5772829055786133,0.7073079347610474,0.6723066568374634
1772567343495195100,5.631195068359375,-0.564751148223877,0.7076035141944885,0.7490163445472717
1772567343505224200,5.64122412109375,-0.5382335186004639,0.647502601146698,0.7732023596763611
1772567343515253000,5.6512529296875,-0.5101202130317688,0.512286365032196,0.7693187594413757
1772567343525281300,5.66128125,-0.4958230257034302,0.2853192687034607,0.7651922106742859
1772567343535310300,5.671310302734375,-0.5199985504150391,-0.015539457090198994,0.7836650013923645
1772567343545339100,5.681339111328125,-0.5811803936958313,-0.3578760325908661,0.8243283033370972
1772567343555368200,5.6913681640625,-0.6427111625671387,-0.6917961835861206,0.9387579560279846
1772567343565397200,5.701397216796875,-0.677270770072937,-0.8835573792457581,1.158016562461853
1772567343575425000,5.711425048828125,-0.7358981966972351,-0.8366939425468445,1.453027367591858
1772567343585454300,5.721454345703125,-0.8501453995704651,-0.538912296295166,1.7447212934494019
1772567343595483100,5.731483154296875,-0.9762306809425354,-0.07201597094535828,1.8954352140426636
1772567343605512200,5.74151220703125,-0.9987444877624512,0.3982498049736023,1.8678959608078003
1772567343615541200,5.751541259765625,-0.8434914350509644,0.6323986649513245,1.6939674615859985
1772567343625569000,5.761569091796875,-0.5852673649787903,0.6814011335372925,1.4465192556381226
1772567343635598000,5.77159814453125,-0.3118990659713745,0.5535131692886353,1.2285287380218506
1772567343645627100,5.781627197265625,-0.0804450586438179,0.21747443079948425,1.053501009941101
1772567343655656200,5.79165625,0.10362376272678375,-0.2941560447216034,0.9152450561523438
1772567343665685200,5.801685302734375,0.2095232903957367,-0.8951969146728516,0.8083342909812927
1772567343675713300,5.81171337890625,0.18620696663856506,-1.4302080869674683,0.7349911332130432
1772567343685742000,5.8217421875,0.01920413412153721,-1.671789526939392,0.7025575637817383
1772567343695771100,5.831771240234375,-0.22491183876991272,-1.5617164373397827,0.6566904187202454
1772567343705800200,5.84180029296875,-0.47465482354164124,-1.0811402797698975,0.6173512935638428
1772567343715828200,5.851828125,-0.6041049957275391,-0.551526665687561,0.5171137452125549
1772567343725857300,5.861857177734375,-0.6210275292396545,-0.09186747670173645,0.3038805425167084
1772567343735886000,5.871885986328125,-0.5467947721481323,0.2711476683616638,-0.014866745099425316
1772567343745915100,5.8819150390625,-0.41548314690589905,0.37506821751594543,-0.4148794114589691
1772567343755944200,5.891944091796875,-0.23760657012462616,0.14391089975833893,-0.8676465749740601
1772567343765972200,5.90197216796875,-0.041096437722444534,-0.31443509459495544,-1.3000677824020386
1772567343776001300,5.912001220703125,0.11618304997682571,-0.80609130859375,-1.6097266674041748
1772567343786030300,5.9220302734375,0.19578120112419128,-1.26797616481781,-1.785359501838684
1772567343796059100,5.93205908203125,0.2163342386484146,-1.7034883499145508,-1.7921314239501953
1772567343806088200,5.942088134765625,0.22911182045936584,-2.0559072494506836,-1.6331143379211426
1772567343816116000,5.952115966796875,0.20508399605751038,-2.3175604343414307,-1.3728042840957642
1772567343826145300,5.962145263671875,0.10919447988271713,-2.4466776847839355,-1.1282272338867188
1772567343836174300,5.97217431640625,-0.043182387948036194,-2.446467876434326,-0.9666730165481567
1772567343846203100,5.982203125,-0.18659920990467072,-2.318437337875366,-0.8940219879150391
1772567343856231200,5.992231201171875,-0.24365359544754028,-2.0833919048309326,-0.8823046684265137
1772567343866260200,6.00226025390625,-0.16301654279232025,-1.6605830192565918,-0.9044898748397827
1772567343876289000,6.0122890625,-0.09230374544858932,-1.3624800443649292,-1.018748164176941
1772567343886318000,6.022318115234375,-0.08218399435281754,-1.0002262592315674,-1.1491117477416992
1772567343896347400,6.032347412109375,-0.10507761687040329,-0.4757238030433655,-1.256907343864441
1772567343906375200,6.042375244140625,-0.14237011969089508,0.010155023075640202,-1.3486849069595337
1772567343916404200,6.052404296875,-0.1563916653394699,0.2698715329170227,-1.4307878017425537
1772567343926433000,6.06243310546875,-0.11992394179105759,0.4148353934288025,-1.4451942443847656
1772567343936462000,6.072462158203125,-0.06484637409448624,0.5194923877716064,-1.3412420749664307
1772567343946491100,6.0824912109375,-0.02304859086871147,0.5914251804351807,-1.1223245859146118
1772567343956519200,6.092519287109375,-0.011152733117341995,0.656939685344696,-0.8178514838218689
1772567343966548200,6.10254833984375,-0.04733843728899956,0.724335253238678,-0.46487635374069214
1772567343976577300,6.112577392578125,-0.11983391642570496,0.7554658055305481,-0.10810575634241104
1772567343986606000,6.122606201171875,-0.19612520933151245,0.699430525302887,0.18515728414058685
1772567343996634400,6.13263427734375,-0.26851892471313477,0.5155370235443115,0.36370840668678284
1772567344006663200,6.1426630859375,-0.3188020586967468,0.2807290852069855,0.4280434548854828
1772567344016692200,6.152692138671875,-0.35921990871429443,0.17206814885139465,0.38720354437828064
1772567344026721300,6.16272119140625,-0.4163340628147125,0.24222911894321442,0.24305862188339233
1772567344036750000,6.17275,-0.5261105895042419,0.4612540006637573,0.004579667467623949
1772567344046778000,6.182778076171875,-0.6545585989952087,0.7611140012741089,-0.28353679180145264
1772567344056807200,6.19280712890625,-0.7302195429801941,1.0923197269439697,-0.5404641032218933
1772567344066836200,6.202836181640625,-0.6851159334182739,1.2220393419265747,-0.6986779570579529
1772567344076865300,6.212865234375,-0.4955829083919525,0.9761949777603149,-0.6346042156219482
1772567344086894300,6.222894287109375,-0.16763536632061005,0.552707314491272,-0.2557404935359955
1772567344096922000,6.232922119140625,0.15055479109287262,-0.009626653045415878,0.3997010886669159
1772567344106951200,6.242951171875,0.3185446262359619,-0.4164242446422577,1.1611700057983398
1772567344116980700,6.252980712890625,0.33960801362991333,-0.3730333745479584,1.8169786930084229
1772567344127009500,6.263009521484375,0.25591737031936646,-0.06294316053390503,2.1316583156585693
1772567344137038600,6.27303857421875,0.15298713743686676,0.301104873418808,1.9964194297790527
1772567344147066600,6.283066650390625,0.06435154378414154,0.5726644396781921,1.4891598224639893
1772567344157095700,6.293095703125,0.0008629439398646355,0.6478189826011658,0.8329017162322998
1772567344167124700,6.303124755859375,-0.0006273612380027771,0.4887811243534088,0.2585148811340332
1772567344177153500,6.313153564453125,0.07554709166288376,0.18696635961532593,-0.12025605142116547
1772567344187181800,6.323181884765625,0.19358105957508087,-0.09141066670417786,-0.3026692867279053
1772567344197211000,6.3332109375,0.3046998977661133,-0.3244626820087433,-0.33926746249198914
1772567344207239700,6.34323974609375,0.3874336779117584,-0.48741430044174194,-0.29827767610549927
1772567344217268700,6.353268798828125,0.38675373792648315,-0.48111969232559204,-0.2434319257736206
1772567344227297800,6.3632978515625,0.2935556173324585,-0.32734769582748413,-0.22485265135765076
1772567344237325600,6.37332568359375,0.12501533329486847,-0.1261862963438034,-0.264973521232605
1772567344247354600,6.383354736328125,-0.05064624547958374,0.018845729529857635,-0.35781529545783997
1772567344257383700,6.3933837890625,-0.20057730376720428,0.011991175822913647,-0.4939216673374176
1772567344267412700,6.403412841796875,-0.30331915616989136,-0.14681179821491241,-0.6610592603683472
1772567344277441800,6.41344189453125,-0.3671896159648895,-0.2531435787677765,-0.8176520466804504
1772567344287469600,6.423469482421875,-0.39852383732795715,-0.26217541098594666,-0.9501115679740906
1772567344297498600,6.43349853515625,-0.3726544976234436,-0.20418883860111237,-1.0400949716567993
1772567344307527700,6.443527587890625,-0.28915053606033325,-0.13747292757034302,-1.068724513053894
1772567344317556700,6.453556640625,-0.1631394475698471,-0.06750012934207916,-1.0359700918197632
1772567344327584800,6.463584716796875,-0.03321554511785507,-0.037261806428432465,-0.9207862615585327
1772567344337613600,6.473613525390625,0.07501740008592606,-0.06846241652965546,-0.7436707615852356
1772567344347642600,6.483642578125,0.1545383185148239,-0.1563352793455124,-0.5214467644691467
1772567344357671700,6.493671630859375,0.17379043996334076,-0.2951251268386841,-0.3055756688117981
1772567344367700500,6.503700439453125,0.13305872678756714,-0.44274550676345825,-0.12666502594947815
1772567344377728800,6.513728759765625,0.029793601483106613,-0.5788571834564209,0.014436312019824982
1772567344387757800,6.5237578125,-0.107150137424469,-0.6358970403671265,0.1088821291923523
1772567344397786600,6.53378662109375,-0.23296979069709778,-0.6324061155319214,0.16017265617847443
1772567344407815700,6.543815673828125,-0.29559534788131714,-0.5431331992149353,0.1926429718732834
1772567344417844700,6.5538447265625,-0.24600622057914734,-0.30833229422569275,0.21952883899211884
1772567344427872800,6.563872802734375,-0.11938171088695526,0.05387892201542854,0.26095059514045715
1772567344437901800,6.57390185546875,0.007048542611300945,0.43446287512779236,0.329497754573822
1772567344447930600,6.5839306640625,0.04325821250677109,0.7064802646636963,0.42045295238494873
1772567344457959700,6.593959716796875,-0.0004786369390785694,0.8712366819381714,0.5159787535667419
1772567344467987700,6.60398779296875,-0.09406238049268723,0.9366948008537292,0.5972469449043274
1772567344478016500,6.6140166015625,-0.2437179982662201,0.8336341977119446,0.6482696533203125
1772567344488045600,6.624045654296875,-0.43108683824539185,0.5921808481216431,0.6990705132484436
1772567344498075000,6.634074951171875,-0.586590051651001,0.3180667459964752,0.7679566740989685
1772567344508103700,6.644103759765625,-0.6451244950294495,0.13380154967308044,0.844065248966217
1772567344518131700,6.654131591796875,-0.6006298065185547,0.07685137540102005,0.941919207572937
1772567344528160500,6.664160400390625,-0.4870603680610657,0.10531018674373627,1.032902717590332
1772567344538189600,6.674189453125,-0.3150058090686798,0.19817517697811127,1.1022340059280396
1772567344548218600,6.684218505859375,-0.15325793623924255,0.29442447423934937,1.1250581741333008
1772567344558247700,6.69424755859375,-0.07291357219219208,0.32995402812957764,1.0511692762374878
1772567344568275700,6.704275634765625,-0.07979439198970795,0.2726457417011261,0.8859876990318298
1772567344578304800,6.7143046875,-0.15407338738441467,0.11692766845226288,0.6937741637229919
1772567344588333600,6.72433349609375,-0.20955872535705566,-0.07080788165330887,0.5220674276351929
1772567344598362600,6.734362548828125,-0.17592178285121918,-0.24427083134651184,0.41054919362068176
1772567344608390700,6.744390625,-0.05817517265677452,-0.2740100920200348,0.3772945702075958
1772567344618419700,6.754419677734375,0.058741334825754166,-0.20634596049785614,0.41976308822631836
1772567344628448800,6.76444873046875,0.14179600775241852,-0.043235860764980316,0.5130778551101685
1772567344638477600,6.7744775390625,0.18660703301429749,0.1231243908405304,0.6048676371574402
1772567344648506600,6.784506591796875,0.23878660798072815,0.15501521527767181,0.6465993523597717
1772567344658534700,6.79453466796875,0.30457139015197754,0.1822841614484787,0.5894026756286621
1772567344668563700,6.804563720703125,0.35321030020713806,0.20023013651371002,0.4558528661727905
1772567344678592800,6.8145927734375,0.3795839548110962,0.1550636887550354,0.2653076946735382
1772567344688621800,6.824621826171875,0.3500465452671051,-0.014275281690061092,0.03542761877179146
1772567344698649600,6.834649658203125,0.26617318391799927,-0.31523197889328003,-0.21022605895996094
1772567344708678700,6.8446787109375,0.167298823595047,-0.6520928144454956,-0.4348495900630951
1772567344718707700,6.854707763671875,0.055160000920295715,-0.8369119167327881,-0.6039320230484009
1772567344728736500,6.864736572265625,-0.0415809191763401,-0.7735098004341125,-0.7316955327987671
1772567344738765800,6.874765869140625,-0.10116478055715561,-0.5387569665908813,-0.8272489905357361
1772567344748793600,6.884793701171875,-0.11086694151163101,-0.2561526596546173,-0.9061350226402283
1772567344758822700,6.89482275390625,-0.10407321900129318,-0.02289678156375885,-0.9603191614151001
1772567344768851700,6.904851806640625,-0.09299233555793762,0.12948396801948547,-0.9869113564491272
1772567344778880500,6.914880615234375,-0.06078733503818512,0.20958185195922852,-0.9951531887054443
1772567344788909600,6.92490966796875,-0.0022699637338519096,0.20731602609157562,-0.9736119508743286
1772567344798937900,6.934937744140625,0.06745973229408264,0.10639677196741104,-0.9340662956237793
1772567344808966700,6.944966552734375,0.11188231408596039,-0.10349840670824051,-0.8768450617790222
1772567344818995700,6.95499560546875,0.12517160177230835,-0.4360629916191101,-0.7934334874153137
1772567344829024800,6.965024658203125,0.116193026304245,-0.795976996421814,-0.6737545132637024
1772567344839052800,6.975052734375,0.12730175256729126,-0.9895493984222412,-0.504906415939331
1772567344849081900,6.985081787109375,0.15211069583892822,-0.9608144164085388,-0.2918764352798462
1772567344859110700,6.995110595703125,0.15494051575660706,-0.6872928142547607,-0.07443898916244507
1772567344869139700,7.0051396484375,0.10881030559539795,-0.2860947847366333,0.0778149962425232
1772567344879168800,7.015168701171875,0.028956018388271332,0.10268847644329071,0.12350662052631378
1772567344889196500,7.025196533203125,-0.02672509104013443,0.4370579123497009,0.10098585486412048
1772567344899225600,7.0352255859375,-0.0669088140130043,0.6811019778251648,0.06843049079179764
1772567344909255000,7.0452548828125,-0.12097150832414627,0.8098391890525818,0.06571699678897858
1772567344919283700,7.05528369140625,-0.18817630410194397,0.7832439541816711,0.12091302871704102
1772567344929312800,7.065312744140625,-0.2556690573692322,0.6288605332374573,0.24920494854450226
1772567344939340500,7.075340576171875,-0.30107104778289795,0.46013519167900085,0.4221186637878418
1772567344949369600,7.08536962890625,-0.33367934823036194,0.32624396681785583,0.6010855436325073
1772567344959398700,7.095398681640625,-0.35912054777145386,0.25432345271110535,0.7326287031173706
1772567344969427700,7.105427734375,-0.3721628487110138,0.2513335049152374,0.7985264658927917
1772567344979455700,7.115455810546875,-0.36018994450569153,0.3408583402633667,0.784291684627533
1772567344989484800,7.12548486328125,-0.3240726888179779,0.5219780206680298,0.724284827709198
1772567344999513600,7.135513671875,-0.27000629901885986,0.7131747007369995,0.637088418006897
1772567345009542700,7.145542724609375,-0.22908203303813934,0.8337405323982239,0.5599579215049744
1772567345019571700,7.15557177734375,-0.20382185280323029,0.8153005242347717,0.5009339451789856
1772567345029599700,7.165599853515625,-0.1783583015203476,0.6158388257026672,0.472696989774704
1772567345039628800,7.17562890625,-0.14497074484825134,0.3079649806022644,0.4723069965839386
1772567345049657600,7.18565771484375,-0.07056094706058502,-0.011069448664784431,0.5086348652839661
1772567345059686700,7.195686767578125,0.008996226824820042,-0.29598939418792725,0.5441600680351257
1772567345069714700,7.205714599609375,0.02170722931623459,-0.4799903929233551,0.5587395429611206
1772567345079743700,7.21574365234375,-0.06787589192390442,-0.5737240314483643,0.5500138401985168
1772567345089772800,7.225772705078125,-0.21734046936035156,-0.5261272192001343,0.5731721520423889
1772567345099801900,7.2358017578125,-0.34228646755218506,-0.4678671658039093,0.7160984873771667
1772567345109830700,7.24583056640625,-0.46048420667648315,-0.41100361943244934,1.0434579849243164
1772567345119859000,7.25585888671875,-0.5712525844573975,-0.16241231560707092,1.5390489101409912
1772567345129888000,7.265887939453125,-0.5951775908470154,0.13607770204544067,2.047639846801758
1772567345139916800,7.275916748046875,-0.4905715882778168,0.23414582014083862,2.3417961597442627
1772567345149945900,7.28594580078125,-0.28621047735214233,0.18129006028175354,2.322277784347534
1772567345159975200,7.29597509765625,-0.0071349679492414,0.15092700719833374,1.9725987911224365
1772567345170003000,7.3060029296875,0.25492432713508606,0.1531640589237213,1.379543423652649
1772567345180032000,7.316031982421875,0.4077857434749603,0.16507796943187714,0.6602485775947571
1772567345190061000,7.32606103515625,0.46718382835388184,0.049282386898994446,-0.1014799028635025
1772567345200089900,7.33608984375,0.5006048083305359,-0.3561675548553467,-0.8495270609855652
1772567345210118100,7.3461181640625,0.5146976709365845,-0.9795956611633301,-1.5020760297775269
1772567345220147200,7.356147216796875,0.5082770586013794,-1.5037555694580078,-1.9694159030914307
1772567345230176000,7.366176025390625,0.43263503909111023,-1.712058424949646,-2.190654754638672
1772567345240205000,7.376205078125,0.2594972848892212,-1.5938665866851807,-2.1472725868225098
1772567345250234000,7.386234130859375,0.0366322286427021,-1.232711911201477,-1.9055572748184204
1772567345260262000,7.396261962890625,-0.1708536446094513,-0.7423033118247986,-1.5849072933197021
1772567345270291200,7.406291259765625,-0.3122273087501526,-0.29308846592903137,-1.2889249324798584
1772567345280320000,7.416320068359375,-0.3727245330810547,-0.056390464305877686,-1.1150941848754883
1772567345290349000,7.42634912109375,-0.35282832384109497,0.038507282733917236,-1.0332224369049072
1772567345300377000,7.436377197265625,-0.29110580682754517,0.059128012508153915,-1.032580852508545
1772567345310406000,7.446406005859375,-0.24646002054214478,-0.030213581398129463,-1.102131724357605
1772567345320435000,7.45643505859375,-0.22118619084358215,-0.19320079684257507,-1.2009477615356445
1772567345330464000,7.466464111328125,-0.20042233169078827,-0.3054295778274536,-1.252365231513977
1772567345340493000,7.4764931640625,-0.18108470737934113,-0.3348658084869385,-1.2320117950439453
1772567345350521000,7.48652099609375,-0.17007945477962494,-0.2690654993057251,-1.1275633573532104
1772567345360550000,7.4965498046875,-0.14872555434703827,-0.06618811190128326,-0.9600679874420166
1772567345370579000,7.506578857421875,-0.12533234059810638,0.23177221417427063,-0.7437018752098083
1772567345380608000,7.51660791015625,-0.12017042934894562,0.5371580123901367,-0.5002080202102661
1772567345390636800,7.52663671875,-0.1555936634540558,0.7721604108810425,-0.2455940991640091
1772567345400665000,7.5366650390625,-0.23441863059997559,0.8996028304100037,-0.003973379731178284
1772567345410694100,7.546694091796875,-0.3236694037914276,0.9003897905349731,0.21162176132202148
1772567345420723000,7.556722900390625,-0.3872162997722626,0.8440870046615601,0.3970535397529602
1772567345430752000,7.566751953125,-0.4266110956668854,0.7570394277572632,0.5233646035194397
1772567345440780000,7.576780029296875,-0.4463161528110504,0.7116318345069885,0.5832457542419434
1772567345450809000,7.58680908203125,-0.43931975960731506,0.7528796792030334,0.5734732747077942
1772567345460838100,7.596838134765625,-0.40537548065185547,0.8484321236610413,0.4934440851211548
1772567345470867000,7.606866943359375,-0.3545815348625183,0.9571881890296936,0.3673394024372101
1772567345480896000,7.61689599609375,-0.2711864709854126,1.01370370388031,0.2373930960893631
1772567345490924000,7.626924072265625,-0.16770882904529572,0.9762860536575317,0.15252214670181274
1772567345500952800,7.636952880859375,-0.06842739880084991,0.8376637697219849,0.15941481292247772
1772567345510982100,7.646982177734375,0.021241236478090286,0.657427191734314,0.2668645977973938
1772567345521011200,7.65701123046875,0.0784984827041626,0.4265648424625397,0.45866531133651733
1772567345531039000,7.6670390625,0.09978166222572327,0.17914307117462158,0.6554399132728577
1772567345541068000,7.677068115234375,0.11338269710540771,0.033601053059101105,0.7845163941383362
1772567345551096800,7.687096923828125,0.17660027742385864,-0.012145663611590862,0.8041849136352539
1772567345561126000,7.6971259765625,0.29622188210487366,-0.13684947788715363,0.7661011219024658
1772567345571155000,7.707155029296875,0.3786906599998474,-0.290756493806839,0.785669207572937
1772567345581183000,7.717182861328125,0.3995470106601715,-0.26002296805381775,0.9770183563232422
1772567345591212000,7.7272119140625,0.3880930244922638,-0.08236350864171982,1.31618070602417
1772567345601241000,7.737240966796875,0.42753472924232483,0.1163952574133873,1.6595922708511353
1772567345611270000,7.747269775390625,0.5492284297943115,0.2497410774230957,1.8360577821731567
1772567345621298200,7.757298095703125,0.6758716702461243,0.27749061584472656,1.727273941040039
1772567345631327000,7.767326904296875,0.7561025619506836,0.2893297076225281,1.3795782327651978
1772567345641356000,7.77735595703125,0.7753171324729919,0.3430698812007904,0.8775647282600403
1772567345651385000,7.787385009765625,0.7445173859596252,0.3756216764450073,0.30888473987579346
1772567345661414000,7.797413818359375,0.6626666188240051,0.2561532258987427,-0.2663619816303253
1772567345671442000,7.80744189453125,0.558897852897644,-0.18779972195625305,-0.8204547166824341
1772567345681471200,7.81747119140625,0.44591444730758667,-1.0483123064041138,-1.322548508644104
1772567345691500000,7.8275,0.2557967007160187,-2.0422585010528564,-1.7172844409942627
1772567345701529000,7.837529052734375,-0.051535654813051224,-2.7387778759002686,-1.9008241891860962
1772567345711558100,7.84755810546875,-0.387741357088089,-3.0074779987335205,-1.850199818611145
1772567345721586000,7.8575859375,-0.6185399293899536,-2.858686923980713,-1.5350056886672974
1772567345731615000,7.867614990234375,-0.683739960193634,-2.3131442070007324,-1.0437499284744263
1772567345741644000,7.87764404296875,-0.5960731506347656,-1.613958477973938,-0.5199742317199707
1772567345751673000,7.887673095703125,-0.37493064999580383,-0.9824709892272949,-0.09087829291820526
1772567345761701000,7.897701171875,-0.09001889824867249,-0.5800554156303406,0.15682904422283173
1772567345771730000,7.90772998046875,0.17415282130241394,-0.3397533595561981,0.24094179272651672
1772567345781759000,7.917759033203125,0.3857331871986389,-0.17015714943408966,0.20465892553329468
1772567345791788000,7.9277880859375,0.5137721300125122,-0.07862776517868042,0.08704813569784164
1772567345801816800,7.93781689453125,0.5380628108978271,-0.06721478700637817,-0.11234726011753082
1772567345811845000,7.94784521484375,0.47131118178367615,-0.10156556963920593,-0.34710386395454407
1772567345821874000,7.9578740234375,0.33774566650390625,-0.12288086116313934,-0.5519980788230896
1772567345831903000,7.967903076171875,0.1601109802722931,-0.039836034178733826,-0.7024344801902771
1772567345841932000,7.97793212890625,-0.015159692615270615,0.17754456400871277,-0.7724939584732056
1772567345851960000,7.9879599609375,-0.14037859439849854,0.4541037082672119,-0.7758761644363403
1772567345861989000,7.997989013671875,-0.20115964114665985,0.7438130974769592,-0.7097113728523254
1772567345872017000,8.008016845703125,-0.2298024743795395,0.9760764241218567,-0.5888147950172424
1772567345882046000,8.0180458984375,-0.2363831251859665,1.1393729448318481,-0.4491448402404785
1772567345892075000,8.028074951171876,-0.2342725694179535,1.2283015251159668,-0.3251986801624298
1772567345902103800,8.038103759765624,-0.22915711998939514,1.2135474681854248,-0.22624096274375916
1772567345912132900,8.0481328125,-0.23358169198036194,1.0931923389434814,-0.15877030789852142
1772567345922161200,8.0581611328125,-0.27473172545433044,0.8885738253593445,-0.1057126596570015
1772567345932190000,8.06818994140625,-0.31059038639068604,0.6513919234275818,-0.04382132738828659
1772567345942219000,8.078218994140625,-0.33319464325904846,0.4327952265739441,0.0457918643951416
1772567345952248000,8.088248046875,-0.33235228061676025,0.2595534026622772,0.17065070569515228
1772567345962276000,8.098276123046874,-0.2900036573410034,0.18810932338237762,0.33535727858543396
1772567345972305200,8.10830517578125,-0.21389320492744446,0.2353828251361847,0.5308670997619629
1772567345982334000,8.118333984375,-0.12318192422389984,0.35532763600349426,0.7371681928634644
1772567345992363000,8.128363037109375,-0.05515839904546738,0.4104212522506714,0.9048429727554321
1772567346002392000,8.13839208984375,-0.022978074848651886,0.42012885212898254,1.0250223875045776
1772567346012419800,8.148419921875,-0.024100065231323242,0.5255178213119507,1.1014697551727295
1772567346022449000,8.158448974609374,-0.07824243605136871,0.7083771824836731,1.083107829093933
1772567346032478200,8.168478271484375,-0.1808529645204544,0.8797225952148438,0.9126907587051392
1772567346042507000,8.178507080078125,-0.26961103081703186,0.9702187180519104,0.5758653879165649
1772567346052535000,8.18853515625,-0.2663497030735016,0.8975167870521545,0.19062422215938568
1772567346062564000,8.198564208984376,-0.1600715070962906,0.600347101688385,-0.12858012318611145
1772567346072593000,8.208593017578124,0.004049260169267654,0.13619433343410492,-0.2576339840888977
1772567346082622000,8.2186220703125,0.16702435910701752,-0.30822184681892395,-0.15991155803203583
1772567346092651000,8.228651123046875,0.30751410126686096,-0.5601057410240173,0.16729798913002014
1772567346102679000,8.238678955078125,0.37692704796791077,-0.5842268466949463,0.6540054082870483
1772567346112708000,8.2487080078125,0.36347275972366333,-0.44109100103378296,1.1412198543548584
1772567346122736000,8.258736083984376,0.3237387239933014,-0.246562659740448,1.452828049659729
1772567346132765200,8.26876513671875,0.29405274987220764,-0.1317117065191269,1.4977587461471558
1772567346142793200,8.278793212890625,0.30249181389808655,-0.1468898504972458,1.2548325061798096
1772567346152822300,8.288822265625,0.31897199153900146,-0.29320311546325684,0.784157395362854
1772567346162851300,8.298851318359375,0.3169820010662079,-0.5922197699546814,0.21501706540584564
1772567346172880100,8.308880126953126,0.30851367115974426,-1.0709164142608643,-0.3682633936405182
1772567346182909200,8.3189091796875,0.29101064801216125,-1.5566462278366089,-0.835416853427887
1772567346192937500,8.3289375,0.23021866381168365,-1.883854627609253,-1.1399109363555908
1772567346202966300,8.33896630859375,0.14605875313282013,-2.053293228149414,-1.317102074623108
1772567346212995300,8.348995361328125,0.07335525751113892,-2.0552377700805664,-1.4432674646377563
1772567346223024400,8.3590244140625,0.06140974164009094,-1.8255144357681274,-1.5137062072753906
1772567346233052200,8.36905224609375,0.08990902453660965,-1.4321975708007812,-1.5243433713912964
1772567346243081200,8.379081298828124,0.09572740644216537,-0.9871453642845154,-1.4931447505950928
1772567346253110300,8.3891103515625,0.05006271228194237,-0.566510796546936,-1.4157929420471191
1772567346263139300,8.399139404296875,-0.06023234501481056,-0.24771706759929657,-1.3077402114868164
1772567346273167400,8.40916748046875,-0.1845388561487198,-0.04153113812208176,-1.1847681999206543
1772567346283196200,8.419196044921875,-0.27160459756851196,0.09333518147468567,-1.0560716390609741
1772567346293225200,8.42922509765625,-0.3146364986896515,0.18706433475017548,-0.9344639182090759
1772567346303254300,8.439254150390624,-0.3343220055103302,0.3210463523864746,-0.7933655381202698
1772567346313283300,8.449283447265625,-0.33930984139442444,0.5035837292671204,-0.6468290686607361
1772567346323311400,8.459311279296875,-0.31429925560951233,0.6954489350318909,-0.5089094638824463
1772567346333340200,8.469340087890625,-0.2658454179763794,0.8664768934249878,-0.36576372385025024
1772567346343369200,8.479369140625,-0.21799729764461517,0.94175124168396,-0.2103535234928131
1772567346353398300,8.489398193359374,-0.18760530650615692,0.8987481594085693,-0.05076706036925316
1772567346363426300,8.49942626953125,-0.17260701954364777,0.7771269679069519,0.10050386935472488
1772567346373455400,8.509455322265625,-0.15386368334293365,0.615280032157898,0.24317233264446259
1772567346383484400,8.519484375,-0.15665553510189056,0.43222254514694214,0.3469659090042114
1772567346393513200,8.52951318359375,-0.1841851770877838,0.2579638957977295,0.3913280665874481
1772567346403542300,8.539542236328124,-0.227627232670784,0.15918602049350739,0.39910295605659485
1772567346413570000,8.549570068359374,-0.28572410345077515,0.15368233621120453,0.3612309396266937
1772567346423599400,8.559599365234375,-0.3447416424751282,0.23012405633926392,0.3096907138824463
1772567346433628400,8.56962841796875,-0.3951052129268646,0.3756708800792694,0.28952550888061523
1772567346443657200,8.5796572265625,-0.417848140001297,0.5606617331504822,0.30963367223739624
1772567346453685200,8.589685302734376,-0.3875299096107483,0.7523531317710876,0.3869827687740326
1772567346463714300,8.59971435546875,-0.3017580509185791,0.8720455169677734,0.49892494082450867
1772567346473744100,8.609744140625,-0.1934337019920349,0.9421979784965515,0.6424354910850525
1772567346483773200,8.619773193359375,-0.10833043605089188,0.998965859413147,0.7887433171272278
1772567346493802200,8.62980224609375,-0.06146093085408211,0.9999022483825684,0.9053013920783997
1772567346503831000,8.6398310546875,-0.04491564631462097,0.9813376069068909,1.0003947019577026
1772567346513859300,8.649859375,-0.07485491037368774,0.9731936454772949,1.0574268102645874
1772567346523888400,8.659888427734375,-0.13022488355636597,0.8676443696022034,1.0393537282943726
1772567346533917200,8.669917236328125,-0.17287060618400574,0.5944266319274902,0.9357477426528931
1772567346543946200,8.6799462890625,-0.15580332279205322,0.1792411208152771,0.8084709644317627
1772567346553974300,8.689974365234375,-0.10019279271364212,-0.13167227804660797,0.7747180461883545
1772567346564003300,8.70000341796875,-0.0003834962844848633,-0.1576595902442932,0.9170486330986023
1772567346574032400,8.710032470703124,0.11880414932966232,0.09634286165237427,1.180273413658142
1772567346584061400,8.7200615234375,0.26486894488334656,0.4651595950126648,1.4680413007736206
1772567346594090200,8.73009033203125,0.41494473814964294,0.8578997254371643,1.6768826246261597
1772567346604118300,8.7401181640625,0.561231791973114,1.0277929306030273,1.699745535850525
1772567346614147000,8.75014697265625,0.6208799481391907,0.9029551148414612,1.4887042045593262
1772567346624176400,8.76017626953125,0.5735676288604736,0.6387537121772766,1.0882492065429688
1772567346634205400,8.770205322265625,0.44393986463546753,0.22831900417804718,0.5555406212806702
1772567346644233200,8.780233154296875,0.30094388127326965,-0.25846731662750244,-0.029759105294942856
1772567346654262300,8.79026220703125,0.20807543396949768,-0.8025713562965393,-0.6107004880905151
1772567346664291300,8.800291259765626,0.1393021196126938,-1.403914213180542,-1.1469825506210327
1772567346674320100,8.810320068359376,0.053248729556798935,-1.8363583087921143,-1.5643097162246704
1772567346684349200,8.82034912109375,-0.03508906438946724,-1.9298601150512695,-1.8014377355575562
1772567346694377200,8.830377197265625,-0.11387789249420166,-1.7613781690597534,-1.8666887283325195
1772567346704406300,8.84040625,-0.14282070100307465,-1.3596389293670654,-1.8082259893417358
1772567346714435300,8.850435302734375,-0.09584306180477142,-0.7424783706665039,-1.6331257820129395
1772567346724464000,8.860464111328126,-0.07209445536136627,0.026905208826065063,-1.3963652849197388
1772567346734492400,8.870492431640624,-0.1844838410615921,0.6113700270652771,-1.2087305784225464
1772567346744521500,8.880521484375,-0.28425630927085876,0.9603533744812012,-1.1070770025253296
1772567346754550300,8.89055029296875,-0.36013615131378174,1.0606639385223389,-1.062362790107727
1772567346764579300,8.900579345703125,-0.44682812690734863,0.8562262058258057,-1.0640324354171753
1772567346774608400,8.9106083984375,-0.5373769402503967,0.304597407579422,-1.1026970148086548
1772567346784636200,8.92063623046875,-0.6026692390441895,-0.4338858723640442,-1.117689609527588
1772567346794665200,8.930665283203124,-0.5701752305030823,-1.0395570993423462,-1.0431714057922363
1772567346804694300,8.9406943359375,-0.4810878336429596,-1.3707503080368042,-0.8654959201812744
1772567346814723300,8.950723388671875,-0.3917537033557892,-1.4067373275756836,-0.6285677552223206
1772567346824751400,8.96075146484375,-0.330619752407074,-1.133119821548462,-0.39126911759376526
1772567346834780200,8.9707802734375,-0.31356939673423767,-0.6551095843315125,-0.20726890861988068
1772567346844809200,8.980809326171874,-0.36557602882385254,-0.16129325330257416,-0.1258144974708557
1772567346854838300,8.99083837890625,-0.4532766044139862,0.286456823348999,-0.16271285712718964
1772567346864867300,9.000867431640625,-0.5377862453460693,0.6766582727432251,-0.2854425311088562
1772567346874895400,9.010895263671875,-0.6019074320793152,0.9410697221755981,-0.43989866971969604
1772567346884924200,9.020924072265625,-0.631325364112854,1.0926610231399536,-0.5587508082389832
1772567346894953200,9.030953125,-0.6128137111663818,1.1396175622940063,-0.5928850769996643
1772567346904982300,9.040982177734374,-0.5457803606987,1.0842736959457397,-0.5299022793769836
1772567346915010300,9.05101025390625,-0.42446351051330566,0.9353512525558472,-0.3802337348461151
1772567346925039400,9.061039306640625,-0.2774503231048584,0.7792190909385681,-0.1762448400259018
1772567346935068400,9.071068359375,-0.14309225976467133,0.704133152961731,0.06723997741937637
1772567346945097200,9.08109716796875,-0.023108072578907013,0.707429826259613,0.3068271577358246
1772567346955126300,9.091126220703124,0.08572413772344589,0.7183506488800049,0.5164749026298523
1772567346965154000,9.101154052734374,0.18477748334407806,0.6446647047996521,0.6661198139190674
1772567346975183400,9.111183349609375,0.2688193917274475,0.48715469241142273,0.7817206978797913
1772567346985212400,9.12121240234375,0.3322891294956207,0.37093111872673035,0.8954139351844788
1772567346995241200,9.1312412109375,0.3679424524307251,0.2735198736190796,1.0065231323242188
1772567347005269200,9.141269287109376,0.4050859212875366,0.1549154371023178,1.0821501016616821
1772567347015298300,9.15129833984375,0.48396557569503784,-0.049539439380168915,1.1281085014343262
1772567347025327000,9.1613271484375,0.5920898914337158,-0.2500339150428772,1.168397068977356
1772567347035356200,9.171356201171875,0.7139904499053955,-0.2240252047777176,1.226674199104309
1772567347045384200,9.18138427734375,0.8526034355163574,0.06317466497421265,1.2883589267730713
1772567347055413200,9.191413330078126,0.9707899689674377,0.4388052821159363,1.297376036643982
1772567347065442300,9.2014423828125,1.0018022060394287,0.7789267897605896,1.2086386680603027
1772567347075471000,9.21147119140625,0.9448549747467041,1.0661060810089111,1.0289171934127808
1772567347085500200,9.221500244140625,0.8358936905860901,1.1744253635406494,0.7805511355400085
1772567347095528400,9.231528564453125,0.7172948718070984,1.0653444528579712,0.5393539667129517
1772567347105557200,9.24155712890625,0.607397735118866,0.8054382801055908,0.377074271440506
1772567347115586000,9.2515859375,0.49642065167427063,0.34284400939941406,0.2896738648414612
1772567347125615000,9.261614990234374,0.44859129190444946,-0.2739805281162262,0.23252874612808228
1772567347135643000,9.271642822265624,0.4941481351852417,-1.084204077720642,0.15006369352340698
1772567347145672200,9.281672119140625,0.5451757311820984,-2.080061197280884,0.00042992038652300835
1772567347155701000,9.291700927734375,0.5022211074829102,-2.7843706607818604,-0.13336703181266785
1772567347165730000,9.30172998046875,0.3442176580429077,-2.8240339756011963,-0.20110952854156494
1772567347175759000,9.311759033203124,0.10998810082674026,-2.369042158126831,-0.2680654227733612
1772567347185787000,9.321786865234374,-0.06823189556598663,-1.5557011365890503,-0.3962463140487671
1772567347195816000,9.33181591796875,-0.15041758120059967,-0.6343331336975098,-0.6363063454627991
1772567347205845000,9.341844970703125,-0.2168014496564865,0.16492348909378052,-0.999922513961792
1772567347215874000,9.3518740234375,-0.3252272605895996,0.7706296443939209,-1.427444577217102
1772567347225902000,9.361902099609376,-0.459564745426178,1.1082282066345215,-1.8423739671707153
1772567347235931000,9.371930908203124,-0.5899829268455505,1.1496304273605347,-2.175785541534424
1772567347245960000,9.3819599609375,-0.7195993661880493,0.9098269939422607,-2.3802483081817627
1772567347255989000,9.391989013671875,-0.8385670185089111,0.4075721800327301,-2.414980888366699
1772567347266017800,9.402017822265625,-0.9061328172683716,-0.2759067118167877,-2.2648117542266846
1772567347276046000,9.412046142578125,-0.8831990361213684,-1.0482563972473145,-1.964895248413086
1772567347286075100,9.4220751953125,-0.7613805532455444,-1.7044719457626343,-1.5577682256698608
1772567347296104000,9.43210400390625,-0.5550917983055115,-2.032848358154297,-1.1066279411315918
1772567347306133000,9.442133056640625,-0.30966126918792725,-1.9492566585540771,-0.6816478967666626
1772567347316161000,9.4521611328125,-0.13242416083812714,-1.526439905166626,-0.31656205654144287
1772567347326190000,9.462190185546875,-0.10479528456926346,-0.8308839797973633,-0.02865573763847351
1772567347336219100,9.47221923828125,-0.20070768892765045,-0.07189366966485977,0.14271681010723114
1772567347346248000,9.482248046875,-0.3482656180858612,0.5200406908988953,0.17438359558582306
1772567347356276000,9.49227587890625,-0.49992039799690247,0.9135765433311462,0.11106321215629578
1772567347366305000,9.502304931640625,-0.6197455525398254,1.1656855344772339,0.021762145683169365
1772567347376333800,9.512333740234375,-0.6782740950584412,1.2658859491348267,-0.03512644022703171
1772567347386363100,9.522363037109375,-0.6916717290878296,1.1585041284561157,-0.0283421128988266
1772567347396392200,9.53239208984375,-0.6408823132514954,0.8943845629692078,0.07123507559299469
1772567347406420000,9.542419921875,-0.4970341622829437,0.6005096435546875,0.271746963262558
1772567347416449000,9.552448974609375,-0.28756189346313477,0.40085089206695557,0.5304168462753296
1772567347426477800,9.562477783203125,-0.08921992778778076,0.3283484876155853,0.7779017090797424
1772567347436507000,9.5725068359375,0.03943338245153427,0.4142095744609833,0.9868754148483276
1772567347446535200,9.58253515625,0.12043384462594986,0.6038581132888794,1.1347872018814087
1772567347456564000,9.59256396484375,0.16061535477638245,0.7302522659301758,1.187679648399353
1772567347466593000,9.602593017578124,0.16804347932338715,0.6975446343421936,1.1366243362426758
1772567347476622000,9.6126220703125,0.13706612586975098,0.5050020813941956,1.0234767198562622
1772567347486651000,9.62265087890625,0.1240130215883255,0.2554192841053009,0.9327917695045471
1772567347496679200,9.63267919921875,0.1612996757030487,-0.05082746595144272,0.9079671502113342
1772567347506708000,9.6427080078125,0.2407422959804535,-0.23484961688518524,0.9521231055259705
1772567347516737000,9.652737060546874,0.36158910393714905,-0.20710933208465576,1.0392714738845825
1772567347526766000,9.66276611328125,0.49179354310035706,-0.009464584290981293,1.1217811107635498
1772567347536793900,9.6727939453125,0.6279507875442505,0.23751723766326904,1.1922274827957153
1772567347546823000,9.682822998046875,0.759415864944458,0.45990246534347534,1.253455638885498
1772567347556852200,9.692852294921876,0.869175136089325,0.6579905152320862,1.3128299713134766
1772567347566881000,9.702881103515624,0.9505972862243652,0.8646939396858215,1.3462684154510498
1772567347576909000,9.712908935546874,0.9878841638565063,0.9244734048843384,1.2740265130996704
1772567347586937900,9.722937744140625,0.9467426538467407,0.7808881402015686,1.072964072227478
1772567347596967000,9.732966796875,0.8036201596260071,0.42912745475769043,0.77109295129776
1772567347606996000,9.742995849609375,0.5949525237083435,-0.13884186744689941,0.3946244418621063
1772567347617025000,9.75302490234375,0.42124009132385254,-0.943578839302063,-0.04058215394616127
1772567347627053000,9.763052978515624,0.3303305506706238,-1.9142836332321167,-0.5130795240402222
1772567347637082000,9.77308203125,0.22114761173725128,-2.6198625564575195,-0.9118154644966125
1772567347647111000,9.78311083984375,0.05436519905924797,-2.664959192276001,-1.1264779567718506
1772567347657140000,9.793139892578125,-0.14854742586612701,-2.152545213699341,-1.1735525131225586
1772567347667168000,9.80316796875,-0.2857302129268646,-1.3059391975402832,-1.145419955253601
1772567347677197000,9.813197021484376,-0.3209369480609894,-0.36549612879753113,-1.1466351747512817
1772567347687226000,9.82322607421875,-0.2885768711566925,0.398373007774353,-1.2539291381835938
1772567347697255200,9.833255126953125,-0.23360256850719452,0.9063475728034973,-1.4536073207855225
1772567347707284000,9.843283935546875,-0.19519972801208496,1.077988862991333,-1.6847634315490723
1772567347717312000,9.85331201171875,-0.1567082554101944,0.8153287768363953,-1.8726766109466553
1772567347727341000,9.863341064453126,-0.126602441072464,0.17981687188148499,-1.978914499282837
1772567347737370000,9.8733701171875,-0.11702331155538559,-0.7436057329177856,-2.016134023666382
1772567347747399200,9.883399169921875,-0.08765171468257904,-1.6472630500793457,-1.961982011795044
1772567347757427000,9.893427001953125,0.004764764569699764,-2.154111862182617,-1.786696434020996
1772567347767456000,9.9034560546875,0.11967019736766815,-1.939055323600769,-1.331347942352295
1772567347777485000,9.913485107421875,0.07234317064285278,-1.130907416343689,-0.44774487614631653
1772567347787513900,9.923513916015626,-0.11035315692424774,-0.6638476252555847,0.38485661149024963
1772567347797542100,9.933542236328124,-0.282720148563385,-0.6336415410041809,0.6703845262527466
1772567347807571000,9.943571044921875,-0.425232857465744,-0.2768971621990204,0.5511516332626343
1772567347817600000,9.95360009765625,-0.43908584117889404,0.5906267762184143,0.29581418633461
1772567347827629000,9.963629150390625,-0.302217036485672,1.3282426595687866,-0.10396445542573929
1772567347837657900,9.973657958984376,-0.06834676116704941,1.652703046798706,-0.5810301303863525
1772567347847686100,9.98368603515625,0.17985352873802185,1.7439477443695068,-0.9034185409545898
1772567347857715200,9.993715087890624,0.3230101466178894,1.5555082559585571,-0.9563118815422058
