time,seconds_elapsed,z,y,x
1772567392840395800,0.078395751953125,2.371606966510415,0.7375991125062108,0.37323001298122105
1772567392850424800,0.0884248046875,0.40560383090674873,0.3468243096798658,1.1267969483394176
1772567392860452600,0.09845263671875,-2.4911609821736813,-0.050510582314431667,1.6539929496735333
1772567392870481700,0.108481689453125,-5.959609246155619,-0.7011334221571683,1.7596518571056425
1772567392880510700,0.1185107421875,-8.685712372148036,-1.5235785172998904,1.3153909632854164
1772567392890538800,0.128538818359375,-10.65731405841112,-1.8693509798392651,0.46372861455194647
1772567392900567800,0.13856787109375,-11.614073515975475,-1.4798612483873963,-0.9189354844741523
1772567392910596900,0.148596923828125,-11.821922485685349,-0.9277215791285037,-1.5950390947930513
1772567392920624600,0.158624755859375,-11.688541604721545,-0.8503460785031318,-1.449032979403436
1772567392930653700,0.16865380859375,-10.76295119240284,-1.0329404877081514,-1.0805186698324978
1772567392940681700,0.178681640625,-9.466637123900652,-1.0888237029716372,-0.7423229992229491
1772567392950710800,0.188710693359375,-8.026788444688917,-1.0815768005833029,-0.5541742438264191
1772567392960739800,0.19873974609375,-6.9211500927776095,-1.1732581821978092,-0.35166166670843957
1772567392970767600,0.208767578125,-6.259262054815888,-1.5967629959762095,0.024307927304506302
1772567392980797000,0.218796875,-5.284850036182999,-2.0632234466448427,0.49952349296733733
1772567392990825700,0.22882568359375,-3.9232437035590406,-2.133573870939016,0.7146072362363338
1772567393000853800,0.238853759765625,-2.505383568793535,-1.7544830761656165,0.4379932117275893
1772567393010882800,0.2488828125,-1.1040876153379677,-1.1221993183508514,0.08486644090265034
1772567393020910800,0.258910888671875,0.3706780634760856,-0.4541206090554595,-0.2664400556925684
1772567393030940000,0.26893994140625,1.4988877281576394,0.04724719660431146,-0.6364725878067314
1772567393040968700,0.27896875,2.60035902351737,0.3884197641327977,-0.9176993668079376
1772567393050996700,0.288996826171875,3.553956802180409,0.8338508707761764,-1.1867545003697275
1772567393061025800,0.29902587890625,3.7819887282192703,1.3100029866367577,-1.386300336636603
1772567393071054600,0.3090546875,3.7496412868440148,1.4863637621492147,-1.5372994380079208
1772567393081083000,0.319082763671875,3.8681799879848953,1.5935557243674991,-1.362801095366478
1772567393091111700,0.329111572265625,3.7565216940075157,1.7802298041015863,-0.8778574780240654
1772567393101139700,0.3391396484375,3.2826556432574985,1.8594877574726938,-0.16690266334805637
1772567393111168500,0.34916845703125,2.880692214679718,1.6847557522058485,0.45980727638974783
1772567393121197800,0.35919775390625,2.9939252106279133,1.3769757511913776,0.6308424729652703
1772567393131225900,0.369225830078125,3.199201699501276,1.20281686963737,0.42190128757189954
1772567393141254700,0.379254638671875,3.469790910762548,1.2631108870804308,0.17580988189773633
1772567393151283700,0.38928369140625,3.8878251841753717,1.3949661659121513,-0.001926113790948875
1772567393161311700,0.399311767578125,4.348298084867,1.4331439208760857,-0.15619270622534676
1772567393171341000,0.409341064453125,4.994067347198724,1.4488327806562185,-0.2820829026401974
1772567393181368800,0.419368896484375,5.623277688917518,1.5891206645295024,-0.15156433403864503
1772567393191398000,0.42939794921875,5.918728369712829,1.7055340440794824,0.023622995513956992
1772567393201426700,0.4394267578125,6.21101035734415,1.6591539856985211,0.13078713814355433
1772567393211455000,0.449455078125,6.593913111621141,1.6793755204722285,0.20471008716225622
1772567393221483800,0.45948388671875,6.552125057205558,1.8095608202651141,0.2606085365274921
1772567393231511800,0.46951171875,6.282949219873547,1.8608514470413327,0.2563292152404785
1772567393241540900,0.479540771484375,6.136770232135057,1.745559472736716,0.14085618528053165
1772567393251569700,0.489569580078125,5.991527063941955,1.5766998666346073,-0.18521781651116906
1772567393261598000,0.499597900390625,5.373168955627084,1.4777254054024815,-0.555415987515822
1772567393271626800,0.509626708984375,4.153372894138098,1.283256434008479,-0.7978099086452275
1772567393281655800,0.51965576171875,3.2662545435547825,0.9068678839311003,-1.0616381013389675
1772567393291683800,0.529683837890625,2.391343932637572,0.6837234376728535,-1.128309910185635
1772567393301712600,0.539712646484375,1.090955746564269,0.43022360063940285,-0.9695514999244361
1772567393311741000,0.549740966796875,-0.19844401250481605,0.2733876098081469,-0.4928252374377101
1772567393321769700,0.559769775390625,-1.671843663662672,0.13157470832467077,0.37573585832230744
1772567393331798800,0.569798828125,-2.955857053518295,-0.1723705368325114,1.2596055093079805
1772567393341826800,0.579826904296875,-4.179693914830684,-0.6615002076879143,1.736986290180683
1772567393351855900,0.58985595703125,-5.5787540720582,-1.2103843822821974,1.7522285752370952
1772567393361885000,0.599885009765625,-6.74188424347341,-1.4354606733858584,1.641729388166964
1772567393371912700,0.60991259765625,-7.12840694181323,-1.4462383802488445,1.2397389254517852
1772567393381941800,0.619941650390625,-7.076433593469858,-1.5697209675326942,0.7223005672179162
1772567393391969800,0.6299697265625,-7.227054363048076,-1.8041373339116573,0.6357555255785584
1772567393401998800,0.639998779296875,-7.551051923891902,-1.9701964956402778,1.1332678248539567
1772567393412028000,0.65002783203125,-7.89708829806447,-2.0696207464665175,1.7652967311248182
1772567393422055700,0.6600556640625,-7.901488578850031,-2.0378134033173323,1.955098879751563
1772567393432084700,0.670084716796875,-7.6978528429210185,-1.8266180457890033,1.8666218471363185
1772567393442113000,0.680113037109375,-7.517512057861685,-1.6568480468437075,1.6917092246055603
1772567393452141800,0.690141845703125,-7.17766226336956,-1.635499846127629,1.5667749772086739
1772567393462171000,0.7001708984375,-6.524070929110049,-1.5949109383687377,1.5251315919607877
1772567393472198700,0.71019873046875,-5.747900678408145,-1.4575556008160113,1.4734522581279277
1772567393482227700,0.720227783203125,-4.900848380753398,-1.3416229905202983,1.2840130975946784
1772567393492256800,0.7302568359375,-3.7966421074718233,-1.1662734378769992,0.9904421661313623
1772567393502284800,0.740284912109375,-2.416221768784523,-0.8659440451294184,0.5498175464542582
1772567393512313900,0.75031396484375,-0.9137345548301935,-0.46518970008045435,0.17557346105966715
1772567393522341600,0.760341552734375,0.3945002530902624,-0.05003974993228912,0.0020354696166701614
1772567393532370700,0.77037060546875,1.5831109027206898,0.16720394784957168,-0.019506043448112905
1772567393542400000,0.78039990234375,2.8263544752925633,0.3054816609442234,0.012586400252766906
1772567393552427800,0.790427734375,3.7932162246763705,0.48798634603917596,0.01925749834741
1772567393562456800,0.800456787109375,4.181489566075801,0.6037184653267264,0.06290539638469926
1772567393572484600,0.810484619140625,4.3165743283480404,0.5396238865569234,-0.056031610758230085
1772567393582514000,0.820513916015625,4.52911057909131,0.4437675573453307,-0.2717533048708923
1772567393592543000,0.83054296875,4.839190089219808,0.45324207265526056,-0.4914376920694485
1772567393602570800,0.84057080078125,5.179511592876911,0.536422167906165,-0.6597486878454685
1772567393612599800,0.850599853515625,5.450706368815899,0.6446192155137658,-0.7061663748230784
1772567393622628900,0.86062890625,5.606817552503943,0.6248764041677117,-0.6294488997150213
1772567393632657000,0.870656982421875,5.81242195815742,0.504730267830193,-0.4376050161276012
1772567393642686000,0.88068603515625,6.236091022586822,0.3396136476486921,-0.21228379208585246
1772567393652713700,0.890713623046875,6.6664154532521955,0.16485095498263835,-0.017749061979260294
1772567393662742800,0.90074267578125,7.069625667020678,-0.01936930185854435,0.02278289142800495
1772567393672771800,0.910771728515625,7.249554364147782,0.014675883345305918,0.2458296311991289
1772567393682799900,0.9207998046875,7.26917793302834,0.16801292614489793,0.6152834501098841
1772567393692829000,0.930828857421875,7.110880637472867,0.17754063294678926,0.554515604609996
1772567393702857700,0.940857666015625,6.868918970280886,0.34083266804963347,0.43188006260953843
1772567393712885800,0.9508857421875,6.559659544363617,0.5829927804231644,0.5937712910037487
1772567393722914800,0.960914794921875,6.219060977330804,0.6890496011316776,0.7588243444297462
1772567393732942800,0.97094287109375,5.6907852910012,0.7057035065516829,0.7511218802936375
1772567393742972000,0.980971923828125,5.070027135807275,0.6686097474321723,0.4894259138556197
1772567393753000700,0.991000732421875,4.124875113928318,0.6228948749616742,0.09073350630514324
1772567393763028700,1.00102880859375,2.866863011291623,0.47026861077994103,-0.2169181921545416
1772567393773058000,1.01105810546875,1.1423580170214176,0.10287731388956307,-0.3866013895992189
1772567393783085800,1.0210859375,-0.5561375067234039,-0.410420583538711,-0.5839169095307588
1772567393793115000,1.031114990234375,-2.1429455103963613,-0.8876651708111166,-0.2893477608103305
1772567393803143700,1.041143798828125,-4.464946442216634,-1.4424825348466634,0.5023203571442514
1772567393813172000,1.051171875,-6.7220595990628,-1.947038322892785,1.319464788595587
1772567393823201000,1.061200927734375,-7.994543879166245,-2.0071900092557073,1.7499810885712503
1772567393833229800,1.071229736328125,-8.525497844794392,-1.5900579453796146,1.556185194133222
1772567393843257900,1.0812578125,-9.279509455180168,-0.9055527096793055,0.938634164417535
1772567393853286700,1.09128662109375,-10.509169323557614,-0.8139853098332881,0.29240641772858794
1772567393863315000,1.10131494140625,-11.398246991515158,-1.1468848467960953,0.13819858344383537
1772567393873343700,1.11134375,-11.609529442805052,-1.4300164365053176,0.4682645774811506
1772567393883372800,1.121372802734375,-11.20036996524334,-1.6664663545385001,0.9352009750984609
1772567393893400800,1.13140087890625,-10.380748695349693,-1.796257978838682,1.4748890129327774
1772567393903429600,1.1414296875,-9.286530147597194,-1.797270663012564,1.9844046153433619
1772567393913458000,1.1514580078125,-7.9564166853457685,-1.7452634123995898,2.1682135149046777
1772567393923486700,1.16148681640625,-6.628658261787891,-1.6371280318513513,2.030647311080247
1772567393933515800,1.171515869140625,-5.1434220423638815,-1.341515730753541,1.811501579069346
1772567393943543800,1.181543701171875,-3.5802012505054472,-0.8245151794150472,1.536320071581751
1772567393953572900,1.19157275390625,-2.1238269684284923,-0.3070180767312646,1.1429985068820416
1772567393963601000,1.201600830078125,-0.7902613198965788,0.1136053363919258,0.7469914294254034
1772567393973629700,1.211629638671875,0.31166531801521774,0.4017331269532442,0.3329873248441145
1772567393983658800,1.22165869140625,1.1779565691471099,0.6002598493054508,-0.061710556010366416
1772567393993687000,1.23168701171875,1.9948796859979627,0.7898004243865608,-0.40812874627448614
1772567394003715800,1.2417158203125,2.764272989910841,1.0452654240131378,-0.7160967441417276
1772567394013745000,1.251744873046875,3.342504839542508,1.306578272885084,-1.0061980267331003
1772567394023772700,1.261772705078125,3.8642689520210025,1.4717401935130356,-1.2353610026285051
1772567394033801700,1.2718017578125,4.382165283155441,1.4769871542558073,-1.3849369393289088
1772567394043830000,1.281830078125,4.835571898722648,1.3962047677963971,-1.3803354368828236
1772567394053858800,1.29185888671875,5.274661235123872,1.299728260859847,-1.2008249651677905
1772567394063888000,1.301887939453125,5.787865024527907,1.2027011343032121,-1.0026735058687626
1772567394073915600,1.31191552734375,6.3663149008244275,1.1310019257485866,-0.8726124900426715
1772567394083944700,1.32194482421875,6.790825676774978,1.0294009154051542,-0.8070848827950656
1772567394093973000,1.331972900390625,7.178842413064837,0.8655719969466328,-0.7114907847162336
1772567394104001800,1.342001708984375,7.529032399785518,0.7835986471369862,-0.6713599229231476
1772567394114030800,1.35203076171875,7.716362897601723,0.7435761410892009,-0.7000912196278571
1772567394124058600,1.36205859375,7.944620449090004,0.6647761606186628,-0.6627779725387692
1772567394134087700,1.372087646484375,8.08247058442235,0.5917316749349236,-0.555991668511927
1772567394144117000,1.382116943359375,8.000891202366352,0.6020026013195514,-0.4021428767979145
1772567394154144800,1.392144775390625,7.968093679136038,0.5446963675156236,-0.28309903914649037
1772567394164174000,1.402174072265625,8.054523423832654,0.4839098903805017,-0.23742292778380214
1772567394174201900,1.412201904296875,7.718817889538407,0.581906154230237,-0.060938416293822226
1772567394184231200,1.422231201171875,7.44411539773941,0.6311898250982165,0.053327649029158056
1772567394194260200,1.43226025390625,7.314466104519367,0.6383189463257789,-0.06825790899433196
1772567394204288000,1.4422880859375,6.683221626624465,0.5609875771030783,-0.32777496049068866
1772567394214317000,1.452317138671875,5.472528324523568,0.2936316486746073,-0.37403073490485544
1772567394224345000,1.462344970703125,4.413263601252436,-0.12445990788340568,-0.3553154399756342
1772567394234374100,1.4723740234375,2.9461843852877614,-0.6978729590564966,-0.3533010314133018
1772567394244403200,1.4824033203125,0.36106267839074135,-1.2583984716057777,0.019189634442701935
1772567394254431000,1.492430908203125,-2.1274036578714846,-1.7911027880325912,0.9681208825994282
1772567394264460000,1.5024599609375,-3.958728858438134,-1.9221371058702468,1.8075427584409713
1772567394274489000,1.512489013671875,-5.631258166277409,-1.6547797161370514,1.9433917830839753
1772567394284517000,1.52251708984375,-7.017131509673595,-1.3843150080382822,1.4069842282250522
1772567394294546200,1.532546142578125,-8.174928503367305,-0.922614611378312,0.6854539147272706
1772567394304574000,1.542573974609375,-9.236206320026517,-0.4947679690033197,0.2952252745416015
1772567394314603000,1.55260302734375,-10.136596240115166,-0.6227639420583844,0.277296599945426
1772567394324632000,1.562632080078125,-10.62352167892456,-1.237888183018565,0.6116640175037086
1772567394334660000,1.57266015625,-10.848939038550853,-2.011159205147624,1.2158791803061961
1772567394344689200,1.582689208984375,-10.467311711037159,-2.7203321413755415,1.9833384474165736
1772567394354717000,1.592717041015625,-9.87431191586256,-3.080983900877833,2.4578926265612244
1772567394364746000,1.60274609375,-9.425361110660432,-3.029546851368248,2.502543084670603
1772567394374775300,1.612775390625,-8.991619565027952,-2.694655263805389,2.3264181637406347
1772567394384803000,1.622802978515625,-8.49340525496304,-2.178113854411244,1.9008833054393528
1772567394394832100,1.63283203125,-7.98974203184247,-1.6399758224979042,1.4123796575278043
1772567394404860000,1.64285986328125,-7.383419229236245,-1.190643909023702,1.0837271835502236
1772567394414889200,1.65288916015625,-6.4477136656165115,-0.7224617491289973,0.8317397238411008
1772567394424918300,1.662918212890625,-5.240851319980621,-0.10627163250297307,0.43616175851672884
1772567394434946000,1.672946044921875,-3.9696658475160596,0.39362843869179487,-0.18470818648859857
1772567394444975000,1.68297509765625,-2.493525957739353,0.727602326887846,-0.6756810740578919
1772567394455004000,1.69300390625,-0.9992933619111776,0.8718594066530465,-0.9033603142015636
1772567394465032200,1.7030322265625,0.434928709590435,0.867755478465557,-0.9140478585630655
1772567394475061200,1.713061279296875,1.6051906325817107,0.81316113396883,-0.7844166855216026
1772567394485089000,1.723089111328125,2.6598241889208554,0.76071724550426,-0.5789586295362562
1772567394495118000,1.7331181640625,3.4700428396970033,0.6752718356698751,-0.38456528066173196
1772567394505147000,1.74314697265625,4.11541521166563,0.4614698027744889,-0.22999381896266713
1772567394515175200,1.753175048828125,4.719132800209522,0.5891036645188927,-0.02350657519320957
1772567394525204200,1.763204345703125,5.248121018722653,0.5734276642203331,0.0360574931406416
1772567394535232000,1.77323193359375,5.5878702754497525,0.41198944029062984,0.06775706506641581
1772567394545261000,1.783260986328125,5.880857196480036,0.281470378498733,0.18948712786082178
1772567394555289900,1.793289794921875,6.185669579860567,0.21078809190168976,0.26988197630736976
1772567394565318100,1.803318115234375,6.45732203643918,0.1691286323018372,0.23773758322354405
1772567394575347200,1.81334716796875,6.6786530035346745,0.11397168548628688,0.12310666664354503
1772567394585376000,1.8233759765625,6.820277981230616,0.002000233906507492,0.012161416306346654
1772567394595404000,1.833404052734375,7.1482450302273035,-0.001640168422460556,-0.0504811004916206
1772567394605433000,1.84343310546875,7.432863351362943,0.1098673189073801,-0.1394883949255105
1772567394615461000,1.853461181640625,7.494263284221291,0.16062164684981106,-0.20080717970589174
1772567394625490200,1.863490234375,7.541383931836485,0.2302884727939963,-0.21134210905525833
1772567394635519000,1.87351904296875,7.582768666148185,0.4115659541815519,-0.3299241013485938
1772567394645547300,1.88354736328125,7.45179835345745,0.5013663443550467,-0.5575167591873557
1772567394655576000,1.893576171875,7.283222824993729,0.6896772315107286,-0.728736664680019
1772567394665604000,1.90360400390625,7.086764433348178,0.8189857484690845,-0.9156820356361567
1772567394675633200,1.913633056640625,6.719324621140957,0.8769172745645045,-0.9297337957337498
1772567394685662000,1.923661865234375,6.178128078439832,0.7934612849816679,-0.8207164447192102
1772567394695690200,1.933690185546875,5.641085732808709,0.6010024843662977,-0.9426600589327514
1772567394705719000,1.943718994140625,4.799358429569006,0.43127223290950056,-1.068525303569436
1772567394715748000,1.953748046875,3.7072014905214306,0.24643355190902946,-1.0489962811045348
1772567394725776000,1.96377587890625,2.2919570912122724,-0.01509147840887308,-0.8294516129039228
1772567394735805000,1.973804931640625,0.616203560629487,-0.26326953589767216,-0.3341683147896081
1772567394745833200,1.983833251953125,-1.289564009720087,-0.5192664504438639,0.44688488564826545
1772567394755862000,1.993862060546875,-3.0795570829451084,-0.7842153177306056,0.994797438731417
1772567394765891000,2.00389111328125,-4.682738129270076,-0.8822346701949835,1.0550736282568425
1772567394775918800,2.0139189453125,-6.916380394157767,-0.7964040604352951,0.9521106819104402
1772567394785948200,2.0239482421875,-8.709834421491623,-0.5547983670741319,0.9647752254333346
1772567394795976200,2.03397607421875,-10.14673184968233,-0.5375307136699558,1.0925625241737813
1772567394806005000,2.0440048828125,-11.54955398979187,-0.9323059843093157,1.3064108073636889
1772567394816034000,2.054033935546875,-12.644905925488471,-1.6495505833119153,1.3884347183167933
1772567394826062000,2.06406201171875,-13.17775608012676,-2.257762852926552,1.417454768835008
1772567394836091100,2.074091064453125,-13.208600131201743,-2.420594577041268,1.3753551642522215
1772567394846119200,2.084119140625,-12.779100460922717,-2.2807906772926447,1.2154546712838112
1772567394856148000,2.09414794921875,-12.039151862680912,-2.1169018453404305,0.914595263312757
1772567394866177000,2.104177001953125,-11.067143398058414,-2.023876063379645,0.6107961486279964
1772567394876205000,2.114205078125,-9.885909999197722,-1.9732406856417655,0.3851741332750767
1772567394886234000,2.124234130859375,-8.537037475940584,-1.9761843378782271,0.2147140331737697
1772567394896263200,2.13426318359375,-7.173244446927309,-2.062600930832326,0.0755904438395053
1772567394906291000,2.144291015625,-5.90071048246324,-2.155682242372632,0.03642256359336898
1772567394916320000,2.154320068359375,-4.73049356765747,-2.1706571086645123,0.15611149421529844
1772567394926348000,2.16434814453125,-3.6095687992870804,-2.0069690599814054,0.31546916727758945
1772567394936377000,2.174377197265625,-2.208508408153057,-1.6439213452532886,0.26885851501114666
1772567394946406100,2.18440625,-0.8125795346885919,-1.147196981485188,0.003108857302111573
1772567394956434000,2.194433837890625,0.4534124607861042,-0.6945686568140983,-0.3315062194408849
1772567394966463000,2.204462890625,1.7122966700822113,-0.3366454454928636,-0.6550253125853837
1772567394976491000,2.214490966796875,2.9642046106249094,0.06346417191177606,-0.9144117234393954
1772567394986520000,2.22452001953125,4.059384112364054,0.42588644821792837,-1.0780773410949855
1772567394996549000,2.234549072265625,5.058229145985841,0.612497691848874,-1.1645760593745857
1772567395006577000,2.244576904296875,5.938176582026482,0.6500359798654913,-1.1744796868167817
1772567395016606200,2.254606201171875,6.639927259299158,0.6966627064839005,-1.1390836715258656
1772567395026634000,2.264634033203125,7.182627776822447,0.7898737818837165,-1.0734253505706786
1772567395036663000,2.2746630859375,7.551469272521138,0.9142828363627195,-1.036892001812905
1772567395046692000,2.284692138671875,7.717614943489432,1.0119847934409976,-1.0669881571300328
1772567395056720100,2.29472021484375,7.901883715647458,1.0367205907687544,-1.0443098037887364
1772567395066749200,2.304749267578125,8.020043646603822,1.0801643034368753,-0.9108722972668707
1772567395076777000,2.31477685546875,8.046638808062673,1.169910917596519,-0.7153624385178089
1772567395086806000,2.324805908203125,8.192029860293864,1.223535540278256,-0.6915561040598899
1772567395096835000,2.3348349609375,8.210637530130148,1.3889756933256983,-0.7291685532912612
1772567395106863000,2.344863037109375,8.041519565352797,1.6395277864694595,-0.6785462542306632
1772567395116892200,2.35489208984375,7.997011730584502,1.8139876967966555,-0.5407643618289381
1772567395126921200,2.364921142578125,7.902806675711274,1.9585197941109538,-0.42684447959512467
1772567395136949000,2.374948974609375,7.800393179941177,2.118840704448521,-0.5239209251862019
1772567395146978000,2.38497802734375,7.818482963383198,2.2150945085451004,-0.799899209074676
1772567395157006000,2.395006103515625,7.6396496602773665,2.2620611346423622,-1.0624448876772075
1772567395167034600,2.40503466796875,7.365708215978741,2.29823748665601,-1.228049364440888
1772567395177063700,2.415063720703125,6.9590867324620485,2.266994499391317,-1.208103139477223
1772567395187091700,2.425091796875,6.208640705603361,2.089915930998325,-1.0020278283763677
1772567395197120800,2.435120849609375,5.2768526076883076,1.8701672646582126,-0.6927565658908337
1772567395207148500,2.4451484375,4.297710053402185,1.6777254151776433,-0.4642711239308119
1772567395217177600,2.455177490234375,3.037365123903751,1.3227446870490909,-0.6735304718952626
1772567395227206700,2.46520654296875,1.2651122900307177,0.742649089372158,-1.1723760656010358
1772567395237234700,2.475234619140625,-0.7815297319084406,-0.23637743731886146,-1.416938636006415
1772567395247263700,2.485263671875,-2.2871868080705404,-1.1418310705378651,-0.5785077439635992
1772567395257292500,2.49529248046875,-3.374575217542052,-1.528814372126758,1.2438814320839942
1772567395267320600,2.505320556640625,-4.337265234199166,-1.4419436056643724,3.157835962150991
1772567395277349600,2.515349609375,-5.581899968868494,-1.279759824064374,3.7565129261791705
1772567395287377700,2.525377685546875,-7.2448051237940785,-1.0655760983750224,3.1288340318113566
1772567395297406700,2.53540673828125,-8.642641876706481,-0.863173411372304,2.4076741590611634
1772567395307435500,2.545435546875,-9.633959437432885,-0.8693003698199987,2.2365333101540803
1772567395317463600,2.555463623046875,-10.537367828559875,-1.1444351155564187,2.514486912703514
1772567395327492600,2.56549267578125,-11.293690053975581,-1.6727712999016044,2.8484336206316945
1772567395337520600,2.575520751953125,-11.566194158947468,-2.0200752097919583,3.1871699009239673
1772567395347549700,2.5855498046875,-11.781980935919284,-2.02179750353992,3.4894741008758543
1772567395357578500,2.59557861328125,-11.712507002198695,-1.8699618052139877,3.671306878058612
1772567395367606500,2.6056064453125,-10.94027409094572,-1.5533797813236712,3.620489421752095
1772567395377635800,2.6156357421875,-9.952679934656619,-1.215767536625266,3.191014009131491
1772567395387663600,2.62566357421875,-8.822717873349784,-1.0313806910455225,2.5925632550746203
1772567395397692700,2.635692626953125,-7.37729168626666,-0.9045420713320373,2.0835423043131827
1772567395407721500,2.645721435546875,-5.650096722260117,-0.7782458879321813,1.7349558072663842
1772567395417749800,2.655749755859375,-3.9315550203084944,-0.6710518798872828,1.4160576153881848
1772567395427778800,2.66577880859375,-2.238216733196378,-0.6773705615147948,0.9760429077703505
1772567395437807600,2.6758076171875,-0.7538292395561933,-0.684862086313963,0.5282833216467872
1772567395447835600,2.685835693359375,0.5392313801079989,-0.7015718135744333,0.19683703396590427
1772567395457864400,2.695864501953125,1.775177781409025,-0.6975704689785838,-0.05889409665041603
1772567395467892700,2.705892822265625,2.7198078252404927,-0.6762956257596612,-0.2940163188769482
1772567395477921800,2.715921875,3.482578496143222,-0.6185545076698065,-0.46848019299320875
1772567395487950600,2.72595068359375,4.205398264929652,-0.5190767730906606,-0.5816894427396356
1772567395497978600,2.735978515625,4.830307694584131,-0.3803106919571757,-0.6300315949738026
1772567395508007400,2.74600732421875,5.362324321007728,-0.23872809209823606,-0.7200135522592812
1772567395518035700,2.75603564453125,5.776255250754952,-0.1303001583442092,-0.8556335173867642
1772567395528064800,2.766064697265625,6.122298639190197,-0.061468614180386065,-0.9669554190166294
1772567395538093600,2.776093505859375,6.386079924002289,0.05542787271142006,-0.9974991719707846
1772567395548121600,2.78612158203125,6.666150080314278,0.16267507224828004,-1.0076306898847223
1772567395558150700,2.796150634765625,6.9331444819539785,0.30032062491923567,-1.041314640560746
1772567395568179700,2.8061796875,7.118440259072184,0.48930853455364703,-1.1043228123333304
1772567395578207700,2.816207763671875,7.270030165943503,0.6362979618921876,-1.2065079061750321
1772567395588236500,2.826236572265625,7.458261411991715,0.765025464092195,-1.2838055923238396
1772567395598264600,2.8362646484375,7.718547255903482,0.8862383528783917,-1.4123635831758379
1772567395608293600,2.846293701171875,7.843587594023346,1.0128981088936329,-1.581189287008345
1772567395618322700,2.85632275390625,7.861848057857156,1.092964456038177,-1.7472423112571238
1772567395628350700,2.866350830078125,7.9299536258339876,1.1368974135279655,-1.9367777717716992
1772567395638379500,2.876379638671875,7.822651773500442,1.208061200031638,-2.1404810199789703
1772567395648407800,2.88640771484375,7.343943543416262,1.2465519664674996,-2.270249847925454
1772567395658436600,2.8964365234375,7.153138647487759,1.229059564396739,-2.2096640079289673
1772567395668465700,2.906465576171875,7.018435578009486,1.2519248916774988,-2.0864510313667357
1772567395678493400,2.916493408203125,6.36960985071659,1.298588735435903,-2.0603746330849826
1772567395688522500,2.9265224609375,5.21796845704317,1.2670724841877818,-1.7077968744449317
1772567395698551600,2.936551513671875,3.68849679005146,0.9522370117038488,-1.0853516429468988
1772567395708579600,2.94657958984375,2.1703116562277076,0.24479046087712047,-0.8292556519404053
1772567395718608600,2.956608642578125,-0.007280220136046409,-0.8725260538682341,-0.5865402437716722
1772567395728636400,2.966636474609375,-2.7944086004555224,-2.0443951197952033,0.09898308292999863
1772567395738665500,2.97666552734375,-5.596428260436654,-2.879136509670317,1.6265075613766908
1772567395748694800,2.98669482421875,-7.156075869983434,-2.7409908985227345,2.408963175958395
1772567395758722600,2.99672265625,-8.992840631255508,-1.7025871769726275,1.8561010376438498
1772567395768751600,3.006751708984375,-11.450180592370032,-1.2743375067546963,1.0238225307509303
1772567395778779400,3.016779296875,-13.19314537243843,-1.6715288986250758,0.9993975529380142
1772567395788808700,3.02680859375,-13.706566019463539,-2.05634654661268,1.7394110331095753
1772567395798837800,3.036837646484375,-13.687612312668561,-2.311560786348581,2.406830547843873
1772567395808865500,3.046865478515625,-13.10743108253479,-2.7381504143998026,2.7053803636983034
1772567395818894600,3.05689453125,-12.172058111870289,-3.116547966212034,2.6626024214625357
1772567395828922600,3.066922607421875,-10.994330675303935,-3.2347140346482393,2.413821429644525
1772567395838951700,3.07695166015625,-9.667567108002304,-3.1709584785744545,2.1625018592596055
1772567395848980700,3.086980712890625,-8.267474100595711,-3.07570303786546,2.014609345601499
1772567395859008500,3.097008544921875,-6.978886242431402,-2.9335230566352606,1.9733647504128515
1772567395869037600,3.10703759765625,-5.6518999722898,-2.5985496360078453,1.933210142417997
1772567395879066600,3.117066650390625,-4.406181534036993,-2.0782912519171832,1.821864713782072
1772567395889094700,3.1270947265625,-3.0956554003089662,-1.423870773357153,1.5670957335956395
1772567395899123700,3.137123779296875,-1.795280658239126,-0.7464747851401567,1.114078628802672
1772567395909151500,3.1471513671875,-0.58139703566432,-0.17550795807540415,0.5663517344847321
1772567395919180500,3.1571806640625,0.5505266811043024,0.24008739775270221,0.07259389237202704
1772567395929209600,3.167209716796875,1.5662871936917304,0.4426765472382307,-0.25591106289364396
1772567395939237600,3.177237548828125,2.515003045532107,0.4556579016253352,-0.33798305077217516
1772567395949266700,3.1872666015625,3.4560733510553834,0.3930781113326549,-0.1895947164211422
1772567395959294500,3.19729443359375,4.26049471372962,0.265832372123003,0.11682269100323318
1772567395969323500,3.207323486328125,4.874535543367267,0.042055180919170376,0.47365562286972995
1772567395979352800,3.217352783203125,5.366677255520225,-0.24469664511382577,0.8223347666360438
1772567395989380600,3.227380615234375,5.831324227026105,-0.4268851038664579,1.0726062892727553
1772567395999409700,3.23740966796875,6.251022049736976,-0.525263206640631,1.1737344214074312
1772567396009437400,3.2474375,6.557773876747489,-0.5430950697988272,1.2303086876749991
1772567396019466800,3.257466796875,6.936448784196377,-0.5096906667165458,1.2074828156217932
1772567396029495800,3.267495849609375,7.387637723714112,-0.40747532386705276,1.107188065571338
1772567396039523600,3.277523681640625,7.683664158570766,-0.20475085756406186,0.9539860473282634
1772567396049552600,3.287552734375,7.84363610934019,-0.030013007078319786,0.7417756675384938
1772567396059581400,3.29758154296875,7.925238287749886,0.14645751241892577,0.4588952761113643
1772567396069609700,3.307609619140625,8.19669960567057,0.4037058883309364,0.1769900863919407
1772567396079638800,3.317638671875,8.517839438995718,0.6711934803150594,-0.012243322436138987
1772567396089666600,3.32766650390625,8.503144558688998,0.8562725459426641,-0.2547880502130836
1772567396099695600,3.337695556640625,8.382657646089791,0.9215425982326269,-0.4707606686132028
1772567396109724400,3.347724365234375,8.381881401020287,1.018457496586442,-0.615947101650387
1772567396119752700,3.357752685546875,8.316876137146354,1.109585335971415,-0.801083085097
1772567396129781800,3.36778173828125,7.981446497184038,1.1097750133246183,-0.8882615292690694
1772567396139809500,3.3778095703125,7.439656664764881,1.0656143845587969,-0.922568141888082
1772567396149838600,3.387838623046875,6.996810606178641,0.9062173110678792,-1.1289467467844485
1772567396159868200,3.3978681640625,6.414794561833143,0.5937056053563952,-1.3666018028236926
1772567396169896200,3.407896240234375,5.549052761277556,0.3009714900434017,-1.426826700553298
1772567396179925200,3.41792529296875,4.508157807433605,0.1737368567496538,-1.4339870937019585
1772567396189953000,3.427953125,3.1006261744588612,0.17082067704200743,-1.3533259955346584
1772567396199982000,3.437982177734375,1.6450538564145565,0.00022650223225355147,-1.339221774597466
1772567396210011100,3.44801123046875,-0.11567337483763694,-0.4090864123255014,-1.0612414301715791
1772567396220039200,3.4580390625,-1.6589239763349293,-0.617191987144947,-0.31698826660364865
1772567396230068200,3.468068115234375,-3.1461656903624533,-0.5091358093127608,0.7607337582476437
1772567396240097300,3.47809716796875,-4.855733227741718,-0.25084639991521834,1.6656446628920734
1772567396250125000,3.488125,-6.785138278788327,-0.09881167188584804,2.0559052325859666
1772567396260154400,3.498154296875,-8.41307908783853,-0.25410773979872464,1.5919769307434557
1772567396270182100,3.50818212890625,-10.127028785824775,-0.4390718007445335,0.8992998598296195
1772567396280211200,3.518211181640625,-11.54863862851262,-0.7382949858158826,0.5716379312593489
1772567396290240300,3.528240234375,-12.542399490737914,-1.4285487020403147,0.654299701724574
1772567396300268300,3.538268310546875,-13.345712599909305,-2.212356023491919,0.8525900580376387
1772567396310297300,3.54829736328125,-13.730317481929063,-2.6403663319960233,1.1970282762985676
1772567396320325000,3.5583251953125,-13.562749084681272,-2.48451409150511,1.4668261179864406
1772567396330354200,3.568354248046875,-12.811692232447863,-1.826389205469191,1.427392371612042
1772567396340383200,3.57838330078125,-11.909836915981769,-1.2670084790408611,1.0719105620935558
1772567396350411300,3.588411376953125,-11.100968510770796,-1.2269529475063086,0.6601824030876159
1772567396360440300,3.5984404296875,-9.978391883540153,-1.2947349826171994,0.34348895471207797
1772567396370469000,3.60846923828125,-8.413125849589704,-1.2854288096114992,0.23502317316569388
1772567396380497200,3.6184970703125,-6.3132806452512735,-1.1710431364968419,0.14599895499646662
1772567396390526200,3.628526123046875,-4.322641665562987,-1.1120572790428995,0.11953311900570988
1772567396400554200,3.63855419921875,-2.5788527096301315,-1.151665651331842,0.1807024579785764
1772567396410583300,3.648583251953125,-0.8918915563344955,-1.2354223774269222,0.26146058677956463
1772567396420612000,3.658612060546875,0.564477465045452,-1.272189681071043,0.2997011047814041
1772567396430640000,3.66864013671875,1.7808640103518962,-1.273530574285984,0.3341075245130807
1772567396440669200,3.678669189453125,2.7328245432019234,-1.2302125338241456,0.5180263872548937
1772567396450697200,3.688697265625,3.5091023459315296,-1.0945023331299424,0.8337149694368243
1772567396460726300,3.698726318359375,4.158611963835359,-0.9023601972483098,1.03282635980919
1772567396470755000,3.708755126953125,4.710101352491974,-0.7015310431726276,1.116484593965858
1772567396480783000,3.718783203125,5.1942649253726,-0.4640849537089467,1.1123670025791972
1772567396490812400,3.7288125,5.6993076201528305,-0.23557518102526664,1.0357179165322332
1772567396500840200,3.738840087890625,6.211915197229385,0.009039631024003028,0.8131169295009225
1772567396510869200,3.748869140625,6.628962213170528,0.2804078638337552,0.5428566579330713
1772567396520898000,3.75889794921875,7.045092698788642,0.4692851527005434,0.4366781836062669
1772567396530926300,3.76892626953125,7.554231138449907,0.5011293207287788,0.6039424833409488
1772567396540955400,3.778955322265625,8.075482040709257,0.4757666236743331,0.7519554085083305
1772567396550984200,3.788984130859375,8.389567279347776,0.5346743013255297,0.796526736966893
1772567396561012200,3.79901220703125,8.514472592911124,0.5885615204662085,0.6932986368782817
1772567396571041000,3.809041015625,8.535484401279687,0.5807020391374826,0.5290813036240637
1772567396581069300,3.8190693359375,8.46567378295064,0.5952385140120983,0.3272715410131961
1772567396591098400,3.829098388671875,8.369238192546367,0.6871867298692464,0.06701797366952524
1772567396601127200,3.839127197265625,8.186466965469718,0.8285030800074339,-0.20071447818744925
1772567396611155200,3.8491552734375,7.940317198938131,0.9567264320775866,-0.43769433837886895
1772567396621184000,3.85918408203125,7.523745399293303,1.0219310179159045,-0.7837946081005036
1772567396631212300,3.86921240234375,6.921029681268334,0.9675938630506395,-1.154248361301422
1772567396641241300,3.879241455078125,6.237386907616258,0.9241349528133869,-1.4443731708988548
1772567396651270100,3.889270263671875,5.145742009744048,0.7234379006847739,-1.6216756111755966
1772567396661298200,3.899298095703125,3.843562848600745,0.28418256006687875,-1.7150708109706638
1772567396671327200,3.9093271484375,2.6274095275282856,-0.08828589395731687,-1.593273838686198
1772567396681355300,3.919355224609375,1.464566940882802,-0.27383593809753654,-1.2375390773199497
1772567396691384300,3.92938427734375,-0.09942425082623958,-0.5346101500481367,-0.8605005389012396
1772567396701413000,3.9394130859375,-2.41811094353199,-0.8207511507064104,-0.4422377174295485
1772567396711441200,3.949441162109375,-4.768142038050294,-1.2047922613635658,-0.2761433382570743
1772567396721470200,3.95947021484375,-6.443551869761944,-1.450956056420505,-0.25553499612286684
1772567396731499300,3.969499267578125,-7.665404863780736,-1.0923650288403033,-0.08808547601439058
1772567396741527300,3.97952734375,-8.88227831582129,-0.5851707089841366,-0.12689685270674525
1772567396751556000,3.98955615234375,-10.381987881755828,-0.8086118001013993,-0.3926926922116428
1772567396761583000,3.9995830078125,-11.534524762964248,-1.4962059417277573,-0.4777751504851505
1772567396771611100,4.009611083984375,-12.221263164544105,-2.004598531457782,-0.1631296841479838
1772567396781640200,4.01964013671875,-12.119416070485114,-2.3110919997930526,0.23275745672341436
1772567396791668200,4.029668212890625,-11.374344722402094,-2.3958467970147725,0.3258667522491887
1772567396801697300,4.039697265625,-10.152385345399379,-2.3269091621279716,0.1318521370265633
1772567396811726000,4.04972607421875,-8.633846575832367,-2.270422720274329,-0.06769779089353978
1772567396821754000,4.059754150390625,-7.029279043585062,-2.1488795766204594,0.005479563922248781
1772567396831783200,4.069783203125,-5.369392944219708,-1.9508862304925918,0.21806630274374036
1772567396841812200,4.079812255859375,-3.936977045357227,-1.7542822928965092,0.39398083232603964
1772567396851840300,4.08984033203125,-2.9453321523725986,-1.736052224200964,0.47221842967346306
1772567396861869000,4.099869140625,-1.9618413397490977,-1.7142840445071459,0.5781234208211302
1772567396871897300,4.1098974609375,-0.8669570215642451,-1.3346566586390136,0.7802530630361288
1772567396881926400,4.119926513671875,0.08050678438842296,-0.6999585331588983,0.8021984989929943
1772567396891955200,4.129955078125,0.8337351354420185,-0.10966858146488666,0.6661418960139155
1772567396901983200,4.139983154296875,1.5208125597178934,0.3641849020645022,0.4997318019557744
1772567396912012000,4.150011962890625,2.0725860260128974,0.820007638862729,0.379482826298289
1772567396922040300,4.160040283203125,2.6412521749198437,1.1647750160127877,0.27469598899297415
1772567396932069400,4.1700693359375,3.184230924862623,1.3238526482909918,0.10186735139572993
1772567396942098200,4.18009814453125,3.5880151391267776,1.3145230944097042,-0.12316624221052043
1772567396952126200,4.190126220703125,3.9925346819281575,1.1871794477835298,-0.28750848961919545
1772567396962155000,4.200155029296875,4.4770653345555065,0.9875202142700552,-0.3581466813461855
1772567396972183300,4.210183349609375,5.025414671620727,0.7835644526064396,-0.3643609892837703
1772567396982212400,4.22021240234375,5.637586784777045,0.6495329987794161,-0.3934762803373858
1772567396992241200,4.2302412109375,6.106098615017533,0.6364397084504365,-0.5046833599485456
1772567397002269200,4.240269287109375,6.382877328568696,0.7108850008428096,-0.6752991620682179
1772567397012298000,4.250298095703125,6.5169128740489475,0.7635977693766355,-0.8482367581989616
1772567397022327300,4.260327392578125,6.709108932074904,0.8254121282547712,-0.9545259263586252
1772567397032355300,4.270355224609375,6.95968002218008,0.9115244775652885,-1.1382772505138068
1772567397042384100,4.280384033203125,6.95162414149642,0.9914029009222983,-1.3144906534448266
1772567397052412200,4.290412109375,6.752298085460066,0.9700713590800761,-1.3534896616637706
1772567397062441200,4.300441162109375,6.558835953021049,0.9252510973617434,-1.3833444094404577
1772567397072470300,4.31047021484375,6.428250255733728,0.9390107426449656,-1.4030898511350154
1772567397082498300,4.320498291015625,6.2105509231388565,1.0341334968850016,-1.380160518707335
1772567397092527000,4.330527099609375,5.7379012624412775,1.056912022665143,-1.2326755629368125
1772567397102555400,4.340555419921875,5.163572849988937,0.9414394310966133,-1.1252216618467121
1772567397112584200,4.350584228515625,4.523210999658703,0.735823042744398,-1.1845925000302493
1772567397122613200,4.36061328125,3.7981466668158768,0.5694526231095195,-1.2627329936787486
1772567397132641300,4.370641357421875,2.7988994821339843,0.5119876916125417,-1.0741863250058143
1772567397142670000,4.380670166015625,1.7890321192383765,0.505125696888566,-0.6672280838154256
1772567397152698400,4.390698486328125,0.7154156300097704,0.35596330942511556,-0.35354375412799416
1772567397162727200,4.40072705078125,-0.7618132240474224,0.05291559762954712,-0.3000260989520699
1772567397172756000,4.410755859375,-2.1603461425304413,-0.1980035752609372,-0.22249365419931708
1772567397182784000,4.420783935546875,-3.4726726036787032,-0.3614323884859681,0.2706195333342999
1772567397192812800,4.430812744140625,-4.949675832286477,-0.6788570006802678,1.232859102810174
1772567397202842000,4.440842041015625,-6.639834320318698,-0.991334511861205,2.3560998930379746
1772567397212870000,4.450869873046875,-7.975432935982942,-1.112235265958309,2.6894869212567807
1772567397222899000,4.46089892578125,-9.093103670993447,-0.9627204117953777,1.864217124082148
1772567397232927000,4.470927001953125,-10.391877992129325,-0.7253992638856173,0.8635246359627693
1772567397242956000,4.4809560546875,-11.037770004057883,-0.8413324587032198,0.4162712823282927
1772567397252985000,4.490985107421875,-11.180337231040001,-1.2355042104914784,0.7071578700784593
1772567397263012900,4.501012939453125,-10.912565415287018,-1.7113889075875282,1.306281628026068
1772567397273042000,4.5110419921875,-10.327159728503227,-2.17876471953541,1.7277696951545773
1772567397283070200,4.5210703125,-9.367654187101126,-2.47179489518553,1.8650978524394333
1772567397293099000,4.53109912109375,-8.167789153006673,-2.557197634921968,1.762898437811434
1772567397303128000,4.541128173828125,-6.9694193259060375,-2.517923901414871,1.6367081990040837
1772567397313155800,4.55115576171875,-5.739587608093023,-2.412809037731588,1.5117393186852335
1772567397323185000,4.561184814453125,-4.500328721243143,-2.1845479791119695,1.3911281951844692
1772567397333213200,4.571213134765625,-3.331601752734184,-1.9259575409412384,1.2705012895926833
1772567397343242000,4.581241943359375,-2.3625942234933377,-1.7245725065484643,1.2009516602873802
1772567397353271000,4.59127099609375,-1.4693079979300498,-1.5189605021104216,1.1023377029307186
1772567397363298800,4.601298828125,-0.538695958057046,-1.2357748441264031,0.9041931117638945
1772567397373328000,4.611327880859375,0.4385112442523241,-0.9069102617681026,0.6572876314941793
1772567397383357000,4.62135693359375,1.45220547195971,-0.5225131772801279,0.41780283927712586
1772567397393385000,4.631385009765625,2.356110706692934,-0.16250526863932607,0.1588464173382148
1772567397403414000,4.6414140625,3.052658554625511,0.03911678937971592,-0.1749694672845304
1772567397413441800,4.65144189453125,3.7315930044561623,0.12279168241024016,-0.37072405804228037
1772567397423470800,4.661470947265625,4.364920133844017,0.1617722781896591,-0.39539307374414057
1772567397433500200,4.671500244140625,4.796705284711718,0.12784312058091163,-0.36317641914170234
1772567397443528000,4.68152783203125,5.1431011398464435,0.04907645785808563,-0.32830961535666137
1772567397453557000,4.691556884765625,5.520813339743018,0.028677812951803206,-0.39940008089579637
1772567397463585000,4.7015849609375,5.947143732336163,0.1120411558151245,-0.5464579703606665
1772567397473614000,4.711614013671875,6.3420321079611774,0.26411066289693114,-0.7458809109002351
1772567397483643100,4.72164306640625,6.618634880423546,0.4528969124794006,-0.880267388710007
1772567397493671000,4.7316708984375,6.88839933129847,0.6336310807704926,-1.0030892470628023
1772567397503700000,4.741699951171875,7.117233805891871,0.76934274276942,-1.1788329135902225
1772567397513728000,4.75172802734375,7.235293199083209,0.9361568145185708,-1.383798875209689
1772567397523757000,4.761757080078125,7.21089700897336,1.113037229990959,-1.5695093706086276
1772567397533786000,4.7717861328125,7.277880879443884,1.2485773348152638,-1.7297804504550993
1772567397543814000,4.78181396484375,7.4068638177096835,1.3277575467750429,-1.824169775854051
1772567397553843000,4.791843017578125,7.463836581775546,1.4226824403554201,-1.8519348578751087
1772567397563871000,4.80187109375,7.466541749081015,1.5574524375900625,-1.9048302894994615
1772567397573900000,4.811900146484375,7.421949158638715,1.6515797510519623,-1.9833156510628758
1772567397583929000,4.82192919921875,7.327109897515177,1.6608841704919934,-2.042262930072099
1772567397593956900,4.831956787109375,7.170916296240687,1.6386472042426465,-2.102839856109768
1772567397603986000,4.84198583984375,6.815252846544981,1.5986448642000555,-2.12146257738471
1772567397614015000,4.852014892578125,6.346114993360638,1.5022864306852222,-2.036610165007412
1772567397624043000,4.86204296875,5.63660771061182,1.3527809288725257,-1.8534468698732554
1772567397634072000,4.872072021484375,4.787277531152963,1.1553849641159175,-1.6902844524994491
1772567397644099800,4.882099853515625,3.835735515975952,0.8201058385401964,-1.4889895806081592
1772567397654129200,4.892129150390625,2.2770149581462142,0.23652941301018,-1.2500757566794751
1772567397664158200,4.902158203125,0.5056669641584157,-0.591531476187706,-0.8708880774028599
1772567397674186000,4.91218603515625,-1.6554156759530305,-1.5144775114774702,-0.0021833353884518143
1772567397684215000,4.922215087890625,-4.130094309881329,-2.305209079234302,1.2154174080133437
1772567397694243000,4.9322431640625,-6.629539720797538,-2.976116874475777,2.0592067583493887
1772567397704272100,4.942272216796875,-9.236440713304281,-3.323240751624107,1.8724515762031078
1772567397714301200,4.95230126953125,-11.8955301582098,-3.02478825866431,1.1998555356137455
1772567397724329000,4.962328857421875,-14.372987609201669,-2.7474770456716415,0.7454108091704547
1772567397734358000,4.97235791015625,-15.994319229245185,-2.928924622929096,0.6832651725113391
1772567397744386000,4.982385986328125,-16.74475415018797,-3.1176547584101555,0.8996602175746112
1772567397754415000,4.9924150390625,-16.610900975537298,-2.9990953067421913,1.012873924300447
1772567397764444000,5.00244384765625,-15.493546466869114,-2.6110353158324955,0.8209653049137443
1772567397774472000,5.012471923828125,-13.795518560636042,-2.1557558921307325,0.5547761552423238
1772567397784501000,5.0225009765625,-11.506065561199188,-1.8658780430316924,0.34459793886728585
1772567397794529800,5.03252978515625,-8.804387266889213,-1.7331223082289098,0.20328801846988498
1772567397804558000,5.04255810546875,-6.289800985464454,-1.6312462803363799,0.17839681138470767
1772567397814587000,5.0525869140625,-4.1913533729642625,-1.746380433730781,0.15593217385932803
1772567397824615000,5.062614990234375,-2.592353996238112,-1.8488444906443355,0.2546701229218393
1772567397834644000,5.07264404296875,-1.4922954902857541,-1.8243369491145014,0.7032526793334632
1772567397844673000,5.082673095703125,-0.3281237008631229,-1.7073948695152996,0.8748174527410417
1772567397854701000,5.092701171875,0.9905769714921713,-1.1816288279190659,0.6858420372620224
1772567397864729900,5.102729736328125,1.624772700408101,-0.6641793637692928,0.4495476751167327
1772567397874758000,5.1127578125,2.45227800154984,-0.4781906359508633,0.2654435920011252
1772567397884787200,5.122787109375,3.137711750271916,-0.5121446357399225,0.39836138549782335
1772567397894816000,5.13281591796875,3.40039062680006,-0.6835651783712208,0.8444351008936762
1772567397904844000,5.142843994140625,3.914661168652773,-0.6286508081398904,1.2298413624241948
1772567397914872800,5.152872802734375,4.147780188697577,-0.33667321028262376,1.8014247139520942
1772567397924901000,5.162901123046875,4.682590829753876,0.14878946249783037,1.9103221649140119
1772567397934930200,5.17293017578125,5.874940081390738,0.7796589696004986,1.3627306604787706
1772567397944959000,5.182958984375,6.725825089076161,1.4101051367245614,0.7824941930264234
1772567397954987000,5.192987060546875,7.1991820212602615,1.9646479216024277,0.5149307593271136
1772567397965015800,5.203015869140625,7.174412906184792,2.343391510373354,0.519876106774807
1772567397975044000,5.213044189453125,7.003280094453692,2.41324304523468,0.6529237371962517
1772567397985073200,5.2230732421875,6.775075149935484,2.2655612517178056,0.7411174228254706
1772567397995102000,5.23310205078125,6.6227879084497685,2.041178203575313,0.6980066684387624
1772567398005130000,5.2431298828125,6.570923281177878,1.8242431333512066,0.5206129696819931
1772567398015158800,5.25315869140625,6.742113960576057,1.7204928360193967,0.2481612890170887
1772567398025188000,5.26318798828125,6.942907166555523,1.6923434308558702,0.0911214461768046
1772567398035216100,5.273216064453125,6.963716730350256,1.62528737193197,0.15561112521141768
1772567398045245000,5.283244873046875,6.876773190912604,1.6116799946010112,0.24904114059153942
1772567398055273000,5.29327294921875,6.89364132360518,1.6706415943965316,0.06958112042210995
1772567398065302000,5.303302001953125,6.948145067209005,1.8570429946690796,-0.1500244111202657
1772567398075331000,5.3133310546875,7.014712758094072,2.1005653353065252,-0.34676914542652665
1772567398085359000,5.323359130859375,7.244231707820296,2.3004440567895768,-0.5350899694543332
1772567398095388000,5.333387939453125,6.987007589566708,2.3484444098487494,-0.556122674480453
1772567398105416000,5.343416015625,5.941108543825149,2.052967133307457,-0.3174533268321305
1772567398115445000,5.353445068359375,4.789281856712699,1.3832125997543334,-0.0947629079516977
1772567398125474000,5.36347412109375,3.4496395186156033,0.5260092027023434,0.13288834820650516
1772567398135502000,5.373502197265625,1.552410644030571,-0.2832110846862197,0.22972850082367657
1772567398145531000,5.38353076171875,-0.8293225796967745,-1.1611451350778341,0.37469230408612636
1772567398155559200,5.39355908203125,-2.8955829098194834,-2.161381038536131,0.767869090020284
1772567398165587700,5.403587646484375,-4.4266468144387,-2.7331001452729105,1.3011094860851764
1772567398175616500,5.413616455078125,-5.88448590837121,-2.6597400177687405,1.321937608449906
1772567398185644500,5.42364453125,-7.3711810944318765,-2.229805170942843,0.8753458605293184
1772567398195673600,5.433673583984375,-8.705988851979374,-1.9408371301651,-0.06756355178831144
1772567398205701600,5.44370166015625,-9.424748531720041,-1.629623355309665,-0.8656064837381243
1772567398215730700,5.453730712890625,-10.34681135443449,-1.3530214596301315,-1.1149327614139766
1772567398225759500,5.463759521484375,-11.175521939712763,-1.64271576885581,-1.0184610037177801
1772567398235787500,5.47378759765625,-11.232233422493934,-2.3010580970346926,-0.7762900046240538
1772567398245816800,5.48381689453125,-10.82074637876749,-2.598404090057313,-0.49404268693607295
1772567398255844600,5.4938447265625,-10.11075803450346,-2.4212021875455974,-0.21123510501682757
1772567398265873700,5.503873779296875,-9.046212740480899,-2.0683190162181853,0.08467449852712453
1772567398275902500,5.51390234375,-7.736326073700189,-1.663723485571146,0.35800551930982616
1772567398285930800,5.5239306640625,-6.499939527416229,-1.3392103764206171,0.6442084427557885
1772567398295959800,5.533959716796875,-5.235882299396395,-1.1070035027846694,0.7262943130291998
1772567398305987600,5.543987548828125,-3.9877813499212262,-0.9237216958373784,0.7908934803202747
1772567398316016600,5.5540166015625,-2.5732144114822146,-0.8163558383569121,0.8986747867338358
1772567398326045400,5.56404541015625,-1.07500823584795,-0.6732081811383366,1.0243323799692095
1772567398336073700,5.57407373046875,0.21842881591320037,-0.5111860198408364,1.1089718071829526
1772567398346102800,5.584102783203125,1.4575316354185341,-0.471684322796762,1.1603243202142417
1772567398356131600,5.594131591796875,2.551354461851716,-0.4467731689020991,1.1223676606550812
1772567398366159600,5.60415966796875,3.396435167172551,-0.3861336990222335,0.9978619408685714
1772567398376188400,5.6141884765625,3.880031169298291,-0.3386448026165366,0.7439736159741878
1772567398386216700,5.624216796875,4.15178182555437,-0.3810647251948714,0.308444712000899
1772567398396245800,5.634245849609375,4.638822999697924,-0.30886545816361904,0.18239828384472057
1772567398406274600,5.644274658203125,5.157139017549157,-0.06267652866542339,0.5174684245785698
1772567398416302600,5.654302490234375,5.507286334171891,0.15667232470214365,0.9861221840403973
1772567398426331600,5.66433154296875,5.8069145929127925,0.31071400863975285,1.3050197913967072
1772567398436359700,5.674359619140625,6.142848675265908,0.5773313936606049,1.308832043161243
1772567398446388700,5.684388671875,6.75937839910984,1.0433879397034644,1.0771819996904581
1772567398456417500,5.69441748046875,7.220270986518264,1.5414914828702806,0.9288117124527693
1772567398466445600,5.704445556640625,7.220168695187568,1.7961901742994784,0.842239855871722
1772567398476474600,5.714474609375,7.2877844338208435,1.7322534164398908,0.8115067178253084
1772567398486502700,5.724502685546875,6.968754724517464,1.5834426188930868,0.5653051845738664
1772567398496531700,5.73453173828125,6.726295044675469,1.4369094108894467,0.3668951474038884
1772567398506560500,5.744560546875,6.654612202733754,1.3128306112781167,0.2338795012895949
1772567398516588800,5.7545888671875,6.510617573297023,1.2441516273275017,0.06818517711826134
1772567398526617600,5.76461767578125,6.333201735773682,1.1940712531238793,-0.0030605931470170616
1772567398536645600,5.774645751953125,6.231136030527949,1.1455696725443005,0.006710822750255465
1772567398546674700,5.7846748046875,6.076589027416706,1.0960744047522544,-0.007122581888921558
1772567398556703500,5.794703369140625,5.857579781267047,1.0260732322871684,-0.09659812402222305
1772567398566731800,5.804731689453125,5.501079296225309,0.9594012042447924,-0.46001869065072387
1772567398576760600,5.814760498046875,4.966107327127457,0.9167667621329426,-0.9303077962294221
1772567398586788600,5.82478857421875,4.283892540451884,0.8804808122649789,-1.259316609364003
1772567398596817700,5.834817626953125,2.9007652808934448,0.802666920222342,-1.4419780924558638
1772567398606846500,5.844846435546875,0.7898685211867094,0.2908902410119772,-1.4498561323545873
1772567398616874800,5.854874755859375,-1.6240665979653597,-0.563873361672461,-1.2379545262530445
1772567398626903600,5.864903564453125,-3.459664069023728,-1.3589882590800524,-0.7475689370524138
1772567398636932600,5.8749326171875,-5.252535912555456,-1.6743591536149383,0.09966163977868854
1772567398646960600,5.884960693359375,-6.852538328844308,-2.0388348553195597,0.591755713397637
1772567398656989700,5.89498974609375,-7.956628866791725,-2.3345818887129424,0.3258664234556258
1772567398667017700,5.905017822265625,-9.083010731524228,-2.3253800528645514,-0.4761009701952338
1772567398677046500,5.915046630859375,-9.769827459037304,-2.1632398181453345,-1.3084718315467239
1772567398687075600,5.92507568359375,-10.367328072762488,-2.2154800007313487,-1.8802192875951527
1772567398697103600,5.935103515625,-10.637335100221634,-2.408356734497845,-1.6569326563872395
1772567398707132700,5.945132568359375,-10.678875901877879,-2.799575481699407,-0.9739068455897271
1772567398717160700,5.95516064453125,-10.310171184301376,-3.2561873230487106,-0.38878669774904845
1772567398727189500,5.965189453125,-10.021192914390564,-3.3288872330784796,0.08249488946571945
1772567398737218600,5.975218505859375,-9.668723876821995,-3.097530546531081,0.4173459258224815
1772567398747246600,5.98524658203125,-9.058461981201171,-2.69403859321177,0.6726211019653826
1772567398757275600,5.995275634765625,-8.101246596562861,-2.1367174296617506,0.6568697714082896
1772567398767303700,6.0053037109375,-7.08165220490098,-1.615076359041035,0.1657031513651833
1772567398777332500,6.01533251953125,-5.745875310060382,-1.1935261864617466,-0.36636217303834856
1772567398787361500,6.025361572265625,-3.965107161298394,-0.758779555439949,-0.7492191154122352
1772567398797389600,6.0353896484375,-2.075232741129398,-0.3790738436385989,-1.044987849180773
1772567398807418600,6.045418701171875,-0.31901684982180595,-0.10805705461502074,-1.0746334111861884
1772567398817446700,6.05544677734375,1.2650380557507275,0.014621522809565066,-0.8155696564152837
1772567398827475500,6.065475341796875,2.9729677627950903,0.03733428987711668,-0.5366394639186561
1772567398837504500,6.07550439453125,4.5080631148874755,0.05313713142573833,-0.3570462092909962
1772567398847532500,6.085532470703125,5.578472917029261,0.0835591576963663,-0.17459029524121433
1772567398857561600,6.0955615234375,6.077599665763974,0.09138824388682841,0.008455565792042761
1772567398867589600,6.105589599609375,6.239217630174756,0.04716624032258987,0.2468118106368929
1772567398877618400,6.115618408203125,6.412746981653571,0.12530571105778215,0.5984571837976574
1772567398887647700,6.125647705078125,6.552431346675753,0.39648178229629993,1.1515216397512704
1772567398897675500,6.135675537109375,6.7656637629896395,0.6443558884024619,1.6549970121495425
1772567398907704600,6.14570458984375,7.190598901832104,0.8112655294805765,1.8890594505243001
1772567398917732600,6.155732666015625,7.579073903283477,0.9551631282836198,1.8194592600755393
1772567398927761700,6.16576171875,7.8656456965744495,1.120879760184884,1.5396452704817056
1772567398937790700,6.175790771484375,8.046406752872466,1.3110595099523663,1.179092295178771
1772567398947818500,6.185818603515625,7.961663938349485,1.3822475541144608,0.7065560317277908
1772567398957847600,6.19584765625,7.869045860406756,1.350195004032552,0.20149320747498423
1772567398967875800,6.205875732421875,7.803829584130645,1.3673583202794193,-0.21416650055991485
1772567398977904600,6.215904541015625,7.465175721424818,1.3997694745406508,-0.2530949094943702
1772567398987933700,6.22593359375,7.206799510526657,1.2592051118135452,0.007536030661175027
1772567398997961500,6.23596142578125,7.132991931515932,1.0620341879844666,0.26225473283194006
1772567399007990500,6.245990478515625,7.20815560131073,0.9846423207461833,0.20582962924409656
1772567399018019600,6.25601953125,7.172780336546897,1.129874383023381,0.06784367477078922
1772567399028047600,6.266047607421875,6.852863907536864,1.2745827136874197,-0.027060879274457692
1772567399038076700,6.27607666015625,6.57065790823996,1.34985393550992,-0.07181410363856702
1772567399048104400,6.2861044921875,6.247621885904669,1.409416716068983,-0.11174527814108878
1772567399058133500,6.296133544921875,5.70648964061141,1.4137670202329753,-0.2687490084883757
1772567399068162600,6.30616259765625,4.833795536699891,1.4334431960836052,-0.3915595234632492
1772567399078190600,6.316190673828125,3.796179166135192,1.3699322624206542,-0.5653206013387069
1772567399088219600,6.3262197265625,2.3018548003703354,1.1662082636862992,-0.6599770897738635
1772567399098247400,6.336247314453125,0.5276619383454323,0.8708712723985313,-0.48056419668179
1772567399108276500,6.3462763671875,-1.8122060740768908,0.3134463562130928,-0.4436407891605049
1772567399118305800,6.356305908203125,-4.57265921343863,-0.47179567421674723,-0.42271731666252016
1772567399128333600,6.36633349609375,-6.434912051710486,-0.8454521689817309,-0.22879187756069003
1772567399138362600,6.376362548828125,-8.29690886939466,-0.8887161411687732,-0.39607005969025194
1772567399148390700,6.386390625,-9.686789110344648,-1.1447528032034635,-1.1410893122598529
1772567399158419700,6.396419677734375,-10.676355443489552,-1.2156807351246475,-1.8639676793657243
1772567399168448000,6.406447998046875,-11.448579002392291,-1.1943132451862095,-2.3080371422670782
1772567399178476000,6.41647607421875,-11.82147357287407,-1.261143094138801,-2.4092896314337846
1772567399188505000,6.426505126953125,-11.912252160429954,-1.511755100776255,-1.88804808152467
1772567399198533000,6.436533203125,-11.949591418743132,-1.9650348750934004,-0.9555372222930192
1772567399208562200,6.446562255859375,-11.936270164877175,-2.720920462657511,-0.12079948567971587
1772567399218591000,6.456591064453125,-12.267678878760337,-3.5759047223553058,0.1773148978995159
1772567399228619000,6.466618896484375,-12.6629442710042,-4.215522476319968,0.117179249355942
1772567399238648000,6.47664794921875,-12.64427230376005,-4.2929777641832825,0.014196812857780605
1772567399248676000,6.486676025390625,-11.964532967287301,-3.632589609390497,0.010795571313239634
1772567399258705200,6.496705078125,-10.535006360125541,-2.581865335449576,-0.026345387948863208
1772567399268734000,6.50673388671875,-8.199001452872157,-1.568313438822329,-0.1390678040264174
1772567399278762000,6.516761962890625,-5.975390168133377,-0.6857853386387228,-0.4045700674122199
1772567399288791300,6.526791259765625,-4.11731783041656,-0.15086393068432807,-0.6181573981110006
1772567399298819000,6.536819091796875,-2.2304233028411864,-0.020006138457357884,-0.6563046118061989
1772567399308848000,6.54684814453125,-0.3589122223585844,0.0068967737764120095,-0.6637969403229653
1772567399318877000,6.556876953125,1.109258880496025,0.030765140619874,-0.5223741341356187
1772567399328905200,6.5669052734375,2.520495797729492,-0.04281418259292841,-0.2962201307978481
1772567399338934300,6.576934326171875,3.7107349253445863,-0.10947948863357305,0.10853112926702015
1772567399348962000,6.586962158203125,4.6199487878799435,-0.09654343469291925,0.5545499818036332
1772567399358991000,6.5969912109375,5.311823383304477,-0.08527823657393455,0.641882410961017
1772567399369020000,6.60702001953125,5.731887116718292,0.03631166883111,0.4349862849965691
1772567399379048200,6.617048095703125,6.319774098923802,0.25377222423404455,0.1181844078104943
1772567399389077200,6.6270771484375,6.891373963195085,0.46024172228425736,-0.17580074874320997
1772567399399105000,6.63710498046875,7.329613404768705,0.5796230117291212,-0.3804025714917108
1772567399409134000,6.647134033203125,7.67843502574563,0.6624661301106214,-0.4582081340974197
1772567399419163000,6.657162841796875,7.759760725301503,0.7550134809046983,-0.4688297736158594
1772567399429191200,6.667191162109375,7.767772182321548,0.7981085262656211,-0.20824070897381752
1772567399439220200,6.67722021484375,7.793211744004488,0.8159186159834265,0.3846925603032112
1772567399449248000,6.687248046875,7.692399253690242,0.7619283748596907,0.9207252174351364
1772567399459277000,6.697277099609375,7.752110502809286,0.6775269211202859,1.0684105180833487
1772567399469306000,6.70730615234375,7.891690822935104,0.7210241175413131,0.8585895176481455
1772567399479334100,6.717334228515625,7.864140552708506,0.9210732271552086,0.6547718492809683
1772567399489363200,6.72736328125,7.825536389026046,1.066606318205595,0.47511349352784454
1772567399499392000,6.73739208984375,7.905694213846325,1.1540700821250676,0.3317972382767126
1772567399509420000,6.747419921875,7.904913292601704,1.2433318353772163,0.253839973974321
1772567399519449000,6.757448974609375,7.589151645183563,1.2939870868593453,0.26580453426800665
1772567399529477000,6.76747705078125,7.1519631739676,1.1857234037563205,0.2612064658880234
1772567399539506000,6.777505859375,6.6715557387501,1.0644827501803635,0.31432595205921676
1772567399549535000,6.787534912109375,6.332977863889933,1.1550032713219522,0.2711165961362421
1772567399559563300,6.797563232421875,6.045575464993715,1.5002695379048585,0.08996127982363104
1772567399569592000,6.807592041015625,5.423432577443123,1.8819193695113061,-0.12880071356669068
1772567399579620000,6.8176201171875,4.771802898645401,2.0242484038233757,-0.23240699931792913
1772567399589649000,6.82764892578125,3.7072576046228405,1.8109695180192589,-0.07478614171929657
1772567399599678000,6.837677978515625,2.0089672480612992,1.2489540591731667,0.1828254414819181
1772567399609706200,6.847706298828125,-0.6097720662772655,0.32056554056853054,0.2898670354440808
1772567399619735000,6.857735107421875,-3.7030163137912746,-0.7947630152299999,0.11526377112343907
1772567399629763000,6.86776318359375,-6.468792694002389,-2.052670488448441,-0.6912156931243837
1772567399639791900,6.8777919921875,-7.909312404343486,-2.086495893421769,-0.9010413697347044
1772567399649821000,6.887821044921875,-9.169633368444442,-0.9404267469227313,-0.5760664882913231
1772567399659849200,6.89784912109375,-10.608085624861717,0.13650222785472868,0.41657808325514195
1772567399669878000,6.9078779296875,-12.137505853927134,0.26491642632186413,1.3126486788399516
1772567399679906000,6.917906005859375,-13.42879069609046,-0.38555414556860923,1.7197557539165018
1772567399689934800,6.927934814453125,-14.914095889097451,-0.8963821457520127,1.7655235256180166
1772567399699964200,6.937964111328125,-15.902072322702407,-1.1366679886862634,1.2957776235379277
1772567399709992200,6.9479921875,-15.828303322136401,-1.5454291145801544,0.44733058358915145
1772567399720021000,6.95802099609375,-14.969418547868727,-1.6493261269062756,-0.17959069734439254
1772567399730049000,6.968049072265625,-13.360091838395595,-1.3059101643651723,-0.4130995934896171
1772567399740078000,6.978078125,-11.279497862493992,-0.9850371652826666,-0.35652196622118354
1772567399750107100,6.988107177734375,-9.094604138684272,-0.9060068831875919,0.14568981598205863
1772567399760135200,6.99813525390625,-7.174913841444254,-0.9794818692430853,0.7751309707820415
1772567399770164000,7.0081640625,-5.457073565760255,-1.1846338549539446,1.2451789245486258
1772567399780192300,7.018192138671875,-3.8574037424266336,-1.4150354327335952,1.6483362390860914
1772567399790221000,7.028220947265625,-2.474339026710391,-1.5651327629595995,1.946903882858157
1772567399800250000,7.03825,-1.2370908951610327,-1.5801324714317917,1.99937027541548
1772567399810278100,7.048278076171875,-0.0974275240510702,-1.5118693748056888,1.771696076773107
1772567399820307000,7.058306884765625,0.8087275354355573,-1.3602470269694924,1.4259260984517632
1772567399830335200,7.068335205078125,1.6674615030556916,-1.1824538805663585,0.9850892607960849
1772567399840364000,7.078364013671875,2.634966226518154,-0.8212373267881572,0.541249880323559
1772567399850393000,7.08839306640625,3.522021448737383,-0.3086000852257013,0.1289817692220211
1772567399860421000,7.098421142578125,4.360087891381979,0.0887026580646634,-0.28921839880961925
1772567399870450000,7.108449951171875,5.177321973878145,0.2745902635961771,-0.5823287270238623
1772567399880478200,7.118478271484375,6.060260408428311,0.36205797303840515,-0.7376222741860896
1772567399890507000,7.128507080078125,6.8350032566756,0.3896856924153864,-0.7902215724080801
1772567399900536000,7.1385361328125,7.493430925050378,0.4137672636181116,-0.7895397276237607
1772567399910564000,7.148564208984375,7.992018160080909,0.4648761040866375,-0.7350516199804842
1772567399920593000,7.158593017578125,8.235449315303564,0.45555561029464003,-0.6450482545807957
1772567399930621200,7.16862109375,8.453553137046098,0.4070731728069484,-0.5494711441693827
1772567399940650000,7.17864990234375,8.537877433896064,0.4389550424970686,-0.4316134475626051
1772567399950679000,7.188678955078125,8.433603404951095,0.5212181690335274,-0.3146596775256097
1772567399960707000,7.19870703125,8.26615249660313,0.6202578044563531,-0.17670396292693913
1772567399970736000,7.208736083984375,7.977080118668079,0.7130415943548083,-0.0009200374543666839
1772567399980764200,7.21876416015625,7.866300945612788,0.7681225533246994,0.08049735897295177
1772567399990793000,7.22879296875,7.793357289955019,0.7609931398361921,-0.040263475196808576
1772567400000822000,7.238822021484375,7.696147208046913,0.9602211423255502,-0.22303689423054454
1772567400010850300,7.248850341796875,7.853211162415146,1.0983468797288833,-0.4225855069763958
1772567400020879000,7.258879150390625,7.81060711544156,1.0889797703161834,-0.9457068062175065
1772567400030907100,7.2689072265625,7.218028176027536,1.2688710580423475,-0.7131464429687708
1772567400040936000,7.27893603515625,6.232953309082984,1.3102797577515244,-0.2322034395698458
1772567400050965000,7.288965087890625,5.122936888217926,1.177971474455297,0.6385323698807507
1772567400060993000,7.298992919921875,4.568562299513816,0.9212968067780136,1.1979421762730926
1772567400071022000,7.30902197265625,4.0227340053588145,0.6729068601042032,0.933283085713163
1772567400081050000,7.319050048828125,3.106341044974327,0.4942380999103188,0.20816000842042265
1772567400091079000,7.329078857421875,1.9968419259816408,0.30767946324944495,-0.3917695860173553
1772567400101108000,7.33910791015625,0.5051502468079329,-0.026980945906043052,-0.426445689535886
1772567400111136000,7.349135986328125,-1.0304022014021872,-0.7239522799476981,0.03454677805043757
1772567400121165000,7.3591650390625,-2.7196909208625555,-1.5302762613728642,0.7399750478573143
1772567400131193000,7.369193115234375,-4.502871975985169,-2.059712808175385,1.4857427076414227
1772567400141222000,7.379221923828125,-6.10472381953299,-2.1303125310555098,1.962366824927926
1772567400151251200,7.389251220703125,-7.356949155461788,-1.928500211161375,1.8082031220458448
1772567400161279000,7.399279052734375,-7.914327017635107,-1.5570099545195697,1.069566044794023
1772567400171308500,7.40930859375,-8.73065216859281,-1.1866750053927302,0.08725786608383058
1772567400181336300,7.41933642578125,-9.987356111240386,-1.2562617518380284,-1.0081205922935157
1772567400191365400,7.429365478515625,-11.143259838533401,-1.6851339378684758,-1.4379567279852925
1772567400201394400,7.43939453125,-11.635047330421209,-1.8029542616069316,-1.007767175745964
1772567400211422500,7.44942236328125,-11.565413237702845,-1.5847481485337018,-0.5745009560076519
1772567400221451500,7.459451416015625,-11.012184311902523,-1.1531585202381014,-0.5210048185437918
1772567400231479300,7.469479248046875,-9.894703546506166,-0.484357049626112,-0.7620533164136112
1772567400241508600,7.479508544921875,-8.715997620296477,0.11833324169665574,-1.2194248170237987
1772567400251537700,7.48953759765625,-7.5022788328945635,0.24550445436537263,-1.7547794287636875
1772567400261565400,7.4995654296875,-6.350479618310928,-0.005347790768742561,-2.217509460732341
1772567400271594500,7.509594482421875,-4.484325680947303,-0.1853489686101675,-2.0517494280807673
1772567400281622500,7.51962255859375,-2.468200962346792,-0.30542730040848254,-1.5412304938465355
1772567400291651600,7.529651611328125,-0.8052005303531885,-0.4558221522763371,-0.9086427846491336
1772567400301680600,7.5396806640625,0.5127279885858297,-0.6108519704684615,-0.2923389785155654
1772567400311708400,7.54970849609375,1.6407938608825205,-0.6342278776198625,0.12662410017997025
1772567400321737500,7.559737548828125,2.6109026293635367,-0.5451029024899006,0.4230722675800323
1772567400331765500,7.569765625,3.4928736801862716,-0.40593788516670465,0.5984539689272642
1772567400341794600,7.579794677734375,4.0628047344625,-0.10420447084009647,0.6939186684727668
1772567400351823600,7.58982373046875,4.355379567560553,-0.3579889700338244,1.2510923863761125
1772567400361851400,7.599851318359375,4.373705497846007,-0.4995759538069367,1.4854352491274476
1772567400371880400,7.60988037109375,4.899596334865689,0.037592210160940887,1.7065397139906882
1772567400381908500,7.619908447265625,5.454879855108261,0.40789515671432014,1.7084753582283854
1772567400391937500,7.6299375,5.769177275192737,0.23734657461196182,1.300004885844141
1772567400401966300,7.63996630859375,5.954109479695558,-0.007028875723481178,0.9921109030611812
1772567400411994400,7.649994384765625,6.235150526866317,-0.06768617352098226,0.8887803655114024
1772567400422023400,7.6600234375,6.594407617139816,-0.1474786721602082,0.7460549522928893
1772567400432051500,7.670051513671875,6.89397625464797,-0.19955475022569297,0.7305944213759153
1772567400442080500,7.68008056640625,7.036745726203918,-0.21925430695191025,0.8354942540690302
1772567400452109300,7.690109375,7.104727960062027,-0.26715777550786735,0.9658737612597644
1772567400462137300,7.700137451171875,7.090638644433021,-0.35220775628387924,1.1080956088703124
1772567400472166700,7.710166748046875,7.01240389662981,-0.46976358386725187,1.1042398832902312
1772567400482194400,7.7201943359375,7.060996954885125,-0.4420120919801295,1.0030408778764306
1772567400492223500,7.730223388671875,7.034571889296173,-0.26786899251714347,0.9651569912925362
1772567400502252300,7.740252197265625,6.905189722579717,-0.11568316557928919,1.0566703959289938
1772567400512280600,7.750280517578125,6.859432180011272,0.0028254326842725276,0.8282453058540821
1772567400522309600,7.7603095703125,6.498069641891122,0.06406476815342903,0.6125823744576424
1772567400532337400,7.77033740234375,6.0947074524313205,-0.0015463526591658592,0.3989646851532161
1772567400542366500,7.780366455078125,5.6658560169279575,-0.006970861925929784,-0.19294835596429183
1772567400552395300,7.790395263671875,4.780358545544743,0.21333558442741632,-0.7713363277394324
1772567400562423600,7.800423583984375,3.5336370677292344,0.3887983881868422,-0.9723498254060745
1772567400572452600,7.81045263671875,2.023781370833516,0.2596802792340517,-0.5875098194561899
1772567400582480400,7.82048046875,-0.013864859223365783,-0.26277590716183186,0.1664666830835864
1772567400592509400,7.830509521484375,-1.9843816728591919,-0.9607008886665105,0.6997387529283762
1772567400602538200,7.840538330078125,-3.924656492966413,-1.4371657237380742,0.9390217754956335
1772567400612566500,7.85056640625,-5.559736652377247,-1.737208116237819,0.8657576557118445
1772567400622595600,7.860595703125,-7.121392679136991,-1.9775971272855997,0.7087129175007343
1772567400632623400,7.870623291015625,-8.374730360221863,-1.6852274613708256,0.18661920774169266
1772567400642652400,7.88065234375,-9.537961653923988,-1.2383368035688995,-0.6024851972047239
1772567400652681500,7.890681396484375,-10.717246256804465,-1.1057681157708168,-1.1066716404817998
1772567400662709500,7.90070947265625,-11.498628104674815,-1.3688587879702447,-1.0956588827539235
1772567400672738600,7.910738525390625,-11.91899052877426,-1.7026406607255338,-0.8656636207528412
1772567400682766300,7.920766357421875,-12.296624402737617,-2.0578321089953184,-0.5589876354575157
1772567400692795400,7.93079541015625,-12.167695240485667,-2.358406124153733,-0.5515906570740043
1772567400702824400,7.940824462890625,-11.7691939350605,-2.516303314475715,-0.6390724681068212
1772567400712852500,7.9508525390625,-11.225928769391775,-2.6147157579109073,-0.5801646077925339
1772567400722881500,7.960881591796875,-10.348789376509188,-2.489752868941426,-0.4315154670808464
1772567400732909600,7.97090966796875,-9.310431832188367,-2.077174522846937,-0.24045630413033067
1772567400742938600,7.980938720703125,-8.150657985463738,-1.524411168731749,-0.08144643985871225
1772567400752967400,7.990967529296875,-6.776538208225369,-0.8897077825546265,-0.13891082336641847
1772567400762995500,8.000995361328124,-5.277708347734809,-0.4859755907386541,-0.30877518606428056
1772567400773024500,8.0110244140625,-3.582977144959569,-0.3312532310605049,-0.2891610608655028
1772567400783052500,8.021052490234375,-1.7417273472279309,-0.26166706913709636,-0.06768042876678519
1772567400793081600,8.03108154296875,0.14407587797939778,-0.280825066332519,0.11547176958462223
1772567400803110400,8.0411103515625,1.9063591065019367,-0.43001989476084707,0.20055041019953787
1772567400813138400,8.051138427734376,3.529006485319137,-0.551963435909152,0.26218979610325766
1772567400823167500,8.06116748046875,4.7588896410584445,-0.595153173816204,0.2778885196902789
1772567400833195500,8.071195556640625,5.479495825448632,-0.5853681312523782,0.37462614351473744
1772567400843224600,8.081224609375,5.818067855089902,-0.48730830064713954,0.5786808355081826
1772567400853253400,8.09125341796875,6.001221944004297,-0.14404694414585828,0.7345674897253512
1772567400863281400,8.101281494140625,6.142458799165487,0.3121402420505881,0.7280706750519573
1772567400873310500,8.111310546875,6.303628435286879,0.6181368667796254,0.5316109682321548
1772567400883338500,8.12133837890625,6.266565655827522,0.7833484717682003,0.41497389946151525
1772567400893367600,8.131367431640625,6.030468496754765,0.766052322921902,0.4243720981322229
1772567400903396400,8.141396240234375,5.968921264380216,0.641325142404437,0.538587163920328
1772567400913424400,8.15142431640625,6.232224994808435,0.636170243859291,0.6722824445955455
1772567400923453700,8.16145361328125,6.637671004804968,0.680440908870846,0.7300056617025286
1772567400933481500,8.1714814453125,7.027146707731485,0.688195760781318,0.8654714591816067
1772567400943510500,8.181510498046874,7.430764333257079,0.7536250952862202,0.9239464445039629
1772567400953539300,8.191539306640625,7.695951977735757,0.9103295686922966,0.914829218199104
1772567400963567600,8.201567626953125,7.807190000474453,0.9700452017255127,0.9456357137426733
1772567400973596400,8.211596435546875,7.982353090634942,1.0640886362962425,1.070915559706837
1772567400983624400,8.22162451171875,7.750561519801616,1.2671185152865945,1.052430201075971
1772567400993653500,8.231653564453126,7.117974395126104,1.310037035036832,0.8472447514869272
1772567401003682300,8.241682373046874,6.586088701605797,1.2081424485743044,0.5189929307321086
1772567401013710600,8.251710693359374,6.356237743446231,1.2500029837042093,0.09471585393957793
1772567401023739400,8.261739501953125,5.8527311721920965,1.465508605647087,-0.2110497019799426
1772567401033767400,8.271767333984375,5.041643337365985,1.559329629638791,-0.24551720424909143
1772567401043796500,8.28179638671875,3.991027199974656,1.5200345610827206,-0.06647091597970575
1772567401053825300,8.2918251953125,3.041927317252755,1.4983780250698326,0.19964732387997208
1772567401063853600,8.301853515625,2.012283825263381,1.4218006890848278,0.16501122357826678
1772567401073882400,8.31188232421875,0.41140637970566746,1.4970187194153666,0.07848375412821769
1772567401083910400,8.321910400390625,-1.717907495701313,1.5673051385626195,0.34184714232180263
1772567401093939500,8.331939453125,-4.237105070313811,1.0775272329315542,0.5528115771710872
1772567401103968300,8.34196826171875,-5.959733164796233,0.38256636192947624,0.13638466588966547
1772567401113996500,8.35199658203125,-6.814343915006518,0.09087415688484907,-0.8597459211416542
1772567401124025300,8.362025390625,-7.580852018871903,0.21266016938388346,-1.9320849377803504
1772567401134053400,8.372053466796874,-8.199856023874878,0.02075432647615671,-2.335726674833894
1772567401144082400,8.38208251953125,-8.50375596858561,-0.6461135457247495,-1.8950056455776094
1772567401154111500,8.392111572265625,-8.796818292939662,-1.3063485557824372,-1.3611824081234634
1772567401164139500,8.402139404296875,-8.91677796679437,-1.7615028917998075,-0.8716831002380698
1772567401174168600,8.41216845703125,-8.856051987674832,-2.177111107109487,-0.217882835935615
1772567401184196600,8.422196533203126,-8.588395322734117,-2.552060856555402,0.23757293071374297
1772567401194225700,8.4322255859375,-8.753025912964343,-2.5189544135063886,0.2637633655629121
1772567401204254700,8.442254638671875,-9.15559373717606,-2.0414903382644054,0.00829184486400336
1772567401214282800,8.45228271484375,-9.167776926922798,-1.6555501159876584,-0.1821663747849874
1772567401224311600,8.4623115234375,-8.466995386943221,-1.2777812174677847,-0.34386560600474475
1772567401234339800,8.47233984375,-7.6963488680988545,-0.7516805370897054,-0.48656789407599715
1772567401244369000,8.482368896484376,-6.603362492489814,-0.5664195390239357,-0.5580055656176061
1772567401254397700,8.492397705078124,-4.984007725477218,-0.5440872957065701,-0.44214046760015185
1772567401264425700,8.50242578125,-3.1745576721101996,-0.35109394982308145,-0.23154802613472564
1772567401274454500,8.51245458984375,-1.0392623842060564,-0.18433686895817517,-0.05753409687620587
1772567401284482800,8.52248291015625,1.1927093171209096,-0.05841974800378084,0.032829856880626174
1772567401294511900,8.532511962890625,2.7829946415156126,-0.054910278578102586,0.3263629017356783
1772567401304539600,8.54253955078125,3.8554251358300444,-0.2774731255561113,0.4933198890868574
1772567401314568700,8.552568603515626,4.677484446525574,-0.42874125312715766,0.4362724888822064
1772567401324597500,8.562597412109374,5.238028663775324,-0.3545063886150718,0.3838966241525486
1772567401334625800,8.572625732421875,5.595412945914268,-0.15994214015305042,0.2854849844349548
1772567401344654800,8.58265478515625,5.781117888355255,0.02972936783134937,0.16990655787177383
1772567401354682600,8.5926826171875,5.992012217110395,0.25034371109008785,0.24043051210194824
1772567401364711700,8.602711669921876,6.21004122005105,0.4639855849877,0.3490789567388594
1772567401374741800,8.61274169921875,6.289743117797374,0.663162587942183,0.3400389603886753
1772567401384769800,8.622769775390625,6.287279942554235,0.8962202331885695,0.48543713648039843
1772567401394798800,8.632798828125,6.415202558112144,1.016907636795938,0.6561681990101933
1772567401404827600,8.64282763671875,6.720950761038065,1.0919283909887074,0.7830988809213042
1772567401414855700,8.652855712890625,6.955606489130854,1.1636036341458558,0.945340310992673
1772567401424884700,8.662884765625,7.034099595609307,1.1511442578062414,1.176156899314001
1772567401434912800,8.672912841796874,7.178766425219178,1.0629498415246605,1.3929428433910012
1772567401444941800,8.68294189453125,7.3265411577165125,1.001778748986125,1.323875298514217
1772567401454970600,8.692970703125,7.18437491275072,0.9894953137353062,1.0915228789277374
1772567401464998700,8.70299853515625,6.971176983228325,0.9115779613181948,0.7911417559929191
1772567401475027700,8.71302783203125,6.675178605422377,0.790063166975975,0.38568584565687924
1772567401485055700,8.7230556640625,6.239700445255637,0.7494187296375632,0.19085414189770816
1772567401495084800,8.733084716796874,5.793152609542012,0.8239061076059937,0.16219088719421998
1772567401505113600,8.743113525390624,5.414769378516078,1.052763963074982,0.1339374006017111
1772567401515141600,8.7531416015625,5.090451499676704,1.239926995369792,-0.04862250354550779
1772567401525170700,8.763170654296875,4.6020507276177405,1.3100702066540717,-0.1463291915978305
1772567401535198700,8.77319873046875,3.652813482251763,1.2221344413086772,-0.07998266918277368
1772567401545227800,8.783227783203126,2.538330729627609,0.8653796892449259,-0.1018705662661232
1772567401555256600,8.793256591796874,1.3420388778448105,0.4558882032498717,-0.21469072536341846
1772567401565284600,8.80328466796875,-0.4246592445105314,0.09081891956627368,-0.1749884277133271
1772567401575314000,8.81331396484375,-2.4153666132599114,-0.3140001907035708,0.20732344799842684
1772567401585341700,8.823341796875,-4.490538564112782,-0.7359545601695776,0.9259704976774752
1772567401595370800,8.833370849609375,-6.475286147674918,-1.1696288857847452,1.6812632339149713
1772567401605399600,8.843399658203126,-7.836976066929101,-1.5950266737028955,1.6881652683883905
1772567401615427800,8.853427734375,-9.134212510973214,-1.3616618622034786,0.6227424608789384
1772567401625457000,8.863456787109374,-10.118294859749078,-0.8065729877501726,-0.6027824996508657
1772567401635484700,8.873484619140624,-10.893250473964214,-0.3351604676321149,-1.411471895033121
1772567401645513700,8.883513671875,-11.704326033830641,-0.29036621713787314,-1.668895042990148
1772567401655542500,8.89354248046875,-12.084403209292889,-0.647826487122476,-1.758847993376851
1772567401665570800,8.90357080078125,-12.23572891227007,-0.9913853652656077,-1.873722180660814
1772567401675600000,8.913599853515626,-11.896110003924369,-1.1747659564122557,-1.8996514255568384
1772567401685627600,8.923627685546874,-10.975043791031837,-1.146573881150782,-1.9635927134610711
1772567401695656700,8.93365673828125,-9.79820132060647,-1.0058432219460607,-2.0418181089140472
1772567401705685500,8.943685546875,-8.445961366742848,-0.8937757626459002,-1.930370388947427
1772567401715713800,8.9537138671875,-6.948046867531538,-0.8897101206421851,-1.6104631661571562
1772567401725742800,8.963742919921875,-5.339772297459841,-0.9173165049701929,-1.0814484980285166
1772567401735770600,8.9737705078125,-3.647489072358608,-0.7945940884038806,-0.5517365318180993
1772567401745799700,8.983799560546874,-1.988829299917817,-0.6740154058679938,-0.20605653333514928
1772567401755827700,8.99382763671875,-0.42693186561763286,-0.6809718008771538,-0.05581150173414498
1772567401765856800,9.003856689453125,0.9424982924997806,-0.6659858286693692,-0.05376468873955309
1772567401775885600,9.013885498046875,2.0154799909561874,-0.6615504765704274,-0.04030453785955906
1772567401785913600,9.02391357421875,2.8463842868864533,-0.5933601529195904,-0.025744682109355925
1772567401795942700,9.033942626953126,3.2885569762557743,-0.2837593662187457,0.10754260228686034
1772567401805970700,9.043970703125,3.360378349885344,0.12442907435372472,0.3278123698916286
1772567401815999700,9.053999755859374,3.22675839946866,0.27759631354436276,0.3214933594705537
1772567401826028500,9.064028564453125,3.170972214838862,0.2712979440525174,0.19866457818662747
1772567401836056800,9.074056884765625,3.2420863169819114,0.27721900466457006,0.11833311383249237
1772567401846086000,9.0840859375,3.42340559168458,0.2590799752533436,0.23702773618744685
1772567401856113700,9.09411376953125,3.6519881373435257,0.13461173793300985,0.4160667361995205
1772567401866142700,9.104142822265626,4.081122481441498,0.040042233661562204,0.6248990543909371
1772567401876171500,9.114171630859374,4.677720593369007,0.0754020085953176,0.76031385233514
1772567401886199800,9.12419970703125,5.25084839785993,0.30205650880113244,0.7789012831009924
1772567401896228900,9.134228759765625,5.775481928294897,0.46091859863251444,0.7984927763428539
1772567401906256600,9.144256591796875,6.3128463454872366,0.4460710119821131,0.7036882942717522
1772567401916285700,9.15428564453125,6.70676675286293,0.5196732776790857,0.6961145710818469
1772567401926314500,9.164314453125,7.022462933829426,0.6982071594469249,0.7698335219610482
1772567401936342800,9.1743427734375,7.213401685270667,0.8699030118882656,0.7848518620684742
1772567401946371800,9.184371826171875,7.2311220508784055,1.016726435010135,0.6287094795245677
1772567401956399600,9.194399658203125,7.19493254712224,1.1855972931586205,0.41767778812535106
1772567401966428700,9.2044287109375,7.147722467657923,1.3569772115185856,0.259110626119934
1772567401976457500,9.21445751953125,7.114272617998719,1.4859963901415467,0.05890610674861818
1772567401986485800,9.22448583984375,6.959779390901327,1.538803266699612,-0.08076240311730652
1772567401996514800,9.234514892578124,6.57032356171906,1.4405433834776282,-0.19166670038960873
1772567402006542600,9.24454248046875,6.011967794424295,1.3392305424258113,-0.22427757847402244
1772567402016571600,9.254571533203125,5.286538135400414,1.3542173914164304,-0.11788286758065224
1772567402026600700,9.2646005859375,4.24136038967073,1.1926949963346123,-0.11010441559888422
1772567402036628700,9.274628662109375,2.996795797628164,0.8680144216626882,-0.22288111914694309
1772567402046657800,9.28465771484375,1.1584089881122113,0.50982729870826,-0.2802512119673192
1772567402056685600,9.294685546875,-0.8132932359158992,0.10184446371048689,-0.13546104823872446
1772567402066715000,9.30471484375,-2.829353657108545,-0.23982757777273653,-0.1753062980234623
1772567402076743700,9.31474365234375,-4.710152205896377,-0.3699193540632725,-0.2929895513787866
1772567402086771700,9.324771728515625,-6.151148886099457,-0.442905387558043,-0.20333120002448557
1772567402096800800,9.33480078125,-7.8077569867074486,-0.6729267338484525,-0.3340286871232092
1772567402106828800,9.344828857421875,-8.832499262651801,-0.7782137392282485,-0.7844413085062056
1772567402116857900,9.35485791015625,-9.428993329682946,-0.8541904789716005,-1.2221809838641433
1772567402126886700,9.36488671875,-9.881097045958041,-0.8831044387668371,-1.5788494458839297
1772567402136914700,9.374914794921875,-10.206764585840702,-0.861265239663422,-1.7066496041059493
1772567402146943700,9.38494384765625,-10.045618915116787,-0.9610060090929269,-1.5148120041288435
1772567402156971800,9.3949716796875,-9.912372474187611,-1.2886664763584732,-1.363297062189877
1772567402167000600,9.40500048828125,-9.621478141522408,-1.6029250257372856,-1.2256934489645064
1772567402177028600,9.415028564453126,-8.666977861061692,-1.7339754179269073,-1.1420304655674844
1772567402187057400,9.425057373046876,-7.5894398144751785,-1.5856217164978383,-1.0369064687296747
1772567402197086500,9.43508642578125,-6.6219742539793245,-1.3254682667940854,-0.788771154404059
1772567402207114500,9.445114501953125,-5.8106227997809645,-1.1478639209613204,-0.5037202140048146
1772567402217143600,9.4551435546875,-5.147935135874152,-1.0681909570485353,-0.1559145651374012
1772567402227171600,9.465171630859375,-4.47793393408358,-0.9389330012336373,0.18349479211084543
1772567402237200400,9.475200439453126,-3.621478432789445,-0.6931964916780591,0.3201640470955521
1772567402247229700,9.485229736328124,-2.588615394231677,-0.4554933587133884,0.2851695252776146
1772567402257257500,9.495257568359374,-1.5058072982877493,-0.2234928213045001,0.1967512371122837
1772567402267286500,9.50528662109375,-0.3213619516432285,0.044999417677521705,0.20539207807704804
1772567402277314600,9.515314453125,0.7312082424253225,0.19218319854438304,0.26253347670808436
1772567402287343600,9.525343505859375,1.4787363360106944,0.18538973901197314,0.30317309174090623
1772567402297372700,9.53537255859375,2.1753648479640484,0.12829027982652186,0.39845794120747596
1772567402307400400,9.545400390625,2.9186563268929717,0.11689283362999557,0.3669148384850472
1772567402317429500,9.555429443359374,3.5058471435278653,0.19746902999281882,0.2973098987959325
1772567402327457800,9.565457763671875,3.8668817648679017,0.29631533480063077,0.40739356386773284
1772567402337486600,9.575486572265625,4.375211810755729,0.3195201231688261,0.5844791830560192
1772567402347515600,9.585515625,4.934907302221656,0.2989179185144603,0.8282720477305352
1772567402357543400,9.59554345703125,5.44818591042757,0.2910455777041614,1.03533483549878
1772567402367572500,9.605572509765626,6.006010931846499,0.37150837682038546,1.1091976518280804
1772567402377600800,9.615600830078124,6.638922466170787,0.47898193245902654,1.1699211467295885
1772567402387629600,9.625629638671874,7.16882195430994,0.5629867880962789,1.2115430507980287
1772567402397658600,9.63565869140625,7.567976170685887,0.6200564366653561,1.2036283321507275
1772567402407686400,9.645686279296875,7.903948246961831,0.678375354643166,1.075616138613224
1772567402417715500,9.655715576171875,8.090998174270988,0.7841404989287257,0.9531502540912479
1772567402427743700,9.66574365234375,8.122664063122867,0.9257279210932552,0.8456270140919834
1772567402437772500,9.6757724609375,8.009889332336186,1.0937807408571243,0.6921130072902888
1772567402447801600,9.685801513671874,7.7694409923166035,1.2182009012520312,0.41148711679168043
1772567402457829400,9.695829345703125,7.4363155376434324,1.334967624284327,0.13338774909600615
1772567402467858400,9.7058583984375,7.160995206207036,1.4222767821639775,-0.09498385722599922
1772567402477886700,9.71588671875,6.749659553650021,1.4120523252695798,-0.3496845944818109
1772567402487915500,9.72591552734375,6.052979603770375,1.3384879073649645,-0.5248551372963934
1772567402497943600,9.735943603515626,5.109710326898098,1.367428170645237,-0.4470802620898932
1772567402507972400,9.745972412109374,4.18964247739315,1.341465169610083,-0.5215889751072973
1772567402518001700,9.756001708984375,3.0207419058829545,1.048674063412845,-0.6213095054663718
1772567402528029700,9.76602978515625,1.5798171218723058,0.4731009115964174,-0.4851206544097513
1772567402538058500,9.77605859375,-0.12004326048493384,-0.2568254743248224,-0.06788637226819992
1772567402548086500,9.78608642578125,-1.760716709858179,-1.1001152045756577,0.5629735632885247
1772567402558115600,9.796115478515626,-3.326506475421786,-1.7832015133887529,0.988547365360707
1772567402568144600,9.80614453125,-5.1347664422214025,-2.1257313407450913,1.200207856182754
1772567402578172700,9.816172607421874,-6.686750969794392,-2.23573193064332,1.4851196073070168
1772567402588201500,9.826201416015625,-7.452286429235339,-2.2664213756784797,1.448762638029456
1772567402598229800,9.836229736328125,-8.03358818783164,-2.184075977686047,1.2196063841357827
1772567402608258600,9.846258544921875,-8.668121770399809,-2.0992855246290563,0.7848528849817812
1772567402618287600,9.85628759765625,-9.152969233891367,-2.0645719386443493,0.2607528769016266
1772567402628315600,9.866315673828124,-9.496678626421094,-2.0886951570317147,-0.1118096120815724
1772567402638344400,9.876344482421874,-9.367938264739513,-2.1239365662828087,-0.2338886161778122
1772567402648372700,9.886372802734375,-9.045319591033458,-2.0736635921165347,-0.20093363736346362
1772567402658401500,9.896401611328125,-8.863858277511596,-1.7798121632114052,0.0038902854368090627
1772567402668430600,9.9064306640625,-8.465036069568992,-1.388299109238386,0.16989442904256283
1772567402678458600,9.916458740234376,-7.865041885462403,-1.1965078326210379,-0.015276333456486463
1772567402688487400,9.9264873046875,-7.13366588525474,-1.1333724542722106,-0.43841940125040707
1772567402698515700,9.936515625,-5.891556869670748,-1.0518515244051814,-0.9494321103509515
1772567402708544500,9.94654443359375,-3.125352619436383,-0.8085445800840854,-1.1809252096943557
1772567402718573600,9.956573486328125,-0.5754729063123464,-0.4343289901316166,0.02585771402977407
1772567402728601600,9.9666015625,-1.635093603414297,-0.8618065069332719,1.2468836826398968
1772567402738630700,9.976630615234376,-0.41267128507494927,-1.6084107636719942,1.2526467762112616
1772567402748658700,9.98665869140625,0.40286826846301554,-1.2547785275429486,0.4879305241987109
1772567402758687500,9.9966875,1.4437357497781513,-0.4007005690351128,0.14079137641601264
1772567402768716500,10.006716552734375,2.4977649104833604,0.3872533507019281,0.03543788167126476
