time,seconds_elapsed,z,y,x
1772563629407900400,0.071900390625,0.07365326523184776,0.02872808183431625,0.18257745807021855
1772563629417898200,0.081898193359375,0.10619769048392771,0.036982407699525356,0.23325433686226604
1772563629427896300,0.091896240234375,0.16238777973949908,0.08945639904141425,0.16634353162795304
1772563629437895400,0.1018955078125,0.8543225809186696,-0.5089624985724688,-0.03774988494068384
1772563629447893200,0.111893310546875,0.04493278218209743,-0.32551761001795526,0.15209522604495285
1772563629457892000,0.12189208984375,-0.637705198341608,0.37029286355078217,0.32124124787300823
1772563629467890200,0.13189013671875,-0.35041736573576926,0.5293497453019023,0.3054454205870628
1772563629477888500,0.141888427734375,0.17959201251864432,0.0573778377354145,0.11242957061082125
1772563629487887600,0.1518876953125,0.13410861071646213,0.034217326900362964,0.07505290289670229
1772563629497885700,0.1618857421875,0.1376829620718956,0.22158757220506667,0.07121610121279955
1772563629507883500,0.171883544921875,0.1024123267263174,0.2234489821627736,0.1061719715207815
1772563629517882600,0.181882568359375,0.08816285209953785,0.09010521833896637,0.0780415633186698
1772563629527880700,0.191880615234375,0.08936988980174064,0.0040308629512786865,0.05149404039382934
1772563629537878500,0.20187841796875,0.07312894909679889,-0.07633329809606075,0.042591479752957816
1772563629547877600,0.211877685546875,0.014025602743029594,-0.044425417181849475,0.008157879753410816
1772563629557875700,0.221875732421875,-0.031275428229570384,0.031280396665632725,-0.11087883403748273
1772563629567873500,0.23187353515625,-0.009047229808568953,0.3846738556027412,-0.08857610907554626
1772563629577872600,0.24187255859375,0.04533668680787086,0.5586331229314208,0.012544716535508631
1772563629587870700,0.25187060546875,0.04695113626718521,-0.29525515822321174,-0.025601181985437867
1772563629597868800,0.261868896484375,0.09949147084355353,-0.38474692083895207,0.10467501096129417
1772563629607867400,0.271867431640625,0.015517887127399444,-0.11343670182675122,0.14059797273576258
1772563629617865500,0.281865478515625,-0.03888005801439285,-0.13018062361776828,0.1754138500511646
1772563629627863600,0.291863525390625,0.2507172205775976,-0.02881137620359659,0.016576164008677004
1772563629637862700,0.301862548828125,0.8869418249726295,0.10752513969540595,-0.05298515573441982
1772563629647860500,0.311860595703125,0.5336550412803888,-0.30440146449208255,-0.30288959862440823
1772563629657858600,0.321858642578125,0.33381752859055996,-0.3526622220531106,-0.37352439281791444
1772563629667857700,0.331857666015625,0.14366729717850685,-0.12659224373698233,0.09929419470578431
1772563629677855500,0.34185546875,0.12344926953613758,-0.023044190979003905,0.2204150212943554
1772563629687854600,0.3518544921875,0.2403822890460491,-0.518663808375597,0.04471270969063043
1772563629697852700,0.361852783203125,0.6346902344346046,-0.7502522578522562,-0.15855185483843087
1772563629707850800,0.371850830078125,1.179948035225272,-1.0496730113223194,-0.5895011394038796
1772563629717849600,0.381849609375,1.6158727701157332,-1.040798215471208,-0.45838002006560563
1772563629727847700,0.39184765625,1.316162678310275,-1.0687930145949125,-0.2917915737658739
1772563629737845800,0.401845703125,0.8728566009968519,-1.1881064995005726,-0.16917495566159485
1772563629747844600,0.4118447265625,0.43764206020236013,-1.608972196947038,0.08533318163156509
1772563629757842400,0.421842529296875,0.4022901763141155,-1.5813412626996635,0.4908174778118729
1772563629767840500,0.431840576171875,1.0222960518360138,-0.7764934913069009,0.6516118508800863
1772563629777839600,0.441839599609375,1.6766034254103899,-0.238187409350276,0.3911871830195188
1772563629787837400,0.45183740234375,1.4523486798226832,-0.6169535022139548,0.37038200313895936
1772563629797835500,0.46183544921875,0.5770715736806392,-0.3241349234879017,0.6396580859750509
1772563629807834600,0.471834716796875,1.1370090572088956,-0.6032172378063202,0.6337044382676482
1772563629817832700,0.481832763671875,1.0761895545870066,-0.2809428474932909,0.8848433913886546
1772563629827830500,0.49183056640625,0.8180851463675498,-0.09326981984972953,1.3264654611378908
1772563629837829600,0.50182958984375,0.8962731324195862,-0.3668587974488735,2.1337357835024595
1772563629847827700,0.51182763671875,0.704009854376316,-0.6258645384222269,2.8787814126223323
1772563629857825500,0.521825439453125,0.6686150081291794,-1.1708008521735667,3.2296623042166233
1772563629867824600,0.53182470703125,1.3378864343404768,-2.073653947505355,3.7734821811586614
1772563629877822700,0.54182275390625,2.003820532822609,-2.9345126521945,4.118491550371051
1772563629887821600,0.551821533203125,2.2162638445854186,-3.307638108822703,4.717434764119982
1772563629897819400,0.5618193359375,2.3029221373409032,-3.0301632297009227,5.3373862791061395
1772563629907817700,0.571817626953125,1.8404741371840236,-1.7857406764775514,5.6368245682328935
1772563629917816600,0.581816650390625,0.5439690761543811,-1.6708043837428093,5.469888039147854
1772563629927814400,0.591814453125,-0.9992062681496143,-1.1798691247701645,3.7700282413125037
1772563629937812500,0.6018125,-3.243818255341053,-1.2163912214815615,1.7927955634251236
1772563629947811600,0.6118115234375,-1.6693687979817389,0.5751344681382179,-0.10650748708546161
1772563629957809700,0.6218095703125,0.27923600704278795,5.059857623970508,-1.7078557650253177
1772563629967807500,0.631807373046875,1.489091725808382,6.1301417539060115,0.39759880362749095
1772563629977806600,0.641806640625,1.117892268806696,6.83414693210721,-1.5295193055257201
1772563629987804700,0.6518046875,0.3102139136305079,8.346451775720714,-3.012782471311092
1772563629997802500,0.661802490234375,0.08922492837309837,9.003265579158068,-3.5423654408469796
1772563630007801600,0.671801513671875,-1.0599720678228883,5.912887242469191,-3.526031853422522
1772563630017799700,0.681799560546875,-1.4591455003559588,1.8350334074348211,-3.4687983925938606
1772563630027797800,0.6917978515625,-1.11450211491175,-0.952635655632615,-2.632386731418967
1772563630037796600,0.701796630859375,-0.33245383902192116,0.6825222451895475,-3.383119174003601
1772563630047794700,0.711794677734375,1.1596879950720815,4.98573966383636,-5.023302794033289
1772563630057792800,0.721792724609375,1.578834686706215,4.548803121554851,-4.8050876208707685
1772563630067791600,0.73179150390625,1.992818661814928,3.236439835527539,-3.8362393738448617
1772563630077789400,0.74178955078125,2.205453696757555,2.593648712223768,-2.7310470121353863
1772563630087788500,0.75178857421875,1.9205600658118724,1.6574287693411112,-1.6361640091247855
1772563630097786600,0.76178662109375,1.0179811112463473,0.8832435549765825,-0.3450305581308901
1772563630107784400,0.771784423828125,0.06653616323564202,-0.10432897400259972,0.5997736732237041
1772563630117783600,0.781783447265625,-0.636151539158821,-0.5658984377592802,0.7391461958177388
1772563630127781600,0.79178173828125,-0.7158651273429394,-0.7177648234844207,0.9981249026536941
1772563630137779500,0.801779541015625,-0.701406393879652,-1.0426438433378935,1.3115072537198662
1772563630147778600,0.811778564453125,-0.6189665956020355,-0.9741144969910382,1.455991712500155
1772563630157776600,0.821776611328125,-0.36349312040805815,-0.6694856534838676,1.31127636757344
1772563630167774700,0.831774658203125,-0.07443769360780715,-0.34222353788614274,0.996209716682136
1772563630177773600,0.841773681640625,0.2668997090935707,-0.010227379503846168,0.6785407743379473
1772563630187771600,0.851771728515625,0.561059181034565,0.2098445274412632,0.4185337473675608
1772563630197769700,0.861769775390625,0.620722499358654,0.30868893255293367,0.15745090785920618
1772563630207768600,0.8717685546875,0.532777600858733,0.334503757289052,-0.061494333143532275
1772563630217766400,0.881766357421875,0.5003144972145557,0.22730828793942928,-0.266292975372076
1772563630227764500,0.891764404296875,0.5888684675235301,0.15575754794478416,-0.4426800543695688
1772563630237763600,0.901763671875,0.8149544471263885,0.1259621291399002,-0.6459060404539108
1772563630247761400,0.911761474609375,0.8906032700896263,-0.1842500674575567,-0.6886433584183455
1772563630257759500,0.921759521484375,0.3953694371402263,-0.8662082490235566,-0.5438216305077076
1772563630267758600,0.931758544921875,-0.05073759600333869,-1.0391630154848097,-0.06487783810198307
1772563630277756700,0.941756591796875,0.102312373483181,-1.3134978430151938,0.445145275439322
1772563630287754500,0.95175439453125,0.15057627284936606,-1.6362749221533537,0.8415566228479147
1772563630297753600,0.961753662109375,0.017543839997053147,-2.0788971088558434,1.1276005928725004
1772563630307751700,0.971751708984375,-0.19699805148020386,-2.6378613634377714,1.3688944438055157
1772563630317750800,0.981750732421875,-0.5556254655480385,-3.2449025434464214,1.6411963042035698
1772563630327748600,0.99174853515625,-0.9183585613690316,-3.8796629205077884,1.905446667832136
1772563630337746700,1.00174658203125,-1.2090928811669348,-4.5045267574548715,2.0060797099262473
1772563630347745500,1.01174560546875,-1.4341443300902843,-5.114448461335897,2.117888226029277
1772563630357743600,1.02174365234375,-1.603409009861946,-5.5863090174823995,2.1542115852981802
1772563630367741700,1.03174169921875,-1.669691454064846,-5.893882097747921,2.168011270330846
1772563630377740500,1.041740478515625,-1.5950830800652502,-6.123663497802615,2.316809208396077
1772563630387738600,1.051738525390625,-1.4512030169188976,-6.102868547055125,2.391232288956642
1772563630397736400,1.061736328125,-0.928728125822544,-5.396769026923179,2.2378768337175248
1772563630407735600,1.071735595703125,0.11821019983887672,-3.876893455794453,1.4862962498709558
1772563630417733600,1.081733642578125,1.263386781412363,-1.9947084210842847,0.5985656126081943
1772563630427731500,1.0917314453125,2.2592589367032048,0.22001637736558913,-0.4033700805053115
1772563630437730600,1.10173046875,2.929366521477699,3.0127468154758215,-1.7213287023216486
1772563630447728600,1.111728759765625,3.1104619242966174,5.778706735560298,-2.6665046895980833
1772563630457726500,1.1217265625,2.593587629686296,8.047178321766852,-3.0207053732648492
1772563630467725600,1.1317255859375,1.548433410962671,10.04796167885065,-3.140719115394354
1772563630477723600,1.1417236328125,0.07941986593455076,11.664223156023025,-3.3631603818193074
1772563630487721700,1.1517216796875,-1.1700021030113101,13.142038285535573,-4.285431878848374
1772563630497720800,1.161720947265625,-1.4306021274387835,14.535186588370799,-5.7011693223714826
1772563630507719000,1.171718994140625,-0.05447393298745155,15.353936920648813,-6.704552583944797
1772563630517716700,1.181716796875,3.0369790471956133,14.606089093589782,-7.156024432057142
1772563630527715600,1.191715576171875,6.284393573462963,13.186825521767139,-6.850077491688728
1772563630537713700,1.201713623046875,7.591296840518712,10.65222404179573,-6.104248603236675
1772563630547712800,1.211712646484375,7.256372811990976,7.545107336273789,-5.814573583233356
1772563630557710600,1.221710693359375,4.966219555330277,6.234288941600918,-5.649384774598479
1772563630567708700,1.231708740234375,2.145882294500619,5.725495369854569,-5.073941094380617
1772563630577707800,1.241707763671875,0.6380959512248635,5.166472078561783,-3.9111338713094588
1772563630587705600,1.25170556640625,0.10641674006208776,4.225591742652655,-2.5707152881428597
1772563630597703700,1.26170361328125,-0.2935901476204395,3.277856134021282,-1.5908680927187204
1772563630607702800,1.271702880859375,-0.4738287874795496,1.9934405931055545,-0.8718766500487923
1772563630617700900,1.281700927734375,-0.5974523906692862,0.4887181674450636,-0.11099047771841287
1772563630627698700,1.29169873046875,-0.929479820972681,-1.0331231507986784,0.5110305370181799
1772563630637697800,1.30169775390625,-1.2762342802867293,-2.5144711306124923,1.0059820458948612
1772563630647696000,1.31169580078125,-1.6027145978569983,-3.8811937833368777,1.4591384860932826
1772563630657693700,1.321693603515625,-1.8664907681025564,-5.0455795077711345,1.8506962559908628
1772563630667692500,1.331692626953125,-2.0940850333765146,-6.064304715383052,2.17745042206645
1772563630677690600,1.341690673828125,-2.261038221335411,-6.816649269339442,2.399296645207703
1772563630687688700,1.351688720703125,-2.3961551323115824,-7.451877263912558,2.733281639319658
1772563630697687600,1.3616875,-2.4771555454358456,-8.100400208866596,3.0417993069589135
1772563630707685600,1.371685546875,-2.494859544430673,-8.511723586463928,3.1543232778549193
1772563630717683700,1.38168359375,-2.5495111720725894,-8.759682448244094,3.2837752949371932
1772563630727682800,1.391682861328125,-2.578570677818358,-8.951704318746923,3.4705677403539417
1772563630737680600,1.4016806640625,-2.6472984693467616,-8.999594197168946,3.6452597058713434
1772563630747678700,1.4116787109375,-2.7131112502112984,-8.993119448196888,3.7602258092224594
1772563630757677800,1.421677734375,-2.804614644910395,-9.025852674019337,3.8576524564906953
1772563630767675600,1.431675537109375,-2.868337760019302,-9.049187956899404,3.920220264084637
1772563630777674800,1.4416748046875,-2.5105191781163216,-9.121974376168847,3.9619209324777125
1772563630787672800,1.4516728515625,-3.0015093821465966,-9.073910894745588,4.019643053606153
1772563630797670700,1.461670654296875,-3.0894588837563988,-9.080092798250913,4.104675790986419
1772563630807669800,1.471669677734375,-3.006256868934631,-9.082556558015941,4.196906330916285
1772563630817667800,1.481667724609375,-2.9414237467572093,-9.062536098772286,4.241593906165659
1772563630827666000,1.491666015625,-2.8572108013272284,-9.038710986548661,4.248794631324708
1772563630837664500,1.50166455078125,-2.6990941230356693,-8.992026392263174,4.292731095945835
1772563630847662600,1.51166259765625,-2.6338740473672746,-8.96331350799799,4.356148213845491
1772563630857660700,1.52166064453125,-2.6325615034639833,-8.917127510884404,4.40127534955591
1772563630867659800,1.53165966796875,-2.572902861315012,-8.90232566307187,4.495823226517438
1772563630877657600,1.54165771484375,-2.535441437926888,-8.871173568961023,4.589339714604616
1772563630887655700,1.55165576171875,-2.50589677901268,-8.835087525579333,4.6966401056334375
1772563630897654800,1.56165478515625,-2.4045251935109495,-8.69096430132687,4.74026794269681
1772563630907652600,1.571652587890625,-2.38471267792955,-8.266048451706766,4.604821361374855
1772563630917650700,1.581650634765625,-2.314203994333744,-7.9937536055713885,4.603876189479232
1772563630927649800,1.59164990234375,-2.2887734927400945,-7.829623366078734,4.5916076595366
1772563630937647900,1.60164794921875,-0.2553741064727306,-6.8000868415951725,4.181836772078276
1772563630947645700,1.611645751953125,1.3063862574443221,-4.40128265607953,3.2192174825698134
1772563630957644800,1.621644775390625,-2.390912847743928,1.5210843623965977,-2.120834216353297
1772563630967643000,1.631642822265625,-4.997841020518541,13.619995989513397,-6.92073975841105
1772563630977640700,1.641640625,-0.46816477036848664,35.6044557967782,-7.421522457659244
1772563630987639600,1.6516396484375,4.220947131717205,48.30177930724621,-11.166972722554206
1772563630997637600,1.6616376953125,4.892498485559225,65.18653580236435,-20.77344501812458
1772563631007635700,1.6716357421875,17.73395340358615,68.89154884293079,-32.7619959898591
1772563631017634600,1.681634521484375,28.625140515279767,41.09986639971733,-32.21108644691706
1772563631027632600,1.691632568359375,17.85759614986777,13.232612290430069,-15.789282978868483
1772563631037631700,1.7016318359375,7.581282811504602,8.53447376293242,-8.599995744156837
1772563631047629800,1.7116298828125,4.12017088176012,5.824796871083975,-5.2696846157550805
1772563631057627600,1.721627685546875,2.5551734356179834,3.197353441286087,-2.8631843227788805
1772563631067626800,1.731626708984375,0.5376161999963224,1.0044149427086115,-1.1146811978057025
1772563631077624800,1.741624755859375,-1.0089596004009247,-0.6506318999320269,0.2976312397047877
1772563631087622700,1.75162255859375,-1.432915957339108,-2.41102420014143,1.1516276574090123
1772563631097621800,1.761621826171875,-1.6717089313670992,-4.0889112356215715,1.7861577328458427
1772563631107619800,1.771619873046875,-2.0121242507874966,-5.428911301115155,2.3970728316783902
1772563631117617700,1.78161767578125,-2.11133632016778,-6.53212856335938,2.875432686716318
1772563631127616800,1.79161669921875,-1.9346881060160694,-7.449329332995414,3.1001237778946757
1772563631137614800,1.80161474609375,-1.7973149405457078,-8.099494784459472,3.2323715631753203
1772563631147613000,1.811613037109375,-1.7251031062938271,-8.49524883700311,3.443380750481784
1772563631157611500,1.821611572265625,-1.7020166836082935,-8.730798883587122,3.6521091333746907
1772563631167609600,1.831609619140625,-1.6514697148062287,-8.906189352762699,3.8609953371778127
1772563631177607700,1.841607666015625,-1.6265500853441655,-8.954331744641065,4.092936253353953
1772563631187606800,1.851606689453125,-1.6100756281442938,-8.929705252906679,4.2777679200917476
1772563631197604600,1.8616044921875,-1.473915053334087,-8.954058188396692,4.462366947117448
1772563631207602700,1.871602783203125,-1.4782910764612256,-8.979317132815718,4.671247013440728
1772563631217601800,1.881601806640625,-1.869790686430782,-9.019500674644112,4.817370763860643
1772563631227599600,1.891599609375,-2.0210918394885957,-9.080908206287026,5.018810158789157
1772563631237597700,1.90159765625,-2.2287283354915677,-9.011867403286695,5.208709630310535
1772563631247596800,1.9115966796875,-2.4861609819293022,-9.124735073053836,5.444304685080051
1772563631257595000,1.921594970703125,-2.6058476840615272,-9.092926560860871,5.675608180135488
1772563631267593700,1.93159375,-2.5889339586615563,-8.913852434736489,5.893669916301965
1772563631277591800,1.941591796875,-2.7294802012100816,-9.020673810076714,6.280993409630656
1772563631287590000,1.95158984375,-2.8839304659485814,-8.929753183701633,6.674006639033555
1772563631297588700,1.961588623046875,-3.1602535446867344,-9.133705145972966,7.147558801528811
1772563631307586600,1.971586669921875,-3.3746734172195194,-9.37344738354981,7.7308116941928855
1772563631317584600,1.981584716796875,-3.2368943012967706,-9.07967018892467,8.17038501471877
1772563631327583700,1.991583740234375,-2.92920607021898,-8.440547525000571,8.435008595573901
1772563631337581600,2.00158154296875,-2.689691211657226,-8.071256531968713,8.646681507486104
1772563631347579600,2.01157958984375,-2.41825093652457,-7.669939584600925,8.787283571875095
1772563631357578800,2.021578857421875,-2.1050037561453876,-7.215672552812099,8.860974831029772
1772563631367576600,2.03157666015625,-1.658073350854963,-6.638385875076055,8.962368920624256
1772563631377574700,2.04157470703125,0.06287468158602715,-5.6627323319494725,9.27445158726871
1772563631387573800,2.05157373046875,-0.7938017689824104,-5.333026914852857,9.162592217761278
1772563631397571800,2.06157177734375,-0.49685894993320107,-4.586421196809411,9.35182825693786
1772563631407569700,2.071569580078125,-0.7937107296980916,-4.282112671297789,9.214057616582512
1772563631417568800,2.08156884765625,-0.7945769911386072,-3.987740725649893,9.208417564868926
1772563631427566800,2.09156689453125,-0.688630060545355,-3.7531215301752088,9.234540432640909
1772563631437564700,2.101564697265625,-0.6879661898091435,-3.4472418098241087,9.282638985377549
1772563631447563800,2.111563720703125,-1.189403845834732,-3.003676204791665,9.347993208819627
1772563631457561900,2.121561767578125,-3.135572984677553,-1.6051286732614038,8.912052107316255
1772563631467560000,2.131559814453125,-6.831923410838842,6.990110231757163,7.550697703626751
1772563631477558500,2.14155859375,-8.25893657387495,20.748972255647182,-1.654120375445485
1772563631487556600,2.151556640625,-2.8784058573082087,39.08278423426151,-18.87486882058382
1772563631497555500,2.161555419921875,7.079795763379335,64.55197883892059,-41.23958583605289
1772563631507553500,2.171553466796875,17.254534394884107,72.0626315324068,-67.26823803176879
1772563631517551600,2.181551513671875,18.2449798489511,69.77055286064147,-68.62459068164826
1772563631527550700,2.19155078125,7.213196518087386,45.23079482233524,-35.060876158332825
1772563631537548500,2.201548583984375,0.9844224674504249,15.840566591382025,-16.090653112840652
1772563631547546600,2.211546630859375,5.383606763011217,6.654960577780008,-8.714009076827764
1772563631557545700,2.221545654296875,24.623999333047866,-5.670865369522571,-2.9594390036582947
1772563631567543600,2.23154345703125,20.416386314678192,-13.322061675208806,1.7209551928341387
1772563631577541600,2.241541748046875,12.166837162351607,-12.99316172927618,6.5142041996121405
1772563631587540700,2.251540771484375,8.455461016494036,-11.253156968057155,8.399342823430896
1772563631597538600,2.26153857421875,5.930008473140001,-9.879546893906593,8.610834533557295
1772563631607536600,2.27153662109375,4.163725945848226,-9.056745240411162,7.25634709302783
1772563631617535500,2.281535400390625,1.599287253756821,-7.8958450200051065,5.436530543947219
1772563631627533600,2.291533447265625,-0.26702012060284613,-7.2141498732894656,4.4121600239247085
1772563631637531400,2.301531494140625,-1.5374050903394818,-6.88394235188961,4.071680114835501
1772563631647530500,2.311530517578125,-2.1075734605029224,-6.725605893367528,3.9361470242738723
1772563631657528600,2.321528564453125,-2.354716914246976,-6.688969230365752,4.150755405116081
1772563631667526400,2.3315263671875,-2.390657411678135,-6.859961172321438,4.542718833205104
1772563631677525500,2.341525390625,-2.3968808162376285,-7.189446809187531,5.031803495875001
1772563631687523600,2.351523681640625,-2.4299136095285414,-7.4148366962850085,5.414091333124041
1772563631697521700,2.361521728515625,-2.4412699930623174,-7.49405987060368,5.88304915356636
1772563631707520500,2.3715205078125,-2.392397533343732,-7.483590499037504,5.970903378108144
1772563631717518600,2.3815185546875,-2.369605563560128,-7.3808438257902855,6.083908995041251
1772563631727517700,2.391517578125,-2.434446284522116,-7.257290511357784,6.241816999018192
1772563631737515800,2.401515869140625,-2.5485087170317766,-7.200640987896919,6.440879435682296
1772563631747513600,2.411513671875,-2.612648303987086,-7.122475798198581,6.624591743001341
1772563631757512400,2.421512451171875,-2.662366274619102,-7.034840769365429,6.767583332875371
1772563631767510500,2.431510498046875,-2.6646549700781703,-6.919715676060319,6.966255893439054
1772563631777508600,2.441508544921875,-2.7621958913758395,-6.725374422699213,7.174889876046777
1772563631787507500,2.451507568359375,-2.820713254535198,-6.483886218237877,7.448574130713939
1772563631797505500,2.461505615234375,-2.898847756834328,-6.2280146836370225,7.655142997485399
1772563631807503600,2.471503662109375,-3.06591171169132,-5.953479365098476,7.736624764385819
1772563631817502500,2.48150244140625,-3.30868849465847,-5.728327378410101,7.824698184636235
1772563631827500500,2.49150048828125,-3.533536822225153,-5.498893768879771,7.656796025389433
1772563631837498600,2.50149853515625,-3.7499127972617745,-5.2925043503284455,7.575066421207785
1772563631847497700,2.511497802734375,-3.9772117328509684,-5.061433494985104,7.695023756974935
1772563631857495600,2.52149560546875,-4.174127220614254,-4.774020574694871,7.885348760432004
1772563631867493600,2.53149365234375,-4.368286395406723,-4.424309311401844,8.063452580219506
1772563631877492700,2.54149267578125,-4.513438962706923,-4.036177716560662,8.179481344366073
1772563631887490600,2.551490478515625,-4.671356903555989,-3.6289196887061,8.275175761014223
1772563631897488600,2.561488525390625,-4.7887227615252135,-3.1843574738517404,8.367578150379657
1772563631907487700,2.57148779296875,-4.855572484222054,-2.749968570226431,8.419917409425974
1772563631917485600,2.581485595703125,-4.841921267749369,-2.3317963496476413,8.388028817734122
1772563631927483600,2.591483642578125,-4.773623684331774,-1.9295526428237557,8.40949830674231
1772563631937482500,2.601482421875,-4.80550350819528,-1.5189748228967188,8.495366325902939
1772563631947480600,2.61148046875,-5.431720513316988,-0.7896607236549258,8.593738437327742
1772563631957478400,2.621478515625,-7.957953977915644,3.541376137548685,9.153867644035815
1772563631967477500,2.6314775390625,-9.603800446012615,8.473755382597446,6.742057261952757
1772563631977475600,2.6414755859375,-7.355410693848133,15.34450390639305,-1.5236644420176744
1772563631987474700,2.651474609375,-0.513411879196763,30.7960968991518,-15.52071153717041
1772563631997472500,2.661472412109375,8.45215028451085,46.99600416743755,-34.89456799027919
1772563632007470600,2.671470703125,13.615259024119377,60.51683251123428,-57.678225872611996
1772563632017469700,2.6814697265625,13.431710967451334,64.35034216785431,-69.462523853302
1772563632027467500,2.691467529296875,7.315532272446156,47.923107322406764,-48.991010110163685
1772563632037465600,2.701465576171875,1.9578161758862436,22.770632396543025,-22.06380514665842
1772563632047464700,2.711464599609375,-1.2742121268093585,2.576819157975912,-12.599356472712754
1772563632057462800,2.721462890625,-1.632581620593369,-1.2929185808449983,-7.023472403132915
1772563632067460600,2.731460693359375,-1.1781098600126803,0.862529852771759,-2.8386504777640105
1772563632077459500,2.74145947265625,-0.13175715221948922,-0.02171031202673912,-0.7261842767834663
1772563632087457500,2.75145751953125,18.00344605178237,-6.955825684839486,-1.8262761004835366
1772563632097455600,2.76145556640625,37.485489323365684,-21.512792727863786,-3.110141606301069
1772563632107454500,2.771454345703125,23.672491220140454,-19.371205061817168,2.0843565433055162
1772563632117452500,2.78145263671875,8.013934223812818,-10.807011283403634,5.945616376638412
1772563632127450600,2.79145068359375,3.843309750622511,-8.04384596247375,4.623686805364489
1772563632137449500,2.801449462890625,1.9669253650151193,-6.882485723340511,3.842126678317785
1772563632147447600,2.811447509765625,-0.17117036726251245,-6.876432414650917,4.394042183431983
1772563632157445600,2.821445556640625,-1.577127444396913,-7.1437079713195555,5.10166672117412
1772563632167444700,2.83144482421875,-2.316184354496002,-6.855983500862121,5.486075788360834
1772563632177442600,2.841442626953125,-2.9980653791725635,-6.428411583775281,5.762264134803414
1772563632187440600,2.851440673828125,-2.645134569311142,-6.40754473683536,5.878344336876273
1772563632197439700,2.861439697265625,-2.8245339818671344,-6.416251774904132,6.296969561919569
1772563632207437600,2.8714375,-3.0564719754338263,-6.341293272292614,6.7416761536806815
1772563632217435600,2.881435546875,-2.831910648114979,-6.219108908125758,6.930330593577027
1772563632227434800,2.891434814453125,-2.8580259171023963,-6.1869835850685835,7.048177220800518
1772563632237432600,2.9014326171875,-2.9447745184898375,-6.114399994894862,7.191851532241702
1772563632247431400,2.911431396484375,-3.0792692059144375,-5.916708846583962,7.4176687048405405
1772563632257429500,2.921429443359375,-3.165687844695151,-5.617684983476996,7.675612954062223
1772563632267427600,2.931427490234375,-3.243036749574542,-5.28527732168436,7.965649208593368
1772563632277426400,2.941426513671875,-3.3008430418550967,-4.943705525705218,8.27167389037311
1772563632287424500,2.951424560546875,-3.310055106836557,-4.498855141559243,8.639145851284265
1772563632297422600,2.961422607421875,-3.3421927048534155,-3.9467449906557794,8.943255054831504
1772563632307421700,2.971421630859375,-3.438246602463722,-3.3451486320495603,9.05411956808269
1772563632317419500,2.98141943359375,-3.7109611353158947,-2.954631895637512,8.914827417248487
1772563632327417600,2.99141748046875,-4.055784334306419,-2.791492128486931,8.957172521024942
1772563632337416700,3.001416748046875,-4.434847656551003,-2.5015520278066394,8.941444206017255
1772563632347414500,3.01141455078125,-4.878829441168904,-2.236063939076662,8.828945369562506
1772563632357412600,3.02141259765625,-5.219432099854946,-2.109160145172477,8.67082226153016
1772563632367411700,3.03141162109375,-5.476024349945783,-1.9925793001011012,8.492727209571003
1772563632377409800,3.041409912109375,-5.701335911110043,-1.832601211851835,8.317940551507473
1772563632387407600,3.05140771484375,-5.901061780118942,-1.6271981739893555,8.132884428364038
1772563632397406500,3.061406494140625,-6.122057816171646,-1.3697016685351728,7.986848648488521
1772563632407404500,3.071404541015625,-6.277029766696691,-1.0360869690403343,7.868969288039207
1772563632417402600,3.081402587890625,-6.381320746776462,-0.6602370558843016,7.7652832881152625
1772563632427401500,3.0914013671875,-6.465115466794371,-0.33432401680797336,7.515005627998709
1772563632437399600,3.101399658203125,-6.634369625172019,-0.017987930502742527,7.458471255350113
1772563632447397400,3.1113974609375,-7.586406145867705,0.5962772094100713,7.034526881110668
1772563632457396500,3.121396484375,-8.868754232859612,1.6980540635876356,6.213782744666934
1772563632467394600,3.13139453125,-10.479687208485602,4.070499965140224,4.814722002917528
1772563632477393400,3.141393310546875,-11.023661983728408,8.050831583577393,4.020703960835934
1772563632487391500,3.1513916015625,-8.381606675732135,13.606677073734998,1.7567653418838978
1772563632497389600,3.1613896484375,-1.4664105229228734,24.79772859101295,-12.674824093890189
1772563632507388700,3.171388671875,8.760762644696236,35.67877658600807,-32.948039954996105
1772563632517386500,3.181386474609375,15.283856253206729,42.455718698859215,-51.376266247320174
1772563632527384600,3.191384521484375,15.648105744940041,47.8616857622385,-64.56795732929706
1772563632537383700,3.2013837890625,11.973307809895276,49.40442139995098,-67.18955203306675
1772563632547381500,3.211381591796875,5.925602347135544,26.543634685230252,-49.342041223883626
1772563632557379600,3.221379638671875,0.7999696439623832,-1.5857254691332578,-27.835909707474705
1772563632567378400,3.23137841796875,-0.6887025412596762,-2.5820313396662473,-13.916474844312667
1772563632577376500,3.24137646484375,-0.9474936165690422,1.2821417507648467,-7.913980396154522
1772563632587374300,3.251374267578125,-0.9063036011118442,2.6237843227684494,-4.363700821182132
1772563632597373400,3.26137353515625,0.017367168255895377,2.599068983706832,-2.1409417693585158
1772563632607371500,3.27137158203125,2.5751918490350243,0.6253448984622955,-0.6484224071890116
1772563632617369300,3.281369384765625,22.17542778480053,-9.180575033697485,-0.1344493869781494
1772563632627368400,3.291368408203125,30.26775925350189,-19.78137576224804,3.972085768139362
1772563632637366500,3.301366455078125,18.698126936799287,-16.966542797923086,8.816053154763578
1772563632647364600,3.311364501953125,6.093239717966318,-11.130636503803728,10.413318255043029
1772563632657363500,3.321363525390625,1.4753227281749248,-9.174332924437522,8.889411820963025
1772563632667361500,3.331361572265625,-0.8359878828048706,-7.746844545105099,7.7083789131104945
1772563632677359600,3.341359619140625,-2.3488307788178324,-6.673050945743918,6.854016584703325
1772563632687358700,3.351358642578125,-3.099819241990149,-6.0330251955002545,6.72513652229011
1772563632697356500,3.3613564453125,-3.2323116496816278,-5.405972324076295,6.683010614222288
1772563632707354600,3.371354736328125,-3.2391467563986778,-5.361234772205353,6.9709601256072515
1772563632717353500,3.381353515625,-2.9241397267401217,-5.073725405803322,7.3741329299747935
1772563632727351600,3.3913515625,-2.704208397309482,-4.832428924521803,7.685421231371164
1772563632737349600,3.401349609375,-2.6475606274142858,-4.450549668073654,8.090850290232897
1772563632747348500,3.411348388671875,-2.6360060909599063,-3.8998064216092225,8.513058634459972
1772563632757346300,3.42134619140625,-2.6623686127066613,-3.3415392093807457,8.997342618849872
1772563632767345400,3.431345458984375,-2.684553264246881,-2.7884920698881146,9.387202352657914
1772563632777343500,3.441343505859375,-2.7622870767906305,-2.245003324596584,9.683191962635517
1772563632787341600,3.451341552734375,-2.877654454419017,-1.7246084546446798,9.845918180549145
1772563632797340400,3.46134033203125,-2.8360090233445168,-1.3950444918453693,9.878969386279582
1772563632807338500,3.47133837890625,-2.901916204494238,-1.0378750215008854,9.88432477583289
1772563632817336600,3.481336669921875,-3.0167417303308843,-0.6681358463101089,9.964087463855742
1772563632827335700,3.491335693359375,-3.111320586952567,-0.31908392370864747,10.015694901496172
1772563632837333500,3.50133349609375,-3.201161601397395,0.10340703685209154,10.011281761229037
1772563632847331600,3.51133154296875,-3.364231810443103,0.5072179929926991,9.705675012600421
1772563632857330700,3.52133056640625,-3.6159278129249808,0.7904289315484464,9.45865840010643
1772563632867328500,3.53132861328125,-3.938590325772762,1.039989310241118,9.268198956614732
1772563632877326600,3.54132666015625,-4.244504532915354,1.3492583077043294,9.120334207746385
1772563632887325400,3.551325439453125,-4.515195743246376,1.6426239989191294,9.003580636456608
1772563632897323500,3.561323486328125,-4.754456627047062,1.8829443286448715,8.88584097673893
1772563632907321300,3.5713212890625,-4.957268187111616,2.2134769903458653,8.768472488421201
1772563632917320400,3.581320556640625,-5.11795033197701,2.6160052131995557,8.670341784536838
1772563632927318500,3.591318603515625,-5.318969747927785,3.0419132887274025,8.5615716132164
1772563632937316400,3.60131640625,-5.526780723714828,3.431398344004154,8.420853228971362
1772563632947315500,3.6113154296875,-5.651766116777062,3.7642204318165775,8.298312306451797
1772563632957313500,3.6213134765625,-5.843167225033045,4.009711442178488,8.369075110939145
1772563632967311600,3.6313115234375,-6.1856280788064,4.26968924305439,8.272216911208629
1772563632977310500,3.641310546875,-7.202042086866498,4.625915587329864,8.075204392811656
1772563632987308500,3.65130859375,-9.992506918132305,5.007078219941258,6.9727353185862295
1772563632997307600,3.6613076171875,-10.948195531594752,6.067108666887879,6.0244894223451615
1772563633007305700,3.6713056640625,-11.36424418414831,9.796288180461525,2.785427421620488
1772563633017303600,3.681303466796875,-7.085496605369448,19.888041654765605,-6.590089753940701
1772563633027302400,3.691302490234375,4.466692116840184,36.13046003104448,-34.87233277759552
1772563633037300500,3.701300537109375,16.630736141341924,47.71283375589847,-65.19390545434952
1772563633047298300,3.71129833984375,14.837981786710023,48.67386723752021,-70.55283487222194
1772563633057297400,3.72129736328125,8.70083161534667,42.5055433447361,-68.78396408200264
1772563633067295500,3.73129541015625,1.0990075355947018,14.493168816852569,-50.17270761940479
1772563633077293300,3.741293212890625,-2.8336294347316024,-8.567008835834264,-24.207829099941254
1772563633087292400,3.75129248046875,-1.8352432507932186,-4.881388770262896,-12.914430137866734
1772563633097290500,3.76129052734375,-1.4947697714447974,-0.15230828427374363,-8.03159146105647
1772563633107288600,3.77128857421875,-0.6941336994629352,2.727729265889525,-5.57903464256525
1772563633117287400,3.781287353515625,4.911398416340351,1.8434423393398522,-5.239574724173545
1772563633127285500,3.791285400390625,25.874410897552966,-9.072111736369132,-7.0244427094697945
1772563633137283600,3.80128369140625,26.493522454583644,-15.704022277951239,-2.271412900355458
1772563633147282700,3.81128271484375,13.366350898790358,-9.302764658561347,4.593385775125026
1772563633157280500,3.821280517578125,7.312249597513675,-4.576334687080979,6.358115812277793
1772563633167278600,3.831278564453125,3.5216593374267218,-2.8286919783294198,6.705254010212421
1772563633177277400,3.84127734375,0.7525394920065999,-2.0221949784249067,6.662265932357311
1772563633187275500,3.851275634765625,-0.7256979545712471,-2.01707865832448,5.719278979557752
1772563633197273600,3.861273681640625,-1.9559937827646732,-2.437747371894121,4.995559047061205
1772563633207272400,3.8712724609375,-2.6354461189895866,-3.0366280418008564,4.888593294814228
1772563633217270500,3.8812705078125,-2.409912147246301,-3.583466974303126,5.374674684014916
1772563633227268400,3.891268310546875,-2.036034410946071,-3.824068459057808,5.845982282453775
1772563633237267500,3.901267333984375,-1.8547917086109518,-3.9109839414447545,6.466968401184678
1772563633247265500,3.911265625,-1.815190788976103,-3.947805605624616,7.098802077144384
1772563633257264600,3.9212646484375,-1.776503769315779,-3.869316006277501,7.585280356708169
1772563633267262500,3.931262451171875,-1.6768112229421734,-3.6038799399957058,8.277543659189343
1772563633277260500,3.941260498046875,-1.562395446950197,-3.2258515137568113,8.836980791980027
1772563633287259600,3.951259765625,-1.635513290131092,-2.8960981658652423,9.154441644531488
1772563633297257500,3.961257568359375,-1.7005401813149452,-2.27162420501858,9.419714044684172
1772563633307255600,3.971255615234375,-1.7854194816991686,-1.5973884343981741,9.679149409246444
1772563633317254700,3.981254638671875,-1.6632149515271186,-0.9712740128681063,9.762813196361064
1772563633327252500,3.99125244140625,-1.6953008193567394,-0.3046209524616599,9.958516970247029
1772563633337250600,4.00125048828125,-1.8235095583796501,0.37661870557144284,10.175111556470393
1772563633347249400,4.01124951171875,-1.9693299419388173,1.029904773274064,10.208055210173129
1772563633357247500,4.02124755859375,-2.3717758933365345,1.6423820068567991,10.365155989420414
1772563633367245300,4.031245361328125,-2.710293562442064,2.239085771115869,10.476574044901131
1772563633377244400,4.041244384765625,-2.803745460860431,2.844930288685858,10.326935272097588
1772563633387242500,4.051242431640625,-2.83026814160496,3.470624731238186,10.158934328651428
1772563633397240300,4.061240234375,-2.9804984505608676,4.118238160131871,10.08136242867112
1772563633407239400,4.071239501953125,-3.129242904873192,4.722350885473191,10.07341877619028
1772563633417237500,4.081237548828125,-3.14431597084254,5.2109389967977995,9.965574487543105
1772563633427235600,4.091235595703125,-3.047038668917119,5.655099645113944,9.703623925289511
1772563633437234400,4.101234375,-3.027984716618061,6.13036737935543,9.50408861041665
1772563633447232500,4.111232421875,-3.102394353175163,6.616456951862573,9.418230528128147
1772563633457230600,4.121230712890625,-3.1977827726140617,7.0558046469390385,9.436369995930791
1772563633467229700,4.131229736328125,-3.2314488953724503,7.336902392733097,9.444716383993626
1772563633477227800,4.141227783203125,-3.232622030805051,7.467420285481214,9.446417927214503
1772563633487225900,4.151225830078125,-3.2862297023519873,7.377562904423475,9.529315406131744
1772563633497224700,4.161224609375,-3.473366723422706,7.221362873408198,9.487902030247449
1772563633507222500,4.171222412109375,-3.6464287496507164,7.02736064274311,9.418955919793248
1772563633517220600,4.181220703125,-3.941832084172964,6.63061757916212,9.272724909606575
1772563633527219700,4.1912197265625,-4.752505200718343,6.372089392572641,9.581879706105589
1772563633537217500,4.201217529296875,-6.7669128862679,5.836290325000882,9.970500838029384
1772563633547216600,4.211216552734375,-9.549301378583907,6.050699968400597,9.582144494521618
1772563633557214700,4.221214599609375,-8.957186549550295,11.288498330551386,10.049093313229083
1772563633567212800,4.231212890625,-8.564597098517417,22.837880470907688,1.842926206511259
1772563633577211600,4.241211669921875,-1.0712941837608814,45.54329425308704,-33.43427331988811
1772563633587209700,4.251209716796875,15.113749861913918,63.501223585319515,-69.98285588715076
1772563633597207800,4.261207763671875,18.654021253091095,61.48361768825054,-70.04729358026981
1772563633607207000,4.27120703125,5.95921586292386,38.8133477001667,-69.3195872084856
1772563633617204700,4.281204833984375,-2.0329156944036484,9.706097037404776,-48.811374843025206
1772563633627202800,4.291202880859375,-3.3107460117101666,5.5334173852503294,-16.66936719303131
1772563633637201700,4.30120166015625,-0.9310789997976273,6.41170477912426,-5.8449582001030445
1772563633647199700,4.31119970703125,22.468053471302984,-2.5182997489899397,-2.757620546284318
1772563633657197800,4.32119775390625,52.72617512788772,-21.31286052262783,3.8272938508450984
1772563633667196700,4.33119677734375,35.881135726130005,-16.561132443761824,10.763423486089707
1772563633677194500,4.341194580078125,14.211786993420123,-4.651870697319508,7.2696280148833985
1772563633687192600,4.351192626953125,7.058391740822792,-0.9726502696573733,1.9803455492109059
1772563633697191700,4.361191650390625,4.564555401960015,-1.2332453256487845,2.309188796520233
1772563633707189800,4.371189697265625,1.1650349821232258,-0.9890998846769332,2.262891740247607
1772563633717187600,4.3811875,-0.4207295038461685,-1.5643588559776544,1.7947277005314826
1772563633727186700,4.391186767578125,-0.14245499877929688,-2.0056711291253566,1.5688795482724904
1772563633737184800,4.401184814453125,-0.6325836175441741,-2.4824457607984542,2.4184435364872217
1772563633747182600,4.4111826171875,-0.880392841720581,-3.279324453008175,3.734235627919435
1772563633757181700,4.421181640625,-0.9697884504854678,-3.7026124091655013,5.294944729217886
1772563633767179800,4.4311796875,-1.1078585121788085,-3.9067806445360183,6.36705607458055
1772563633777177900,4.441177734375,-1.337713561991602,-4.031453610648215,7.282548871254921
1772563633787176700,4.4511767578125,-1.641737425342947,-3.8223227844342587,8.220576740342379
1772563633797174800,4.4611748046875,-1.4889584548175334,-3.473482166495919,8.779026615661381
1772563633807173600,4.471173583984375,-0.9491860997006296,-3.00427270938009,8.730351139819621
1772563633817171700,4.481171630859375,-0.9859132174648344,-2.242589249192178,9.214919201847911
1772563633827169500,4.49116943359375,-1.1410057256296275,-1.4758651644885539,9.52227367092669
1772563633837168600,4.501168701171875,-1.7164289475813508,-0.7373714412301778,9.739096220687031
1772563633847166700,4.511166748046875,-2.357070783896744,-0.005083002352714539,10.063471382671594
1772563633857164500,4.52116455078125,-2.4972227664306756,0.8214768346324562,10.135155978178977
1772563633867163600,4.53116357421875,-2.713979849739373,1.6183447131872175,10.271113431632518
1772563633877161700,4.54116162109375,-2.9582234903886913,2.337674594031274,10.316643010663986
1772563633887159800,4.551159912109375,-3.223139039927721,2.9756740991443396,10.118224717122315
1772563633897158700,4.56115869140625,-3.4279920426920056,3.5906633155480026,10.138238746625184
1772563633907156700,4.57115673828125,-3.655404375527799,4.2410716358572245,10.068242250335215
1772563633917154800,4.58115478515625,-3.829045955209434,4.908258949270844,10.02709190930128
1772563633927154000,4.59115380859375,-3.8839524343952534,5.510456196379661,10.00133553675413
1772563633937151700,4.60115185546875,-3.8208334226593372,5.989702186602353,9.769194421830774
1772563633947149800,4.61114990234375,-3.6808114962458607,6.460794096463919,9.543006077831983
1772563633957148700,4.621148681640625,-3.61794382892251,6.910828605249524,9.34761619220078
1772563633967146800,4.631146728515625,-3.5499618873253462,7.322289345490932,9.2170451079607
1772563633977144800,4.641144775390625,-3.4694191548407076,7.62703567789793,9.042797379079461
1772563633987143700,4.651143798828125,-3.383958547437191,7.9221029123336075,8.878571862518786
1772563633997141500,4.6611416015625,-3.3100632901430127,8.237755838680267,8.75622032509148
1772563634007139600,4.6711396484375,-3.304342866669595,8.40850988022685,8.59167273696959
1772563634017138700,4.681138671875,-3.411806631566584,8.383383622276783,8.43808902593255
1772563634027136800,4.69113671875,-3.743231419801712,8.21219937261939,8.480337683597206
1772563634037134600,4.701134521484375,-3.859663504052162,7.949858349743485,8.501773270335793
1772563634047133700,4.7111337890625,-3.8693548769831656,7.5539774559497825,8.534535137730836
1772563634057131800,4.7211318359375,-4.10441158709228,6.964609295275807,8.408512218314408
1772563634067129600,4.731129638671875,-4.208599691319465,6.644523939439654,8.513650755134224
1772563634077128700,4.741128662109375,-6.095090314269066,6.327111602205037,8.462972707298398
1772563634087126800,4.751126708984375,-9.952670582306384,5.627015706402063,7.414097860616445
1772563634097126000,4.7611259765625,-10.014462729352712,7.269231124520301,8.778101902031898
1772563634107123700,4.771123779296875,-10.144925677043199,11.72672841977477,8.950358164834975
1772563634117121800,4.781121826171875,-8.596831142646074,26.568547008168697,-5.7867421579778195
1772563634127120600,4.79112060546875,1.9719199584320186,53.03697710707188,-49.547563796472545
1772563634137118700,4.80111865234375,13.749582154369353,66.57525693640709,-71.13129176278115
1772563634147116500,4.811116455078125,16.44446888884306,58.779404322504995,-69.72432419342994
1772563634157115600,4.82111572265625,7.570999902421236,40.92385516829491,-65.98167729551791
1772563634167113700,4.83111376953125,0.4510734964445233,20.934712269401548,-34.77044827413559
1772563634177111600,4.841111572265625,-5.58901360026598,1.2632029492780565,-9.953077409541606
1772563634187110700,4.851110595703125,-5.823139167004824,-7.960763774639368,-1.5566361527711152
1772563634197108700,4.861108642578125,34.89030799474716,-7.145976500773429,-7.662062567615509
1772563634207106800,4.87110693359375,78.16029374299049,-32.42461463130712,-12.262214768135546
1772563634217105700,4.881105712890625,35.0201443349719,-18.69340633801818,1.017403603619337
1772563634227103700,4.891103759765625,3.27368264772892,-5.060872353971004,4.524185397648811
1772563634237101800,4.901101806640625,0.07714607578366994,-2.1577117023736236,5.141881827184558
1772563634247101000,4.911100830078125,-2.0143582934498787,-1.438546364441514,5.102897139751911
1772563634257098800,4.9210986328125,-2.4225018719673157,-1.5630331603318453,4.411928553256392
1772563634267096800,4.931096923828125,-2.2351734199777242,-1.50119951223135,3.9770834302961826
1772563634277095700,4.941095703125,-1.6775798692271113,-2.0650661519020796,4.133187599721551
1772563634287093800,4.95109375,-1.5484318035274742,-2.886305378386378,4.871965985140204
1772563634297091800,4.961091796875,-1.6169067893385887,-3.4514012675911188,5.633334388029575
1772563634307090700,4.971090576171875,-1.7452106592990457,-3.8722827471286054,6.176687231981754
1772563634317088500,4.981088623046875,-1.790908580634743,-4.1067660412639375,6.676058895388246
1772563634327086600,4.991086669921875,-1.798632306754589,-4.306598877778649,7.21930769444406
1772563634337085700,5.001085693359375,-1.7123580448806286,-4.409679897546768,7.680379145550727
1772563634347083800,5.011083740234375,-1.6007517733514307,-4.470556098791957,7.9885554524064055
1772563634357082600,5.02108251953125,-1.5760244515910744,-4.255415218508244,8.483784609180688
1772563634367080700,5.031080810546875,-1.4667081906951962,-3.9881384927958248,8.764492478874326
1772563634377078800,5.041078857421875,-1.3966558725647626,-3.74642349384129,8.766196944704651
1772563634387078000,5.051077880859375,-1.2365280005812644,-3.6086423320919274,8.605439981037378
1772563634397075700,5.06107568359375,-1.1017197171628474,-3.1978762961164113,8.739261591506004
1772563634407073800,5.07107373046875,-1.167577798473835,-2.564657303278148,8.988687603229284
1772563634417073000,5.081072998046875,-1.4971005524799226,-1.828912586466968,9.243650206291676
1772563634427070700,5.09107080078125,-2.1335604269355533,-1.521568931043148,9.161500915393233
1772563634437068800,5.10106884765625,-2.569389007975161,-1.0259624653890729,9.032486412945389
1772563634447067600,5.111067626953125,-2.926944262766838,-0.2119618118561804,9.045984776943921
1772563634457065700,5.121065673828125,-3.370407576468587,0.513993770737946,8.987384703937172
1772563634467063600,5.1310634765625,-3.780719438935816,1.1525647921286524,8.824342844203114
1772563634477063000,5.14106298828125,-4.1271535802543164,1.7610063404545186,8.59659499580264
1772563634487060700,5.151060791015625,-4.471515883734822,2.3289685788758097,8.367049158069491
1772563634497058800,5.161058837890625,-4.9421366689532995,2.8716718728780743,8.266057804057002
1772563634507058000,5.171057861328125,-5.493568774464726,3.3226544761687515,8.2786513281703
1772563634517055700,5.1810556640625,-5.927023904371262,3.7631548484116792,8.270997598546742
1772563634527053800,5.1910537109375,-5.775814521250129,4.317535282334685,7.887476420110463
1772563634537053000,5.201052978515625,-5.731148865571618,4.964183665588497,7.654418190342187
1772563634547051000,5.211051025390625,-5.770120693522691,5.5863867588937275,7.492001184508204
1772563634557048800,5.221048828125,-5.874534423199296,6.183478791818023,7.414455588012934
1772563634567048000,5.2310478515625,-6.0394280482798814,6.632226183402538,7.475792392507195
1772563634577046000,5.2410458984375,-6.181738670152425,6.873252031049132,7.635494878685474
1772563634587043800,5.2510439453125,-6.354350906786323,7.0248197260886425,7.70420893394947
1772563634597042700,5.261042724609375,-6.663499858066439,7.1908514152884475,7.662615525323152
1772563634607040800,5.271040771484375,-7.539993354260921,7.436271113979816,7.549062795901298
1772563634617038800,5.281038818359375,-9.189811064076423,7.305977093115448,6.913696269640326
1772563634627037700,5.29103759765625,-9.065330697926878,7.292320908206701,6.5324740157961845
1772563634637035800,5.301035888671875,-9.619778351867199,7.248648939740657,6.76265990499854
1772563634647033900,5.311033935546875,-10.821741235023737,8.199100237071514,6.4812085234612224
1772563634657032700,5.32103271484375,-11.799829896342754,12.375317415702343,5.969052781805396
1772563634667030800,5.33103076171875,-9.116777392047643,22.731918342745303,-1.1299731672227382
1772563634677030000,5.34102978515625,-0.35415596774220465,42.713993202948565,-33.39483445894718
1772563634687026700,5.351026611328125,8.085152370852231,58.128546212601655,-67.99926916406154
1772563634697024800,5.361024658203125,8.183097196775675,56.683075017333024,-69.9914740778923
1772563634707024000,5.37102392578125,2.6480875738978384,44.99739289369583,-68.63440597321987
1772563634717022000,5.38102197265625,-0.383322148732841,26.751771239709853,-46.48157814276218
1772563634727019800,5.391019775390625,-7.96687553551793,-13.669685026311873,-15.744253750574588
1772563634737019000,5.401018798828125,-5.529731390213966,-14.945503419274091,-8.26981043458879
1772563634747017000,5.411016845703125,1.5615946519613264,8.558018304648995,-12.140278825771809
1772563634757014800,5.421014892578125,53.89237579278946,-7.971097537127137,-24.426419243896007
1772563634767014000,5.431013916015625,73.9071815407276,-30.207324366283416,-22.06787108092308
1772563634777012000,5.441011962890625,25.918163530039784,-14.006650205278396,-2.6867572040319443
1772563634787010800,5.4510107421875,6.421081679278612,-2.795577059713006,1.8565578415006398
1772563634797008600,5.461008544921875,2.49472539665699,-1.1442647274255753,2.442223640525341
1772563634807006700,5.4710068359375,0.47287484775558114,-1.4836492424935102,3.236617530182004
1772563634817005800,5.481005859375,-1.0768705225884914,-1.3829612553417683,3.3648207162469626
1772563634827004000,5.49100390625,-3.13313552839756,-1.1320242545336485,4.1939357906728985
1772563634837001700,5.501001708984375,-3.6202424612537025,-1.9684896917223929,5.508511492052674
1772563634847000800,5.511000732421875,-1.1702210064589977,-2.750965764570236,5.4291340039551255
1772563634856999000,5.5209990234375,-1.3462331146642565,-3.28075068641901,6.024175534090399
1772563634866996700,5.530996826171875,-1.4575778126478194,-3.5093285559028384,6.800590114942192
1772563634876995800,5.540995849609375,-1.4031062177479265,-3.7584915327757593,7.319999773249029
1772563634886994000,5.550993896484375,-1.3851288086391984,-3.915275793419778,7.724689411920308
1772563634896991700,5.56099169921875,-1.4663921104833484,-3.89284564268589,8.10705148344934
1772563634906990800,5.570990966796875,-1.5204220990955828,-3.6418615878656504,8.5189909471184
1772563634916989000,5.580989013671875,-1.4774696770757436,-3.2612764628812667,8.862485235592722
1772563634926987000,5.590987060546875,-1.3672215421572327,-2.826489207588136,9.029252837851644
1772563634936985900,5.60098583984375,-1.5796888193175196,-2.0758806836441157,9.228352099394797
1772563634946984000,5.61098388671875,-2.143278395612538,-1.224603754031658,9.447290033873916
1772563634956982000,5.62098193359375,-3.057086015678942,-0.5481044223934411,9.655465751320124
1772563634966980900,5.63098095703125,-3.6310669298678633,0.09186462922692298,9.767503400003909
1772563634976978700,5.640978759765625,-3.837190390959382,0.8207042428247631,9.361773312368989
1772563634986976800,5.650976806640625,-4.256725132063031,1.585963223411888,8.992641893813014
1772563634996975900,5.660975830078125,-4.712428334134817,2.287569669908285,8.753668887042998
1772563635006973700,5.6709736328125,-5.065893397003412,2.887176316002011,8.484758422648905
1772563635016971800,5.6809716796875,-5.3279515112847085,3.5353453329518434,8.229043539914489
1772563635026971000,5.690970947265625,-5.613682762098312,4.1982600836128,8.030777806586027
1772563635036969000,5.700968994140625,-5.880728017142415,4.835434243817627,7.839964142829179
1772563635046966800,5.710966796875,-6.049712710928916,5.337098694336414,7.6802248317718504
1772563635056966000,5.7209658203125,-6.060515259972214,5.811869000449776,7.5445158001214265
1772563635066964000,5.7309638671875,-6.0076154444336884,6.348513286674022,7.399125332412123
1772563635076963000,5.740963134765625,-5.916692479971051,6.897330241250992,7.290442254853248
1772563635086961700,5.750961669921875,-5.832687332072854,7.4446309460461135,7.204995675975084
1772563635096959700,5.760959716796875,-5.683035699787736,7.894429307988285,7.20731622787714
1772563635106957800,5.770957763671875,-5.527479227373004,8.21687905486822,7.278755324190855
1772563635116957000,5.78095703125,-5.323017562013864,8.338457269835471,7.414895732995867
1772563635126954800,5.790954833984375,-5.053467630672454,8.457723116207122,7.6208081816852085
1772563635136952800,5.800952880859375,-4.818073066911101,8.600382113125919,7.9062068395435805
1772563635146952000,5.810951904296875,-4.66509755090028,8.529515263742208,8.23372146859765
1772563635156949800,5.82094970703125,-4.56761449726969,8.334856614995003,8.387605039364098
1772563635166947800,5.83094775390625,-4.640637063382566,8.288314644050597,8.629621067091822
1772563635176947000,5.840947021484375,-4.499428265272081,8.227199373352526,8.92946267632246
1772563635186944800,5.85094482421875,-4.470087896758318,8.195888873809576,9.509149400937556
1772563635196942800,5.86094287109375,-5.038717805308103,8.09968300050795,9.988998617750406
1772563635206942000,5.87094189453125,-6.857257758581638,8.09134596479535,10.617751278829575
1772563635216940000,5.88093994140625,-7.967092977660894,9.516966796690225,11.489731681513785
1772563635226937900,5.890937744140625,-6.616894174236059,17.314781066054106,9.189675454998016
1772563635236936700,5.900936767578125,-5.915175645667314,39.83892175076008,-15.610250938320158
1772563635246934800,5.910934814453125,3.842807938580215,71.0019487590313,-67.43875008125305
1772563635256932600,5.9209326171875,18.492660478311777,74.19902162981033,-70.37136186826228
1772563635266931700,5.930931640625,15.378496192365883,59.513432883048054,-69.53460241656303
1772563635276929800,5.9409296875,5.042165899935364,33.95341760525703,-58.372506944656365
1772563635286929000,5.950928955078125,-1.479454275021702,16.28723133147359,-24.613071111798284
1772563635296926700,5.9609267578125,-5.755560253250598,-5.8244636936068535,-8.422541912710667
1772563635306924800,5.9709248046875,-5.257728805023431,-21.937436190283297,1.6577537635117767
1772563635316924000,5.980923828125,-1.8147616037786005,-6.844489462423324,2.8244910195082427
1772563635326922000,5.990921875,6.728315736848115,-1.5844108794033527,2.1656606155514715
1772563635336919800,6.000919921875,49.408269892072674,-19.52635119986534,-2.90618262976706
1772563635346919000,6.0109189453125,45.790303851318356,-25.60401107138395,4.279886227419972
1772563635356917000,6.0209169921875,20.299184999620913,-15.353497360187768,12.69416007800102
1772563635366914800,6.030914794921875,6.773464207607507,-9.226317963218689,12.616279550462961
1772563635376913700,6.04091357421875,3.529393146549165,-6.6994046996623275,11.782677686011791
1772563635386911700,6.050911865234375,0.8618247732423245,-5.2806537535369396,10.853506492596864
1772563635396910000,6.06091015625,-1.4765584074497222,-4.100602550198137,10.17015948702097
1772563635406908700,6.07090869140625,-3.0870179203450676,-3.3408629175543783,9.495385079479217
1772563635416906800,6.08090673828125,-3.0828163770020005,-3.0582790248557923,8.748826123186946
1772563635426904800,6.09090478515625,-2.495676121510565,-2.6282012624278663,7.994605253964662
1772563635436904000,6.100904052734375,-2.6100696856707333,-2.683869958157837,7.940210231432318
1772563635446901800,6.11090185546875,-2.3391329761460424,-2.906529835769534,8.193536757725477
1772563635456899800,6.12089990234375,-2.3780349537312984,-2.7729963945925236,8.65295518092811
1772563635466899000,6.13089892578125,-2.482404844266176,-2.7319360699295996,8.961263005208968
1772563635476896000,6.14089599609375,-2.5844983143016695,-2.597619369420409,9.39655294932723
1772563635486893800,6.150893798828125,-2.730417774321139,-2.3499184279240666,9.547409281226992
1772563635496893000,6.160892822265625,-2.930366346170008,-1.916818687326461,9.59653659248948
1772563635506891000,6.17089111328125,-3.0769732039317486,-1.3905100632861256,9.679148240202665
1772563635516889000,6.18088916015625,-3.161258337815106,-0.8646566356673836,9.74419032895565
1772563635526888000,6.190887939453125,-3.2674989906579253,-0.35382176735177634,9.791695591974257
1772563635536886000,6.200885986328125,-3.400215854755044,0.04396393714994192,9.758861828386783
1772563635546884000,6.210884033203125,-3.6158255215942856,0.36267902754619713,9.64407400421202
1772563635556883200,6.22088330078125,-3.916926190975308,0.48155675138309595,9.332962228426336
1772563635566881000,6.230881103515625,-4.294007691752911,0.5542676211982965,8.852304617840051
1772563635576879000,6.240879150390625,-4.522795404595136,0.8081779387287795,8.396310908389092
1772563635586878000,6.2508779296875,-4.656851992863416,1.0345846016533673,7.997002378234267
1772563635596876000,6.2608759765625,-4.942047821626067,1.1970227964058517,7.634306545683741
1772563635606875000,6.270875,-5.329518029949068,1.294222649180889,7.249396543237567
1772563635616873000,6.280873046875,-5.568428492876887,1.3636805085495114,6.886558671867847
1772563635626871000,6.29087109375,-5.8639411329925055,1.3923035225741565,6.725194389957189
1772563635636870000,6.300869873046875,-6.202106335398555,1.491982478813827,6.613911943554878
1772563635646868000,6.310867919921875,-6.3940744298875325,1.7343670475929975,6.465749673044681
1772563635656866000,6.320865966796875,-6.504589399048686,2.0655285087168216,6.432411467066407
1772563635666865200,6.330865234375,-6.595653233286738,2.4588383829787372,6.365445132252574
1772563635676863000,6.340863037109375,-6.650996934846043,2.8979481776461005,6.34342560814619
1772563635686861000,6.350861083984375,-6.664029434898495,3.35356048656404,6.438530826729536
1772563635696860200,6.360860107421875,-6.694657797396182,3.7795191232353447,6.778779265150427
1772563635706858000,6.37085791015625,-6.70760671081841,4.172848871241509,7.093527936133742
1772563635716856000,6.38085595703125,-6.729784640356898,4.6401796750038855,7.181367547628283
1772563635726855000,6.39085498046875,-6.7517591562777755,5.160112480401993,7.198351415655017
1772563635736853200,6.400853271484375,-6.8257233871549365,5.7980643469810484,7.6100424575209615
1772563635746851000,6.41085107421875,-7.788744243201613,6.3120467195421455,8.629041805899142
1772563635756850000,6.420849853515625,-11.769403193897007,7.498692206579446,7.500838570958376
1772563635766848000,6.430847900390625,-12.510904282277822,11.956508650785684,3.95631127590239
1772563635776845800,6.440845703125,-7.655236520987748,22.122675853300095,-7.608666492992639
1772563635786845000,6.450844970703125,0.8146884896665811,38.56311621727943,-44.06454739568233
1772563635796843000,6.460843017578125,9.672695118540524,53.11316602826118,-70.22868241307735
1772563635806840800,6.4708408203125,9.46072526950836,54.12128391714096,-69.63613153071402
1772563635816840000,6.48083984375,6.301250015717744,43.82653943455219,-68.99447613344192
1772563635826838000,6.490838134765625,0.9310840412989259,25.706014817309377,-48.34876551482677
1772563635836836000,6.500836181640625,-2.305485265827179,13.02447456690669,-19.870676678466797
1772563635846835000,6.5108349609375,-3.9667327166736124,1.6282643419161438,-8.853311164534091
1772563635856833000,6.5208330078125,-6.735111388337612,-28.04389194817543,-3.629636020281911
1772563635866831000,6.5308310546875,-2.8643127422869203,-19.68291889514923,-1.1911451365441084
1772563635876830200,6.540830322265625,-1.5478268233716488,-4.6501007650375366,-1.4697802916169165
1772563635886828000,6.550828125,0.18184183727204797,0.7306093997493386,-3.516634495002031
1772563635896826000,6.560826171875,15.569232699233293,-3.4127067952767014,-6.209554897838831
1772563635906825000,6.570824951171875,32.87319309606552,-15.23782866152525,-9.003672406393289
1772563635916822800,6.58082275390625,28.230695791769026,-15.536175648283958,0.5222083491146564
1772563635926821000,6.590821044921875,17.151701796919106,-7.763772299030423,7.957470578312873
1772563635936820000,6.600820068359375,7.396522456437349,-3.208837542852759,8.492242056402564
1772563635946818000,6.610818115234375,2.076048587556928,-2.1489728078618646,7.631576243937015
1772563635956817000,6.62081689453125,-0.5958956627465785,-2.5320658240139484,7.2474091688126325
1772563635966815000,6.63081494140625,0.09168678844198584,-2.816455597090721,6.462485118290782
1772563635976813000,6.64081298828125,-0.7930546038769185,-3.1935677852675317,6.538944673115014
1772563635986812200,6.650812255859375,-1.345539141050726,-3.171369981984794,6.429747216293215
1772563635996810000,6.66081005859375,-1.4325684590756893,-3.2728628557786346,6.487752246016264
1772563636006808000,6.67080810546875,-1.5167726366773246,-3.4198344551995397,7.026399688756466
1772563636016807200,6.68080712890625,-1.579897201371193,-3.4745439505085347,7.630740377634763
1772563636026805000,6.690804931640625,-1.665915296526998,-3.4781010584682224,8.206296870577335
1772563636036803000,6.700802978515625,-1.7024290638014674,-3.275987417539954,8.86985605662167
1772563636046802000,6.710802001953125,-1.7369689006544649,-2.9973464172482487,9.38334801531732
1772563636056800000,6.720800048828125,-1.9171397359743714,-2.60632699201107,9.79172774067819
1772563636066798000,6.730798095703125,-1.9621594657875596,-2.175630220901966,9.807187760138511
1772563636076797000,6.740796875,-1.7622694922581315,-1.800241787777841,9.678446813935041
1772563636086795000,6.750794921875,-1.6475123554825781,-1.441758019964397,9.770462834331394
1772563636096792800,6.760792724609375,-1.892861619286239,-1.3059531267240643,9.770163559123873
1772563636106792000,6.7707919921875,-2.5079843989416957,-1.2801163824170827,9.4916681047827
1772563636116790000,6.7807900390625,-3.156119513621926,-1.3672966532200574,9.060153003028034
1772563636126787800,6.790787841796875,-3.57680167119503,-1.3970076086118817,8.760069401735066
1772563636136787000,6.800786865234375,-3.9260827263772486,-1.2729706023156642,8.434653206264972
1772563636146785000,6.810784912109375,-4.336149966433644,-1.0866386140175164,8.221912372860311
1772563636156783000,6.820783203125,-4.772412554976344,-0.8957666442021727,8.045573809179663
1772563636166782000,6.830781982421875,-5.167138433516025,-0.6454097813695668,7.91555042195022
1772563636176780000,6.840780029296875,-5.485183223435282,-0.3257170781128108,7.822113428840041
1772563636186778000,6.850778076171875,-5.717611338606477,0.07280921562314033,7.72231800661385
1772563636196777200,6.860777099609375,-5.951410742130875,0.5680529854446649,7.5992375703901045
1772563636206775000,6.870775146484375,-6.179028242149949,1.1683937910318374,7.528487040862441
1772563636216773000,6.880773193359375,-6.37856180345714,1.8011109718278049,7.557748206660151
1772563636226772000,6.89077197265625,-6.537620731034875,2.449336395139992,7.477017550387978
1772563636236769800,6.900769775390625,-6.726133716633916,3.094638332220912,7.399294843760132
1772563636246769000,6.910768798828125,-6.91630031465888,3.6210984935611483,7.266235449835658
1772563636256767000,6.92076708984375,-7.068541963437199,4.134899372075498,7.167986088007688
1772563636266765000,6.93076513671875,-7.138241522607207,4.50363477705121,7.141179914146662
1772563636276764000,6.940763916015625,-7.1408274474471805,4.722417228707671,7.13163408716619
1772563636286762000,6.950761962890625,-7.132971473249793,4.940554368197918,7.080398989969492
1772563636296760000,6.960760009765625,-7.189313538196682,5.273773346373439,7.126203294289112
1772563636306759200,6.97075927734375,-7.7663032788127655,5.840967084640265,7.1880217448204755
1772563636316757000,6.980757080078125,-9.757165545862913,6.4297723507344715,7.346490305289626
1772563636326755000,6.990755126953125,-10.934384448385238,7.444080326426029,6.93543522323966
1772563636336754200,7.000754150390625,-12.938717022383212,11.249589046442509,3.4728941374748943
1772563636346752000,7.010751953125,-11.83771626714468,20.616372295928,-5.991794774967432
1772563636356750000,7.02075,-1.5380086091905831,37.563317243933675,-34.69993622953891
1772563636366749000,7.0307490234375,12.632108403235673,53.32262126412391,-67.96208421952724
1772563636376747000,7.0407470703125,14.67382933538556,55.964795814585685,-70.07765130913258
1772563636386745000,7.0507451171875,8.096291019982099,45.4003996938467,-68.42081699855328
1772563636396744000,7.060743896484375,0.3452551606670022,27.134951057362557,-45.84285938346385
1772563636406742000,7.070741943359375,-7.4372694773674,-5.221182158392668,-18.26385639885664
1772563636416739800,7.08073974609375,-7.428568284517526,-35.573445741486545,-9.152174284121394
1772563636426739000,7.090739013671875,-2.1919792981565,-6.894004896220564,-9.849002118039131
1772563636436737000,7.100737060546875,0.30707689424641427,8.97746945912242,-15.96674499362111
1772563636446734800,7.11073486328125,31.135199090147015,0.2284305699676275,-19.37325556460619
1772563636456734000,7.12073388671875,50.11394212670326,-18.365408893883227,-15.237382086801528
1772563636466732000,7.13073193359375,28.571004435944555,-11.0843283416152,0.33429566749632356
1772563636476730000,7.140730224609375,13.778251784014701,-0.7801388620719313,6.983407519248128
1772563636486729200,7.150729248046875,3.334712578231096,3.7078605389520525,6.352636504083871
1772563636496727000,7.16072705078125,3.8371629184305664,4.173041178943216,4.979049810808896
1772563636506725000,7.17072509765625,2.202553591401875,3.819929751817882,4.298455318811536
1772563636516724200,7.18072412109375,-0.030451252365112303,3.041651130659878,3.1200048286676405
1772563636526722300,7.190722412109375,-0.3879015854775905,0.8258110644444823,2.5681530364394187
1772563636536720100,7.20072021484375,-1.005553006827831,-0.9093927262336016,3.3055437668919563
1772563636546719000,7.210718994140625,-1.4331795767113567,-2.0722236224412915,4.439306389525532
1772563636556717000,7.220717041015625,-1.6881112001135945,-2.922874529109895,5.830642089980841
1772563636566716200,7.230716064453125,-1.8675547440722584,-3.4097818477407094,6.768625535404682
1772563636576714000,7.2407138671875,-2.136966728247702,-3.55166138471961,7.480825710499286
1772563636586712000,7.250712158203125,-2.3206220446825028,-3.4878082134902475,8.235126074698567
1772563636596711200,7.260711181640625,-2.341190493197739,-3.228776753553748,8.746955068618059
1772563636606709000,7.270708984375,-2.192828023940325,-2.8400127060279248,9.02560366769433
1772563636616707000,7.28070703125,-2.1846073080837725,-2.4262042336165903,9.074809889411926
1772563636626706200,7.2907060546875,-2.483542616124451,-1.763118802563846,9.325582055047153
1772563636636704300,7.300704345703125,-2.8939751823619004,-0.972882324847579,9.332098889595269
1772563636646702000,7.3107021484375,-3.526843754327297,-0.18225231776908038,9.525804183140396
1772563636656701200,7.320701171875,-3.8524016963556407,0.7344361184306443,9.577303484231233
1772563636666699300,7.33069921875,-4.2615228877335785,1.8250281462490558,9.636051441276074
1772563636676697000,7.340697021484375,-4.58627389729321,2.9039681685879826,9.824849673557281
1772563636686696000,7.350696044921875,-4.710816222763062,3.9586253980636594,9.6825863979578
1772563636696694000,7.360694091796875,-4.765595860698819,4.993198163148761,9.654307228934764
1772563636706692000,7.370692138671875,-4.730063359546661,5.894338609343767,9.561475800502299
1772563636716691000,7.38069091796875,-4.546901671847701,6.643390551495552,9.311365898168086
1772563636726689000,7.39068896484375,-4.368703451775014,7.317063719797134,9.205511322033404
1772563636736687000,7.40068701171875,-4.087059470275044,8.040762609505652,9.084527565827965
1772563636746686000,7.41068603515625,-3.7228096862807867,8.75842455713749,9.067745357853173
1772563636756684000,7.42068408203125,-3.364355144561827,9.443231698393822,9.08140212728381
1772563636766682000,7.43068212890625,-2.973811812403798,10.005845707654952,9.044632777813076
1772563636776681200,7.44068115234375,-2.5483435895979403,10.347695151531696,8.98039382213652
1772563636786679000,7.450678955078125,-2.0730526206113398,10.481412717103957,8.8459654779464
1772563636796677000,7.460677001953125,-1.6159657090961932,10.716540154361724,8.65233967937827
1772563636806676200,7.47067626953125,-1.223559797936678,11.032586463940143,8.412530806306004
1772563636816674000,7.480674072265625,-0.9021253655791283,11.246672282212971,8.161775591805577
1772563636826672000,7.490672119140625,-0.6668646573305129,11.526180128467082,7.831358811569213
1772563636836671200,7.500671142578125,-0.3704774994026869,11.806880399376153,7.66109109223485
1772563636846669300,7.51066943359375,-0.16880480717495083,11.443818656122684,7.568824896469712
1772563636856667100,7.520667236328125,0.000656125821173191,10.45527757437229,7.594896910837292
1772563636866666000,7.530666015625,0.23447364952415226,9.485448207354546,7.9774320008456705
1772563636876664000,7.5406640625,0.3606377309769392,8.68538913154304,8.830146562045812
1772563636886663200,7.5506630859375,0.20806904220134018,8.232718429034948,9.526845216625928
1772563636896661000,7.560660888671875,-0.13959376412928104,9.005787206590176,9.769941440805793
1772563636906659000,7.5706591796875,-0.8506231418788432,11.152862364137173,9.472559499686955
1772563636916658200,7.580658203125,-1.945990275144577,16.296100866627693,5.613145001959801
1772563636926656000,7.590656005859375,-4.211118980664015,27.992243594002723,-9.680662736418842
1772563636936654000,7.600654052734375,-2.864080102574825,49.12799866023063,-48.5466705981493
1772563636946653200,7.610653076171875,18.126715873098373,66.53153937523365,-70.94176170909404
1772563636956651000,7.620651123046875,29.058205769085884,59.77265665068626,-69.385432430315
1772563636966649000,7.630649169921875,16.414931828713417,40.361241159033774,-65.65652413489818
1772563636976648200,7.640648193359375,2.06905668284297,11.485166565555334,-33.04302710015774
1772563636986646300,7.650646240234375,-2.2117478284657,-2.4767048790588975,-10.325686733341216
1772563636996644000,7.66064404296875,-1.6060373125389218,-2.4640587479755283,-2.2830782037079334
1772563637006643000,7.670642822265625,3.202381498581171,0.37074089957922696,-0.013839140260219573
1772563637016641000,7.68064111328125,58.20216323747635,-18.92941406524181,-8.889797605410218
1772563637026639000,7.69063916015625,66.97727238743305,-39.88845647377968,-12.041188336944579
1772563637036638000,7.700637939453125,19.424405906128882,-22.463145825517177,-1.2171470082849263
1772563637046636000,7.710635986328125,4.370816206145286,-9.960671517932415,2.3319413110762834
1772563637056634000,7.720634033203125,1.3626220855377613,-6.08993424668014,2.6534569919764994
1772563637066633000,7.730633056640625,-3.773418176011741,-3.637579088240862,4.623325570836663
1772563637076631000,7.740631103515625,-5.476724607169627,-3.2968542644798755,5.719083164724707
1772563637086629000,7.750629150390625,-3.325989465810358,-4.270698127835988,5.524608055850863
1772563637096628200,7.760628173828125,-2.1431015777409077,-4.247896513441205,5.55533111089468
1772563637106626000,7.7706259765625,-2.286690548986196,-4.5299914535790675,6.335453314092755
1772563637116624100,7.7806240234375,-2.1530724982656535,-4.615935460585355,6.933833048740029
1772563637126623200,7.790623291015625,-2.128043270949274,-4.649552775765955,7.464528071171045
1772563637136621000,7.80062109375,-2.170917513166368,-4.567892145167291,8.025403127810359
1772563637146619100,7.810619140625,-2.2424787745550274,-4.410945679698885,8.567046829757095
1772563637156618200,7.8206181640625,-2.253593896678835,-4.128818006335199,9.037032824203372
1772563637166616300,7.8306162109375,-2.201788013856858,-3.7383553381979464,9.473698148328065
1772563637176614100,7.8406142578125,-2.263870814412832,-3.359886182454228,9.668056937345861
1772563637186613000,7.850613037109375,-2.440956543198973,-2.9610403013750908,9.768580673846602
1772563637196611000,7.860611083984375,-2.602227739998698,-2.595849437138438,9.823449159109591
1772563637206609000,7.87060888671875,-2.8146491321906444,-2.2423184694267806,9.862700973045825
1772563637216608000,7.88060791015625,-3.033428661237657,-1.8688519442759453,9.861021057134867
1772563637226606000,7.890606201171875,-3.301052592952549,-1.4661767141669988,9.73877999434471
1772563637236605200,7.900605224609375,-3.606589491215348,-0.9191685625776648,9.480810026159881
1772563637246603000,7.91060302734375,-3.7245764036923643,-0.6029227849043906,9.393082058346272
1772563637256601000,7.92060107421875,-3.92529654443562,-0.4870502342328429,9.257449014541507
1772563637266600200,7.93060009765625,-4.271740914887189,-0.20066724151223897,9.140466310670972
1772563637276598000,7.940597900390625,-4.5811488093644375,0.028629078439250586,8.862754115661978
1772563637286596000,7.95059619140625,-4.936259301352501,0.38323476271033285,8.677872180041671
1772563637296595200,7.96059521484375,-5.254046317118406,0.6392001861397176,8.388085516357421
1772563637306593300,7.97059326171875,-5.582773244571685,0.9003386282928287,8.073414002263545
1772563637316591000,7.980591064453125,-5.898558272865414,1.1545881877150386,7.769926730006933
1772563637326590000,7.99058984375,-6.239331027421355,1.344334441436082,7.50159611132741
1772563637336588000,8.000588134765625,-6.573183042803406,1.5105917560853064,7.253347911211848
1772563637346586000,8.010586181640624,-6.863404006251693,1.7341127805709837,6.956531202760338
1772563637356585000,8.0205849609375,-7.107712528830766,1.9693109449774027,6.70452803402543
1772563637366583000,8.0305830078125,-7.323752988302707,2.161062474106252,6.496891830283403
1772563637376581000,8.0405810546875,-7.54361388284564,2.2722715630114076,6.278618497192859
1772563637386580000,8.050580078125,-7.787171879318356,2.314592116868496,6.0972682428300375
1772563637396578000,8.060578125,-7.964234665620326,2.3350497984856364,6.066162910470366
1772563637406576000,8.070576171875,-8.075488470450043,2.313589661827683,6.206839793661237
1772563637416575200,8.0805751953125,-8.26143540495336,2.165653455158323,6.665180358499288
1772563637426573000,8.090572998046875,-9.303051658809185,2.104017959978431,7.466901230043172
1772563637436571100,8.100571044921875,-11.696072584748267,4.515969942489266,7.230262803700566
1772563637446570200,8.1105703125,-12.712539784300327,10.52868650945425,2.8090163870006797
1772563637456568000,8.120568115234375,-6.99282182880342,20.602285318386553,-8.0668422226578
1772563637466566100,8.130566162109375,1.046046345257759,32.832830690538884,-33.62348539366722
1772563637476565200,8.140565185546874,5.922987780722975,40.26878382461071,-63.605380709886546
1772563637486563300,8.150563232421876,2.9089178999498486,38.363036712527276,-70.66219190351963
1772563637496561400,8.1605615234375,-2.3669857364505527,28.27916200877428,-58.804538763761514
1772563637506560300,8.170560302734375,-4.481724266277253,15.043236648273467,-28.028273523283
1772563637516558300,8.180558349609376,-6.2877382077157495,5.847387473076582,-11.8048544465065
1772563637526556400,8.190556396484375,-12.820244956737756,-19.222099372977016,-5.882648756071925
1772563637536555300,8.20055517578125,-5.8996823084592815,-16.130426320302487,-2.379571661779284
1772563637546553300,8.21055322265625,-3.409493970710039,-2.424569618152082,0.7912532535433768
1772563637556551400,8.220551513671875,-2.1975825249910352,3.327567967173457,1.0590841060072183
1772563637566550500,8.230550537109375,13.755144464671611,4.4314346332371235,-1.1588123082160948
1772563637576548400,8.24054833984375,45.38034357876777,1.353888013331592,-2.717787717589736
1772563637586547500,8.25054736328125,41.1742549934864,1.6070093724414705,-0.9840624750316143
1772563637596545500,8.260545654296875,16.023879670250416,2.990653933872282,2.2289760266423224
1772563637606543400,8.27054345703125,4.7654666813611986,5.16953497326374,4.892119715374708
1772563637616542500,8.28054248046875,1.6363880271390079,5.446052405530214,4.881147070461512
1772563637626540500,8.29054052734375,-1.2128981186687946,3.9910482427626848,3.2787633119940756
1772563637636538400,8.300538330078124,-0.43989626886993644,2.5738117928534745,-0.5432698418438434
1772563637646537200,8.310537109375,-0.03183803054839372,1.3175959259837866,-1.7131623470008372
1772563637656535300,8.320535400390625,-0.36720366536378857,0.2326093169569969,-1.2999866195350884
1772563637666533400,8.330533447265625,-0.5897904777392745,-0.709789606821537,-0.1749134993135929
1772563637676532200,8.3405322265625,-0.8108756533801555,-1.466485926246643,1.5409604447335004
1772563637686530300,8.3505302734375,-0.8649614638328552,-1.888829295030236,2.755433849895
1772563637696528400,8.3605283203125,-0.8112484322153032,-2.0809353366851804,3.6825504488676786
1772563637706527500,8.370527587890624,-0.7682781822778284,-2.328033197721839,4.551934405317902
1772563637716525300,8.380525390625,-0.7659902174711227,-2.6297511222183703,5.319359039506316
1772563637726523400,8.3905234375,-0.8042401608884334,-2.8770708093121646,5.986119067418575
1772563637736522500,8.4005224609375,-0.766332747298479,-2.8924814366728064,6.4822501414686435
1772563637746520300,8.410520263671875,-0.8377391103863716,-2.6035680486917494,6.867420256155729
1772563637756518400,8.420518310546875,-0.9829669348798692,-2.2510192238852382,6.983280677998065
1772563637766517500,8.430517578125,-1.1035236978448926,-1.929505588811636,7.027590359845757
1772563637776515600,8.440515625,-1.1752759517610072,-1.5159151430651545,6.956144249269366
1772563637786513400,8.450513427734375,-1.314094055342674,-0.9920242476910353,6.266522985729575
1772563637796512300,8.46051220703125,-1.5335492916941642,-0.42808045113086696,4.889793902775645
1772563637806510300,8.47051025390625,-2.0568613642670215,0.15913783803284168,3.3496815993040796
1772563637816508400,8.48050830078125,-2.4762311240673065,0.6449038776740431,1.7636527633100747
1772563637826507300,8.49050732421875,-2.8649881573304534,1.0425821762785314,-0.023822774136066434
1772563637836505300,8.50050537109375,-3.2187153782665727,1.4017819834068417,-1.8507482784390448
1772563637846503400,8.51050341796875,-3.2480653913915156,1.595499844172597,-3.1633371899157763
1772563637856502300,8.520502197265625,-3.4623058157041666,1.5114736534863709,-4.233146688076854
1772563637866500400,8.530500244140624,-3.202880972535908,1.4866180291712283,-4.439358996495605
1772563637876498400,8.54049853515625,-2.891300410194695,1.6699416294336318,-3.433403838607669
1772563637886497500,8.55049755859375,-2.3140029188036917,1.05204090949744,-2.1112048027426003
1772563637896495400,8.560495361328124,-1.4516886084787546,0.507229391169548,-0.957984615445137
1772563637906493400,8.570493408203125,0.31965032541975374,0.15608955637812613,-0.3086521076738834
1772563637916492500,8.580492431640625,6.010665479654073,-1.0211807840704916,0.35144612426161764
1772563637926490400,8.590490478515624,9.106851041316986,-1.9381109200716018,0.41009646615087986
1772563637936489200,8.6004892578125,8.568739020627737,-1.7270798131942748,-0.20016016877293585
1772563637946487600,8.610487548828125,6.244089620125293,-1.2420938180148602,-0.3435112396091223
1772563637956485400,8.6204853515625,3.775387430258095,-0.7384247496753931,-0.11558745011985301
1772563637966484200,8.630484130859376,1.0593054936729371,-0.005681845028698444,0.6990466790109873
1772563637976482300,8.640482421875,0.20345541092604397,0.36079438284337517,1.0487012436807155
1772563637986480400,8.65048046875,0.6884402370616793,0.4907140174373984,0.6241676713764667
1772563637996479200,8.660479248046874,-0.4513549437344074,0.9606640637874603,0.3760223471134901
1772563638006477300,8.670477294921875,-0.9498068619474768,1.4986042350411415,0.21631752284765243
1772563638016475400,8.680475341796875,-0.9857529123365878,1.5175202401742338,-0.0069277534365653985
1772563638026474500,8.690474609375,-1.2129647541642188,1.5684902566939591,-0.3109153764307499
1772563638036472300,8.700472412109375,-1.430542652336508,1.686331038698554,-0.3275140445321798
1772563638046470400,8.710470458984375,-1.6296140029594302,1.7458423813313244,-0.002540332132577896
1772563638056469500,8.720469482421874,-1.7970213644266126,1.5558222060397267,0.6938228068828582
1772563638066467300,8.73046728515625,-1.899889033704996,1.22312666721642,1.5054431411504745
1772563638076465400,8.74046533203125,-1.91685302798748,0.7149553190216421,2.3110779712677
1772563638086464500,8.750464599609375,-1.8412167722448705,0.16880144617408513,2.870224012157321
1772563638096462600,8.760462646484376,-1.7132979560792445,-0.3207525875732303,3.1547476407468316
1772563638106460400,8.77046044921875,-1.5354066099986432,-0.886812061113119,3.039168373933434
1772563638116459300,8.780459228515625,-1.2293138314187526,-0.8491033849656582,1.692614064490795
1772563638126457300,8.790457275390626,-0.9448892792895436,-0.48276247391104693,0.1677601204276085
1772563638136455400,8.800455322265625,-0.5938017592072486,-0.4927022686451673,-0.5977145487368106
1772563638146454300,8.810454345703125,-0.0602044394634664,-1.0278609924867748,-0.6348328577756881
1772563638156452400,8.820452392578124,0.39882381537780165,-1.4277987604558466,-0.5413339053452014
1772563638166450200,8.8304501953125,0.6634370209693908,-1.3239485098809003,-0.6023854631572961
1772563638176449300,8.84044921875,0.7857737992189824,-0.4473527223557234,-1.6503262438595294
1772563638186447400,8.850447265625,0.7347730953000485,0.48048254628032444,-2.3130846349149943
1772563638196445400,8.860445556640625,0.3377577906489372,0.9465788398116827,-2.176955916547775
1772563638206444300,8.8704443359375,-0.09684256376996636,0.8732304027453064,-1.4705956996530294
1772563638216442400,8.8804423828125,-0.2714300459995866,0.1540910760372877,-0.02913198646008968
1772563638226440400,8.8904404296875,-0.07166705985069274,-0.5488616705015301,0.7398316938638687
1772563638236439600,8.900439453125,0.10950783794522286,-1.0428688842654228,1.1215239033073185
1772563638246437400,8.910437255859375,0.044847003594785925,-1.303372170320153,1.322846686118841
1772563638256435500,8.920435546875,-0.20004224148169159,-1.7619488820016382,1.8077835814595222
1772563638266434300,8.930434326171875,-0.4966892924547195,-2.2378516992762685,2.089680953198671
1772563638276432400,8.940432373046875,-0.6312077991463244,-2.787691567160189,2.029323807391524
1772563638286430500,8.950430419921876,-0.5210241808313876,-3.603711305430531,2.137339360952377
1772563638296429300,8.96042919921875,-0.7338358875151724,-3.4137989744275807,1.739921759110689
1772563638306427400,8.970427490234375,-1.378465112966299,-2.5186449091657996,0.8077858706712723
1772563638316426200,8.98042626953125,-1.6214647449038921,-1.3289526017785072,-0.2640764683663845
1772563638326424300,8.99042431640625,-1.5281446561716496,0.07587941684871911,-1.598908775833249
1772563638336422400,9.00042236328125,-0.942139396059513,1.563973656052351,-3.0529835487961767
1772563638346421500,9.01042138671875,-0.14797989968061445,3.15389248522222,-4.157484421110153
1772563638356419300,9.02041943359375,0.4011514546077698,4.581768987089395,-4.3946097541868685
1772563638366417400,9.03041748046875,0.5669700125135481,4.720223518055677,-3.022624650889635
1772563638376416500,9.04041650390625,0.908632482450828,3.6070997788250443,-0.658845017004013
1772563638386414300,9.050414306640626,1.6610605499722062,2.1538632102519273,1.2905290553599595
1772563638396412400,9.060412353515625,2.4223300225317477,0.918787746566534,2.0666396848291155
1772563638406411500,9.07041162109375,2.6853426610589026,0.29347295098155735,1.4622937352538108
1772563638416409600,9.08040966796875,2.6485353176653383,-0.03282996419519186,0.6609668314635754
1772563638426407400,9.090407470703125,2.1869909883499146,-0.25505963369607926,0.21524434065818784
1772563638436406300,9.10040625,1.3570365404903888,-0.35419103905558585,-0.18803426217138766
1772563638446404400,9.110404296875,0.44503027075752616,-0.05394172580689192,-0.8128975145965814
1772563638456402200,9.120402099609375,-0.3714847036838531,0.414421051351726,-0.9813029471904039
1772563638466401300,9.1304013671875,-0.8836895451784134,0.4526125425800681,-0.48302550876140593
1772563638476399400,9.1403994140625,-1.2505039189636706,-0.0799541189417243,1.0172375994026661
1772563638486397200,9.150397216796875,-1.0777895371295512,-0.3373538860231638,1.591816187223792
1772563638496396300,9.160396240234375,-1.0999066763915122,-0.8025012082666159,1.508895911952853
1772563638506394400,9.170394287109374,-1.232909663953632,-1.0481403949275612,0.4210077362656593
1772563638516392200,9.18039208984375,-1.2263164031684397,-1.677412111444771,0.8258002507895231
1772563638526391300,9.190391357421875,-1.0799672464948147,-1.866102499437332,2.127496012330055
1772563638536389400,9.200389404296875,-0.6998691013097763,-0.15032646280676126,2.1705641696840523
1772563638546387500,9.210387451171876,-0.02841711618900299,1.5533496784463523,1.6316712277501821
1772563638556386300,9.22038623046875,0.8962240325808525,1.878426558959484,1.1017173790752888
1772563638566384400,9.23038427734375,1.8124679398834704,1.0864996439382433,0.8232020509898662
1772563638576382500,9.240382568359376,1.5671207219064234,-0.25421996800154445,0.6068266604751348
1772563638586381300,9.25038134765625,0.7348620887577534,-0.31229367904663086,-0.2902010897040367
1772563638596379400,9.26037939453125,0.35529286281764505,0.4005535617798567,-1.640709105208516
1772563638606377500,9.27037744140625,0.06416234677638859,0.4236056438043713,-2.939768088504672
1772563638616376300,9.280376220703126,-0.32980770842731,0.6718935914084315,-3.8083395595282314
1772563638626374100,9.2903740234375,-0.9288836086452007,0.11762713925391435,-2.8833377607524393
1772563638636372200,9.300372314453124,-0.8268471294939518,-0.22448709303885697,-1.295979721981287
1772563638646371300,9.310371337890626,-0.08556286220159381,1.1375357114315032,-0.42576457540392876
1772563638656369400,9.320369384765625,0.46089024932086464,1.568249725936353,0.4170820872545242
1772563638666367200,9.3303671875,0.5008353062182664,0.7810849107503891,0.9086322632551193
1772563638676366300,9.340366455078126,0.584528319427371,1.2483350504919886,0.4736018468558788
1772563638686363100,9.350363037109375,0.6044990212451666,0.702562578177452,0.4051964191496372
1772563638696362200,9.3603623046875,0.2796797687549144,-0.14719137965142726,-0.3743044372797012
1772563638706360300,9.3703603515625,0.11076397548615932,0.7404068634033203,-2.209631274703145
1772563638716358400,9.3803583984375,-0.8601941763658076,0.04765870001465082,-2.3081062619805333
1772563638726357200,9.390357177734375,-2.084401551491022,0.5890738539025188,-2.2768986382901666
1772563638736355300,9.400355224609376,-2.2338901021689175,1.1551523244038224,-2.163776116979122
1772563638746353400,9.410353515625,-2.1442435873828827,1.2017080316126345,-1.9737439589887855
1772563638756352500,9.4203525390625,-1.7166759080797434,1.9317609665229916,-2.0131389807879922
1772563638766350300,9.430350341796874,-0.5935146128289401,3.0950510046750304,-2.2557623267591
1772563638776348400,9.440348388671875,0.6385511476464569,3.1359152222439644,-2.2456097660571337
1772563638786347300,9.45034716796875,2.4379051928043363,2.1386609649449584,-1.9123755903124808
1772563638796345300,9.460345458984374,3.3201334332585333,1.9719430470466612,-1.8205214824795721
1772563638806343400,9.470343505859375,2.5343518891245127,1.6174696839183569,-1.294851010212302
1772563638816342300,9.48034228515625,1.7939101005382836,1.8338392292141914,-1.327919751599431
1772563638826340400,9.49034033203125,1.108779572546482,1.8919547335743903,-1.3949889622658491
1772563638836338200,9.500338134765625,0.4176006312359124,1.002136476382613,-0.8278542607098818
1772563638846337300,9.510337158203125,0.03466390162408352,0.5736451063632965,-0.4758756370067596
1772563638856335400,9.52033544921875,-0.8604337572753429,1.4013538211226462,-0.4960901575177908
1772563638866333200,9.530333251953126,-1.5614933835439384,3.681417060923576,-1.127474336144328
1772563638876332300,9.540332275390625,-2.0414538056463,1.3276216454356908,-1.4481535662204026
1772563638886330400,9.550330322265625,-1.8394500548332928,0.6252069512963294,-1.7803303418666123
1772563638896328400,9.560328369140626,-1.4453373397558926,0.5646580823093652,-1.6772288638323545
1772563638906327300,9.570327392578125,-1.0717682310134171,0.6469324608922005,-1.601708051162958
1772563638916325400,9.580325439453125,-0.9491454754292964,0.4861760817468166,-1.7644921367436646
1772563638926324500,9.590324462890624,-0.06432546491622924,-0.9368377825200557,-1.1751654771238564
1772563638936322600,9.600322509765626,-0.9005588469147682,-2.668500247329473,-1.6521312474548815
1772563638946320400,9.6103203125,-0.182058110371232,-1.9741379267424344,-2.3345535394012926
1772563638956319200,9.6203193359375,1.3418524153620004,-1.421703366190195,-2.7291496540814637
1772563638966317300,9.6303173828125,2.2488602922856806,-1.3168021452575922,-2.810492889294028
1772563638976315100,9.640315185546875,1.2097164198927581,-2.144786754348874,-2.5653742193758484
1772563638986314200,9.650314208984375,-1.9827889968402683,-2.6520167300403115,-1.861426908841729
1772563638996312300,9.660312255859376,-4.33614792060703,-2.3046207579523323,-1.1542378399074078
1772563639006310100,9.67031005859375,-3.2684447470754385,-2.368772619867325,-0.8297031034469604
1772563639016309200,9.680309326171875,-3.1338375391870734,-1.5788877320677042,-0.7739402996927499
1772563639026307300,9.690307373046876,-1.7833491051658987,-1.1920154896378516,-0.43289749602377414
1772563639036305400,9.700305419921875,1.0546621979117392,-0.07669570166766643,0.3254068431198597
1772563639046304300,9.71030419921875,1.6280413468152284,0.7138245614260434,1.0956804369986057
1772563639056302300,9.72030224609375,1.9798226943805812,-0.5216507152318954,1.3112205457329749
1772563639066300400,9.730300537109375,2.229875313569605,-0.540359507355094,1.870919544330239
1772563639076299500,9.740299560546875,2.3823814585030076,-1.0611404540151357,2.506061029663682
1772563639086297300,9.75029736328125,2.4517928483814,-1.4069009338557719,4.067442915657162
1772563639096295400,9.76029541015625,2.7975042283833025,-1.5593401510328053,5.5066573886185886
1772563639106294300,9.770294189453125,3.8590672917246818,-1.3256903851121664,5.656294407856464
1772563639116292400,9.780292236328124,3.607950842696428,-0.30414427486062046,6.880469707342982
1772563639126290400,9.79029052734375,1.3410726631611585,0.5336076950073242,9.950351199448107
1772563639136289300,9.800289306640625,-0.10737608661353587,0.1850169601768255,10.433755478394032
1772563639146287400,9.810287353515625,2.5794647040486334,-1.783128448152542,4.562749813842773
1772563639156285200,9.82028515625,6.9036074218243355,-3.2341298050194975,-2.2355033825844526
1772563639166284300,9.8302841796875,7.265887659311294,-3.681124215456843,-8.19692756920755
1772563639176282400,9.840282470703125,2.1016893709003925,-1.9994442174345253,-7.552496862003207
1772563639186280200,9.8502802734375,-1.146049857276678,-0.453338226506114,-1.2923834510549903
1772563639196279300,9.860279296875,-0.46957916721105575,-1.2973755602538586,-0.17768033367842434
1772563639206277400,9.87027734375,1.6378747585654259,-1.4974983196258544,-2.4947373793557284
1772563639216275500,9.880275390625,2.9478818368554114,-1.2037339844822883,-1.3273346451878547
1772563639226274300,9.8902744140625,2.267284422248602,-1.459415841729939,-0.19817600921839473
1772563639236272400,9.9002724609375,0.5440834963142872,-1.1291785097137093,0.3490931313946843
1772563639246270500,9.9102705078125,-0.42278760541975496,-0.4997290985420346,0.5330108981579542
1772563639256269600,9.92026953125,-1.1917226441711186,0.4252054802164435,0.28082243598401546
1772563639266267400,9.930267333984375,-1.3119155422598123,0.2516886959582567,0.34330373433828354
1772563639276265500,9.940265380859374,-1.0665490350604057,0.09277736015766859,0.4249026978775859
1772563639286264300,9.950264404296876,-0.950063759317994,0.37133711190670726,0.4558855729013681
1772563639296262100,9.96026220703125,-0.9291267697513103,0.8484522275805473,0.657970279996097
1772563639306260200,9.97026025390625,-0.8197229767024516,0.9351362392991781,0.5887082354605198
1772563639316259300,9.98025927734375,-0.7750362782359123,1.4364131518051027,0.08696049057245255
1772563639326257200,9.990257080078125,-0.5872054296821355,2.0595394974350927,-0.6070329967021941
1772563639336255200,10.000255126953125,-0.5739508113116025,1.477489550819993,-0.6517027440339327
1772563639346254300,10.01025439453125,-0.6860030730426311,0.010568155765533447,-0.2920388265252113
1772563639356252400,10.02025244140625,-0.5354015926867723,-0.9783215932920575,-0.3109063163414597
1772563639366250200,10.030250244140625,-0.5570932000130414,-0.7708636687263846,-0.09709697692245245
1772563639376249300,10.040249267578124,-0.4263479282498359,-0.00005406827479600906,0.22468933761268853
1772563639386247400,10.050247314453125,0.013574936366081237,0.12691489982008933,0.47758390222936864
1772563639396246500,10.06024658203125,0.255190566599369,0.027505846562981603,0.336435894395411
1772563639406244400,10.070244384765624,0.7748843025445937,-0.6640814563527703,0.2411222937583923
1772563639416242400,10.080242431640626,-0.19743629676699637,-1.2213070505738257,0.45822219915539025
1772563639426241300,10.0902412109375,-0.12870821297764778,0.5398860446244478,0.3289505070760846
1772563639436239400,10.1002392578125,0.49252632755637166,-0.03128273475319147,0.0063590136379003525
1772563639446237400,10.110237548828126,0.7991536514043808,-0.3089659959286451,-0.008889408898353577
1772563639456236300,10.120236328125,0.70405836969316,-0.08511106331348418,0.3075187197297811
1772563639466234400,10.130234375,0.42368426199853415,0.12667115419209002,0.47043929117172956
1772563639476232200,10.140232177734376,-0.4442722919970751,0.2539294606223702,0.29833237371146676
1772563639486231600,10.1502314453125,0.05758592752814293,0.7508779885351657,0.36168460968136784
1772563639496229400,10.1602294921875,-0.4774053307920694,0.15232465088665484,0.16802110945135354
1772563639506227500,10.1702275390625,-0.4099029894053936,0.010030980148911475,0.10361205790489911
1772563639516226600,10.1802265625,-0.034741643035411836,0.8335060028612613,0.2793821740478277
1772563639526224400,10.190224365234375,0.05743102922737598,0.8518921389013528,0.11063216580003499
1772563639536222500,10.200222412109374,0.14235738362371922,0.5452835197538137,0.09354542192071676
1772563639546221600,10.2102216796875,0.10624152962565421,0.5181669647693634,-0.08377543079555035
1772563639556219600,10.2202197265625,0.15863924086093903,0.34821664082109927,-0.1082768348455429
1772563639566217500,10.230217529296874,-0.0073334116280078885,-0.05944441487640142,-0.03402385015487671
1772563639576216600,10.240216552734376,-0.27391572533547875,-0.11420593263357877,0.19860943219959734
1772563639586214700,10.250214599609375,-0.3081856592059135,-0.1416632638797164,0.47547933116555213
1772563639596212500,10.26021240234375,-0.2541898651242256,0.20327976209819315,0.37796997404992577
1772563639606211300,10.27021142578125,-0.3471995727330446,0.4563154887512326,0.13343611828237772
1772563639616209400,10.28020947265625,-0.137870593598485,0.6544184327334165,0.031074644960463044
1772563639626207200,10.290207275390625,0.045747021174430844,0.5256503062620759,-0.016496376770734785
1772563639636206300,10.300206298828124,0.18549334551692007,0.1886056323185563,-0.00640226825773716
1772563639646204400,10.310204345703125,0.18352526031434535,-0.061902621683478355,-0.02739391062110662
1772563639656202500,10.320202392578125,0.027272622328996656,-0.29393852266669274,0.06038081894367933
1772563639666201300,10.330201416015624,-0.051042789494991296,-0.43401364057213065,0.16498685632199048
1772563639676199400,10.340199462890626,-0.08175181601345538,-0.38185879818201063,0.20945786621123552
1772563639686197500,10.350197509765625,-0.07663841852247714,-0.15338585037738084,0.18027941026091573
1772563639696196600,10.360196533203125,-0.047400049078464505,0.04490180252194404,0.1276078505203128
1772563639706194400,10.3701943359375,-0.05925766013264656,0.1370999014869332,0.04314239163398743
1772563639716192500,10.380192626953125,-0.08322013500034808,0.14402093292176724,-0.04463964445441961
1772563639726191600,10.390191650390625,-0.09239654414653778,0.07498948227167129,-0.12004939796477555
1772563639736189400,10.400189453125,-0.03946925607919693,0.010526654711365699,-0.06199936005622148
1772563639746187500,10.4101875,-0.06468962205350398,-0.004540566039085388,-0.007893091337382793
1772563639756186400,10.420186279296875,-0.05758417396247387,0.002579495099186897,0.03303776172697544
1772563639766184400,10.430184326171876,0.036276012995839116,0.0344815307945013,0.17154168479293583
1772563639776182500,10.4401826171875,0.06808510971069336,0.04940379011631012,0.2553004567146301
1772563639786181400,10.450181396484375,0.015882628786563872,-0.0077060443326830855,0.23373364481180905
1772563639796179500,10.460179443359374,-0.04325988053381443,-0.014935703325271606,0.14303922840803862
1772563639806177300,10.47017724609375,-0.126660048276186,-0.031417174787819385,0.07927811937630176
1772563639816176400,10.48017626953125,-0.12813128987252712,-0.08535276311486958,0.09814122527837753
1772563639826174500,10.490174560546874,-0.054772039151191707,-0.19844868867993354,0.17625234670192003
1772563639836172500,10.500172607421876,-0.010496844094991683,-0.3043628860473633,0.31737638913840055
1772563639846171400,10.51017138671875,-0.0018915128350257872,-0.23319617693424224,0.29558775117844344
1772563639856169500,10.52016943359375,-0.045777416312694545,-0.03944236807227135,0.20518530345857142
1772563639866167600,10.53016748046875,-0.03293547039628029,0.015232640445232391,0.19305939685702322
1772563639876166700,10.540166748046875,-0.038544542449712754,0.16811287938803435,0.2547609430104494
1772563639886164500,10.55016455078125,0.0012736731976270674,0.192020993719995,0.23753829779177904
1772563639896162600,10.56016259765625,0.05322305614352226,0.11745207494795322,0.31887714909017084
1772563639906161700,10.57016162109375,0.03007891192138195,0.09058160367906093,0.28524083694815633
1772563639916159500,10.580159423828125,-0.039764439633488656,0.03910159181058406,0.24288053560256956
1772563639926157600,10.590157470703126,-0.06171791276633739,-0.013828034344315529,0.24346301166564224
1772563639936156400,10.600156494140625,-0.025451836642622946,-0.025052315931022164,0.3028872605368495
1772563639946154200,10.610154296875,-0.022303017222881315,-0.025262743811309336,0.32078473627716303
1772563639956153300,10.6201533203125,-0.02030512140393257,-0.043918052181601525,0.35603608240038154
1772563639966151400,10.6301513671875,-0.025183541095256803,-0.035224458116292955,0.2955708000436425
1772563639976149500,10.6401494140625,0.010236731854081154,0.017743746483325957,0.28911650933772326
1772563639986148400,10.6501484375,-0.030671617117524145,0.22932342715412377,0.257684136980772
1772563639996146400,10.660146484375,-0.07418810276091098,0.21117402247935532,0.30981472171247004
1772563640006144500,10.67014453125,-0.049452305433154105,0.15263181713968516,0.3403600821018219
1772563640016143600,10.6801435546875,-0.02759410936832428,0.09030717065185308,0.15839783332049845
1772563640026141400,10.690141357421876,0.058446928271651266,0.09881693258285522,0.10234919836223125
1772563640036139500,10.700139404296875,0.0905173062711954,0.04690466677695512,0.13673808243721722
1772563640046138600,10.710138671875,0.04924596920609474,0.06751578539013862,0.2229799033463001
1772563640056136400,10.720136474609374,0.01843114422559738,0.059280748747289176,0.29768501571863887
1772563640066134500,10.730134521484375,0.13295242641866206,-0.001342062258720398,0.20113427450209856
1772563640076133400,10.74013330078125,0.18860475553572176,0.008899638031423091,0.0867030086800456
1772563640086131500,10.75013134765625,0.1068085158586502,0.19847031598985193,0.10277589934170246
1772563640096129500,10.760129638671875,-0.07351648710966109,0.28922610719203945,0.1608966643989086
1772563640106128400,10.77012841796875,-0.16334347302913665,0.21748247497379777,0.22130904752463101
1772563640116126500,10.78012646484375,-0.233541629371047,0.10076835891157387,0.1803141893133521
1772563640126124300,10.790124267578125,-0.2424696167141199,0.08109744375795125,0.08336597321182489
1772563640136123400,10.800123291015625,-0.11721651262640953,0.10458704041689634,0.045863048769533635
1772563640146121500,10.81012158203125,0.05392389788925647,0.06638181292414665,0.10070756863504647
1772563640156119300,10.820119384765626,0.1896452044993639,-0.01687310112863779,0.1816623890519142
