time,seconds_elapsed,z,y,x
1772563629407900400,0.071900390625,-0.05174338445067406,-0.062278565019369125,-0.0023426413536071777
1772563629417898200,0.081898193359375,-0.05118332430720329,-0.05789393559098244,0.02123112790286541
1772563629427896300,0.091896240234375,-0.09213542193174362,-0.16335904598236084,-0.03947215527296066
1772563629437895400,0.1018955078125,-0.11381461471319199,-0.22740086913108826,-0.09313671290874481
1772563629447893200,0.111893310546875,-0.08644767105579376,-0.14186635613441467,-0.03887975960969925
1772563629457892000,0.12189208984375,-0.03798719495534897,-0.026673993095755577,0.02459295280277729
1772563629467890200,0.13189013671875,-0.027324631810188293,-0.03565773367881775,0.0066750794649124146
1772563629477888500,0.141888427734375,-0.01282425131648779,-0.023778971284627914,-0.0010403641499578953
1772563629487887600,0.1518876953125,-0.00022749882191419601,-0.01580759696662426,-0.008834904059767723
1772563629497885700,0.1618857421875,0.006512695923447609,-0.009845579043030739,-0.01537749171257019
1772563629507883500,0.171883544921875,0.01248030737042427,-0.016120605170726776,-0.01266552321612835
1772563629517882600,0.181882568359375,0.015797806903719902,-0.009951659478247166,0.0038697775453329086
1772563629527880700,0.191880615234375,0.018347781151533127,-0.0017082476988434792,0.009341001510620117
1772563629537878500,0.20187841796875,0.018151506781578064,-0.002028359565883875,0.018897753208875656
1772563629547877600,0.211877685546875,-0.0003776010125875473,0.0040700421668589115,0.0055682482197880745
1772563629557875700,0.221875732421875,-0.006184623576700687,-0.004455535672605038,-0.05958039313554764
1772563629567873500,0.23187353515625,0.02599211409687996,-0.04556269943714142,-0.11494853347539902
1772563629577872600,0.24187255859375,0.03363166004419327,-0.07799521088600159,-0.0892394408583641
1772563629587870700,0.25187060546875,0.02502988651394844,-0.0716332197189331,-0.0536661297082901
1772563629597868800,0.261868896484375,0.008739330805838108,-0.0437198281288147,-0.08160588890314102
1772563629607867400,0.271867431640625,-0.03044179454445839,-0.03513288497924805,-0.12050607055425644
1772563629617865500,0.281865478515625,-0.05176252871751785,-0.04975922778248787,-0.20979520678520203
1772563629627863600,0.291863525390625,-0.11350392550230026,-0.21712319552898407,-0.46140533685684204
1772563629637862700,0.301862548828125,-0.15314054489135742,-0.41830235719680786,-0.663003146648407
1772563629647860500,0.311860595703125,-0.21135208010673523,-0.48526811599731445,-0.7643486261367798
1772563629657858600,0.321858642578125,-0.19796650111675262,-0.4720681607723236,-0.7179129719734192
1772563629667857700,0.331857666015625,-0.15783444046974182,-0.4663044214248657,-0.7090115547180176
1772563629677855500,0.34185546875,-0.13202334940433502,-0.46379172801971436,-0.781844973564148
1772563629687854600,0.3518544921875,-0.1183638647198677,-0.6089106202125549,-0.9569151401519775
1772563629697852700,0.361852783203125,-0.14913001656532288,-0.8162616491317749,-1.3224033117294312
1772563629707850800,0.371850830078125,-0.23293337225914001,-1.2422822713851929,-1.828016996383667
1772563629717849600,0.381849609375,-0.29374557733535767,-1.8013708591461182,-2.2403149604797363
1772563629727847700,0.39184765625,-0.31974881887435913,-2.29197096824646,-2.474386692047119
1772563629737845800,0.401845703125,-0.30745646357536316,-2.6225881576538086,-2.494192361831665
1772563629747844600,0.4118447265625,-0.22142139077186584,-2.5400664806365967,-2.3580448627471924
1772563629757842400,0.421842529296875,-0.08782179653644562,-2.2130496501922607,-2.3352179527282715
1772563629767840500,0.431840576171875,0.06209879368543625,-2.131174087524414,-2.5932564735412598
1772563629777839600,0.441839599609375,0.1472104787826538,-2.125427007675171,-2.8135688304901123
1772563629787837400,0.45183740234375,0.2333565205335617,-2.1716806888580322,-2.871631622314453
1772563629797835500,0.46183544921875,0.3945169150829315,-2.394256114959717,-2.985398530960083
1772563629807834600,0.471834716796875,0.6396329998970032,-2.7476372718811035,-3.1617238521575928
1772563629817832700,0.481832763671875,0.8852329254150391,-3.1868083477020264,-3.2372708320617676
1772563629827830500,0.49183056640625,1.1355535984039307,-3.6881425380706787,-3.1595993041992188
1772563629837829600,0.50182958984375,1.4034584760665894,-4.240360260009766,-2.904400587081909
1772563629847827700,0.51182763671875,1.7225395441055298,-4.877396583557129,-2.5361459255218506
1772563629857825500,0.521825439453125,2.0793209075927734,-5.421779632568359,-2.253587484359741
1772563629867824600,0.53182470703125,2.4895055294036865,-5.841320514678955,-2.035656690597534
1772563629877822700,0.54182275390625,2.9097883701324463,-6.088323593139648,-1.932733416557312
1772563629887821600,0.551821533203125,3.414179801940918,-6.176704406738281,-1.8516700267791748
1772563629897819400,0.5618193359375,3.979053258895874,-6.161394119262695,-1.9261410236358643
1772563629907817700,0.571817626953125,4.627969264984131,-5.930113315582275,-2.0390496253967285
1772563629917816600,0.581816650390625,5.084216117858887,-5.67494535446167,-2.134364604949951
1772563629927814400,0.591814453125,5.222386837005615,-5.136841297149658,-2.0942299365997314
1772563629937812500,0.6018125,5.25459098815918,-4.4433274269104,-1.9294472932815552
1772563629947811600,0.6118115234375,5.001599311828613,-3.7452516555786133,-2.0277843475341797
1772563629957809700,0.6218095703125,4.788665294647217,-3.359370708465576,-2.2075836658477783
1772563629967807500,0.631807373046875,4.399794578552246,-2.6864981651306152,-2.4085516929626465
1772563629977806600,0.641806640625,3.6684443950653076,-1.9602409601211548,-2.4995169639587402
1772563629987804700,0.6518046875,2.5804381370544434,-1.2352367639541626,-2.5519113540649414
1772563629997802500,0.661802490234375,1.3604322671890259,-0.3828553259372711,-2.2868709564208984
1772563630007801600,0.671801513671875,0.5141893625259399,0.46408388018608093,-1.1942421197891235
1772563630017799700,0.681799560546875,0.47367656230926514,0.9856448173522949,-0.041434310376644135
1772563630027797800,0.6917978515625,1.4146130084991455,1.1042453050613403,1.1214357614517212
1772563630037796600,0.701796630859375,0.9988829493522644,1.3342065811157227,1.4313547611236572
1772563630047794700,0.711794677734375,0.34085342288017273,1.334729552268982,1.312604546546936
1772563630057792800,0.721792724609375,0.04385450854897499,1.022648811340332,1.1416778564453125
1772563630067791600,0.73179150390625,-0.138076052069664,0.6258386969566345,0.8851974606513977
1772563630077789400,0.74178955078125,-0.35679692029953003,0.24197016656398773,0.5043020844459534
1772563630087788500,0.75178857421875,-0.6442844271659851,-0.023667752742767334,0.1051008552312851
1772563630097786600,0.76178662109375,-0.8428363800048828,-0.05162028968334198,-0.26129311323165894
1772563630107784400,0.771784423828125,-0.9415879249572754,0.0991915762424469,-0.445591539144516
1772563630117783600,0.781783447265625,-1.0692356824874878,0.37404099106788635,-0.535811722278595
1772563630127781600,0.79178173828125,-1.138458013534546,0.6293501853942871,-0.49317821860313416
1772563630137779500,0.801779541015625,-1.1322458982467651,0.8350586295127869,-0.4033202528953552
1772563630147778600,0.811778564453125,-1.0751054286956787,0.9253513216972351,-0.31087547540664673
1772563630157776600,0.821776611328125,-0.9963673949241638,0.8622967004776001,-0.26179128885269165
1772563630167774700,0.831774658203125,-0.9116476774215698,0.673251748085022,-0.26490870118141174
1772563630177773600,0.841773681640625,-0.8155043721199036,0.4170181155204773,-0.33177563548088074
1772563630187771600,0.851771728515625,-0.7273156642913818,0.16685643792152405,-0.42441779375076294
1772563630197769700,0.861769775390625,-0.6458269357681274,0.005897647235542536,-0.48841968178749084
1772563630207768600,0.8717685546875,-0.5835263729095459,-0.05196861922740936,-0.5226978659629822
1772563630217766400,0.881766357421875,-0.5326096415519714,-0.0205992441624403,-0.5391412973403931
1772563630227764500,0.891764404296875,-0.4708327353000641,0.06487324833869934,-0.5792860388755798
1772563630237763600,0.901763671875,-0.37936994433403015,0.0841532051563263,-0.6734716296195984
1772563630247761400,0.911761474609375,-0.3102795481681824,0.02378334291279316,-0.7534738779067993
1772563630257759500,0.921759521484375,-0.2772795557975769,0.14502134919166565,-0.6956002116203308
1772563630267758600,0.931758544921875,-0.2059653103351593,0.3511863946914673,-0.5936869978904724
1772563630277756700,0.941756591796875,-0.10971415042877197,0.5319905877113342,-0.5506822466850281
1772563630287754500,0.95175439453125,-0.023019831627607346,0.6446133852005005,-0.5634372234344482
1772563630297753600,0.961753662109375,0.03429299592971802,0.729076087474823,-0.6222419738769531
1772563630307751700,0.971751708984375,0.055066484957933426,0.8345368504524231,-0.6764434576034546
1772563630317750800,0.981750732421875,0.06270256638526917,0.9553253054618835,-0.7153756618499756
1772563630327748600,0.99174853515625,0.05578240752220154,1.1157253980636597,-0.7096884250640869
1772563630337746700,1.00174658203125,0.038785845041275024,1.3073958158493042,-0.6619067788124084
1772563630347745500,1.01174560546875,0.017406921833753586,1.5164366960525513,-0.5715765953063965
1772563630357743600,1.02174365234375,-0.029512647539377213,1.7689893245697021,-0.443602055311203
1772563630367741700,1.03174169921875,-0.06724391877651215,2.0279123783111572,-0.29585105180740356
1772563630377740500,1.041740478515625,-0.09413225203752518,2.2538974285125732,-0.14696648716926575
1772563630387738600,1.051738525390625,-0.08724236488342285,2.4015440940856934,-0.005350733175873756
1772563630397736400,1.061736328125,-0.0816744938492775,2.354832649230957,0.015462668612599373
1772563630407735600,1.071735595703125,-0.11806751042604446,2.051730155944824,-0.17200477421283722
1772563630417733600,1.081733642578125,-0.15841788053512573,1.4881043434143066,-0.5839081406593323
1772563630427731500,1.0917314453125,-0.26203101873397827,0.7428795695304871,-1.1721302270889282
1772563630437730600,1.10173046875,-0.39185982942581177,-0.13859692215919495,-1.8428881168365479
1772563630447728600,1.111728759765625,-0.5297700762748718,-1.0643011331558228,-2.437330722808838
1772563630457726500,1.1217265625,-0.7327921986579895,-1.6647595167160034,-2.8161661624908447
1772563630467725600,1.1317255859375,-0.946860134601593,-1.8097809553146362,-2.8741042613983154
1772563630477723600,1.1417236328125,-1.1759138107299805,-1.6000075340270996,-2.6190757751464844
1772563630487721700,1.1517216796875,-1.4248311519622803,-1.119726538658142,-2.0482468605041504
1772563630497720800,1.161720947265625,-1.5241096019744873,-0.6225844025611877,-1.189453125
1772563630507719000,1.171718994140625,-1.2710328102111816,-0.29094329476356506,-0.23515355587005615
1772563630517716700,1.181716796875,-0.7184413075447083,-0.3091558516025543,0.523597002029419
1772563630527715600,1.191715576171875,0.0326899029314518,-0.6505968570709229,1.0061694383621216
1772563630537713700,1.201713623046875,0.3918621838092804,-0.8743487000465393,1.1817563772201538
1772563630547712800,1.211712646484375,0.38447776436805725,-0.8228787183761597,1.1275376081466675
1772563630557710600,1.221710693359375,0.27937930822372437,-0.6510348320007324,1.1389635801315308
1772563630567708700,1.231708740234375,0.11164430528879166,-0.4401527941226959,1.2117842435836792
1772563630577707800,1.241707763671875,-0.011309309862554073,-0.2782938480377197,1.1940455436706543
1772563630587705600,1.25170556640625,-0.06021083891391754,-0.2816719710826874,1.0703964233398438
1772563630597703700,1.26170361328125,-0.052721764892339706,-0.3669282793998718,0.8723110556602478
1772563630607702800,1.271702880859375,0.013988221064209938,-0.5686875581741333,0.5894213914871216
1772563630617700900,1.281700927734375,0.07589419931173325,-0.7626985907554626,0.33481279015541077
1772563630627698700,1.29169873046875,0.1039775013923645,-0.904335081577301,0.15911898016929626
1772563630637697800,1.30169775390625,0.10227733850479126,-0.9956830739974976,0.05784189701080322
1772563630647696000,1.31169580078125,0.08693856000900269,-1.0445173978805542,0.023488875478506088
1772563630657693700,1.321693603515625,0.05946832150220871,-1.0906751155853271,0.029268469661474228
1772563630667692500,1.331692626953125,0.01813589408993721,-1.1421598196029663,0.06285081058740616
1772563630677690600,1.341690673828125,-0.03180956095457077,-1.2290289402008057,0.12334797531366348
1772563630687688700,1.351688720703125,-0.07820408791303635,-1.318706750869751,0.1906016319990158
1772563630697687600,1.3616875,-0.13112802803516388,-1.405238151550293,0.24039769172668457
1772563630707685600,1.371685546875,-0.19948241114616394,-1.4278614521026611,0.2825176417827606
1772563630717683700,1.38168359375,-0.277599573135376,-1.3600411415100098,0.29737570881843567
1772563630727682800,1.391682861328125,-0.3423382639884949,-1.2528265714645386,0.27972888946533203
1772563630737680600,1.4016806640625,-0.3948417007923126,-1.1230672597885132,0.22914452850818634
1772563630747678700,1.4116787109375,-0.4377624988555908,-0.9635246396064758,0.16141273081302643
1772563630757677800,1.421677734375,-0.48027560114860535,-0.7612823247909546,0.09030313044786453
1772563630767675600,1.431675537109375,-0.5240898132324219,-0.5355192422866821,0.009086753241717815
1772563630777674800,1.4416748046875,-0.5607708692550659,-0.31685981154441833,-0.06390330195426941
1772563630787672800,1.4516728515625,-0.592147707939148,-0.09370729327201843,-0.09497098624706268
1772563630797670700,1.461670654296875,-0.6020584106445312,0.12349773943424225,-0.10874512046575546
1772563630807669800,1.471669677734375,-0.6063872575759888,0.3241434693336487,-0.12492905557155609
1772563630817667800,1.481667724609375,-0.5985274910926819,0.5049598813056946,-0.1543186455965042
1772563630827666000,1.491666015625,-0.5956295728683472,0.6368180513381958,-0.19636064767837524
1772563630837664500,1.50166455078125,-0.583607017993927,0.7710299491882324,-0.24173079431056976
1772563630847662600,1.51166259765625,-0.5777214765548706,0.830049455165863,-0.2691985070705414
1772563630857660700,1.52166064453125,-0.5734870433807373,0.8717769384384155,-0.2793542146682739
1772563630867659800,1.53165966796875,-0.5692188143730164,0.9160411953926086,-0.2739838659763336
1772563630877657600,1.54165771484375,-0.5699484944343567,0.956354022026062,-0.26053541898727417
1772563630887655700,1.55165576171875,-0.5486835241317749,1.0101133584976196,-0.24817706644535065
1772563630897654800,1.56165478515625,-0.5141556262969971,0.9983015060424805,-0.1973074972629547
1772563630907652600,1.571652587890625,-0.47357115149497986,0.9292095899581909,-0.11892799288034439
1772563630917650700,1.581650634765625,-0.4150332808494568,0.8348085284233093,-0.00874343141913414
1772563630927649800,1.59164990234375,-0.31303465366363525,0.7052779197692871,0.13826510310173035
1772563630937647900,1.60164794921875,-0.20177389681339264,0.9202357530593872,-0.12325279414653778
1772563630947645700,1.611645751953125,-0.14044706523418427,1.3492428064346313,-0.277363121509552
1772563630957644800,1.621644775390625,0.1631391942501068,1.2646024227142334,0.6455212235450745
1772563630967643000,1.631642822265625,0.7652558088302612,0.9838777184486389,1.6929736137390137
1772563630977640700,1.641640625,2.021531343460083,0.721540093421936,1.9996432065963745
1772563630987639600,1.6516396484375,3.0475614070892334,-0.7025207281112671,2.1755905151367188
1772563630997637600,1.6616376953125,2.9959752559661865,-1.880224347114563,1.753828525543213
1772563631007635700,1.6716357421875,1.0659128427505493,-2.9981887340545654,0.5337156057357788
1772563631017634600,1.681634521484375,-0.01339713018387556,-3.901125192642212,-0.037818748503923416
1772563631027632600,1.691632568359375,-0.41629359126091003,-3.9104361534118652,0.06649907678365707
1772563631037631700,1.7016318359375,-0.5540120005607605,-3.257448673248291,0.31525108218193054
1772563631047629800,1.7116298828125,-0.5528479814529419,-2.4765491485595703,0.3612762987613678
1772563631057627600,1.721627685546875,-0.4999946355819702,-1.776665449142456,0.3342020511627197
1772563631067626800,1.731626708984375,-0.3990917205810547,-1.2019922733306885,0.33631473779678345
1772563631077624800,1.741624755859375,-0.3219447135925293,-0.7458638548851013,0.36518606543540955
1772563631087622700,1.75162255859375,-0.2803207337856293,-0.3391195237636566,0.3935704529285431
1772563631097621800,1.761621826171875,-0.27246519923210144,-0.08736556768417358,0.42303088307380676
1772563631107619800,1.771619873046875,-0.28217554092407227,-0.027006996795535088,0.4604106545448303
1772563631117617700,1.78161767578125,-0.31830689311027527,-0.04218168556690216,0.4588550925254822
1772563631127616800,1.79161669921875,-0.38196519017219543,-0.05097265914082527,0.4283163845539093
1772563631137614800,1.80161474609375,-0.46104696393013,-0.03319472819566727,0.371437668800354
1772563631147613000,1.811613037109375,-0.5377032160758972,-0.0156166423112154,0.30512991547584534
1772563631157611500,1.821611572265625,-0.6242048740386963,-0.015624897554516792,0.21082472801208496
1772563631167609600,1.831609619140625,-0.7033267617225647,-0.04368952661752701,0.10916401445865631
1772563631177607700,1.841607666015625,-0.7720746397972107,-0.0991237536072731,-0.0046400451101362705
1772563631187606800,1.851606689453125,-0.8454927802085876,-0.12262018769979477,-0.13797242939472198
1772563631197604600,1.8616044921875,-0.928483784198761,-0.08277290314435959,-0.3649139702320099
1772563631207602700,1.871602783203125,-1.020042061805725,-0.0025616898201406,-0.5623777508735657
1772563631217601800,1.881601806640625,-1.1432476043701172,0.14161252975463867,-0.7692518830299377
1772563631227599600,1.891599609375,-1.2809102535247803,0.3811248242855072,-0.9869428277015686
1772563631237597700,1.90159765625,-1.432085394859314,0.7029577493667603,-1.1820194721221924
1772563631247596800,1.9115966796875,-1.5921646356582642,1.0371325016021729,-1.3590402603149414
1772563631257595000,1.921594970703125,-1.7308825254440308,1.2321587800979614,-1.5341548919677734
1772563631267593700,1.93159375,-1.8816784620285034,1.3596298694610596,-1.688798189163208
1772563631277591800,1.941591796875,-2.043667793273926,1.5347663164138794,-1.8729121685028076
1772563631287590000,1.95158984375,-2.212475061416626,1.7894476652145386,-2.001187801361084
1772563631297588700,1.961588623046875,-2.4242641925811768,2.202354669570923,-2.0168814659118652
1772563631307586600,1.971586669921875,-2.620732307434082,2.6622023582458496,-1.9900327920913696
1772563631317584600,1.981584716796875,-2.7044310569763184,3.023559331893921,-1.9768881797790527
1772563631327583700,1.991583740234375,-2.715909719467163,3.234951972961426,-1.9707331657409668
1772563631337581600,2.00158154296875,-2.718442440032959,3.350713014602661,-1.9483195543289185
1772563631347579600,2.01157958984375,-2.729496955871582,3.361809015274048,-1.9327497482299805
1772563631357578800,2.021578857421875,-2.736637592315674,3.2835958003997803,-1.9193540811538696
1772563631367576600,2.03157666015625,-2.6474738121032715,2.9504916667938232,-2.1260111331939697
1772563631377574700,2.04157470703125,-2.583717107772827,2.865488052368164,-2.1251537799835205
1772563631387573800,2.05157373046875,-2.39611554145813,2.5318639278411865,-2.2458927631378174
1772563631397571800,2.06157177734375,-2.2050225734710693,2.118828535079956,-2.307570457458496
1772563631407569700,2.071569580078125,-2.0114827156066895,1.6563397645950317,-2.3905763626098633
1772563631417568800,2.08156884765625,-1.8170268535614014,1.0949478149414062,-2.543975353240967
1772563631427566800,2.09156689453125,-1.5854679346084595,0.36901959776878357,-2.7855446338653564
1772563631437564700,2.101564697265625,-1.245255470275879,-0.38455644249916077,-2.943434715270996
1772563631447563800,2.111563720703125,-0.6224910020828247,-1.3200657367706299,-2.913433074951172
1772563631457561900,2.121561767578125,1.6760287284851074,-2.654388427734375,-2.4599032402038574
1772563631467560000,2.131559814453125,7.113001823425293,-5.171687602996826,-1.2260018587112427
1772563631477558500,2.14155859375,12.113555908203125,-5.198996543884277,1.3723479509353638
1772563631487556600,2.151556640625,13.661373138427734,-3.1721489429473877,3.501950263977051
1772563631497555500,2.161555419921875,10.032336235046387,-0.06865880638360977,4.409419059753418
1772563631507553500,2.171553466796875,2.1731011867523193,3.3951282501220703,3.5596961975097656
1772563631517551600,2.181551513671875,-1.9862051010131836,3.1942193508148193,3.5354647636413574
1772563631527550700,2.19155078125,-2.3538818359375,0.7701191902160645,5.657215118408203
1772563631537548500,2.201548583984375,-2.0854716300964355,-1.772229790687561,7.466531276702881
1772563631547546600,2.211546630859375,-2.114377737045288,-6.845928192138672,6.157158851623535
1772563631557545700,2.221545654296875,-2.252012014389038,-11.180983543395996,3.9275004863739014
1772563631567543600,2.23154345703125,-1.88130784034729,-10.882942199707031,3.176726818084717
1772563631577541600,2.241541748046875,-1.1323764324188232,-7.969612121582031,2.6520190238952637
1772563631587540700,2.251540771484375,-0.3257109522819519,-5.446330547332764,2.134230852127075
1772563631597538600,2.26153857421875,0.3436588644981384,-3.67516827583313,1.5122544765472412
1772563631607536600,2.27153662109375,0.6549484133720398,-2.6120808124542236,0.908911943435669
1772563631617535500,2.281535400390625,0.658302903175354,-1.9600859880447388,0.4354322552680969
1772563631627533600,2.291533447265625,0.49876222014427185,-1.455379605293274,0.15553024411201477
1772563631637531400,2.301531494140625,0.28227704763412476,-0.9697689414024353,0.018322329968214035
1772563631647530500,2.311530517578125,0.040575891733169556,-0.5304560661315918,-0.07841990143060684
1772563631657528600,2.321528564453125,-0.192350834608078,-0.17227661609649658,-0.170283243060112
1772563631667526400,2.3315263671875,-0.3827890455722809,0.10322035849094391,-0.2882850468158722
1772563631677525500,2.341525390625,-0.5114825367927551,0.31009364128112793,-0.4123886227607727
1772563631687523600,2.351523681640625,-0.571008026599884,0.4615629315376282,-0.5393601655960083
1772563631697521700,2.361521728515625,-0.5994705557823181,0.5587994456291199,-0.6750311851501465
1772563631707520500,2.3715205078125,-0.6402897238731384,0.6414269804954529,-0.8339865207672119
1772563631717518600,2.3815185546875,-0.6957790851593018,0.7090731263160706,-1.01658034324646
1772563631727517700,2.391517578125,-0.7518143653869629,0.7706250548362732,-1.1992329359054565
1772563631737515800,2.401515869140625,-0.8015196323394775,0.8030087947845459,-1.3893144130706787
1772563631747513600,2.411513671875,-0.8357632160186768,0.7803778648376465,-1.588077187538147
1772563631757512400,2.421512451171875,-0.8793556690216064,0.7703230977058411,-1.8125702142715454
1772563631767510500,2.431510498046875,-0.9258474707603455,0.7602097988128662,-2.0398378372192383
1772563631777508600,2.441508544921875,-0.9538399577140808,0.7290542721748352,-2.2723677158355713
1772563631787507500,2.451507568359375,-0.9830293655395508,0.673593282699585,-2.5167806148529053
1772563631797505500,2.461505615234375,-1.0161793231964111,0.6149406433105469,-2.762517213821411
1772563631807503600,2.471503662109375,-1.0624637603759766,0.554947018623352,-3.00866961479187
1772563631817502500,2.48150244140625,-1.126275658607483,0.5225760340690613,-3.232950448989868
1772563631827500500,2.49150048828125,-1.236323356628418,0.5558187365531921,-3.4496521949768066
1772563631837498600,2.50149853515625,-1.3417528867721558,0.6350983381271362,-3.6449859142303467
1772563631847497700,2.511497802734375,-1.4388867616653442,0.7543111443519592,-3.8259806632995605
1772563631857495600,2.52149560546875,-1.527279257774353,0.9149240255355835,-3.9962823390960693
1772563631867493600,2.53149365234375,-1.610788345336914,1.104860782623291,-4.15303897857666
1772563631877492700,2.54149267578125,-1.6770180463790894,1.3167330026626587,-4.28992223739624
1772563631887490600,2.551490478515625,-1.693655252456665,1.4862107038497925,-4.402478218078613
1772563631897488600,2.561488525390625,-1.6545960903167725,1.5945422649383545,-4.478540897369385
1772563631907487700,2.57148779296875,-1.6164196729660034,1.6615999937057495,-4.529899597167969
1772563631917485600,2.581485595703125,-1.5940607786178589,1.7048273086547852,-4.566694736480713
1772563631927483600,2.591483642578125,-1.506661295890808,1.648935079574585,-4.5352864265441895
1772563631937482500,2.601482421875,-1.1806645393371582,1.431586742401123,-4.347955226898193
1772563631947480600,2.61148046875,0.809831440448761,1.5763901472091675,-3.7451701164245605
1772563631957478400,2.621478515625,5.379604339599609,1.4862737655639648,-1.8165565729141235
1772563631967477500,2.6314775390625,9.805264472961426,1.6842358112335205,0.701442539691925
1772563631977475600,2.6414755859375,12.289300918579102,3.202728509902954,2.6578001976013184
1772563631987474700,2.651474609375,12.402941703796387,5.845178604125977,3.6503446102142334
1772563631997472500,2.661472412109375,9.45302677154541,7.692301273345947,3.3051598072052
1772563632007470600,2.671470703125,4.147415637969971,6.882752418518066,2.3855507373809814
1772563632017469700,2.6814697265625,-0.6097239255905151,4.331273078918457,1.548204779624939
1772563632027467500,2.691467529296875,-2.008892774581909,1.101070523262024,1.5776938199996948
1772563632037465600,2.701465576171875,-1.2903072834014893,-2.3643088340759277,3.2643723487854004
1772563632047464700,2.711464599609375,-0.4854707717895508,-4.176048278808594,5.826025485992432
1772563632057462800,2.721462890625,-0.2510172426700592,-4.612767219543457,7.373070240020752
1772563632067460600,2.731460693359375,-0.23819348216056824,-4.325564861297607,8.263527870178223
1772563632077459500,2.74145947265625,-0.2831449806690216,-5.318845272064209,8.050539016723633
1772563632087457500,2.75145751953125,-0.820769727230072,-8.219047546386719,5.8082709312438965
1772563632097455600,2.76145556640625,-0.9966738820075989,-7.340564727783203,3.074871063232422
1772563632107454500,2.771454345703125,-0.3494637608528137,-4.846133232116699,1.7519227266311646
1772563632117452500,2.78145263671875,0.10949530452489853,-3.508901357650757,1.2667555809020996
1772563632127450600,2.79145068359375,0.07258162647485733,-2.6516788005828857,0.726310133934021
1772563632137449500,2.801449462890625,-0.1402054727077484,-2.2111856937408447,0.2794087827205658
1772563632147447600,2.811447509765625,-0.3869059383869171,-2.0550055503845215,0.028403915464878082
1772563632157445600,2.821445556640625,-0.6047362685203552,-1.9363622665405273,-0.08465686440467834
1772563632167444700,2.83144482421875,-0.816426157951355,-1.8610929250717163,-0.07646124809980392
1772563632177442600,2.841442626953125,-1.0279414653778076,-1.8301893472671509,-0.045003198087215424
1772563632187440600,2.851440673828125,-1.2250267267227173,-1.740532398223877,-0.045173730701208115
1772563632197439700,2.861439697265625,-1.3384346961975098,-1.7544385194778442,-0.013642167672514915
1772563632207437600,2.8714375,-1.4072785377502441,-1.695178747177124,-0.05319979414343834
1772563632217435600,2.881435546875,-1.4483314752578735,-1.6089674234390259,-0.15554320812225342
1772563632227434800,2.891434814453125,-1.4858355522155762,-1.4719380140304565,-0.32142695784568787
1772563632237432600,2.9014326171875,-1.5054163932800293,-1.363098382949829,-0.5137045383453369
1772563632247431400,2.911431396484375,-1.5159730911254883,-1.2672300338745117,-0.7545126676559448
1772563632257429500,2.921429443359375,-1.4992446899414062,-1.0862456560134888,-1.0648698806762695
1772563632267427600,2.931427490234375,-1.4530433416366577,-0.8424592018127441,-1.4247626066207886
1772563632277426400,2.941426513671875,-1.3513740301132202,-0.5576288104057312,-1.8357174396514893
1772563632287424500,2.951424560546875,-1.1727770566940308,-0.28705114126205444,-2.29644513130188
1772563632297422600,2.961422607421875,-0.9149582982063293,-0.1015734151005745,-2.770660638809204
1772563632307421700,2.971421630859375,-0.6279237866401672,-0.018107209354639053,-3.2022111415863037
1772563632317419500,2.98141943359375,-0.36891940236091614,0.014949277974665165,-3.568772554397583
1772563632327417600,2.99141748046875,-0.17793008685112,0.05249062925577164,-3.8586583137512207
1772563632337416700,3.001416748046875,-0.041510723531246185,-0.012375718913972378,-4.042901992797852
1772563632347414500,3.01141455078125,0.053776416927576065,-0.17306660115718842,-4.158990859985352
1772563632357412600,3.02141259765625,0.11236782371997833,-0.37368014454841614,-4.244358539581299
1772563632367411700,3.03141162109375,0.1364244520664215,-0.5787824392318726,-4.3183979988098145
1772563632377409800,3.041409912109375,0.13747107982635498,-0.7537678480148315,-4.384788513183594
1772563632387407600,3.05140771484375,0.1307598352432251,-0.8493871092796326,-4.449328899383545
1772563632397406500,3.061406494140625,0.11539420485496521,-0.8191583752632141,-4.512818813323975
1772563632407404500,3.071404541015625,0.1048315092921257,-0.7173202037811279,-4.568204402923584
1772563632417402600,3.081402587890625,0.13901904225349426,-0.6007024645805359,-4.618505954742432
1772563632427401500,3.0914013671875,0.22023725509643555,-0.4999370574951172,-4.656496524810791
1772563632437399600,3.101399658203125,0.32244566082954407,-0.3396424353122711,-4.6079840660095215
1772563632447397400,3.1113974609375,0.4600867033004761,0.06324361264705658,-4.294256687164307
1772563632457396500,3.121396484375,1.3540899753570557,1.1538597345352173,-3.243551015853882
1772563632467394600,3.13139453125,3.703566312789917,2.859919786453247,-0.9742977023124695
1772563632477393400,3.141393310546875,7.025582313537598,4.578517913818359,1.8190855979919434
1772563632487391500,3.1513916015625,9.60307788848877,7.485335826873779,3.9945147037506104
1772563632497389600,3.1613896484375,9.611495018005371,11.082584381103516,4.398636341094971
1772563632507388700,3.171388671875,7.2699294090271,13.72737979888916,3.2587485313415527
1772563632517386500,3.181386474609375,4.048764228820801,13.142358779907227,1.7527105808258057
1772563632527384600,3.191384521484375,1.3216218948364258,8.805709838867188,0.5718029737472534
1772563632537383700,3.2013837890625,-0.49677586555480957,1.7254682779312134,0.515188992023468
1772563632547381500,3.211381591796875,-0.18244536221027374,-4.296183109283447,3.075956106185913
1772563632557379600,3.221379638671875,0.6051000952720642,-6.190557479858398,5.936871528625488
1772563632567378400,3.23137841796875,0.6426494121551514,-5.807930946350098,7.716360569000244
1772563632577376500,3.24137646484375,0.43959081172943115,-4.724863052368164,8.786417007446289
1772563632587374300,3.251374267578125,0.219107985496521,-3.8468692302703857,9.21565055847168
1772563632597373400,3.26137353515625,-0.01127861812710762,-3.5524680614471436,9.242446899414062
1772563632607371500,3.27137158203125,-0.6065739393234253,-5.957348346710205,7.635200500488281
1772563632617369300,3.281369384765625,-1.4015812873840332,-8.057697296142578,4.7870402336120605
1772563632627368400,3.291368408203125,-1.516575574874878,-6.709143161773682,2.3702545166015625
1772563632637366500,3.301366455078125,-1.0515168905258179,-4.899311065673828,1.0716861486434937
1772563632647364600,3.311364501953125,-0.7545648217201233,-3.6462297439575195,0.5588288903236389
1772563632657363500,3.321363525390625,-0.7334270477294922,-2.826573371887207,0.28504711389541626
1772563632667361500,3.331361572265625,-0.946465253829956,-2.3128960132598877,0.11383038014173508
1772563632677359600,3.341359619140625,-1.2961159944534302,-1.927716612815857,0.060315486043691635
1772563632687358700,3.351358642578125,-1.719542145729065,-1.5354361534118652,0.07214340567588806
1772563632697356500,3.3613564453125,-2.146702289581299,-1.2199921607971191,0.10982393473386765
1772563632707354600,3.371354736328125,-2.4700756072998047,-1.008366584777832,0.08563312143087387
1772563632717353500,3.381353515625,-2.7859385013580322,-0.8041365146636963,-0.056701913475990295
1772563632727351600,3.3913515625,-3.07090425491333,-0.6471901535987854,-0.27201271057128906
1772563632737349600,3.401349609375,-3.2734851837158203,-0.5330169796943665,-0.5275006890296936
1772563632747348500,3.411348388671875,-3.379148483276367,-0.47405555844306946,-0.7843691110610962
1772563632757346300,3.42134619140625,-3.3624746799468994,-0.4723700284957886,-1.0384678840637207
1772563632767345400,3.431345458984375,-3.237506628036499,-0.525065004825592,-1.3055516481399536
1772563632777343500,3.441343505859375,-3.0073370933532715,-0.5930070281028748,-1.5942039489746094
1772563632787341600,3.451341552734375,-2.721910238265991,-0.634867250919342,-1.9329019784927368
1772563632797340400,3.46134033203125,-2.3955044746398926,-0.6209445595741272,-2.302853584289551
1772563632807338500,3.47133837890625,-2.0310304164886475,-0.6029359102249146,-2.6677517890930176
1772563632817336600,3.481336669921875,-1.628698706626892,-0.6102015376091003,-3.0367140769958496
1772563632827335700,3.491335693359375,-1.2264193296432495,-0.6597875356674194,-3.4164786338806152
1772563632837333500,3.50133349609375,-0.871033787727356,-0.7277005314826965,-3.802123546600342
1772563632847331600,3.51133154296875,-0.6298556327819824,-0.8059372901916504,-4.136438369750977
1772563632857330700,3.52133056640625,-0.4928181767463684,-0.9351977705955505,-4.390096187591553
1772563632867328500,3.53132861328125,-0.41615670919418335,-1.1180531978607178,-4.553236961364746
1772563632877326600,3.54132666015625,-0.35866492986679077,-1.3290977478027344,-4.64165735244751
1772563632887325400,3.551325439453125,-0.3106158971786499,-1.5512365102767944,-4.68622350692749
1772563632897323500,3.561323486328125,-0.26396557688713074,-1.7726482152938843,-4.696674823760986
1772563632907321300,3.5713212890625,-0.20745119452476501,-1.9637914896011353,-4.701418876647949
1772563632917320400,3.581320556640625,-0.1307915598154068,-2.128664493560791,-4.699237823486328
1772563632927318500,3.591318603515625,-0.0426240898668766,-2.2531867027282715,-4.683250904083252
1772563632937316400,3.60131640625,0.08443479239940643,-2.2758290767669678,-4.673264026641846
1772563632947315500,3.6113154296875,0.4281253218650818,-2.2253735065460205,-4.6484270095825195
1772563632957313500,3.6213134765625,0.9393628239631653,-2.191770553588867,-4.537774085998535
1772563632967311600,3.6313115234375,1.6131151914596558,-2.063894510269165,-4.223268508911133
1772563632977310500,3.641310546875,2.5427913665771484,-1.1689070463180542,-3.350951671600342
1772563632987308500,3.65130859375,4.49708890914917,0.8775548338890076,-1.8195840120315552
1772563632997307600,3.6613076171875,8.588912010192871,3.8447659015655518,0.7533329725265503
1772563633007305700,3.6713056640625,13.532204627990723,6.6342034339904785,3.5222556591033936
1772563633017303600,3.681303466796875,16.422266006469727,9.05072021484375,4.500482559204102
1772563633027302400,3.691302490234375,13.92778491973877,10.73287582397461,2.8854379653930664
1772563633037300500,3.701300537109375,7.242370128631592,10.052139282226562,0.6186454892158508
1772563633047298300,3.71129833984375,1.7482445240020752,5.793536186218262,-0.57192063331604
1772563633057297400,3.72129736328125,-0.7127094268798828,0.12954480946063995,0.41010797023773193
1772563633067295500,3.73129541015625,-0.2862585186958313,-2.3373100757598877,4.189560890197754
1772563633077293300,3.741293212890625,0.43939587473869324,-2.2691144943237305,7.109497547149658
1772563633087292400,3.75129248046875,0.710412323474884,-1.4762154817581177,8.950069427490234
1772563633097290500,3.76129052734375,0.7483647465705872,-0.7929945588111877,10.134469985961914
1772563633107288600,3.77128857421875,0.70896315574646,-0.6488360166549683,10.779510498046875
1772563633117287400,3.781287353515625,0.0036201360635459423,-5.059155464172363,9.437517166137695
1772563633127285500,3.791285400390625,-1.3340106010437012,-10.852198600769043,6.788418292999268
1772563633137283600,3.80128369140625,-1.4592154026031494,-10.237655639648438,5.433915615081787
1772563633147282700,3.81128271484375,-1.1821619272232056,-7.935473442077637,4.544295787811279
1772563633157280500,3.821280517578125,-0.9005849361419678,-5.821915626525879,3.9116415977478027
1772563633167278600,3.831278564453125,-0.7134370803833008,-4.403358459472656,3.421274185180664
1772563633177277400,3.84127734375,-0.6871713995933533,-3.4296741485595703,2.9204928874969482
1772563633187275500,3.851275634765625,-0.7702658772468567,-2.579512119293213,2.4560139179229736
1772563633197273600,3.861273681640625,-0.9927716255187988,-1.7746542692184448,2.159391164779663
1772563633207272400,3.8712724609375,-1.2448631525039673,-1.082231044769287,1.983309268951416
1772563633217270500,3.8812705078125,-1.5858417749404907,-0.5951250791549683,1.7941869497299194
1772563633227268400,3.891268310546875,-1.9473150968551636,-0.3311685621738434,1.567373514175415
1772563633237267500,3.901267333984375,-2.2998549938201904,-0.2465282529592514,1.3014827966690063
1772563633247265500,3.911265625,-2.6538000106811523,-0.21058042347431183,0.9988759160041809
1772563633257264600,3.9212646484375,-2.9231719970703125,-0.24152182042598724,0.6517970561981201
1772563633267262500,3.931262451171875,-3.0996510982513428,-0.26647305488586426,0.2253163754940033
1772563633277260500,3.941260498046875,-3.260833501815796,-0.2923360764980316,-0.2611531615257263
1772563633287259600,3.951259765625,-3.4209773540496826,-0.3427622616291046,-0.7974364161491394
1772563633297257500,3.961257568359375,-3.5531086921691895,-0.41564685106277466,-1.4144154787063599
1772563633307255600,3.971255615234375,-3.6632556915283203,-0.428119957447052,-2.134004592895508
1772563633317254700,3.981254638671875,-3.754791736602783,-0.2799246311187744,-2.960040807723999
1772563633327252500,3.99125244140625,-3.786738634109497,-0.04639742150902748,-3.78674578666687
1772563633337250600,4.00125048828125,-3.781224489212036,0.1912851631641388,-4.527939319610596
1772563633347249400,4.01124951171875,-3.7525064945220947,0.29115238785743713,-5.084790229797363
1772563633357247500,4.02124755859375,-3.692735433578491,0.22114402055740356,-5.446818828582764
1772563633367245300,4.031245361328125,-3.6287803649902344,0.04868961498141289,-5.68010139465332
1772563633377244400,4.041244384765625,-3.580963134765625,-0.13119706511497498,-5.842621803283691
1772563633387242500,4.051242431640625,-3.519831657409668,-0.34345197677612305,-5.934253215789795
1772563633397240300,4.061240234375,-3.424433469772339,-0.5845125317573547,-5.95733118057251
1772563633407239400,4.071239501953125,-3.2930099964141846,-0.8241075277328491,-5.939220428466797
1772563633417237500,4.081237548828125,-3.117061138153076,-1.0466066598892212,-5.873987197875977
1772563633427235600,4.091235595703125,-2.9203712940216064,-1.2391133308410645,-5.779745578765869
1772563633437234400,4.101234375,-2.716096878051758,-1.420473337173462,-5.6472487449646
1772563633447232500,4.111232421875,-2.461094856262207,-1.5779756307601929,-5.476341724395752
1772563633457230600,4.121230712890625,-2.1263930797576904,-1.719178557395935,-5.269234657287598
1772563633467229700,4.131229736328125,-1.6916885375976562,-1.8208425045013428,-5.017466068267822
1772563633477227800,4.141227783203125,-1.1200132369995117,-1.9103106260299683,-4.71609354019165
1772563633487225900,4.151225830078125,-0.4003463387489319,-2.0371317863464355,-4.361687660217285
1772563633497224700,4.161224609375,0.44982367753982544,-2.231797456741333,-3.9350688457489014
1772563633507222500,4.171222412109375,1.4837340116500854,-2.450145959854126,-3.4602553844451904
1772563633517220600,4.181220703125,2.8898630142211914,-2.853729486465454,-2.821502923965454
1772563633527219700,4.1912197265625,5.05527925491333,-3.4567677974700928,-1.849234938621521
1772563633537217500,4.201217529296875,8.523962020874023,-3.31665301322937,-0.12794043123722076
1772563633547216600,4.211216552734375,13.75980281829834,-2.3316385746002197,2.110210418701172
1772563633557214700,4.221214599609375,20.20574188232422,-0.23812921345233917,4.981916427612305
1772563633567212800,4.231212890625,24.015039443969727,1.737256407737732,6.90819787979126
1772563633577211600,4.241211669921875,19.223587036132812,4.311341762542725,6.508581638336182
1772563633587209700,4.251209716796875,7.231011867523193,6.208546161651611,4.053728103637695
1772563633597207800,4.261207763671875,-1.1784932613372803,1.346509575843811,3.934032440185547
1772563633607207000,4.27120703125,-2.920747995376587,-4.068626880645752,7.919894218444824
1772563633617204700,4.281204833984375,-2.121178150177002,-4.44484281539917,11.547555923461914
1772563633627202800,4.291202880859375,-0.9357650279998779,-3.1994783878326416,13.31906509399414
1772563633637201700,4.30120166015625,-0.011400224640965462,-3.282219409942627,13.745723724365234
1772563633647199700,4.31119970703125,-0.26341739296913147,-9.42897891998291,11.620893478393555
1772563633657197800,4.32119775390625,-0.34808674454689026,-9.884848594665527,8.820103645324707
1772563633667196700,4.33119677734375,0.13984213769435883,-6.616750240325928,6.712150573730469
1772563633677194500,4.341194580078125,0.18945123255252838,-4.463047027587891,5.421866416931152
1772563633687192600,4.351192626953125,0.1647060662508011,-3.3219168186187744,4.087019920349121
1772563633697191700,4.361191650390625,0.1566755771636963,-2.484010696411133,2.8065388202667236
1772563633707189800,4.371189697265625,0.05278685316443443,-1.7104500532150269,2.0239527225494385
1772563633717187600,4.3811875,-0.20338128507137299,-1.1460591554641724,1.4413373470306396
1772563633727186700,4.391186767578125,-0.5255399942398071,-0.6614274382591248,1.0118658542633057
1772563633737184800,4.401184814453125,-0.9116544127464294,-0.2884693145751953,0.6639106273651123
1772563633747182600,4.4111826171875,-1.2770403623580933,-0.06264596432447433,0.32426750659942627
1772563633757181700,4.421181640625,-1.6324602365493774,0.012650920078158379,0.01588277705013752
1772563633767179800,4.4311796875,-1.9852674007415771,-0.06110360473394394,-0.25484055280685425
1772563633777177900,4.441177734375,-2.2834396362304688,-0.21504336595535278,-0.5126457214355469
1772563633787176700,4.4511767578125,-2.493514060974121,-0.3928256630897522,-0.8051673173904419
1772563633797174800,4.4611748046875,-2.737152576446533,-0.560424268245697,-1.3265661001205444
1772563633807173600,4.471173583984375,-2.9817779064178467,-0.604138970375061,-2.017146110534668
1772563633817171700,4.481171630859375,-3.186067581176758,-0.6213789582252502,-2.8336198329925537
1772563633827169500,4.49116943359375,-3.391540050506592,-0.5804653167724609,-3.6898727416992188
1772563633837168600,4.501168701171875,-3.5377814769744873,-0.6793692708015442,-4.469742298126221
1772563633847166700,4.511166748046875,-3.6682262420654297,-0.7425510287284851,-5.177206993103027
1772563633857164500,4.52116455078125,-3.772972822189331,-0.762505292892456,-5.7808732986450195
1772563633867163600,4.53116357421875,-3.83256459236145,-0.7244735956192017,-6.272233486175537
1772563633877161700,4.54116162109375,-3.8815970420837402,-0.6769545078277588,-6.630454063415527
1772563633887159800,4.551159912109375,-3.914440393447876,-0.6469331383705139,-6.844611644744873
1772563633897158700,4.56115869140625,-3.9158926010131836,-0.6504226326942444,-6.945966720581055
1772563633907156700,4.57115673828125,-3.900228500366211,-0.6771125793457031,-6.955624580383301
1772563633917154800,4.58115478515625,-3.824777603149414,-0.7338834404945374,-6.886144638061523
1772563633927154000,4.59115380859375,-3.6832222938537598,-0.8046056628227234,-6.771793365478516
1772563633937151700,4.60115185546875,-3.45393967628479,-0.8991899490356445,-6.620499134063721
1772563633947149800,4.61114990234375,-3.1826603412628174,-0.9863246083259583,-6.442485809326172
1772563633957148700,4.621148681640625,-2.89160418510437,-1.0331988334655762,-6.229272842407227
1772563633967146800,4.631146728515625,-2.5516512393951416,-1.0835456848144531,-5.992486953735352
1772563633977144800,4.641144775390625,-2.1815991401672363,-1.165389895439148,-5.737716197967529
1772563633987143700,4.651143798828125,-1.7614386081695557,-1.2659331560134888,-5.468752384185791
1772563633997141500,4.6611416015625,-1.3382689952850342,-1.2607336044311523,-5.211864471435547
1772563634007139600,4.6711396484375,-0.9419801831245422,-1.2141934633255005,-4.939637184143066
1772563634017138700,4.681138671875,-0.5583744645118713,-1.2992497682571411,-4.597787380218506
1772563634027136800,4.69113671875,-0.13421043753623962,-1.5518288612365723,-4.173126220703125
1772563634037134600,4.701134521484375,0.3992399275302887,-1.8508872985839844,-3.7489712238311768
1772563634047133700,4.7111337890625,1.0550204515457153,-2.3215956687927246,-3.296983003616333
1772563634057131800,4.7211318359375,1.8888468742370605,-2.999727964401245,-2.807142496109009
1772563634067129600,4.731129638671875,3.194194793701172,-3.8430495262145996,-2.2188100814819336
1772563634077128700,4.741128662109375,5.3965325355529785,-4.70939302444458,-1.028907299041748
1772563634087126800,4.751126708984375,9.140557289123535,-4.8220601081848145,0.5908967852592468
1772563634097126000,4.7611259765625,14.766119956970215,-3.7406089305877686,3.252795696258545
1772563634107123700,4.771123779296875,21.55546760559082,-0.7845497131347656,6.747993469238281
1772563634117121800,4.781121826171875,24.049692153930664,0.5174753665924072,8.532737731933594
1772563634127120600,4.79112060546875,17.602375030517578,2.359466075897217,8.367331504821777
1772563634137118700,4.80111865234375,5.780404090881348,2.876551628112793,6.579349517822266
1772563634147116500,4.811116455078125,-2.0505356788635254,-0.3250548243522644,6.066410064697266
1772563634157115600,4.82111572265625,-3.966580867767334,-3.132708787918091,6.548625469207764
1772563634167113700,4.83111376953125,-3.2053825855255127,-3.49863338470459,8.015103340148926
1772563634177111600,4.841111572265625,-0.07531372457742691,2.172048807144165,13.23537540435791
1772563634187110700,4.851110595703125,1.8134554624557495,3.8986055850982666,15.252635955810547
1772563634197108700,4.861108642578125,0.5324007272720337,-12.615808486938477,11.211175918579102
1772563634207106800,4.87110693359375,-0.37848395109176636,-11.889152526855469,6.680069923400879
1772563634217105700,4.881105712890625,-0.7427178025245667,-7.759838104248047,5.431146144866943
1772563634227103700,4.891103759765625,-0.852211058139801,-5.698692321777344,5.009586334228516
1772563634237101800,4.901101806640625,-0.8259432911872864,-4.805891513824463,4.836819171905518
1772563634247101000,4.911100830078125,-0.7766727209091187,-4.255802154541016,4.5834832191467285
1772563634257098800,4.9210986328125,-0.7417759895324707,-3.494771957397461,4.26947021484375
1772563634267096800,4.931096923828125,-0.7807362675666809,-2.6630024909973145,3.8759658336639404
1772563634277095700,4.941095703125,-0.8812394142150879,-1.9649744033813477,3.395184278488159
1772563634287093800,4.95109375,-1.0181299448013306,-1.3695086240768433,2.917254686355591
1772563634297091800,4.961091796875,-1.165421962738037,-0.973685085773468,2.544795274734497
1772563634307090700,4.971090576171875,-1.3474429845809937,-0.7356234788894653,2.2437198162078857
1772563634317088500,4.981088623046875,-1.5318799018859863,-0.6072788238525391,1.974564552307129
1772563634327086600,4.991086669921875,-1.7459897994995117,-0.5785093307495117,1.7087265253067017
1772563634337085700,5.001085693359375,-2.0089263916015625,-0.6264545321464539,1.3984065055847168
1772563634347083800,5.011083740234375,-2.1996216773986816,-0.735556423664093,1.0486637353897095
1772563634357082600,5.02108251953125,-2.2756052017211914,-0.9103671312332153,0.6210501194000244
1772563634367080700,5.031080810546875,-2.297903537750244,-1.130135416984558,0.10439752787351608
1772563634377078800,5.041078857421875,-2.3091928958892822,-1.2581787109375,-0.5819007158279419
1772563634387078000,5.051077880859375,-2.2775962352752686,-1.169448971748352,-1.5042476654052734
1772563634397075700,5.06107568359375,-2.2079849243164062,-0.9091193675994873,-2.5894510746002197
1772563634407073800,5.07107373046875,-2.0583410263061523,-0.6008471846580505,-3.7160332202911377
1772563634417073000,5.081072998046875,-1.8368231058120728,-0.41663554310798645,-4.671821117401123
1772563634427070700,5.09107080078125,-1.6438589096069336,-0.3915737271308899,-5.363765716552734
1772563634437068800,5.10106884765625,-1.499373435974121,-0.44592058658599854,-5.904488563537598
1772563634447067600,5.111067626953125,-1.3897278308868408,-0.6185670495033264,-6.321810722351074
1772563634457065700,5.121065673828125,-1.3075871467590332,-0.9204014539718628,-6.639979839324951
1772563634467063600,5.1310634765625,-1.2790600061416626,-1.2698619365692139,-6.878861427307129
1772563634477063000,5.14106298828125,-1.296180248260498,-1.5808712244033813,-7.049825191497803
1772563634487060700,5.151060791015625,-1.3437771797180176,-1.8189644813537598,-7.152359485626221
1772563634497058800,5.161058837890625,-1.3901259899139404,-2.0418033599853516,-7.170322418212891
1772563634507058000,5.171057861328125,-1.4184125661849976,-2.2875571250915527,-7.100863456726074
1772563634517055700,5.1810556640625,-1.4484727382659912,-2.420527696609497,-7.020352840423584
1772563634527053800,5.1910537109375,-1.4955966472625732,-2.4092228412628174,-6.9639787673950195
1772563634537053000,5.201052978515625,-1.528493046760559,-2.307814359664917,-6.911739349365234
1772563634547051000,5.211051025390625,-1.556860089302063,-2.1487042903900146,-6.850887298583984
1772563634557048800,5.221048828125,-1.5478734970092773,-1.9662810564041138,-6.73709774017334
1772563634567048000,5.2310478515625,-1.4196223020553589,-1.7836552858352661,-6.538654327392578
1772563634577046000,5.2410458984375,-1.1499961614608765,-1.627882957458496,-6.244393825531006
1772563634587043800,5.2510439453125,-0.7368029356002808,-1.5388480424880981,-5.806230545043945
1772563634597042700,5.261042724609375,-0.14755909144878387,-1.3944346904754639,-5.184510231018066
1772563634607040800,5.271040771484375,0.5362470149993896,-1.0598949193954468,-4.178751468658447
1772563634617038800,5.281038818359375,1.504198431968689,-0.6783781051635742,-3.017564296722412
1772563634627037700,5.29103759765625,3.516838550567627,-0.24709133803844452,-1.6838858127593994
1772563634637035800,5.301035888671875,7.460097312927246,0.44162553548812866,-0.06325316429138184
1772563634647033900,5.311033935546875,12.837820053100586,2.1670870780944824,2.2945029735565186
1772563634657032700,5.32103271484375,18.93735694885254,5.019952297210693,4.858135223388672
1772563634667030800,5.33103076171875,22.569196701049805,7.360715866088867,5.705493450164795
1772563634677030000,5.34102978515625,19.1658878326416,7.6976637840271,4.529492378234863
1772563634687026700,5.351026611328125,9.203125953674316,5.74478816986084,2.8675854206085205
1772563634697024800,5.361024658203125,0.8771347403526306,0.07455305755138397,2.478590250015259
1772563634707024000,5.37102392578125,-2.141165018081665,-3.2127182483673096,3.0763213634490967
1772563634717022000,5.38102197265625,-0.14418449997901917,-3.37176775932312,6.992663860321045
1772563634727019800,5.391019775390625,3.835031032562256,-0.3563476502895355,13.646790504455566
1772563634737019000,5.401018798828125,4.858636379241943,2.3172481060028076,16.237600326538086
1772563634747017000,5.411016845703125,3.9866151809692383,-2.0406157970428467,15.314204216003418
1772563634757014800,5.421014892578125,0.16284897923469543,-15.888347625732422,10.610998153686523
1772563634767014000,5.431013916015625,-1.620643973350525,-13.318513870239258,6.982504844665527
1772563634777012000,5.441011962890625,-1.8937604427337646,-8.10042953491211,5.685568332672119
1772563634787010800,5.4510107421875,-1.8874706029891968,-5.740470886230469,4.8768415451049805
1772563634797008600,5.461008544921875,-1.7484748363494873,-4.56967306137085,4.2426042556762695
1772563634807006700,5.4710068359375,-1.6391741037368774,-3.9386706352233887,3.656926155090332
1772563634817005800,5.481005859375,-1.5959352254867554,-3.367608070373535,3.1729164123535156
1772563634827004000,5.49100390625,-1.4673033952713013,-2.448889970779419,3.022566318511963
1772563634837001700,5.501001708984375,-1.4210783243179321,-1.9457690715789795,2.616799831390381
1772563634847000800,5.511000732421875,-1.4155499935150146,-1.6050844192504883,2.159899950027466
1772563634856999000,5.5209990234375,-1.485840916633606,-1.3514032363891602,1.7462961673736572
1772563634866996700,5.530996826171875,-1.6147221326828003,-1.1701946258544922,1.3359767198562622
1772563634876995800,5.540995849609375,-1.8145966529846191,-1.0688557624816895,0.908979058265686
1772563634886994000,5.550993896484375,-2.107023000717163,-1.0734131336212158,0.46573835611343384
1772563634896991700,5.56099169921875,-2.3921701908111572,-1.2021939754486084,0.018615202978253365
1772563634906990800,5.570990966796875,-2.583308458328247,-1.472375512123108,-0.49805137515068054
1772563634916989000,5.580989013671875,-2.6758341789245605,-1.7388030290603638,-1.207377314567566
1772563634926987000,5.590987060546875,-2.6500189304351807,-1.8546969890594482,-2.123767614364624
1772563634936985900,5.60098583984375,-2.540780782699585,-1.8501113653182983,-3.114926338195801
1772563634946984000,5.61098388671875,-2.384585380554199,-1.9176408052444458,-4.0201005935668945
1772563634956982000,5.62098193359375,-2.1523795127868652,-2.1734087467193604,-4.75999116897583
1772563634966980900,5.63098095703125,-1.9280881881713867,-2.279693603515625,-5.418464183807373
1772563634976978700,5.640978759765625,-1.7655386924743652,-2.314574718475342,-5.962994575500488
1772563634986976800,5.650976806640625,-1.6417285203933716,-2.310971975326538,-6.391336917877197
1772563634996975900,5.660975830078125,-1.5457394123077393,-2.2809743881225586,-6.707584857940674
1772563635006973700,5.6709736328125,-1.4704456329345703,-2.1955161094665527,-6.9569478034973145
1772563635016971800,5.6809716796875,-1.4278748035430908,-2.054419994354248,-7.144122123718262
1772563635026971000,5.690970947265625,-1.4034919738769531,-1.897231936454773,-7.25958251953125
1772563635036969000,5.700968994140625,-1.3890124559402466,-1.7352560758590698,-7.281387805938721
1772563635046966800,5.710966796875,-1.3544634580612183,-1.535960078239441,-7.222832202911377
1772563635056966000,5.7209658203125,-1.3258339166641235,-1.3005092144012451,-7.139065265655518
1772563635066964000,5.7309638671875,-1.3288495540618896,-1.031603455543518,-7.032981872558594
1772563635076963000,5.740963134765625,-1.3538470268249512,-0.7470133900642395,-6.899904727935791
1772563635086961700,5.750961669921875,-1.379173755645752,-0.46865516901016235,-6.731611251831055
1772563635096959700,5.760959716796875,-1.390365719795227,-0.18228255212306976,-6.517838001251221
1772563635106957800,5.770957763671875,-1.3504822254180908,0.09800810366868973,-6.2566609382629395
1772563635116957000,5.78095703125,-1.2463613748550415,0.38028213381767273,-5.958802223205566
1772563635126954800,5.790954833984375,-1.0382394790649414,0.6346669793128967,-5.635036468505859
1772563635136952800,5.800952880859375,-0.7018436193466187,0.8189324140548706,-5.258627891540527
1772563635146952000,5.810951904296875,-0.22646966576576233,0.927685022354126,-4.832020282745361
1772563635156949800,5.82094970703125,0.3936588764190674,0.9105997681617737,-4.329936981201172
1772563635166947800,5.83094775390625,1.257247805595398,0.838162362575531,-3.757875919342041
1772563635176947000,5.840947021484375,2.5346760749816895,0.7182884216308594,-3.065575361251831
1772563635186944800,5.85094482421875,4.349567890167236,0.5435934662818909,-2.203061580657959
1772563635196942800,5.86094287109375,6.996006011962891,-0.24184037744998932,-0.9694366455078125
1772563635206942000,5.87094189453125,11.45826244354248,-0.8765655755996704,0.5596285462379456
1772563635216940000,5.88093994140625,18.49429702758789,-0.6180360317230225,2.018247604370117
1772563635226937900,5.890937744140625,26.127824783325195,-0.05171007663011551,4.07877254486084
1772563635236936700,5.900936767578125,26.338191986083984,0.3632469177246094,5.6111979484558105
1772563635246934800,5.910934814453125,14.800909996032715,2.2829771041870117,4.577780246734619
1772563635256932600,5.9209326171875,2.364557981491089,0.7477298378944397,3.0676193237304688
1772563635266931700,5.930931640625,-3.558009386062622,-1.7001285552978516,2.8609392642974854
1772563635276929800,5.9409296875,-4.520410537719727,-2.677663803100586,3.6214888095855713
1772563635286929000,5.950928955078125,-3.646507501602173,-2.4541850090026855,5.323366165161133
1772563635296926700,5.9609267578125,-1.1020678281784058,0.4861837923526764,9.851066589355469
1772563635306924800,5.9709248046875,0.3319387435913086,2.227607011795044,12.071388244628906
1772563635316924000,5.980923828125,0.8922492265701294,2.555539131164551,13.016616821289062
1772563635326922000,5.990921875,0.13088847696781158,-5.796317100524902,11.33352279663086
1772563635336919800,6.000919921875,-1.7494969367980957,-11.034287452697754,8.58781623840332
1772563635346919000,6.0109189453125,-2.1656720638275146,-9.721917152404785,5.359050750732422
1772563635356917000,6.0209169921875,-1.86533522605896,-6.99822473526001,3.8452208042144775
1772563635366914800,6.030914794921875,-1.538948893547058,-4.936034679412842,2.9442193508148193
1772563635376913700,6.04091357421875,-1.3660929203033447,-3.486527919769287,2.3124313354492188
1772563635386911700,6.050911865234375,-1.2973110675811768,-2.5920658111572266,1.8851613998413086
1772563635396910000,6.06091015625,-1.3201251029968262,-1.9528441429138184,1.6585726737976074
1772563635406908700,6.07090869140625,-1.4077574014663696,-1.5106918811798096,1.536159873008728
1772563635416906800,6.08090673828125,-1.6092617511749268,-1.0204057693481445,1.3276231288909912
1772563635426904800,6.09090478515625,-1.873740792274475,-0.7335318326950073,1.1709879636764526
1772563635436904000,6.100904052734375,-2.182744264602661,-0.5575642585754395,0.9786185622215271
1772563635446901800,6.11090185546875,-2.454523801803589,-0.5272226333618164,0.7789996266365051
1772563635456899800,6.12089990234375,-2.6470093727111816,-0.6456944346427917,0.5926957726478577
1772563635466899000,6.13089892578125,-2.6841113567352295,-0.897286593914032,0.41486531496047974
1772563635476896000,6.14089599609375,-2.6089696884155273,-1.242404580116272,0.20807111263275146
1772563635486893800,6.150893798828125,-2.5237364768981934,-1.5876688957214355,-0.004763294477015734
1772563635496893000,6.160892822265625,-2.365018367767334,-1.8813284635543823,-0.22278298437595367
1772563635506891000,6.17089111328125,-2.0807182788848877,-2.112583875656128,-0.46437203884124756
1772563635516889000,6.18088916015625,-1.6549330949783325,-2.265597343444824,-0.7448117136955261
1772563635526888000,6.190887939453125,-1.1169099807739258,-2.3835904598236084,-1.0637221336364746
1772563635536886000,6.200885986328125,-0.5024579763412476,-2.5007216930389404,-1.4017609357833862
1772563635546884000,6.210884033203125,0.09860973060131073,-2.606297016143799,-1.7519688606262207
1772563635556883200,6.22088330078125,0.5206613540649414,-2.7184855937957764,-2.0723471641540527
1772563635566881000,6.230881103515625,0.7687637805938721,-2.7884387969970703,-2.356473922729492
1772563635576879000,6.240879150390625,0.8952292799949646,-2.78530216217041,-2.659595251083374
1772563635586878000,6.2508779296875,0.9518138766288757,-2.721606731414795,-2.9698903560638428
1772563635596876000,6.2608759765625,0.9378207921981812,-2.6367878913879395,-3.232849359512329
1772563635606875000,6.270875,0.8621463775634766,-2.5530455112457275,-3.4228076934814453
1772563635616873000,6.280873046875,0.7276521921157837,-2.3752689361572266,-3.5872249603271484
1772563635626871000,6.29087109375,0.5581282377243042,-2.256478786468506,-3.695463180541992
1772563635636870000,6.300869873046875,0.34877365827560425,-2.120936632156372,-3.7880234718322754
1772563635646868000,6.310867919921875,0.1338454931974411,-1.9632550477981567,-3.8752400875091553
1772563635656866000,6.320865966796875,-0.07871631532907486,-1.7608591318130493,-3.9754838943481445
1772563635666865200,6.330865234375,-0.2752203941345215,-1.5089694261550903,-4.084576606750488
1772563635676863000,6.340863037109375,-0.4453798532485962,-1.205857753753662,-4.214364051818848
1772563635686861000,6.350861083984375,-0.4666439890861511,-0.8430509567260742,-4.346922397613525
1772563635696860200,6.360860107421875,-0.2608838975429535,-0.495549738407135,-4.447877407073975
1772563635706858000,6.37085791015625,0.05246330797672272,-0.1589779257774353,-4.5136399269104
1772563635716856000,6.38085595703125,0.4078078269958496,0.18371151387691498,-4.513902187347412
1772563635726855000,6.39085498046875,0.9863290190696716,0.5976705551147461,-4.444342613220215
1772563635736853200,6.400853271484375,2.6420063972473145,1.3708099126815796,-4.058841705322266
1772563635746851000,6.41085107421875,6.016720771789551,3.449873208999634,-2.640956401824951
1772563635756850000,6.420849853515625,10.858542442321777,7.232967853546143,-0.09166154265403748
1772563635766848000,6.430847900390625,16.133630752563477,10.1365327835083,1.8229421377182007
1772563635776845800,6.440845703125,19.31616973876953,11.41911506652832,1.769421100616455
1772563635786845000,6.450844970703125,16.21613311767578,10.170355796813965,-0.11562217772006989
1772563635796843000,6.460843017578125,8.230514526367188,7.359249591827393,-1.8030941486358643
1772563635806840800,6.4708408203125,1.5417795181274414,2.385340452194214,-2.4552671909332275
1772563635816840000,6.48083984375,-1.5290167331695557,-0.35768505930900574,-2.2451624870300293
1772563635826838000,6.490838134765625,-1.8880137205123901,0.08158188313245773,-1.2710316181182861
1772563635836836000,6.500836181640625,-1.2901066541671753,1.2440013885498047,-0.11223883926868439
1772563635846835000,6.5108349609375,0.35492193698883057,2.619800567626953,4.619073867797852
1772563635856833000,6.5208330078125,1.7786297798156738,2.620877981185913,8.276694297790527
1772563635866831000,6.5308310546875,2.728959083557129,1.859936237335205,10.145468711853027
1772563635876830200,6.540830322265625,2.7886962890625,1.0339763164520264,11.314056396484375
1772563635886828000,6.550828125,2.421658992767334,-1.2899330854415894,11.5419340133667
1772563635896826000,6.560826171875,0.6244550943374634,-9.597502708435059,9.591665267944336
1772563635906825000,6.570824951171875,-1.0451979637145996,-12.641142845153809,8.095235824584961
1772563635916822800,6.58082275390625,-1.4523979425430298,-10.110588073730469,6.241692066192627
1772563635926821000,6.590821044921875,-1.2487168312072754,-6.653501033782959,4.975614070892334
1772563635936820000,6.600820068359375,-1.0873936414718628,-4.479983806610107,4.323080062866211
1772563635946818000,6.610818115234375,-0.9529510140419006,-2.997621536254883,4.076806545257568
1772563635956817000,6.62081689453125,-0.931329607963562,-2.2970027923583984,3.738224506378174
1772563635966815000,6.63081494140625,-1.0462698936462402,-2.0384349822998047,3.4132373332977295
1772563635976813000,6.64081298828125,-1.252018690109253,-1.7511478662490845,3.1815216541290283
1772563635986812200,6.650812255859375,-1.5192762613296509,-1.4600685834884644,3.0115370750427246
1772563635996810000,6.66081005859375,-1.7974019050598145,-1.327637791633606,2.864175796508789
1772563636006808000,6.67080810546875,-2.0497682094573975,-1.3737242221832275,2.741933584213257
1772563636016807200,6.68080712890625,-2.2928085327148438,-1.5332286357879639,2.601452589035034
1772563636026805000,6.690804931640625,-2.4501113891601562,-1.7547426223754883,2.428433895111084
1772563636036803000,6.700802978515625,-2.4914112091064453,-2.0430166721343994,2.2171666622161865
1772563636046802000,6.710802001953125,-2.3918142318725586,-2.3835341930389404,1.9268715381622314
1772563636056800000,6.720800048828125,-2.18173885345459,-2.7452597618103027,1.5544828176498413
1772563636066798000,6.730798095703125,-1.903024435043335,-3.093526601791382,0.9814211130142212
1772563636076797000,6.740796875,-1.4770398139953613,-3.2861294746398926,0.15531069040298462
1772563636086795000,6.750794921875,-0.9475956559181213,-3.3004658222198486,-0.8069090247154236
1772563636096792800,6.760792724609375,-0.4575859606266022,-3.2077927589416504,-1.7089552879333496
1772563636106792000,6.7707919921875,-0.13087595999240875,-3.0867650508880615,-2.415848970413208
1772563636116790000,6.7807900390625,0.06348500400781631,-2.969435691833496,-2.940905809402466
1772563636126787800,6.790787841796875,0.16758836805820465,-2.818335771560669,-3.372624635696411
1772563636136787000,6.800786865234375,0.19588685035705566,-2.639133930206299,-3.752087116241455
1772563636146785000,6.810784912109375,0.1861080825328827,-2.4717605113983154,-4.070972442626953
1772563636156783000,6.820783203125,0.1341649889945984,-2.3192899227142334,-4.3512163162231445
1772563636166782000,6.830781982421875,0.06908786296844482,-2.1832797527313232,-4.603793144226074
1772563636176780000,6.840780029296875,-0.005565338768064976,-2.035979986190796,-4.84580135345459
1772563636186778000,6.850778076171875,-0.09122564643621445,-1.880407691001892,-5.0755767822265625
1772563636196777200,6.860777099609375,-0.17197002470493317,-1.7300941944122314,-5.291909694671631
1772563636206775000,6.870775146484375,-0.22865664958953857,-1.5771195888519287,-5.480548858642578
1772563636216773000,6.880773193359375,-0.2719261050224304,-1.417730689048767,-5.628971099853516
1772563636226772000,6.89077197265625,-0.3010746240615845,-1.282826542854309,-5.716270446777344
1772563636236769800,6.900769775390625,-0.2773396968841553,-1.203014850616455,-5.719656944274902
1772563636246769000,6.910768798828125,-0.20919498801231384,-1.1703664064407349,-5.647172927856445
1772563636256767000,6.92076708984375,-0.07678821682929993,-1.1327506303787231,-5.515291213989258
1772563636266765000,6.93076513671875,0.18464349210262299,-1.0656886100769043,-5.339425086975098
1772563636276764000,6.940763916015625,0.5326427817344666,-0.9615600109100342,-5.132951259613037
1772563636286762000,6.950761962890625,0.9711773991584778,-0.8230546116828918,-4.886419296264648
1772563636296760000,6.960760009765625,1.6698150634765625,-0.5903528928756714,-4.554530143737793
1772563636306759200,6.97075927734375,3.1777517795562744,0.09502208977937698,-3.899930715560913
1772563636316757000,6.980757080078125,6.174831390380859,1.1937671899795532,-2.6329874992370605
1772563636326755000,6.990755126953125,10.735575675964355,3.1304192543029785,-0.5191966891288757
1772563636336754200,7.000754150390625,15.6344633102417,6.373373031616211,2.1015427112579346
1772563636346752000,7.010751953125,18.815908432006836,9.630169868469238,3.4973366260528564
1772563636356750000,7.02075,16.526775360107422,11.360223770141602,2.293933391571045
1772563636366749000,7.0307490234375,8.50854778289795,10.5732421875,-0.021762056276202202
1772563636376747000,7.0407470703125,0.8690788745880127,5.996248722076416,-1.153929591178894
1772563636386745000,7.0507451171875,-1.3882240056991577,2.069901466369629,-0.7231777310371399
1772563636396744000,7.060743896484375,-0.3219013810157776,1.0279150009155273,1.7327440977096558
1772563636406742000,7.070741943359375,2.37652850151062,2.044865131378174,9.637124061584473
1772563636416739800,7.08073974609375,4.305538654327393,2.3924560546875,13.44132137298584
1772563636426739000,7.090739013671875,3.8593108654022217,1.6027920246124268,15.256590843200684
1772563636436737000,7.100737060546875,2.1237869262695312,-2.425044298171997,15.154339790344238
1772563636446734800,7.11073486328125,-0.8396958112716675,-13.722145080566406,12.50382137298584
1772563636456734000,7.12073388671875,-2.395103693008423,-15.751712799072266,9.986931800842285
1772563636466732000,7.13073193359375,-2.4125795364379883,-11.25839900970459,8.357436180114746
1772563636476730000,7.140730224609375,-2.0255353450775146,-7.2978363037109375,7.395827770233154
1772563636486729200,7.150729248046875,-1.550986647605896,-5.532247066497803,6.727556228637695
1772563636496727000,7.16072705078125,-1.0625115633010864,-5.405740261077881,5.718365669250488
1772563636506725000,7.17072509765625,-0.7435770630836487,-4.992298126220703,4.835647106170654
1772563636516724200,7.18072412109375,-0.6116417050361633,-4.155465126037598,3.8770508766174316
1772563636526722300,7.190722412109375,-0.6775618195533752,-3.419965982437134,3.153913974761963
1772563636536720100,7.20072021484375,-0.8437737226486206,-2.897094964981079,2.648098945617676
1772563636546719000,7.210718994140625,-1.089211106300354,-2.5316953659057617,2.2159550189971924
1772563636556717000,7.220717041015625,-1.3415921926498413,-2.341336965560913,1.7823299169540405
1772563636566716200,7.230716064453125,-1.5918700695037842,-2.1960549354553223,1.286072850227356
1772563636576714000,7.2407138671875,-1.8041802644729614,-2.136213541030884,0.6932036280632019
1772563636586712000,7.250712158203125,-1.9661840200424194,-2.083944082260132,-0.027040915563702583
1772563636596711200,7.260711181640625,-2.0495622158050537,-1.9637116193771362,-0.8892744779586792
1772563636606709000,7.270708984375,-2.138023614883423,-1.6775085926055908,-1.9380642175674438
1772563636616707000,7.28070703125,-2.2438900470733643,-1.3530669212341309,-3.114776372909546
1772563636626706200,7.2907060546875,-2.338242769241333,-1.0305594205856323,-4.320306777954102
1772563636636704300,7.300704345703125,-2.449103355407715,-0.7099422216415405,-5.441588878631592
1772563636646702000,7.3107021484375,-2.5393757820129395,-0.3819677531719208,-6.407016754150391
1772563636656701200,7.320701171875,-2.6606595516204834,-0.11239113658666611,-7.1468729972839355
1772563636666699300,7.33069921875,-2.766477108001709,0.013577885925769806,-7.666514873504639
1772563636676697000,7.340697021484375,-2.868425130844116,0.06199841573834419,-8.044987678527832
1772563636686696000,7.350696044921875,-2.992947816848755,0.08944136649370193,-8.337270736694336
1772563636696694000,7.360694091796875,-3.1148629188537598,0.13458433747291565,-8.547697067260742
1772563636706692000,7.370692138671875,-3.236454725265503,0.21914947032928467,-8.662826538085938
1772563636716691000,7.38069091796875,-3.337928533554077,0.34578409790992737,-8.672761917114258
1772563636726689000,7.39068896484375,-3.4276864528656006,0.500381350517273,-8.625669479370117
1772563636736687000,7.40068701171875,-3.451751232147217,0.7259436845779419,-8.562263488769531
1772563636746686000,7.41068603515625,-3.3814337253570557,0.9764417409896851,-8.476811408996582
1772563636756684000,7.42068408203125,-3.238889217376709,1.2037785053253174,-8.3552885055542
1772563636766682000,7.43068212890625,-3.0220084190368652,1.3956366777420044,-8.187455177307129
1772563636776681200,7.44068115234375,-2.762932538986206,1.5623809099197388,-7.978433609008789
1772563636786679000,7.450678955078125,-2.503321886062622,1.6832395792007446,-7.7185893058776855
1772563636796677000,7.460677001953125,-2.251455068588257,1.7218914031982422,-7.410487174987793
1772563636806676200,7.47067626953125,-2.0021510124206543,1.6481035947799683,-7.052150726318359
1772563636816674000,7.480674072265625,-1.7550710439682007,1.444817304611206,-6.644960403442383
1772563636826672000,7.490672119140625,-1.4723429679870605,1.131103754043579,-6.2102484703063965
1772563636836671200,7.500671142578125,-1.094297170639038,0.8163050413131714,-5.743999481201172
1772563636846669300,7.51066943359375,-0.5655302405357361,0.479309618473053,-5.2483720779418945
1772563636856667100,7.520667236328125,0.26628386974334717,-0.003120399545878172,-4.755763053894043
1772563636866666000,7.530666015625,1.6519358158111572,-0.7819472551345825,-4.270371913909912
1772563636876664000,7.5406640625,3.806502103805542,-2.1576664447784424,-3.701590061187744
1772563636886663200,7.5506630859375,6.651885986328125,-4.22105073928833,-3.028858184814453
1772563636896661000,7.560660888671875,10.33944320678711,-7.135711669921875,-2.2769882678985596
1772563636906659000,7.5706591796875,15.296953201293945,-10.871803283691406,-1.3410975933074951
1772563636916658200,7.580658203125,20.67205238342285,-13.798023223876953,0.7913920879364014
1772563636926656000,7.590656005859375,22.702451705932617,-14.973699569702148,5.127140998840332
1772563636936654000,7.600654052734375,15.630751609802246,-10.41592788696289,8.365412712097168
1772563636946653200,7.610653076171875,4.1605048179626465,-2.8232054710388184,7.632179260253906
1772563636956651000,7.620651123046875,-2.534844398498535,-2.4187026023864746,6.489334583282471
1772563636966649000,7.630649169921875,-3.6733856201171875,-2.827120542526245,7.181015968322754
1772563636976648200,7.640648193359375,-1.8832131624221802,-1.1562628746032715,9.734233856201172
1772563636986646300,7.650646240234375,0.26106494665145874,1.2012192010879517,11.722066879272461
1772563636996644000,7.66064404296875,2.3513472080230713,3.013270616531372,12.817933082580566
1772563637006643000,7.670642822265625,3.243023633956909,-1.2871670722961426,10.468568801879883
1772563637016641000,7.68064111328125,1.7774907350540161,-7.399862289428711,4.703819274902344
1772563637026639000,7.69063916015625,0.6546335220336914,-6.113224029541016,1.0319660902023315
1772563637036638000,7.700637939453125,0.2854435443878174,-3.6329877376556396,0.12271112203598022
1772563637046636000,7.710635986328125,0.0015744296833872795,-2.2932965755462646,-0.3473220467567444
1772563637056634000,7.720634033203125,-0.2339041382074356,-1.5007084608078003,-0.4647922217845917
1772563637066633000,7.730633056640625,-0.3598405718803406,-0.5119099617004395,-0.20001812279224396
1772563637076631000,7.740631103515625,-0.5559237599372864,0.1899687796831131,0.1300996094942093
1772563637086629000,7.750629150390625,-0.8928099274635315,0.4980807900428772,0.1318378448486328
1772563637096628200,7.760628173828125,-1.2420371770858765,0.6844975352287292,0.1554235965013504
1772563637106626000,7.7706259765625,-1.5952552556991577,0.7554458379745483,0.19330711662769318
1772563637116624100,7.7806240234375,-1.9467116594314575,0.682607889175415,0.24187704920768738
1772563637126623200,7.790623291015625,-2.296644687652588,0.48646312952041626,0.29379814863204956
1772563637136621000,7.80062109375,-2.6413588523864746,0.19454523921012878,0.36862125992774963
1772563637146619100,7.810619140625,-2.9274179935455322,-0.18983344733715057,0.46139147877693176
1772563637156618200,7.8206181640625,-3.1040494441986084,-0.6389228701591492,0.5268149375915527
1772563637166616300,7.8306162109375,-3.152833938598633,-1.1698517799377441,0.5554792881011963
1772563637176614100,7.8406142578125,-3.111313819885254,-1.755422830581665,0.5485736727714539
1772563637186613000,7.850613037109375,-2.978379726409912,-2.2868621349334717,0.5130316019058228
1772563637196611000,7.860611083984375,-2.790266990661621,-2.717182159423828,0.4528791010379791
1772563637206609000,7.87060888671875,-2.578847646713257,-3.0663726329803467,0.37597429752349854
1772563637216608000,7.88060791015625,-2.3602097034454346,-3.36293888092041,0.28308990597724915
1772563637226606000,7.890606201171875,-2.207406997680664,-3.6338212490081787,0.19471494853496552
1772563637236605200,7.900605224609375,-2.0399997234344482,-3.844508647918701,0.06538412719964981
1772563637246603000,7.91060302734375,-1.8042855262756348,-3.9762961864471436,-0.16835305094718933
1772563637256601000,7.92060107421875,-1.577743411064148,-4.093850612640381,-0.4232172966003418
1772563637266600200,7.93060009765625,-1.3794405460357666,-4.192966938018799,-0.7063475251197815
1772563637276598000,7.940597900390625,-1.179523229598999,-4.268351078033447,-1.0089365243911743
1772563637286596000,7.95059619140625,-0.9876919388771057,-4.31083345413208,-1.3226810693740845
1772563637296595200,7.96059521484375,-0.8165116906166077,-4.286245822906494,-1.6335737705230713
1772563637306593300,7.97059326171875,-0.6768453121185303,-4.188504695892334,-1.9462584257125854
1772563637316591000,7.980591064453125,-0.5506256222724915,-4.036755084991455,-2.240813970565796
1772563637326590000,7.99058984375,-0.4062460660934448,-3.831181526184082,-2.4945425987243652
1772563637336588000,8.000588134765625,-0.24608303606510162,-3.5948288440704346,-2.7051284313201904
1772563637346586000,8.010586181640624,-0.07342937588691711,-3.3198275566101074,-2.878514051437378
1772563637356585000,8.0205849609375,0.12122080475091934,-3.0274949073791504,-3.0270183086395264
1772563637366583000,8.0305830078125,0.32817336916923523,-2.7377750873565674,-3.1426303386688232
1772563637376581000,8.0405810546875,0.5583906173706055,-2.479177474975586,-3.198744773864746
1772563637386580000,8.050580078125,0.8784946203231812,-2.233241558074951,-3.189913749694824
1772563637396578000,8.060578125,1.399072527885437,-2.008122682571411,-3.1326115131378174
1772563637406576000,8.070576171875,2.251995325088501,-1.6971983909606934,-3.0164051055908203
1772563637416575200,8.0805751953125,3.977097511291504,-0.9245917201042175,-2.6903417110443115
1772563637426573000,8.090572998046875,7.3357110023498535,1.542273759841919,-1.3857922554016113
1772563637436571100,8.100571044921875,11.936758041381836,6.336129188537598,1.0900464057922363
1772563637446570200,8.1105703125,16.342857360839844,12.891297340393066,2.9096121788024902
1772563637456568000,8.120568115234375,18.35577392578125,16.37682342529297,2.09250545501709
1772563637466566100,8.130566162109375,15.275410652160645,16.617401123046875,-0.719412624835968
1772563637476565200,8.140565185546874,7.81352424621582,13.895183563232422,-2.957129955291748
1772563637486563300,8.150563232421876,0.9709937572479248,8.724602699279785,-3.3615715503692627
1772563637496561400,8.1605615234375,-1.6151372194290161,4.43781852722168,-2.7654194831848145
1772563637506560300,8.170560302734375,-1.814527988433838,2.0861635208129883,-1.7052077054977417
1772563637516558300,8.180558349609376,-0.7380841374397278,-0.8241433501243591,4.5550432205200195
1772563637526556400,8.190556396484375,-0.09253256022930145,-2.251110553741455,10.276368141174316
1772563637536555300,8.20055517578125,0.4668561816215515,-3.101966142654419,12.842257499694824
1772563637546553300,8.21055322265625,0.8372726440429688,-3.5732548236846924,14.297980308532715
1772563637556551400,8.220551513671875,0.6500564217567444,-4.108078479766846,14.964747428894043
1772563637566550500,8.230550537109375,-0.8985615968704224,-9.934420585632324,13.304744720458984
1772563637576548400,8.24054833984375,-2.7385218143463135,-14.019795417785645,9.882170677185059
1772563637586547500,8.25054736328125,-3.2692151069641113,-11.599266052246094,7.3051347732543945
1772563637596545500,8.260545654296875,-2.5227603912353516,-8.361296653747559,6.233017921447754
1772563637606543400,8.27054345703125,-1.205398678779602,-5.4137067794799805,5.265920162200928
1772563637616542500,8.28054248046875,0.02881397306919098,-3.062359094619751,4.582059860229492
1772563637626540500,8.29054052734375,0.540221631526947,-1.2438685894012451,4.0175299644470215
1772563637636538400,8.300538330078124,0.5138355493545532,0.11760678887367249,3.329293966293335
1772563637646537200,8.310537109375,0.2721637189388275,1.0728272199630737,2.6369786262512207
1772563637656535300,8.320535400390625,-0.09918560087680817,1.773267149925232,2.0005862712860107
1772563637666533400,8.330533447265625,-0.3996813893318176,2.2260117530822754,1.4783449172973633
1772563637676532200,8.3405322265625,-0.6305878758430481,2.4410505294799805,1.0194382667541504
1772563637686530300,8.3505302734375,-0.8600687384605408,2.416863203048706,0.5696154236793518
1772563637696528400,8.3605283203125,-1.0871250629425049,2.2044451236724854,0.148947611451149
1772563637706527500,8.370527587890624,-1.2510775327682495,1.8685228824615479,-0.20330987870693207
1772563637716525300,8.380525390625,-1.358425498008728,1.4228216409683228,-0.5009934902191162
1772563637726523400,8.3905234375,-1.444369912147522,0.9241527318954468,-0.7839558124542236
1772563637736522500,8.4005224609375,-1.4699522256851196,0.4136228859424591,-1.075792908668518
1772563637746520300,8.410520263671875,-1.3933097124099731,0.002209083177149296,-1.358041524887085
1772563637756518400,8.420518310546875,-1.2222859859466553,-0.2665472626686096,-1.6191333532333374
1772563637766517500,8.430517578125,-0.8476747870445251,-0.45591312646865845,-1.8719713687896729
1772563637776515600,8.440515625,-0.32347360253334045,-0.6124017834663391,-2.12113618850708
1772563637786513400,8.450513427734375,0.19762299954891205,-0.7213122844696045,-2.3436553478240967
1772563637796512300,8.46051220703125,0.6345369219779968,-0.9134713411331177,-2.4496376514434814
1772563637806510300,8.47051025390625,0.9955071806907654,-1.1692891120910645,-2.417491912841797
1772563637816508400,8.48050830078125,1.2199066877365112,-1.4279829263687134,-2.2391116619110107
1772563637826507300,8.49050732421875,1.1869781017303467,-1.610024094581604,-1.9099236726760864
1772563637836505300,8.50050537109375,0.9540319442749023,-1.5910460948944092,-1.4562987089157104
1772563637846503400,8.51050341796875,0.6024126410484314,-1.2315846681594849,-0.9130095839500427
1772563637856502300,8.520502197265625,0.21559646725654602,-0.5659497976303101,-0.322360634803772
1772563637866500400,8.530500244140624,0.011947009712457657,0.5606517195701599,0.46955183148384094
1772563637876498400,8.54049853515625,-0.07099182158708572,2.2154765129089355,1.4424853324890137
1772563637886497500,8.55049755859375,-0.07040189206600189,3.2079591751098633,2.2084457874298096
1772563637896495400,8.560495361328124,-0.006151267327368259,3.291991710662842,2.6704413890838623
1772563637906493400,8.570493408203125,0.0490986704826355,1.9571166038513184,2.470247507095337
1772563637916492500,8.580492431640625,-0.006956074386835098,-0.2037925273180008,1.674999475479126
1772563637926490400,8.590490478515624,-0.16865204274654388,-1.6028478145599365,0.8062363266944885
1772563637936489200,8.6004892578125,-0.23473304510116577,-1.7818074226379395,0.12348620593547821
1772563637946487600,8.610487548828125,-0.2781441807746887,-1.3844058513641357,-0.3738662004470825
1772563637956485400,8.6204853515625,-0.3128023147583008,-0.6297013759613037,-0.6079487800598145
1772563637966484200,8.630484130859376,-0.27088090777397156,0.022589918226003647,-0.6973592042922974
1772563637976482300,8.640482421875,-0.23293590545654297,0.48691046237945557,-0.9066935181617737
1772563637986480400,8.65048046875,-0.21619418263435364,0.7158114910125732,-1.0691081285476685
1772563637996479200,8.660479248046874,-0.19352775812149048,0.8035815358161926,-1.100603461265564
1772563638006477300,8.670477294921875,-0.19342835247516632,0.740274965763092,-1.0974159240722656
1772563638016475400,8.680475341796875,-0.22356601059436798,0.5223674178123474,-1.0707975625991821
1772563638026474500,8.690474609375,-0.29252558946609497,0.23380497097969055,-1.0000323057174683
1772563638036472300,8.700472412109375,-0.3482849895954132,-0.01302664540708065,-0.9027465581893921
1772563638046470400,8.710470458984375,-0.3529106378555298,-0.13913585245609283,-0.7817801833152771
1772563638056469500,8.720469482421874,-0.29235994815826416,-0.11437005549669266,-0.630706787109375
1772563638066467300,8.73046728515625,-0.1938163936138153,0.05984557420015335,-0.46936240792274475
1772563638076465400,8.74046533203125,-0.0619603730738163,0.2998017370700836,-0.3157730996608734
1772563638086464500,8.750464599609375,0.09892861545085907,0.5533530712127686,-0.18771237134933472
1772563638096462600,8.760462646484376,0.2896391749382019,0.7908108830451965,-0.08779429644346237
1772563638106460400,8.77046044921875,0.4438216984272003,0.9684972167015076,-0.06068962439894676
1772563638116459300,8.780459228515625,0.44683265686035156,1.0438127517700195,-0.08862406015396118
1772563638126457300,8.790457275390626,0.3802494704723358,1.0329025983810425,-0.14530377089977264
1772563638136455400,8.800455322265625,0.34124481678009033,0.9697090983390808,-0.2152080237865448
1772563638146454300,8.810454345703125,0.36343446373939514,0.9728702902793884,-0.2915037274360657
1772563638156452400,8.820452392578124,0.3738918900489807,1.031604528427124,-0.34907326102256775
1772563638166450200,8.8304501953125,0.26483944058418274,1.0200186967849731,-0.36057066917419434
1772563638176449300,8.84044921875,0.06352072209119797,0.7791746258735657,-0.3686903715133667
1772563638186447400,8.850447265625,-0.04848087951540947,0.46929267048835754,-0.3305927813053131
1772563638196445400,8.860445556640625,-0.10860280692577362,0.23738247156143188,-0.23930680751800537
1772563638206444300,8.8704443359375,-0.03730202838778496,0.23718655109405518,-0.08401292562484741
1772563638216442400,8.8804423828125,0.038646530359983444,0.2976115345954895,0.030775174498558044
1772563638226440400,8.8904404296875,0.09688766300678253,0.29910188913345337,0.06037650629878044
1772563638236439600,8.900439453125,0.16481904685497284,0.33888980746269226,0.0530347041785717
1772563638246437400,8.910437255859375,0.3010069727897644,0.3785833716392517,0.08961977809667587
1772563638256435500,8.920435546875,0.47387197613716125,0.41519439220428467,0.22661198675632477
1772563638266434300,8.930434326171875,0.5041880011558533,0.3977010250091553,0.3948718309402466
1772563638276432400,8.940432373046875,0.33921825885772705,0.258603036403656,0.494769424200058
1772563638286430500,8.950430419921876,0.12875089049339294,-0.20499815046787262,0.43989142775535583
1772563638296429300,8.96042919921875,0.015228057280182838,-0.3987705409526825,0.6029711365699768
1772563638306427400,8.970427490234375,0.035888027399778366,-0.31444618105888367,0.9382995963096619
1772563638316426200,8.98042626953125,0.19870251417160034,-0.14158228039741516,1.2918730974197388
1772563638326424300,8.99042431640625,0.31338053941726685,-0.0995151475071907,1.501764178276062
1772563638336422400,9.00042236328125,0.1027766764163971,-0.2921721935272217,1.3460116386413574
1772563638346421500,9.01042138671875,-0.2629014253616333,-0.4338398575782776,0.8865224719047546
1772563638356419300,9.02041943359375,-0.481029748916626,-0.3545173406600952,0.3576893210411072
1772563638366417400,9.03041748046875,-0.433520644903183,-0.16064812242984772,0.0463513508439064
1772563638376416500,9.04041650390625,-0.3034422695636749,0.00022703595459461212,0.013821639120578766
1772563638386414300,9.050414306640626,-0.1599542498588562,0.12751945853233337,0.09471733868122101
1772563638396412400,9.060412353515625,-0.0027872640639543533,0.17112073302268982,0.17053326964378357
1772563638406411500,9.07041162109375,0.01962893083691597,0.11796015501022339,0.1370355784893036
1772563638416409600,9.08040966796875,0.020139191299676895,0.01646709442138672,-0.03222189098596573
1772563638426407400,9.090407470703125,0.05298129469156265,-0.05688115581870079,-0.24795658886432648
1772563638436406300,9.10040625,0.010211460292339325,-0.0983353927731514,-0.45021378993988037
1772563638446404400,9.110404296875,-0.11232873797416687,-0.08941289037466049,-0.5631825923919678
1772563638456402200,9.120402099609375,-0.21940724551677704,-0.049239903688430786,-0.5808042287826538
1772563638466401300,9.1304013671875,-0.44801321625709534,0.07818499207496643,-0.4727385640144348
1772563638476399400,9.1403994140625,-0.36604246497154236,0.437491238117218,-0.35218340158462524
1772563638486397200,9.150397216796875,-0.11731487512588501,0.7131946086883545,-0.31509944796562195
1772563638496396300,9.160396240234375,0.018950290977954865,0.6660071611404419,-0.25445234775543213
1772563638506394400,9.170394287109374,-0.43484261631965637,0.7880222797393799,-0.11999694257974625
1772563638516392200,9.18039208984375,-1.0003217458724976,1.2604929208755493,0.03148366138339043
1772563638526391300,9.190391357421875,-1.2697672843933105,1.8781110048294067,0.14206594228744507
1772563638536389400,9.200389404296875,-1.0967001914978027,2.3025035858154297,0.22285640239715576
1772563638546387500,9.210387451171876,-0.8348495960235596,2.2365970611572266,0.18561610579490662
1772563638556386300,9.22038623046875,-0.5570541620254517,1.7791582345962524,-0.12031823396682739
1772563638566384400,9.23038427734375,-0.2366265207529068,1.0855339765548706,-0.6114383339881897
1772563638576382500,9.240382568359376,0.03726601600646973,0.9141848683357239,-0.7746562957763672
1772563638586381300,9.25038134765625,0.26300281286239624,1.1211447715759277,-0.6783397197723389
1772563638596379400,9.26037939453125,0.4198845624923706,1.1276987791061401,-0.4811171591281891
1772563638606377500,9.27037744140625,0.2565162181854248,0.901042640209198,-0.19133588671684265
1772563638616376300,9.280376220703126,0.018931083381175995,0.49756094813346863,0.15243905782699585
1772563638626374100,9.2903740234375,-0.17444413900375366,0.2668202519416809,0.6057259440422058
1772563638636372200,9.300372314453124,-0.2560633718967438,0.12824426591396332,0.8716747760772705
1772563638646371300,9.310371337890626,-0.14861270785331726,-0.12794478237628937,0.8042311072349548
1772563638656369400,9.320369384765625,0.07585262507200241,0.03852009028196335,0.6659421920776367
1772563638666367200,9.3303671875,0.15805181860923767,0.36327266693115234,0.5016883015632629
1772563638676366300,9.340366455078126,0.31955602765083313,0.5298278331756592,0.2982802987098694
1772563638686363100,9.350363037109375,0.632876992225647,0.5097010135650635,0.1618700474500656
1772563638696362200,9.3603623046875,0.9292052984237671,0.43874770402908325,0.1456039994955063
1772563638706360300,9.3703603515625,0.8528727293014526,0.2174929827451706,-0.11543042212724686
1772563638716358400,9.3803583984375,0.7172725796699524,0.6649211049079895,-0.07226510345935822
1772563638726357200,9.390357177734375,0.7311742901802063,1.0765495300292969,0.07168897241353989
1772563638736355300,9.400355224609376,0.8923000693321228,1.2611188888549805,0.16655583679676056
1772563638746353400,9.410353515625,1.1154698133468628,1.4462814331054688,0.41575682163238525
1772563638756352500,9.4203525390625,1.429875135421753,1.3329380750656128,0.777397871017456
1772563638766350300,9.430350341796874,1.6894991397857666,0.7386305928230286,1.1394072771072388
1772563638776348400,9.440348388671875,1.855100393295288,-0.16329553723335266,1.4315632581710815
1772563638786347300,9.45034716796875,2.0190298557281494,-0.9248303771018982,1.3876876831054688
1772563638796345300,9.460345458984374,2.151059150695801,-1.4486494064331055,1.1634334325790405
1772563638806343400,9.470343505859375,2.254743814468384,-1.455573558807373,0.984153687953949
1772563638816342300,9.48034228515625,2.334294557571411,-1.3748339414596558,0.780773937702179
1772563638826340400,9.49034033203125,2.487287759780884,-1.1918115615844727,0.6399305462837219
1772563638836338200,9.500338134765625,2.6312127113342285,-0.8628551959991455,0.4280651807785034
1772563638846337300,9.510337158203125,2.881119728088379,-0.36680859327316284,0.22567415237426758
1772563638856335400,9.52033544921875,3.490283489227295,-0.7363557815551758,0.3370518386363983
1772563638866333200,9.530333251953126,3.629462718963623,-1.1031197309494019,0.47195205092430115
1772563638876332300,9.540332275390625,3.437952756881714,-1.1267383098602295,0.5660961270332336
1772563638886330400,9.550330322265625,3.369445323944092,-1.0934607982635498,0.5871843695640564
1772563638896328400,9.560328369140626,3.482618570327759,-1.0743992328643799,0.5081603527069092
1772563638906327300,9.570327392578125,3.450533866882324,-0.6939624547958374,0.4973840117454529
1772563638916325400,9.580325439453125,3.0400092601776123,0.15845170617103577,0.4429737627506256
1772563638926324500,9.590324462890624,2.614105224609375,1.2825838327407837,0.2289728969335556
1772563638936322600,9.600322509765626,2.136842727661133,2.0944974422454834,0.12459668517112732
1772563638946320400,9.6103203125,1.618072271347046,2.2730026245117188,0.10668245702981949
1772563638956319200,9.6203193359375,1.1845109462738037,1.9322552680969238,0.15900878608226776
1772563638966317300,9.6303173828125,0.670586884021759,1.6223487854003906,0.21252495050430298
1772563638976315100,9.640315185546875,0.12579655647277832,1.806139588356018,0.42778295278549194
1772563638986314200,9.650314208984375,-0.39651352167129517,2.162938117980957,0.8808540105819702
1772563638996312300,9.660312255859376,-0.8205438852310181,2.378378391265869,1.3708229064941406
1772563639006310100,9.67031005859375,-1.1674617528915405,2.51552152633667,1.8583108186721802
1772563639016309200,9.680309326171875,-1.5726832151412964,2.878687858581543,2.2629663944244385
1772563639026307300,9.690307373046876,-1.7895281314849854,3.0724782943725586,2.397388219833374
1772563639036305400,9.700305419921875,-1.6388379335403442,3.407379388809204,2.2656502723693848
1772563639046304300,9.71030419921875,-1.5698007345199585,3.561668634414673,2.1860878467559814
1772563639056302300,9.72030224609375,-1.5375263690948486,3.6308116912841797,2.1550533771514893
1772563639066300400,9.730300537109375,-1.467824101448059,3.726085901260376,2.127779006958008
1772563639076299500,9.740299560546875,-1.389521598815918,3.8878400325775146,2.1370723247528076
1772563639086297300,9.75029736328125,-1.2752630710601807,4.109676361083984,2.187148094177246
1772563639096295400,9.76029541015625,-1.2010385990142822,4.360337734222412,2.189530611038208
1772563639106294300,9.770294189453125,-0.9340277910232544,4.156275749206543,2.154902696609497
1772563639116292400,9.780292236328124,-0.4211972653865814,3.397146224975586,2.307333469390869
1772563639126290400,9.79029052734375,0.32087916135787964,2.227980852127075,2.696871757507324
1772563639136289300,9.800289306640625,0.6913190484046936,1.1283094882965088,2.909395217895508
1772563639146287400,9.810287353515625,0.6715395450592041,0.3836023211479187,2.4839565753936768
1772563639156285200,9.82028515625,0.14001040160655975,-0.34119799733161926,1.778265118598938
1772563639166284300,9.8302841796875,-0.7024471163749695,-0.7541102766990662,1.465539574623108
1772563639176282400,9.840282470703125,-1.0272653102874756,-0.49887821078300476,1.3546046018600464
1772563639186280200,9.8502802734375,-0.9298340082168579,-0.0051387008279562,1.0927120447158813
1772563639196279300,9.860279296875,-1.112744688987732,0.5587717890739441,0.7301640510559082
1772563639206277400,9.87027734375,-1.3472986221313477,0.5983298420906067,0.43936780095100403
1772563639216275500,9.880275390625,-1.5133732557296753,0.3441356420516968,0.1577363908290863
1772563639226274300,9.8902744140625,-1.6373577117919922,0.6609863638877869,-0.06768053025007248
1772563639236272400,9.9002724609375,-1.610776662826538,1.0366190671920776,-0.1826409250497818
1772563639246270500,9.9102705078125,-1.5318375825881958,1.3584178686141968,-0.16106802225112915
1772563639256269600,9.92026953125,-1.3718124628067017,1.4057362079620361,-0.06345145404338837
1772563639266267400,9.930267333984375,-1.176902413368225,1.117430567741394,0.03330957144498825
1772563639276265500,9.940265380859374,-1.0396250486373901,0.891286313533783,0.14546114206314087
1772563639286264300,9.950264404296876,-0.9770795702934265,0.6910691261291504,0.2980802357196808
1772563639296262100,9.96026220703125,-0.8713555335998535,0.385800838470459,0.4587010443210602
1772563639306260200,9.97026025390625,-0.6502606272697449,0.0790352076292038,0.6206200122833252
1772563639316259300,9.98025927734375,-0.5044360756874084,0.06080266833305359,0.631685197353363
1772563639326257200,9.990257080078125,-0.5572518110275269,0.12630409002304077,0.5031758546829224
1772563639336255200,10.000255126953125,-0.5454252362251282,0.07275111228227615,0.3752477467060089
1772563639346254300,10.01025439453125,-0.4192240834236145,-0.016358936205506325,0.14195433259010315
1772563639356252400,10.02025244140625,-0.20005765557289124,0.013042628765106201,-0.19809752702713013
1772563639366250200,10.030250244140625,-0.13568705320358276,0.08040384203195572,-0.4619276523590088
1772563639376249300,10.040249267578124,-0.14407600462436676,0.15385861694812775,-0.5884725451469421
1772563639386247400,10.050247314453125,-0.14545059204101562,0.22436688840389252,-0.5987902283668518
1772563639396246500,10.06024658203125,-0.10556656867265701,0.34254252910614014,-0.6056271195411682
1772563639406244400,10.070244384765624,-0.13811972737312317,0.17212221026420593,-0.5342727899551392
1772563639416242400,10.080242431640626,-0.04154444858431816,0.2971131503582001,-0.2709849774837494
1772563639426241300,10.0902412109375,0.14477843046188354,0.4040622115135193,0.02120356634259224
1772563639436239400,10.1002392578125,0.256896436214447,0.4805884063243866,0.2416382133960724
1772563639446237400,10.110237548828126,0.22384774684906006,0.5065776109695435,0.1524486392736435
1772563639456236300,10.120236328125,0.14369432628154755,0.5021666288375854,-0.09345407038927078
1772563639466234400,10.130234375,0.06681964546442032,0.4617132246494293,-0.26093530654907227
1772563639476232200,10.140232177734376,-0.020452408120036125,0.4880308508872986,-0.27919527888298035
1772563639486231600,10.1502314453125,-0.01569550484418869,0.45921072363853455,-0.21025118231773376
1772563639496229400,10.1602294921875,0.046624861657619476,0.3196123540401459,-0.045553311705589294
1772563639506227500,10.1702275390625,0.05579083040356636,0.27405333518981934,0.06986784189939499
1772563639516226600,10.1802265625,0.04374135658144951,0.3005400598049164,0.15233421325683594
1772563639526224400,10.190224365234375,0.0486857146024704,0.33977198600769043,0.20028775930404663
1772563639536222500,10.200222412109374,0.06909884512424469,0.3345852196216583,0.23205500841140747
1772563639546221600,10.2102216796875,0.0970366969704628,0.30140092968940735,0.23233646154403687
1772563639556219600,10.2202197265625,0.13491696119308472,0.2943640351295471,0.1325981616973877
1772563639566217500,10.230217529296874,0.11090737581253052,0.2862730920314789,0.003758605569601059
1772563639576216600,10.240216552734376,0.020987343043088913,0.2548754811286926,-0.037240225821733475
1772563639586214700,10.250214599609375,-0.05605731159448624,0.22021172940731049,-0.09554750472307205
1772563639596212500,10.26021240234375,-0.09350747615098953,0.16160568594932556,-0.1273014396429062
1772563639606211300,10.27021142578125,-0.10382486134767532,0.0778202936053276,-0.09831366688013077
1772563639616209400,10.28020947265625,-0.08855855464935303,0.021854229271411896,-0.03170454502105713
1772563639626207200,10.290207275390625,-0.06515713036060333,0.015113594941794872,0.01562398113310337
1772563639636206300,10.300206298828124,-0.030266523361206055,0.024112414568662643,0.020698634907603264
1772563639646204400,10.310204345703125,-0.0015970952808856964,0.048989322036504745,0.007682764902710915
1772563639656202500,10.320202392578125,0.010919761843979359,0.07675410807132721,0.008335239253938198
1772563639666201300,10.330201416015624,0.002556869760155678,0.102765291929245,-0.013297723606228828
1772563639676199400,10.340199462890626,-0.00488986074924469,0.10511340200901031,-0.03450047969818115
1772563639686197500,10.350197509765625,-0.009313439019024372,0.09838156402111053,-0.03862958401441574
1772563639696196600,10.360196533203125,-0.004424940794706345,0.07132730633020401,-0.05930823087692261
1772563639706194400,10.3701943359375,0.013629594817757607,0.042236242443323135,-0.0756940096616745
1772563639716192500,10.380192626953125,0.022038526833057404,0.0089280866086483,-0.07679016143083572
1772563639726191600,10.390191650390625,0.026376113295555115,-0.03063238598406315,-0.10444145649671555
1772563639736189400,10.400189453125,0.021261781454086304,-0.025840293616056442,-0.14283491671085358
1772563639746187500,10.4101875,0.00947130098938942,-0.02906181290745735,-0.16320131719112396
1772563639756186400,10.420186279296875,-0.002626907080411911,-0.03090498596429825,-0.15075157582759857
1772563639766184400,10.430184326171876,-0.0162933561950922,-0.037081263959407806,-0.10500910133123398
1772563639776182500,10.4401826171875,-0.027643483132123947,-0.060909099876880646,-0.0420122928917408
1772563639786181400,10.450181396484375,-0.03901764005422592,-0.08678365498781204,-0.014789139851927757
1772563639796179500,10.460179443359374,-0.046917639672756195,-0.10613871365785599,-0.04260292649269104
1772563639806177300,10.47017724609375,-0.045314986258745193,-0.10732083767652512,-0.06187349557876587
1772563639816176400,10.48017626953125,-0.03212088719010353,-0.09950578957796097,-0.04412459582090378
1772563639826174500,10.490174560546874,-0.026798922568559647,-0.0701950266957283,-0.021107211709022522
1772563639836172500,10.500172607421876,-0.019914384931325912,-0.05320405960083008,-0.008133621886372566
1772563639846171400,10.51017138671875,-0.0012994874268770218,-0.04106389358639717,-0.015831531956791878
1772563639856169500,10.52016943359375,0.015634221956133842,-0.04272996634244919,-0.027967289090156555
1772563639866167600,10.53016748046875,0.03967364504933357,-0.03262941539287567,-0.028521941974759102
1772563639876166700,10.540166748046875,0.0637105405330658,-0.026528116315603256,-0.0022860770113766193
1772563639886164500,10.55016455078125,0.07474960386753082,-0.018199697136878967,0.021991105750203133
1772563639896162600,10.56016259765625,0.08181922882795334,-0.029183905571699142,0.02956513501703739
1772563639906161700,10.57016162109375,0.08781846612691879,-0.043019864708185196,0.011801735498011112
1772563639916159500,10.580159423828125,0.09078336507081985,-0.05066712945699692,-0.010752840898931026
1772563639926157600,10.590157470703126,0.08621717989444733,-0.04148260876536369,-0.018425995483994484
1772563639936156400,10.600156494140625,0.08037872612476349,-0.037217289209365845,-0.0031458421144634485
1772563639946154200,10.610154296875,0.06358204036951065,-0.027975790202617645,0.025649599730968475
1772563639956153300,10.6201533203125,0.06352691352367401,-0.020742909982800484,0.02911170944571495
1772563639966151400,10.6301513671875,0.05305939167737961,-0.014926083385944366,0.012672750279307365
1772563639976149500,10.6401494140625,0.0653834342956543,-0.024708673357963562,0.0002927808091044426
1772563639986148400,10.6501484375,0.06170674040913582,-0.04771595075726509,-0.0006069876253604889
1772563639996146400,10.660146484375,0.06213204562664032,-0.06827901303768158,-0.0006527937948703766
1772563640006144500,10.67014453125,0.051287487149238586,-0.05830221250653267,-0.024056142196059227
1772563640016143600,10.6801435546875,0.030779017135500908,-0.04253523424267769,-0.04779529571533203
1772563640026141400,10.690141357421876,0.017961589619517326,-0.02846727892756462,-0.048032067716121674
1772563640036139500,10.700139404296875,0.010615792125463486,-0.03105293959379196,-0.03857358545064926
1772563640046138600,10.710138671875,0.012654711492359638,-0.016211282461881638,-0.02707669511437416
1772563640056136400,10.720136474609374,0.022490564733743668,-0.01634310930967331,0.03941445052623749
1772563640066134500,10.730134521484375,0.021229391917586327,0.0025374433025717735,0.08335231989622116
1772563640076133400,10.74013330078125,0.02059422805905342,0.008162572048604488,0.08282368630170822
1772563640086131500,10.75013134765625,0.029353797435760498,-0.0006155883893370628,0.06173403933644295
1772563640096129500,10.760129638671875,0.029350068420171738,-0.004759999457746744,0.030429910868406296
1772563640106128400,10.77012841796875,0.02118651382625103,0.007351064123213291,-0.019680948927998543
1772563640116126500,10.78012646484375,0.0013763243332505226,0.008317791856825352,-0.07344643771648407
1772563640126124300,10.790124267578125,-0.01920904777944088,-0.0013052383437752724,-0.09093770384788513
1772563640136123400,10.800123291015625,-0.030595924705266953,-0.016980336979031563,-0.07794653624296188
1772563640146121500,10.81012158203125,-0.041941087692976,-0.032841846346855164,-0.051783960312604904
1772563640156119300,10.820119384765626,-0.051556430757045746,-0.03299124911427498,-0.00630995212122798
