time,seconds_elapsed,z,y,x
1772623329351460900,0.0624609375,0.759721220204234,-1.0607488243490457,0.3812713536828756
1772623329361491000,0.072490966796875,0.7812462387919425,-0.9822869897916913,0.47033404069896784
1772623329371519700,0.082519775390625,0.744803052535653,-0.9600973698154092,0.6480779776655137
1772623329381549800,0.0925498046875,0.5740227075040341,-1.0472869929686188,0.7521861485242843
1772623329391580000,0.102579833984375,0.3229436678767204,-1.1473296679541467,0.8304202387403696
1772623329401610000,0.11260986328125,0.0759042590290308,-1.2654217943713069,0.8046446500360965
1772623329411639800,0.122639892578125,-0.19229718031287193,-1.3590455422252417,0.8028810744296759
1772623329421670000,0.132669921875,-0.46794075235426424,-1.4176628586277364,0.6986073377456515
1772623329431698700,0.14269873046875,-0.7417103472173213,-1.3297718092069029,0.5839489851694554
1772623329441728800,0.152728759765625,-1.0169143587976694,-1.198607435248792,0.3436821026640013
1772623329451758800,0.1627587890625,-1.2335007617145777,-1.0601415061056614,0.13999990637791343
1772623329461789000,0.172788818359375,-1.3824918842643499,-0.9145023243322968,-0.034154472530912604
1772623329471819000,0.182819091796875,-1.4224024543702602,-0.7386606042578816,-0.07886500853076577
1772623329481847800,0.192847900390625,-1.2990320952892302,-0.6246963714256882,-0.03399736629003892
1772623329491878000,0.2028779296875,-1.1242185492187737,-0.5637567495554685,0.21755340305184945
1772623329501907700,0.21290771484375,-0.9127443747490644,-0.5752338368594646,0.47204599571600553
1772623329511937800,0.222937744140625,-0.7273381229937076,-0.551532643276453,0.5785839510049671
1772623329521967900,0.2329677734375,-0.6286807648867369,-0.4709264901667833,0.5602419463675469
1772623329531997000,0.242996826171875,-0.64760466106534,-0.3717813485428691,0.5326533899571746
1772623329542027000,0.253027099609375,-0.6609796909451484,-0.3334393429279327,0.4073877917140722
1772623329552056800,0.263056884765625,-0.6821563344866037,-0.3362029624223709,0.3867770749596879
1772623329562087000,0.2730869140625,-0.7938684044778347,-0.4331660838320851,0.404218660158664
1772623329572116700,0.28311669921875,-0.9362176047950983,-0.48583209061473603,0.40634376255385574
1772623329582146800,0.293146728515625,-1.12228611985147,-0.3906558526217937,0.20705374594526363
1772623329592175900,0.30317578125,-1.393489663618803,-0.11911007128804921,-0.11633549200817941
1772623329602206000,0.3132060546875,-1.761706889939308,0.12607464960366488,-0.5737028644325212
1772623329612235800,0.32323583984375,-2.1257810251057148,0.325699104064703,-0.8066326089829206
1772623329622265900,0.333265869140625,-2.3045927009016274,0.3920122356668114,-0.8238970475167036
1772623329632296000,0.3432958984375,-2.160825450479984,0.4769233924940228,-0.6665788261264562
1772623329642325000,0.353324951171875,-1.8896411959350108,0.6200272105708718,-0.570062425570935
1772623329652355000,0.36335498046875,-1.5177888279825449,0.7484615750432014,-0.33325616838075217
1772623329662385000,0.373385009765625,-1.1134691916674375,0.874575972135365,-0.1558345039048232
1772623329672414700,0.383414794921875,-0.7804045272707939,1.072076274049282,-0.04808925518533215
1772623329682444800,0.39344482421875,-0.4696288515716791,1.2745000038400291,-0.16899861271400005
1772623329692475000,0.403474853515625,-0.40192251204550267,1.4615852947235106,-0.25153511283174157
1772623329702504000,0.41350390625,-0.3189332631915808,1.490240311321616,-0.4450924492735415
1772623329712534000,0.423533935546875,-0.23285189354121683,1.5023071812123059,-0.6452811865538358
1772623329722564000,0.433564208984375,-0.21490882509350775,1.5275596958905457,-0.8947191079106181
1772623329732593700,0.44359375,-0.19951894825994967,1.4978426030188798,-1.066546696972847
1772623329742623700,0.453623779296875,-0.14452069913744925,1.3558096290439368,-1.3146496433988213
1772623329752652800,0.46365283203125,-0.03395487657189369,1.2165139710783959,-1.392473180052638
1772623329762683000,0.473682861328125,0.1810872195124626,1.102957150003314,-1.4212239121101795
1772623329772713000,0.483712890625,0.4626274483770132,1.0184867226809262,-1.2473102374888956
1772623329782743000,0.493742919921875,0.693569708904624,0.9317381212934851,-1.0062607167057693
1772623329792772900,0.50377294921875,0.9180676155984401,0.8501566934108734,-0.78975088615641
1772623329802802700,0.513802734375,1.118884202453494,0.8151388637825846,-0.5664621725892648
1772623329812832000,0.52383203125,1.3630559469103813,0.8401172376945615,-0.4514502208024263
1772623329822861800,0.53386181640625,1.6380448544353245,0.9377744788482785,-0.39718664263002573
1772623329832892000,0.543891845703125,1.759823560410738,0.997787633523345,-0.34886005329117176
1772623329842922000,0.553921875,1.796577127790451,0.9485182834416628,-0.3137994804996997
1772623329852951800,0.563951904296875,1.7879899167090654,0.8429016077160835,-0.27121983731500804
1772623329862980900,0.57398095703125,1.7749772904008625,0.760111096304655,-0.18541118365880102
1772623329873011000,0.584010986328125,1.7146785967826843,0.6867255420982837,-0.05668152603432536
1772623329883041000,0.594041015625,1.672994002741575,0.5887728251293302,0.0004782850362360477
1772623329893070800,0.60407080078125,1.7056056480109691,0.48435500379949803,-0.05932893527057022
1772623329903101000,0.614100830078125,1.6226555621236562,0.38603754517138,-0.07854147566482424
1772623329913129700,0.624129638671875,1.559439519754052,0.23744740463793276,-0.040965960910357535
1772623329923159800,0.634159912109375,1.463046599447727,0.04424363087415695,-0.015994966587238015
1772623329933190000,0.64418994140625,1.3454279357612133,-0.13822949003875254,-0.043750513594970106
1772623329943220000,0.654219970703125,1.2767395994603634,-0.2437137715563178,-0.0892170738602057
1772623329953250000,0.66425,1.1952186695933342,-0.3082826898396015,-0.11981051117498427
1772623329963280000,0.67427978515625,1.114327854323387,-0.3376315339207649,-0.19437873582728207
1772623329973309000,0.684308837890625,1.0354495479196308,-0.30418665269762274,-0.3063147873001173
1772623329983338800,0.6943388671875,0.8962386456280946,-0.32025428266227246,-0.3755743476176634
1772623329993368800,0.704368896484375,0.7674754875928163,-0.35229426552355286,-0.4351203231723979
1772623330003399000,0.71439892578125,0.7179062777817249,-0.346482656635344,-0.5210313412245363
1772623330013429000,0.724428955078125,0.67854515825212,-0.30512101093828675,-0.5572238406553864
1772623330023457800,0.734457763671875,0.68509121889472,-0.252732652053237,-0.551369780864939
1772623330033488000,0.74448779296875,0.6730559131860733,-0.18962065457999705,-0.494248548239097
1772623330043518000,0.75451806640625,0.6512485705256462,-0.14556494749337434,-0.478937727991119
1772623330053547800,0.7645478515625,0.704183457377553,-0.15597031391263008,-0.5187996001170948
1772623330063577900,0.774577880859375,0.6604489450693131,-0.20971680940836668,-0.49561347991675136
1772623330073607000,0.78460693359375,0.6545446894615888,-0.3925573023289442,-0.44706334748771037
1772623330083636700,0.79463671875,0.5863531967669725,-0.5794225207209587,-0.3820099336231127
1772623330093666800,0.804666748046875,0.5614180774748325,-0.652116001009941,-0.3564124779647216
1772623330103697000,0.81469677734375,0.48145372940003867,-0.6697492728561163,-0.31727618016693737
1772623330113727000,0.82472705078125,0.3484077794790268,-0.7163479424238205,-0.2623716737424955
1772623330123756800,0.8347568359375,0.19900456899702548,-0.7791726473882794,-0.2644669289886951
1772623330133785900,0.844785888671875,0.08280921611189841,-0.7626879610553383,-0.2823797118959948
1772623330143816000,0.85481591796875,-0.1101028812289238,-0.6970543361499906,-0.31143644116278735
1772623330153845800,0.864845703125,-0.3086094375759363,-0.6246627614170313,-0.3755758089223876
1772623330163875800,0.874875732421875,-0.4573819489389658,-0.5357280481621622,-0.422668070693314
1772623330173906000,0.884906005859375,-0.5872796639621257,-0.45042643071264027,-0.41177568794209507
1772623330183935000,0.89493505859375,-0.6607084727883339,-0.4222024990081787,-0.3167193500017747
1772623330193965000,0.904965087890625,-0.6719950059562921,-0.42462388093620534,-0.08461001845616847
1772623330203995000,0.914994873046875,-0.6796557498425245,-0.4274652418419718,0.17392046968825162
1772623330214024700,0.925024658203125,-0.6380997506171464,-0.36397856583744287,0.28717100129313766
1772623330224054800,0.9350546875,-0.6232423732250929,-0.22656419157385824,0.24217910933494566
1772623330234084900,0.9450849609375,-0.6151859080195426,-0.10085282232463359,0.18266564781032502
1772623330244114000,0.955114013671875,-0.5662842222064733,-0.06591068828105927,0.18330306893102824
1772623330254144000,0.96514404296875,-0.46965106340348717,-0.1650686893865466,0.33737317524552346
1772623330264174000,0.975174072265625,-0.4093412638694048,-0.3632353462547064,0.5803863242518157
1772623330274204000,0.985203857421875,-0.4279711455374956,-0.6099424544081091,0.7326290690086782
1772623330284233700,0.995233642578125,-0.3929430867761373,-0.7904629799485207,0.816117718752101
1772623330294262800,1.0052626953125,-0.45500294484794135,-0.8601511409416794,0.8236457761693745
1772623330304293400,1.01529345703125,-0.7178004793196916,-0.8312421495825052,0.6549557544805109
1772623330314323500,1.025323486328125,-1.2727484839975833,-0.6861307910755277,0.3099246848929673
1772623330324353500,1.035353515625,-1.9063813183337448,-0.48594899499267336,-0.09312208194211125
1772623330334383400,1.04538330078125,-2.241279627898335,-0.2591170923933387,-0.42564767102599144
1772623330344412400,1.055412353515625,-2.406234627777338,-0.018182137900590895,-0.6165145993400365
1772623330354442200,1.065442138671875,-2.385066752064228,0.21720395029336212,-0.6363576561901718
1772623330364472300,1.075472412109375,-2.0764298419594764,0.4604711471259594,-0.4782734188634902
1772623330374502400,1.08550244140625,-1.4743594361007213,0.590811637480557,-0.2180205639058724
1772623330384532500,1.095532470703125,-0.8945265810132026,0.6982686803758144,0.019734956833161413
1772623330394562600,1.1055625,-0.39474750584959983,0.8574760765135288,0.2264260982774198
1772623330404591400,1.11559130859375,0.19318097741007803,1.0642875198692083,0.3644150940911844
1772623330414621400,1.125621337890625,0.6665887629985809,1.0591057333171368,0.5564787213765084
1772623330424651300,1.1356513671875,0.9176058433055877,0.9144882958069444,0.7503764687538147
1772623330434681300,1.145681396484375,1.0109364534318446,0.7800412469163537,0.7901505529984831
1772623330444711400,1.15571142578125,1.0323539199918508,0.7075961884304881,0.6932124198995531
1772623330454740200,1.165740234375,0.9271388108044862,0.6971791315734386,0.5398384791556745
1772623330464770300,1.175770263671875,0.6983224563896656,0.6885206088215112,0.4244386605624109
1772623330474800400,1.18580029296875,0.43996728827953335,0.6198918937534094,0.34651159046888347
1772623330484830500,1.19583056640625,0.13394143745601175,0.567547374010086,0.2171548321883194
1772623330494860300,1.2058603515625,-0.0989794296681881,0.536207940633595,0.023821276298724114
1772623330504889600,1.2158896484375,-0.214818808722496,0.546069993956387,-0.16886667516371234
1772623330514919200,1.225919189453125,-0.2711182035714388,0.595546849308908,-0.26209398931227623
1772623330524949200,1.23594921875,-0.1425876852482557,0.6642912997111677,-0.29825718958340586
1772623330534979300,1.245979248046875,0.11833879465460777,0.7063359592363238,-0.35517183025386184
1772623330545009400,1.256009521484375,0.3678811262339353,0.7241460489541292,-0.4316896911365911
1772623330555038500,1.26603857421875,0.5863572884202003,0.719161246278882,-0.4109965202631429
1772623330565068500,1.276068603515625,0.7729962968409061,0.6451970154017209,-0.21972709382912142
1772623330575098400,1.286098388671875,1.0908768361091614,0.515325311602652,0.0294912482265383
1772623330585128200,1.296128173828125,1.240704409483075,0.3902724062621593,0.34732144554704425
1772623330595158300,1.306158203125,1.4500596921026705,0.30282150182425976,0.4743398788068443
1772623330605188400,1.316188232421875,1.6601672543942927,0.27108839295506476,0.47613023282233624
1772623330615217400,1.326217529296875,1.746717995122075,0.2501677700012922,0.4476311009056866
1772623330625247500,1.33624755859375,1.752512360614538,0.16213818889260292,0.4379496648468077
1772623330635277300,1.34627734375,1.685650070697069,-0.01677197884172201,0.44674109326340256
1772623330645307400,1.356307373046875,1.6095932514548301,-0.17616145354807375,0.42403117574006316
1772623330655337200,1.366337158203125,1.388081082573533,-0.2814262470960617,0.44219950431101024
1772623330665366500,1.376366455078125,1.158925705462694,-0.3858969676569104,0.44844782411605116
1772623330675396400,1.386396240234375,1.0147592265903949,-0.458422105641663,0.5080337298223748
1772623330685426400,1.396426513671875,0.7619757211327552,-0.4673986083015799,0.7441950036399066
1772623330695456300,1.406456298828125,0.5093325009286404,-0.44601592079401015,0.945070700271055
1772623330705486300,1.416486328125,0.4657067096918821,-0.4648214512899518,0.8550350400369614
1772623330715515400,1.426515380859375,0.4381576085090637,-0.3969765800759196,0.5055492560628801
1772623330725545500,1.43654541015625,0.4939408705294132,-0.31308015324920413,0.18500289511885493
1772623330735575600,1.446575439453125,0.6360434026092291,-0.23828385546207426,0.07178896919731051
1772623330745605400,1.45660546875,0.7500427067548037,-0.1656304149225354,0.03892959624454379
1772623330755635200,1.46663525390625,0.7671639374256134,-0.1457733295470476,0.06309125607931054
1772623330765664300,1.476664306640625,0.7066980705469846,-0.13565057946145534,0.033284767891140654
1772623330775694300,1.4866943359375,0.564544685062766,-0.06949176163822413,-0.08885509041370823
1772623330785724400,1.496724365234375,0.3569499823749065,0.004492050722241401,-0.2412676387795247
1772623330795754500,1.50675439453125,0.27489246141314505,0.13348697168678045,-0.4524513241363689
1772623330805784600,1.51678466796875,0.32903263240158553,0.3127528209909797,-0.6154125563822687
1772623330815813400,1.5268134765625,0.38267186813056464,0.4758458263903856,-0.5882554867243394
1772623330825843500,1.536843505859375,0.4761129528939724,0.49877895821034907,-0.5173455288512632
1772623330835873300,1.546873291015625,0.6867915930718184,0.4052221381127834,-0.5130802726222202
1772623330845903400,1.5569033203125,0.8946382246941328,0.30513708529025313,-0.4536029053242877
1772623330855933400,1.566933349609375,1.0450707782238722,0.22859219027012584,-0.3869570711690932
1772623330865963500,1.576963623046875,1.087345154851675,0.08586743463873862,-0.16753144450457766
1772623330875992300,1.586992431640625,1.1075094064801931,-0.147546184438467,0.10917855119192972
1772623330886022400,1.5970224609375,1.1266899077683687,-0.30180852538943287,0.3069737991981208
1772623330896052500,1.607052490234375,1.0264181002020836,-0.43215982939898967,0.44102633234579114
1772623330906082300,1.617082275390625,0.8867354887455702,-0.6292845759987831,0.5008331142611802
1772623330916112400,1.6271123046875,0.6291846227556467,-0.9123118285506964,0.5988407397551462
1772623330926141200,1.63714111328125,0.17548633076548575,-1.3546917309299111,0.8294591386232525
1772623330936171300,1.647171142578125,-0.5244149192482233,-1.9260548638358712,1.0495311916988341
1772623330946201300,1.657201416015625,-1.1715624841958283,-2.3384756812810896,1.2216576906424015
1772623330956231400,1.6672314453125,-1.5730606333494186,-2.350927458836138,1.2502917375177145
1772623330966261500,1.677261474609375,-1.8203414497375487,-2.0636106923967596,1.1224638875711708
1772623330976290600,1.68729052734375,-1.9338965172469615,-1.7759379521265626,1.1230504552874714
1772623330986320400,1.6973203125,-1.8368617919057606,-1.7121736282244324,1.2582479572191834
1772623330996350200,1.70735009765625,-1.8175117792695759,-1.8921774364143609,1.3904755764946342
1772623331006380300,1.71738037109375,-2.0087632499217984,-2.177499229644239,1.5439325924120844
1772623331016410400,1.727410400390625,-2.108256474331021,-2.306549972449243,1.5647607147768139
1772623331026439400,1.737439453125,-2.072090351450443,-2.0367352526918054,1.2795710234940052
1772623331036469500,1.747469482421875,-2.4116572373479603,-1.5338491514235735,0.7240031333521008
1772623331046499600,1.75749951171875,-2.7988690869957207,-1.140352522417903,0.17556533255213871
1772623331056529400,1.767529296875,-2.952632830774784,-0.9053495883226395,-0.12194028974529356
1772623331066559200,1.777559326171875,-2.861688239002228,-0.7683826655656099,-0.18306297656483947
1772623331076588300,1.78758837890625,-2.4059616560548545,-0.5231035443887114,-0.012868212868832052
1772623331086618400,1.797618408203125,-1.7418717241346835,-0.2167892320126295,0.12826943796789272
1772623331096648400,1.8076484375,-1.0227712681323289,0.035548867765069006,0.2700583009886555
1772623331106678500,1.817678466796875,-0.2552057641685009,0.21315029098838567,0.2908648143097758
1772623331116708400,1.827708251953125,0.3624298750907182,0.4423939309045672,0.21570905382679775
1772623331126737400,1.8377373046875,0.8459884678155183,0.6970213106632233,-0.00343048133875709
1772623331136767500,1.847767578125,1.1405232028096914,0.7367994865611195,-0.16261245534084737
1772623331146797300,1.85779736328125,1.192574292564392,0.5963353693380952,-0.1849375565313734
1772623331156827400,1.867827392578125,1.1437462565094232,0.4124111728340387,-0.26919724544622003
1772623331166857500,1.877857421875,1.037659625184536,0.34064503652304406,-0.3844932383388281
1772623331176886300,1.88788623046875,1.0527654243797062,0.3372568553894758,-0.5857032814908772
1772623331186916400,1.897916259765625,0.9916881476044654,0.3400517468050122,-0.7421644476603716
1772623331196946400,1.907946533203125,0.8338602231264114,0.3024970921754837,-0.8243095007751137
1772623331206976500,1.9179765625,0.6977993092983961,0.24386662403047082,-0.8422601680073887
1772623331217006300,1.92800634765625,0.6358966876149177,0.21628508188277482,-0.7905152215924114
1772623331227035400,1.938035400390625,0.5688812529623508,0.230249894349277,-0.7622614062063395
1772623331237065200,1.948065185546875,0.5763052654832601,0.27892332436442374,-0.7496640827007591
1772623331247095300,1.95809521484375,0.6837152543663978,0.3637812896996736,-0.7284228494904935
1772623331257125400,1.96812548828125,0.836938315397501,0.49449499728083607,-0.6641296063434332
1772623331267155500,1.978155517578125,1.0287515115857124,0.6390352779015899,-0.48768805721234526
1772623331277184500,1.9881845703125,1.1320797841131687,0.7291413730233908,-0.28890016317330297
1772623331287214300,1.99821435546875,1.2394985408246517,0.7954583040177822,-0.1894849176374264
1772623331297248800,2.008248779296875,1.371743695756793,0.8897712031796574,-0.2099077836695127
1772623331307278800,2.01827880859375,1.4763316129565238,0.9626000002861023,-0.2490206457927823
1772623331317309000,2.028308837890625,1.5363427218049763,0.9237287101000546,-0.2585413200656883
1772623331327338000,2.038337890625,1.5496452709704636,0.8236901267677545,-0.24991079956553874
1772623331337368000,2.0483681640625,1.5017507163733244,0.7120090364366769,-0.2006861106094904
1772623331347398000,2.05839794921875,1.423512461438775,0.6314543212532997,-0.22766038931272922
1772623331357427700,2.068427734375,1.3273001583963633,0.5871250579223036,-0.31912429225165395
1772623331367457800,2.078457763671875,1.3046733160465955,0.5784872856974601,-0.42145632028337565
1772623331377486800,2.08848681640625,1.270951079186797,0.6257321442142129,-0.4852655793057754
1772623331387517000,2.098516845703125,1.2399053680598735,0.6190443370133638,-0.5302612341236322
1772623331397547000,2.108547119140625,1.2277245164006947,0.5684992679074407,-0.5604792257221415
1772623331407577000,2.1185771484375,1.2669938659936189,0.4805754852607846,-0.5914145718097686
1772623331417607000,2.12860693359375,1.2982535121321677,0.40770255675166844,-0.599545928882435
1772623331427636000,2.138635986328125,1.3323890059679746,0.3229962748467922,-0.5792046036539599
1772623331437666000,2.148666015625,1.3706050471156834,0.2310308155938983,-0.5822460537090898
1772623331447696000,2.15869580078125,1.4058821122020482,0.14481032973378896,-0.6081925054682419
1772623331457726000,2.168725830078125,1.3372528126120566,0.04203998335003853,-0.5964279064597562
1772623331467756000,2.178756103515625,1.2888549846678972,-0.07518383579999208,-0.629019056930393
1772623331477784800,2.188784912109375,1.2699901252001524,-0.16773147885501383,-0.7097226059999316
1772623331487815000,2.19881494140625,1.2469687305748463,-0.26588322552740573,-0.7271729224946349
1772623331497845000,2.208844970703125,1.1124936246335506,-0.38527620541006324,-0.5896664129681884
1772623331507875000,2.218875,0.9064952512264252,-0.523740380987525,-0.4136182105362415
1772623331517905000,2.22890478515625,0.714565735182166,-0.670104077643156,-0.36606998515874145
1772623331527934000,2.238933837890625,0.4940794022172689,-0.7157137361735105,-0.3280073079418391
1772623331537963800,2.2489638671875,0.1549146673798561,-0.7248483520045876,-0.28183490096218883
1772623331547993900,2.258993896484375,-0.1553933908075094,-0.8180576738387346,-0.17774375430345535
1772623331558024000,2.26902392578125,-0.45857729620337484,-0.883699482050538,-0.08434146718047558
1772623331568054000,2.279053955078125,-0.8633423381984233,-0.8600178699508308,-0.055235638074949384
1772623331578083000,2.2890830078125,-1.1955635375082492,-0.7950070531189442,-0.011609627642482518
1772623331588113000,2.29911279296875,-1.524892522507906,-0.7915367466598748,0.0944273558543995
1772623331598143000,2.30914306640625,-1.7584271376162766,-0.8547755853831768,0.2759593965249136
1772623331608172800,2.3191728515625,-1.9405477918297052,-0.8791799587994813,0.4910374407054856
1772623331618203000,2.329202880859375,-2.179330828985572,-0.910749693800509,0.7173422141581773
1772623331628232000,2.33923193359375,-2.3290245468467474,-0.947715734887123,0.9339101315703242
1772623331638262000,2.349261962890625,-2.433202129679918,-0.990247301146388,1.039487863525003
1772623331648291800,2.359291748046875,-2.53638894791007,-1.0025669767543672,1.0751361000113189
1772623331658322000,2.369322021484375,-2.441622752022743,-0.9647896192848682,1.0412675865486263
1772623331668352000,2.37935205078125,-2.346992749735713,-0.8869526386275887,1.0767933656990527
1772623331678381000,2.389381103515625,-2.328428334519267,-0.9048620970666408,1.1696622035324573
1772623331688411000,2.399410888671875,-2.2876170161813496,-0.9018176148042082,1.1905033315092324
1772623331698441000,2.40944091796875,-2.2909014446794984,-0.8306982519641518,1.0049891623999923
1772623331708470800,2.419470703125,-2.379697333985567,-0.5845926168352366,0.6107348103621975
1772623331718500900,2.4295009765625,-2.542512399226427,-0.26114509108960626,0.21674890000224112
1772623331728530000,2.439530029296875,-2.56669582336843,-0.027189912481606005,0.016558628351986408
1772623331738560000,2.44956005859375,-2.361428102323413,0.16934154440015553,0.11422803486753254
1772623331748590000,2.459590087890625,-1.955790953668952,0.38383974286615846,0.4122125449893996
1772623331758620000,2.469619873046875,-1.3493027313679455,0.6355047656878828,0.5907959649873897
1772623331768649700,2.479649658203125,-0.7597855176120996,0.9631333765104413,0.6597489070411772
1772623331778678800,2.4896787109375,-0.1755149723380804,1.199435702766478,0.8577784204609692
1772623331788708900,2.499708984375,0.4655792839199304,1.250592474029958,1.0177063859581947
1772623331798739000,2.509739013671875,0.8739689461529254,1.3200930034965277,0.992301749458164
1772623331808769000,2.51976904296875,1.1270143174171448,1.3463786606147885,0.9650332187823951
1772623331818799000,2.529799072265625,1.3939064277261495,1.2084855629235505,0.9461750813163816
1772623331828828000,2.539827880859375,1.4497873049020766,1.0699094514042138,0.8817007094487548
1772623331838858000,2.54985791015625,1.299767423826456,0.9561939326360821,0.8442587944786996
1772623331848887800,2.5598876953125,1.067456797555089,0.7700444612979889,0.8460303341958672
1772623331858918000,2.56991796875,0.5957441254466772,0.5584153885275125,0.9237399621464312
1772623331868948000,2.579947998046875,0.14594576350450514,0.3808580967068672,0.9892348361682146
1772623331878976800,2.589976806640625,-0.2510574123173952,0.25553163512200117,0.9579708061154931
1772623331889006800,2.6000068359375,-0.564287495431304,0.2766878203973174,0.8892042900118976
1772623331899037000,2.610036865234375,-0.7172948678851128,0.47477965846359726,0.7985369808107614
1772623331909067000,2.62006689453125,-0.7397977915942668,0.666459875921905,0.4796173808183521
1772623331919096800,2.630096923828125,-0.594351209783554,0.8920555147245526,0.03431041201129555
1772623331929126100,2.640126220703125,-0.33941549472808835,1.155938214084506,-0.31183044544905425
1772623331939155700,2.65015576171875,-0.07671499089002609,1.3448749780535698,-0.57850387150608
1772623331949185800,2.660185791015625,0.15672960784733295,1.3833926324963568,-0.7132583058454096
1772623331959215900,2.6702158203125,0.4777367547035217,1.2574743424981831,-0.5236453231152147
1772623331969246000,2.680245849609375,0.8341302722394466,1.1188491311401128,-0.2797784798890352
1772623331979275000,2.69027490234375,0.857277923592925,1.0436600346431135,-0.021694310740008948
1772623331989305000,2.70030517578125,1.1150988386958838,0.8767156145125627,0.283663139302656
1772623331999335000,2.7103349609375,1.4632318928867578,0.7516501419514418,0.436628280049935
1772623332009364700,2.72036474609375,1.6871914549201725,0.8203723805218934,0.4170920971918851
1772623332019394800,2.730394775390625,1.7812836970686912,0.9748767135351896,0.4121030932655558
1772623332029423900,2.740423828125,1.8290502413719891,1.0664464514687657,0.3396848131887614
1772623332039454000,2.750453857421875,1.950997289651632,1.0562114731803536,0.22063849131930618
1772623332049484000,2.760484130859375,1.8829571881264446,0.9785682615295052,0.13473309929035604
1772623332059513900,2.770513916015625,1.7008078923404215,0.8652823663502931,0.14892759232688693
1772623332069543000,2.78054296875,1.3262380821228026,0.7136395602479577,0.2534059116723016
1772623332079573000,2.790572998046875,1.1743518226534126,0.545773641358316,0.22299634302444754
1772623332089603000,2.80060302734375,1.1692401787281035,0.5290487165287137,0.11988536650948226
1772623332099633000,2.8106328125,1.0448650265187025,0.5580088535532355,0.09366879257205873
1772623332109663000,2.8206630859375,0.9485866725027561,0.5568792650014162,0.08880505899321288
1772623332119691800,2.83069189453125,0.8836924677878618,0.49955257293134925,0.06540626415656879
1772623332129721900,2.840721923828125,0.7928069127261638,0.40680619243383404,0.06864066123422234
1772623332139752000,2.850751953125,0.6582225011914968,0.27823534210026263,0.06804532568957657
1772623332149782000,2.860781982421875,0.6165197869718074,0.16413608471155167,0.04553367068469524
1772623332159812000,2.87081201171875,0.5863327385008335,0.07929331694543361,0.030879268518835306
1772623332169841000,2.8808408203125,0.5217307947307824,-0.028389059138298034,0.08355806171782314
1772623332179870700,2.89087060546875,0.47954292734265325,-0.21134470287114382,0.19671735310899094
1772623332189900800,2.90090087890625,0.45666006440520285,-0.4131441632837057,0.2929344236580655
1772623332199931000,2.910930908203125,0.3874842368483543,-0.6057829966410995,0.4105951729206368
1772623332209961000,2.9209609375,0.33509821605086326,-0.7300032505497336,0.4907275710387155
1772623332219990000,2.930989990234375,0.2991337532222271,-0.8002037449792027,0.46799814509730786
1772623332230019800,2.941019775390625,0.19052549446523187,-0.8623165022820234,0.43279651986733075
1772623332240050000,2.9510498046875,0.0364250660777092,-0.9699962480172515,0.41839879587627943
1772623332250079700,2.961079833984375,-0.18336743940412997,-1.0486363617509602,0.3489413383664563
1772623332260109800,2.97110986328125,-0.42227381067872044,-1.0455363499090076,0.3001135397735052
1772623332270139000,2.981138916015625,-0.6369353830128908,-0.9878586524441838,0.21589836585382
1772623332280169000,2.9911689453125,-0.7438684020340443,-0.8577455411046743,0.05488004783662036
1772623332290198800,3.00119873046875,-0.7105529924094677,-0.674428955104947,-0.028930107212439177
1772623332300225300,3.011225341796875,-0.61610477643013,-0.5436033115819097,-0.03864708950873464
1772623332310255400,3.02125537109375,-0.5274281295895576,-0.500813678908348,0.022475104120466858
1772623332320284400,3.031284423828125,-0.382339275175333,-0.5825561425715684,0.1274861055704765
1772623332330314200,3.041314208984375,-0.24174656313657758,-0.6855345787480474,0.3139263217497617
1772623332340344000,3.051343994140625,-0.2152811655372381,-0.7843985653430223,0.4968900757238269
1772623332350374100,3.0613740234375,-0.2211152785181999,-0.817174753524363,0.5653073034657166
1772623332360404200,3.071404296875,-0.29187516039609906,-0.7954866533294319,0.5821141344251111
1772623332370433300,3.081433349609375,-0.48227439813315864,-0.8081544117227196,0.6553435116890818
1772623332380463400,3.09146337890625,-0.7242179451465606,-0.8674676014348864,0.6926039326123893
1772623332390493200,3.1014931640625,-0.9868284326136112,-0.9065297380179166,0.6359692413944751
1772623332400523300,3.111523193359375,-1.3874053752690554,-0.8610016202911734,0.5008826524913311
1772623332410552300,3.12155224609375,-1.9262217448353767,-0.7733934794649482,0.2823926627091132
1772623332420582400,3.13158251953125,-2.445821372756362,-0.6408630778506398,0.010561187168629839
1772623332430612200,3.1416123046875,-2.8290713330358264,-0.43116000470668076,-0.2981409793252125
1772623332440642300,3.151642333984375,-3.0192145501852035,-0.13795534927248954,-0.6313505686178803
1772623332450672000,3.161672119140625,-2.952252307024598,0.20030337663590908,-0.9502934764206409
1772623332460701200,3.171701171875,-2.5936574800521135,0.5508645347565412,-1.096690490823984
1772623332470731300,3.181731201171875,-2.010063811126351,0.7991255943536758,-1.1718252267852425
1772623332480761300,3.19176123046875,-1.2153811676561832,0.9150769093498587,-1.176501986424625
1772623332490791400,3.20179150390625,-0.4836059389978647,1.0184119038790465,-1.1177735377978533
1772623332500821200,3.2118212890625,0.12463701801598072,1.1576564161792398,-1.0378501793205737
1772623332510850300,3.221850341796875,0.5843962174803018,1.2898124315232038,-0.8911039130881429
1772623332520880000,3.231880126953125,0.9404898752868175,1.3243737495556474,-0.7560553911730646
1772623332530910200,3.24191015625,1.1976204700380564,1.3347212483078241,-0.8588194539465009
1772623332540940300,3.251940185546875,1.359801913550496,1.4475687520697713,-1.0638083580501376
1772623332550970400,3.261970458984375,1.4431775313735007,1.518939167061448,-1.1245829986169933
1772623332560999200,3.271999267578125,1.4483733464509247,1.3951912068396806,-1.1287662756510077
1772623332571029200,3.282029296875,1.3444874400407074,1.175380873440206,-1.2007144905306397
1772623332581059300,3.292059326171875,1.0894318979978561,1.0231582216233015,-1.2750745888575912
1772623332591089200,3.302089111328125,0.9066776220560073,0.9056570468366145,-1.232475802581012
1772623332601119200,3.312119140625,0.8465402564793825,0.8531462306156754,-1.2244270822905003
1772623332611148300,3.322148193359375,0.7208762335032224,0.8771841088071465,-1.122285096938163
1772623332621178000,3.33217822265625,0.6528039832741022,0.8500371586844324,-0.9584740794625133
1772623332631208200,3.342208251953125,0.7056593751490116,0.7952426154404878,-0.8844305728040635
1772623332641238300,3.35223828125,0.7996423117041588,0.8189470238938927,-0.8592487852744758
1772623332651268400,3.362268310546875,0.8666828807979822,0.8467609134927392,-0.8084254106838256
1772623332661297400,3.37229736328125,0.9564975917577743,0.8296896594434976,-0.7260451605737209
1772623332671327200,3.3823271484375,1.0924036072850227,0.7776277560338377,-0.6320791751533746
1772623332681357000,3.392357177734375,1.185423836287856,0.7129737898156047,-0.5158369143866002
1772623332691387100,3.40238720703125,1.2301362537175415,0.6596385054692626,-0.37489878644365815
1772623332701416200,3.412416259765625,1.2806769389092922,0.6034156829878687,-0.30423849248271434
1772623332711446300,3.4224462890625,1.2780296392709016,0.5715145240753888,-0.28612876223120837
1772623332721476400,3.432476318359375,1.226610417678952,0.535905742816627,-0.2612423409190029
1772623332731506400,3.44250634765625,1.1352075607448815,0.4569178385585546,-0.27430867017582056
1772623332741536300,3.452536376953125,1.018645712634921,0.3654731883093715,-0.3446529569901526
1772623332751565300,3.4625654296875,0.9385814113169908,0.28413579831570385,-0.4476960924332961
1772623332761595100,3.47259521484375,0.8849930289924144,0.19462533099949358,-0.5484419837847352
1772623332771625200,3.482625244140625,0.8671165960401296,0.10319295570999383,-0.6083672775132581
1772623332781655300,3.4926552734375,0.8620353472530842,-0.019736381605267524,-0.6753286804236471
1772623332791685400,3.502685302734375,0.9151835845947265,-0.11671966902017593,-0.717513625202328
1772623332801714200,3.512714111328125,0.8928606936275959,-0.20406769760549068,-0.698599519765377
1772623332811744300,3.522744140625,0.8142132733702659,-0.2937108513906598,-0.7159073590494692
1772623332821774300,3.5327744140625,0.8001870861053466,-0.3643137891411781,-0.6731106390479952
1772623332831804200,3.54280419921875,0.719875532028079,-0.3973781466141343,-0.6520562336467206
1772623332841834200,3.552834228515625,0.6833131033062935,-0.4049959281414747,-0.6249586756236851
1772623332851863000,3.562863037109375,0.6847405057609081,-0.4005567766502499,-0.5783536859130487
1772623332861893000,3.57289306640625,0.6043722530603408,-0.40910891641825436,-0.5234775288002566
1772623332871923200,3.582923095703125,0.5586556270241737,-0.4693438971504569,-0.4977937100326642
1772623332881953300,3.592953369140625,0.5677361745804548,-0.5247957352593541,-0.5044333307102322
1772623332891983400,3.6029833984375,0.5325421116024256,-0.6052575114622711,-0.5386676087453961
1772623332902012400,3.613012451171875,0.47167292461991306,-0.7420677823528647,-0.5320891071379185
1772623332912042200,3.623042236328125,0.38940848290920255,-0.9403644953414797,-0.37140224956478923
1772623332922072000,3.633072021484375,0.23847499412000178,-1.1388058774977923,-0.24025617844834923
1772623332932102100,3.64310205078125,0.09518646712601184,-1.221314357097447,-0.2601139214109629
1772623332942132200,3.65313232421875,0.06785305452048779,-1.1762354444429277,-0.3399536932580173
1772623332952161300,3.663161376953125,-0.043026071777939795,-1.1096163156315684,-0.38427228906452654
1772623332962191400,3.67319140625,-0.1828483839660883,-1.1054399067297578,-0.35559663153719157
1772623332972221200,3.68322119140625,-0.34924423030316826,-1.1129890069350599,-0.35538152748178686
1772623332982251300,3.693251220703125,-0.5121726927906275,-1.0528396586596964,-0.3795763863332569
1772623332992280300,3.7032802734375,-0.5941968960046767,-0.9900652225777506,-0.33018289841525256
1772623333002310400,3.713310302734375,-0.6635550943911075,-0.9629653264671564,-0.27165547051960603
1772623333012340200,3.72334033203125,-0.684668025046587,-0.9426385777533054,-0.26269418369513003
1772623333022370300,3.733370361328125,-0.6687906569570302,-0.9016787908554077,-0.1906278771274723
1772623333032400400,3.743400390625,-0.6362883172810078,-0.9200926916852593,-0.03772518889084458
1772623333042429200,3.75342919921875,-0.5791396121263503,-0.9552379470854997,0.1455022027217783
1772623333052459300,3.763459228515625,-0.5131757323533296,-0.9117743606731296,0.2685153275966644
1772623333062489300,3.7734892578125,-0.4228764527469873,-0.7430401345163583,0.31162765288595107
1772623333072519400,3.78351953125,-0.34998131240606306,-0.5497340694218874,0.3039276729678735
1772623333082549200,3.79354931640625,-0.2670955239266157,-0.44493250947147606,0.330985008578375
1772623333092578000,3.803578125,-0.12778525291383266,-0.44271074176877734,0.4131667404416948
1772623333102608100,3.813608154296875,-0.03647416591644287,-0.5002464004144073,0.5709488895492628
1772623333112638200,3.82363818359375,-0.057145198023319244,-0.6753937084838748,0.760548464808613
1772623333122668300,3.833668212890625,-0.16897241882681846,-0.9050579118996858,0.8966394815139472
1772623333132698400,3.843698486328125,-0.35645723042190075,-0.970321534448862,0.8893446483306586
1772623333142727200,3.85372705078125,-0.7058417459785938,-0.7614002593323588,0.6409769865538925
1772623333152757200,3.86375732421875,-1.348796535411477,-0.3397831589967012,0.15255615808758885
1772623333162787000,3.873787109375,-2.032690068954229,0.017494155636429785,-0.3599428805805743
1772623333172817200,3.883817138671875,-2.497610596704483,0.09063713325858115,-0.5879288485858589
1772623333182846200,3.89384619140625,-2.619765734776854,0.1748945023521781,-0.5399749650169163
1772623333192876300,3.903876220703125,-2.3239064731806516,0.4354384126782417,-0.4114448850851506
1772623333202906400,3.91390625,-1.8008540744572876,0.6880413008719682,-0.1147935232631862
1772623333212936200,3.923936279296875,-1.1219792458593845,0.8514028940796852,0.18089399849530308
1772623333222966300,3.93396630859375,-0.3887409589111805,1.0921759360089898,0.34816242641583084
1772623333232995300,3.943995361328125,0.22439269275367257,1.4222601232901215,0.4487403773218393
1772623333243025400,3.954025390625,0.758085727956891,1.574829688848555,0.5435809901522473
1772623333253055200,3.96405517578125,1.1011959855496882,1.4684540114492177,0.7401848912157117
1772623333263085300,3.974085205078125,1.1829653372198343,1.2973796519070864,0.8712059111803769
1772623333273115100,3.984115234375,1.1492530372321605,1.1075912395447491,0.8246202472247183
1772623333283144200,3.994144287109375,1.108856144914031,0.9399176283568144,0.6489736843962222
1772623333293174300,4.00417431640625,0.9718781162410974,0.9040674395576119,0.4154570068033412
1772623333303203300,4.014203369140625,0.7361515440464019,0.8326087617605924,0.15343056630194185
1772623333313233400,4.0242333984375,0.5131447526931763,0.6790919784799218,-0.06698942342847586
1772623333323263500,4.034263427734375,0.24486381837427615,0.6721075264200568,-0.14670949615230783
1772623333333292300,4.044292236328125,-0.07130056462585925,0.6784378984853625,-0.20641396847069263
1772623333343322400,4.054322265625,-0.2663327228605747,0.6654466072261334,-0.2695304229233414
1772623333353352200,4.064352294921875,-0.25277239954173564,0.7284940150305629,-0.3918236542921513
1772623333363382300,4.07438232421875,-0.058141807845234865,0.9042007105484604,-0.42502668958343565
1772623333373412400,4.084412353515625,0.279734056225419,1.0191846418172121,-0.3320447832969948
1772623333383441200,4.094441162109375,0.597411766397953,0.986412837550044,-0.21874142552632836
1772623333393471200,4.10447119140625,0.8240840945214033,0.844056915231049,-0.05131638227198273
1772623333403501300,4.114501220703125,1.1364531768918036,0.6710153472691774,0.15862303864480926
1772623333413531400,4.124531494140625,1.4832757330060005,0.5072416661292314,0.26184796039564534
1772623333423560400,4.134560546875,1.7231319523513315,0.32822716123759743,0.33369145452547816
1772623333433590500,4.144590576171875,1.7582669786185026,0.1053098017334938,0.4003595735777169
1772623333443620000,4.1546201171875,1.7230688239872454,-0.1361985687330365,0.4479795855497941
1772623333453650200,4.164650146484375,1.651778196233511,-0.3014589812994003,0.47091417867448176
1772623333463680300,4.17468017578125,1.5315882207542657,-0.3814131002411246,0.48778662221599367
1772623333473709300,4.184709228515625,1.3570400476217268,-0.4253311524227261,0.43741961309071625
1772623333483739400,4.194739501953125,1.17998953627944,-0.44648324604481454,0.2954502972028218
1772623333493769500,4.20476953125,1.040085975548625,-0.45516748775988813,0.235548968871776
1772623333503799300,4.21479931640625,0.9768804545730352,-0.4534437327072024,0.23240460643144323
1772623333513829000,4.2248291015625,0.9054349285185337,-0.45236324399411676,0.24416863918434828
1772623333523858400,4.2348583984375,0.9169465026140212,-0.4741580194339156,0.27020516211343926
1772623333533888300,4.24488818359375,0.9570797755599021,-0.5077715352222323,0.27741976966736837
1772623333543918300,4.25491845703125,0.9632745385468006,-0.5570066907733678,0.25153836423475295
1772623333553948400,4.264948486328125,0.9713438632339239,-0.6241092191874981,0.24321725674364714
1772623333563978200,4.274978271484375,0.9251087662816048,-0.7092223283275961,0.21919574516508727
1772623333574007300,4.28500732421875,0.8898989212125539,-0.7870175156697631,0.2553478760529309
1772623333584037400,4.295037353515625,0.9474258120298386,-0.8493415776357054,0.2488201547846198
1772623333594067500,4.3050673828125,1.0646259580433368,-0.8933739038467406,0.22769883989328518
1772623333604097300,4.31509716796875,1.1453776571035383,-0.9395540557414293,0.25677177137620744
1772623333614126000,4.3251259765625,1.1390069530278444,-1.0262509269416331,0.3163531835705042
1772623333624156200,4.33515625,1.068905827319622,-1.1717074456244707,0.3952820511177182
1772623333634186200,4.345186279296875,0.9405839833110571,-1.3467334654018281,0.4606570981521159
1772623333644216300,4.35521630859375,0.7086755080997943,-1.4468676180630922,0.5181962639290839
1772623333654246400,4.365246337890625,0.4033148431867361,-1.4916487168148158,0.6128741239458322
1772623333664275500,4.375275390625,0.1157709899932146,-1.4544579270616174,0.6422980790898204
1772623333674305300,4.38530517578125,-0.16284779846668243,-1.3487670170560477,0.5787819577950984
1772623333684335000,4.395335205078125,-0.4594634313881397,-1.1749886592522263,0.4175830225139856
1772623333694365200,4.405365234375,-0.8261129700005054,-0.9960366982027887,0.2429799773890525
1772623333704395300,4.415395263671875,-1.0825304480463265,-0.8532789170846342,0.03349430985543877
1772623333714424300,4.42542431640625,-1.263603054511547,-0.7106354099959135,-0.11309835498416795
1772623333724454400,4.435454345703125,-1.3870377110004424,-0.5666700066536665,-0.10537512205466627
1772623333734484200,4.445484130859375,-1.374091720187664,-0.4561199661791324,-0.06977609500493853
1772623333744514300,4.455514404296875,-1.2244868496537207,-0.38020313992947335,0.10439653194663115
1772623333754544400,4.46554443359375,-0.990717256745696,-0.3590256196051836,0.3754703027212992
1772623333764573400,4.475573486328125,-0.7846352967083454,-0.34536154365092514,0.647765842976421
1772623333774603300,4.485603271484375,-0.6044523325592279,-0.30738515647798775,0.772239706319943
1772623333784633300,4.49563330078125,-0.5163870956152677,-0.2112020795300603,0.7519871918860822
1772623333794663200,4.5056630859375,-0.5260013116568326,-0.12503361611813307,0.6192396403897553
1772623333804692200,4.515692138671875,-0.5253559994906187,-0.1833513650521636,0.5193133948581293
1772623333814722300,4.525722412109375,-0.5508434919685125,-0.42611236592829227,0.5855259521625936
1772623333824752400,4.53575244140625,-0.6961077029496431,-0.7529062794923782,0.7536538829892874
1772623333834782500,4.545782470703125,-0.969756301781535,-0.9410516008228063,0.7260919223248958
1772623333844812300,4.555812255859375,-1.433982417526841,-0.8036419027343392,0.31797618166245517
1772623333854841300,4.56584130859375,-2.0135826329022644,-0.5361550414025783,-0.18067856564633547
1772623333864871200,4.57587109375,-2.538677351108193,-0.3932937999099493,-0.4625689231228083
1772623333874901200,4.5859013671875,-2.7671733875274658,-0.19541706589907407,-0.5806126072883606
1772623333884931300,4.595931396484375,-2.681643806540966,0.1230491643026471,-0.6433214307881892
1772623333894963200,4.605963134765625,-1.9683809706509112,0.7550409534335136,-0.2096380085511133
1772623333904993300,4.6159931640625,-1.3353969556123018,1.0044482604563236,0.0476057733841706
1772623333915022300,4.626022216796875,-0.7511427769511938,1.2970298155561089,0.11142407422955147
1772623333925052400,4.636052490234375,-0.24202421103417873,1.5857707695797085,0.07452113867413718
1772623333935082200,4.646082275390625,0.2801099038004875,1.7828572299957275,-0.03575550538622774
1772623333945112300,4.6561123046875,0.6647744070529937,1.826014234676957,0.0626672128478065
1772623333955141400,4.666141357421875,0.9389449839323758,1.7451824561178684,0.2088873363142833
1772623333965171500,4.67617138671875,1.0858370883762836,1.619321157003939,0.1881638251014985
1772623333975201300,4.686201171875,1.236709786888957,1.5240788680374622,-0.010090162990242242
1772623333985231400,4.6962314453125,1.337543319991231,1.4375640754058956,-0.20457736416067926
1772623333995261200,4.70626123046875,1.3219880234628916,1.253231882622838,-0.3549874135976657
1772623334005290200,4.716290283203125,1.280720193529129,1.0252373659849165,-0.3942193172570318
1772623334015320300,4.7263203125,1.203210252869129,0.8392939386129379,-0.3683020550597459
1772623334025350400,4.736350341796875,1.1452858871668576,0.7004235203221439,-0.3509478558832779
1772623334035380500,4.74638037109375,1.0551917747437953,0.6025090895369648,-0.3187019386537373
1772623334045410300,4.756410400390625,0.9233277280837296,0.49541503473520276,-0.29220536046484485
1772623334055439400,4.766439453125,0.8602087163478136,0.40434827788770195,-0.2938149510859512
1772623334065469200,4.77646923828125,0.7914747873395681,0.39016923814862964,-0.2843091638549231
1772623334075499300,4.786499267578125,0.7460480841606855,0.408080157892406,-0.20682770037073642
1772623334085529300,4.796529296875,0.777144064170122,0.4434437322184443,-0.12059238226767628
1772623334095559400,4.806559326171875,0.8865683154851197,0.49305385856181383,-0.08394875066899694
1772623334105588200,4.816588134765625,1.0064695371508598,0.5280263877436518,-0.03870756925800815
1772623334115618300,4.826618408203125,1.0818629240483044,0.5242041991069912,0.04751572961369529
1772623334125648400,4.8366484375,1.151915534439683,0.4394815505892038,0.08167146251993253
1772623334135678200,4.84667822265625,1.2249597278624773,0.3506649107560515,0.11877181577701121
1772623334145707300,4.856707275390625,1.2832815684497356,0.27020664168447256,0.1468633350071497
1772623334155737300,4.8667373046875,1.3444634746432305,0.16652853280603885,0.13026791830873116
1772623334165767200,4.87676708984375,1.3590303446561098,0.03240034060627222,0.08136301762526854
1772623334175797200,4.88679736328125,1.356616269251704,-0.12668810532689093,0.026408479780331253
1772623334185827300,4.896827392578125,1.3639035036504268,-0.24519611906856298,-0.027199922418966887
1772623334195856400,4.9068564453125,1.3430249662727116,-0.30448125173002477,-0.0636892859045416
1772623334205886500,4.916886474609375,1.30378834990561,-0.3709820148587227,-0.12859709901968017
1772623334215916300,4.926916259765625,1.2005652913182974,-0.424339218775928,-0.21211961450008673
1772623334225946000,4.936946044921875,1.1042647254705429,-0.4486784180015325,-0.2856377455775626
1772623334235976200,4.94697607421875,1.0082610967427492,-0.43659985767304893,-0.33563086162284017
1772623334246005200,4.957005126953125,0.9021890784651041,-0.40725568976700305,-0.42766507526300845
1772623334256035300,4.967035400390625,0.8720476227015256,-0.4251195554986596,-0.48439884294122454
1772623334266065400,4.9770654296875,0.8789180929929018,-0.3930836642906069,-0.46024683685079215
1772623334276095500,4.987095458984375,0.8681313260406255,-0.3547004498824477,-0.3751138539664447
1772623334286125000,4.997125,0.9069780663073063,-0.36776159150749443,-0.24899697265624998
1772623334296154600,5.007154541015625,0.9560118540674447,-0.40480099009126425,-0.1670805041329935
1772623334306184400,5.017184326171875,0.9950444722950458,-0.4220703970611095,-0.13700866127321495
1772623334316214500,5.027214599609375,0.9616846390068531,-0.45659868960678573,-0.06526121139638126
1772623334326244600,5.03724462890625,0.8154834394365549,-0.5610287858963012,0.028097291383799163
1772623334336273700,5.047273681640625,0.6231511878103018,-0.7078568851932883,0.09080368546452373
1772623334346303700,5.0573037109375,0.42980186809599397,-0.8253565986752509,0.06660557521004229
1772623334356333800,5.067333740234375,0.18691081109941005,-0.8661766848415136,-0.018390099829155952
1772623334366363600,5.07736376953125,-0.06639525692760943,-0.927631562757492,-0.07004627198213711
1772623334376393500,5.0873935546875,-0.2976163343966007,-0.9790306183442473,-0.0837045757827349
1772623334386422500,5.097422607421875,-0.5641518863528967,-0.9656140874102711,-0.09422231653528287
1772623334396452600,5.10745263671875,-0.8757949925363063,-0.9384721057236194,-0.10974277921225875
1772623334406482700,5.117482666015625,-1.137390750002861,-0.8964972965642809,-0.10991934135556221
1772623334416512800,5.1275126953125,-1.3669985470563173,-0.7935624072685837,-0.01911406672215089
1772623334426542600,5.13754248046875,-1.467173908510804,-0.6813432645380496,0.10014622669154778
1772623334436571600,5.147571533203125,-1.438803554072976,-0.5407412001490592,0.18423629466053099
1772623334446601700,5.157601806640625,-1.3795774581223725,-0.3786605866625905,0.3291476005507633
1772623334456631600,5.167631591796875,-1.245827743846178,-0.2957867808818817,0.5523129799991846
1772623334466661600,5.17766162109375,-1.1516209354072808,-0.22699206159710883,0.7582783279195427
1772623334476691700,5.187691650390625,-1.0939245332419871,-0.1776888092458248,0.7737900775671005
1772623334486720500,5.197720458984375,-0.9603618659704923,-0.17269553100317717,0.699028558832407
1772623334496750600,5.20775048828125,-0.832478997901082,-0.2049550018340349,0.699347415523231
1772623334506780700,5.21778076171875,-0.7825450464308261,-0.35079087522327895,0.8642848066803067
1772623334516810800,5.227810791015625,-0.8325748594909906,-0.5818973864018917,1.0595918363336474
1772623334526839800,5.23783984375,-1.026857660663128,-0.7865393767639994,1.0543233944114296
1772623334536869600,5.24786962890625,-1.336103058055043,-0.8190113213017582,0.817980516949296
1772623334546899500,5.2578994140625,-1.8118518538117407,-0.5529413410305977,0.3629286183930933
1772623334556929500,5.267929443359375,-2.263183416670561,-0.17576514770686624,-0.11947156154420226
1772623334566959600,5.277959716796875,-2.41387725148499,0.11262217057347297,-0.3666987115163356
1772623334576988700,5.28798876953125,-2.3823761978060007,0.38122707614973184,-0.30347881495552137
1772623334587018800,5.298018798828125,-2.1768267372101544,0.5710575740881264,-0.03627183001106605
1772623334597048600,5.308048583984375,-1.5777169347226618,0.6369570103228092,0.2535306522968225
1772623334607078700,5.31807861328125,-0.9297077845096587,0.7648503997862338,0.43968247998878357
1772623334617108500,5.3281083984375,-0.34319267517924307,0.9916165436729788,0.5029745102040469
1772623334627137500,5.338137451171875,0.11772095501720904,1.1556789786264299,0.5009507127588615
1772623334637167600,5.348167724609375,0.47827626840770243,1.1399540246196092,0.49605369796492155
1772623334647197700,5.35819775390625,0.6645335840344428,1.0073276152849198,0.6119054615767673
1772623334657227500,5.3682275390625,0.6847890210777521,0.8673615107119083,0.607833535962738
1772623334667257600,5.378257568359375,0.6380863066136837,0.8803878732845186,0.47463674286156887
1772623334677286700,5.38828662109375,0.4499129282325506,0.9833189631879329,0.40759474899563936
1772623334687316700,5.398316650390625,0.21265490868687628,0.9938044091060757,0.27654128806609657
1772623334697346600,5.4083466796875,-0.006726677906513214,0.9271487476766109,0.04609956093914806
1772623334707376600,5.418376708984375,-0.11035773277282714,0.9280278685986996,-0.22250673287659883
1772623334717405400,5.428405517578125,-0.04883914197087288,1.0908367963597179,-0.35212778638284653
1772623334727435500,5.438435546875,0.126924836692214,1.2384803036928176,-0.3817457662615925
1772623334737465600,5.448465576171875,0.30681203276515007,1.3221239248022436,-0.33771037131063636
1772623334747495700,5.45849560546875,0.4883978494495153,1.3069909453392028,-0.2694321684469469
1772623334757525800,5.46852587890625,0.7689379613608122,1.231282793404162,-0.2036838859196752
1772623334767554600,5.478554443359375,1.05633919121325,1.2037351535260676,-0.0979304320719093
1772623334777584600,5.488584716796875,1.2613964843779801,1.131295940259099,-0.002858640834130347
1772623334787614500,5.498614501953125,1.4279618420630693,0.952137935243547,0.05936751371528953
1772623334797644500,5.50864453125,1.588725819993019,0.7365484344094991,0.12792908183131366
1772623334807674600,5.518674560546875,1.653077588394284,0.5986378010615706,0.17384802550654857
1772623334817703700,5.52870361328125,1.7325088525056838,0.48699032073915,0.19998042829185722
1772623334827733500,5.5387333984375,1.709934617125988,0.34429420668035743,0.12935736106876283
1772623334837763600,5.548763671875,1.5996522876769304,0.16565116544961928,0.09348170903474091
1772623334847793700,5.558793701171875,1.4635668239295483,0.03727992934137583,0.09067666155137122
1772623334857823500,5.568823486328125,1.3449761003404854,-0.06376812329441309,0.04949040895383805
1772623334867852800,5.578852783203125,1.2643541651397943,-0.13102204287797212,0.05250741868745535
1772623334877882600,5.588882568359375,1.1484177554517985,-0.16114683976769448,0.04594258027914911
1772623334887912400,5.598912353515625,1.0478566095501183,-0.1570741835013032,0.00919653861876577
1772623334897942500,5.608942626953125,0.9926444254159926,-0.19192016369402407,-0.011575305247772484
1772623334907971600,5.6189716796875,0.9751391638636588,-0.24907179145812988,-0.0006518515048548578
1772623334918001700,5.629001708984375,0.976183119958639,-0.26983839289397,0.022582692680787293
1772623334928031700,5.63903173828125,0.9998293684840202,-0.26924393413215875,0.06696452644923702
1772623334938061800,5.649061767578125,1.0345558139503002,-0.2803144864618778,0.09824952622475101
1772623334948091600,5.659091552734375,1.04059860124588,-0.340553851108253,0.15917334773764014
1772623334958120700,5.66912060546875,0.9983160413116217,-0.4385357941716909,0.25016316689141094
1772623334968150500,5.679150634765625,1.0052367804855107,-0.5601157627046108,0.3100406394228339
1772623334978180600,5.6891806640625,0.9953086761891842,-0.6677303342491387,0.4020894661102444
1772623334988210700,5.699210693359375,0.9886872122228145,-0.7407146141782402,0.49729171532727773
1772623334998240800,5.70924072265625,0.9000240093857049,-0.8249284363910555,0.5811424763813614
1772623335008269600,5.71926953125,0.7457716053068637,-0.9457906120434403,0.6835648130450397
1772623335018299600,5.729299560546875,0.4663210421979427,-1.1051219268217682,0.7597087991140783
1772623335028329700,5.739329833984375,0.09836217455267905,-1.2894322000339626,0.751775375766307
1772623335038359600,5.749359619140625,-0.36997546816468235,-1.4066282543942332,0.7008635922398417
1772623335048389600,5.7593896484375,-0.8663076177448034,-1.4305755316928028,0.5766549922363833
1772623335058418400,5.76941845703125,-1.2882955972194672,-1.3772721037894486,0.37978893310539424
1772623335068448500,5.779448486328125,-1.6516782429903745,-1.2727224727734923,0.1392566411294043
1772623335078478600,5.789478515625,-1.8522814793556928,-1.077371165587008,-0.022329960028734056
1772623335088508700,5.7995087890625,-1.9293758249521253,-0.8762763463124632,-0.09342674571080133
1772623335098537700,5.809537841796875,-1.8917022201180458,-0.6574784048259258,-0.14155334636499173
1772623335108567800,5.81956787109375,-1.7933704407036304,-0.39536476096510886,-0.14219648484042846
1772623335118597600,5.82959765625,-1.6119073736160994,-0.20490794782191513,-0.1009462270959746
1772623335128627500,5.83962744140625,-1.3655454256385564,-0.12484773815721273,-0.01057300547058694
1772623335138657500,5.849657470703125,-1.1358423515170812,-0.07866787852346897,0.17731129943663254
1772623335148686600,5.8596865234375,-0.8839601788133382,-0.08384761924892664,0.4170652091849595
1772623335158716700,5.869716552734375,-0.6723100632548332,-0.13044979594796896,0.5297587644942104
1772623335168746800,5.879746826171875,-0.49741585316359993,-0.12856851224601268,0.5334948092173785
1772623335178776800,5.88977685546875,-0.29666005658507344,-0.12398118445575236,0.5251650800283998
1772623335188806700,5.899806640625,-0.11618716957867145,-0.18058891460150478,0.5525340023387223
1772623335198835700,5.909835693359375,-0.029870237606763838,-0.30331162342876195,0.5561618739796802
1772623335208865500,5.919865478515625,-0.04733399810492992,-0.4628106959894299,0.5541279204666614
1772623335218895600,5.9298955078125,-0.14718728799819947,-0.5635913298606873,0.4821909211007878
1772623335228925700,5.93992578125,-0.3801753751397133,-0.534661880235374,0.3195625740710646
1772623335238954500,5.94995458984375,-0.6677215664207935,-0.37624212734401224,0.04350183606352657
1772623335248984600,5.959984619140625,-0.9478951831072568,-0.18562690876871346,-0.26392927844803776
1772623335259014700,5.9700146484375,-1.2234230198144913,0.002366436870396137,-0.49389794470313936
1772623335269044700,5.980044677734375,-1.3526929583281277,0.12558218991160391,-0.5798152828982099
1772623335279074600,5.990074462890625,-1.2406833666950463,0.2668877263948321,-0.5045326628988609
1772623335289104000,6.000103759765625,-0.9072603903800248,0.46702685237973923,-0.2388076053415425
1772623335299133700,6.0101337890625,-0.6227496212720871,0.6965086849659681,0.0992319796571508
1772623335309163800,6.020163818359375,-0.2886410007804632,0.9017182460829615,0.2926931987807154
1772623335319193900,6.03019384765625,-0.010756956335902214,1.1350140839993954,0.38181722406260665
1772623335329224000,6.040223876953125,0.17912614857256412,1.3824997753098607,0.2571168584868312
1772623335339252700,6.050252685546875,0.37650340862870213,1.5793629483640192,0.07107047306387684
1772623335349282800,6.06028271484375,0.47307168550193307,1.6343752260118722,-0.032396769542852415
1772623335359313000,6.07031298828125,0.46588849599957466,1.6258812461718917,-0.12567659932994282
1772623335369342700,6.0803427734375,0.4740051669597625,1.554040583319962,-0.27288901263624427
1772623335379372800,6.090372802734375,0.4746218375533819,1.4603551684066653,-0.4800739289468154
1772623335389401900,6.10040185546875,0.4928215111106634,1.3412623405143618,-0.7431011439885944
1772623335399431700,6.110431640625,0.5164204133629798,1.2334934551909564,-0.89604224627316
1772623335409461800,6.120461669921875,0.5818196449905634,1.1102727337136864,-0.9062724753212184
1772623335419491800,6.130491943359375,0.6756389154165983,0.9237956378564238,-0.8061573926866054
1772623335429521000,6.14052099609375,0.7971592627167702,0.7447630127862095,-0.6757122729137539
1772623335439551000,6.150551025390625,0.9791232650637626,0.6267495045632123,-0.5413072730666026
1772623335449580800,6.160580810546875,1.145706742927432,0.544667433682084,-0.40876952839605507
1772623335459610600,6.170610595703125,1.2469301521301268,0.48189562794864177,-0.31380448546838013
1772623335469640700,6.180640625,1.3007535122543572,0.40155192516744137,-0.1801920973036438
1772623335479669800,6.190669677734375,1.408683725619316,0.3286073927268386,-0.08387461685370654
1772623335489699800,6.200699951171875,1.4389280572354792,0.30361002185344693,-0.03626009390749969
1772623335499730000,6.21072998046875,1.360342596298456,0.2951651418522,0.03376035864679142
1772623335509760000,6.220760009765625,1.3570365404903888,0.2426066870972514,0.09887041633576155
1772623335519789600,6.23078955078125,1.3196440906852482,0.1802615823432803,0.17346980331130324
1772623335529819000,6.24081884765625,1.2554115647494792,0.11663549786806106,0.1955403452188708
1772623335539848700,6.2508486328125,1.1620084739089012,0.057708384864032264,0.18466365322712808
1772623335549878800,6.260878662109375,1.026525067707896,-0.012850129222869872,0.1766783170290291
1772623335559908900,6.270908935546875,0.9482651854634284,-0.08626169465333222,0.1381693025504239
1772623335569939000,6.28093896484375,0.8572375915825367,-0.12078209615349769,0.12397701973728835
1772623335579967700,6.2909677734375,0.7800017916887998,-0.14901274985969065,0.056930587158259
1772623335589997800,6.300997802734375,0.7490624635457992,-0.17210428711175918,-0.02357822479046881
1772623335600028000,6.31102783203125,0.7217126843273639,-0.16596826857477426,-0.09428456811653449
1772623335610057700,6.3210576171875,0.6715496002763509,-0.15361235260963438,-0.14620319973113946
1772623335620086800,6.331086669921875,0.605599164506793,-0.17236469161361456,-0.20538177587874232
1772623335630116600,6.34111669921875,0.5275198995262385,-0.2060708541214466,-0.26374955623326823
1772623335640146700,6.351146728515625,0.4887777886778116,-0.23857933127731085,-0.2769180306903086
1772623335650176800,6.3611767578125,0.46637657177746294,-0.2610433842808008,-0.22731712883301078
1772623335660206800,6.371206787109375,0.4641676635563373,-0.27376784129738807,-0.18682298668548464
1772623335670236000,6.38123583984375,0.516123476243019,-0.2919131543189287,-0.11253918673144653
1772623335680266000,6.391265869140625,0.5995207213759421,-0.32555794202834365,-0.03503222347982227
1772623335690295800,6.4012958984375,0.6397907724440097,-0.4296393710106611,-0.016022073789872228
1772623335700325600,6.41132568359375,0.705651191842556,-0.570156679725647,0.008464680680260062
1772623335710355700,6.421355712890625,0.7432727742284536,-0.7341282215252518,0.066704249811545
1772623335720384800,6.431384765625,0.7802572277545928,-0.9653031217649578,0.16514336205795407
1772623335730414800,6.441414794921875,0.8199053475320339,-1.253589902280271,0.25504133085440844
1772623335740445000,6.45144482421875,0.7970657392144203,-1.5009358928591012,0.31645642474927005
1772623335750474800,6.461474853515625,0.7324749013602733,-1.6592308503270148,0.38661709862500426
1772623335760504800,6.4715048828125,0.6195902804583311,-1.7007088158801198,0.4255321548875421
1772623335770534000,6.481533935546875,0.5106225407391787,-1.692545383168757,0.3933448725100607
1772623335780563700,6.491563720703125,0.3724199387073517,-1.627116925446689,0.3148592186857015
1772623335790593800,6.50159375,0.12118483173549174,-1.510212839770317,0.17930201659612358
1772623335800623900,6.511623779296875,-0.23911329202353954,-1.4268591415181755,-0.028613332880847154
1772623335810652700,6.521652587890625,-0.6042325523287058,-1.4001543822050093,-0.1086426359506324
1772623335820682800,6.531682861328125,-0.960852864357829,-1.3709560525104403,-0.14242098691184074
1772623335830712800,6.541712890625,-1.2269231368899345,-1.2566481208071112,-0.1180518492056988
1772623335840743000,6.551742919921875,-1.3696891013145447,-1.0715621870473027,-0.008679583806265144
1772623335850772700,6.561772705078125,-1.3849866236895323,-0.8738201853320002,0.13933534152195787
1772623335860801800,6.5718017578125,-1.3868079938977955,-0.6902879107549786,0.34422534269522875
1772623335870831600,6.58183154296875,-1.3362369135677814,-0.5924462529450655,0.4594594493327662
1772623335880861700,6.59186181640625,-1.3035744148939847,-0.501615642940998,0.4701257682431489
1772623335890891800,6.601891845703125,-1.3175643618017434,-0.3780871706888079,0.4285793040310964
1772623335900921900,6.611921875,-1.230281215146184,-0.3054606181561947,0.46601164745520796
1772623335910951000,6.621950927734375,-1.1119622942358254,-0.3850684078782797,0.7001935109585523
1772623335920980700,6.631980712890625,-1.074517821982503,-0.49117345164269205,0.9369876393195241
1772623335931010800,6.6420107421875,-1.2392261536240576,-0.6213496913462877,0.9024293169617652
1772623335941040600,6.65204052734375,-1.5457354040503501,-0.6435664915904402,0.679031042072922
1772623335951070000,6.662070068359375,-1.9356676185727117,-0.3743874393880367,0.32421456459537146
1772623335961099800,6.672099853515625,-2.2466110520541664,0.05696370397657156,-0.06043516121311113
1772623335971129900,6.6821298828125,-2.360926582542062,0.4223205724298954,-0.40396797333322465
1772623335981159700,6.69215966796875,-2.3244857343733307,0.6322051396206021,-0.5204674237314612
1772623335991189800,6.702189697265625,-2.187144717606902,0.845925631712377,-0.31474845178760585
1772623336001218800,6.71221875,-1.7882728253036737,1.0221531362339853,-0.1501374247743748
1772623336011249000,6.722248779296875,-1.2329413742661475,1.1480506757050752,-0.11026272969944402
1772623336021279000,6.732279052734375,-0.7143395252108573,1.320397831661999,-0.050157394095743074
1772623336031308800,6.742308837890625,-0.34966800867319103,1.46659377053529,0.04866186744151637
1772623336041338600,6.752338623046875,0.08406769174039364,1.520692440469563,0.20437007808554916
1772623336051367700,6.76236767578125,0.4522697204917669,1.468321032719314,0.3213564352178946
1772623336061397800,6.772397705078125,0.6149322255194187,1.361077632574737,0.3356061290403828
1772623336071427800,6.782427734375,0.6579886924356222,1.3509180576100945,0.27255335094109173
1772623336081458000,6.7924580078125,0.6620791766196489,1.3797908086121082,0.1736241170901805
1772623336091488000,6.802488037109375,0.5324228691369295,1.338740713082254,0.1296326708788052
1772623336101516800,6.812516845703125,0.38470834239423274,1.2313453372463583,0.08969758738614618
1772623336111547000,6.822546875,0.2752601256817579,1.159076804371178,-0.09087905225567519
1772623336121576700,6.83257666015625,0.12506138090789318,1.1707757177323102,-0.2615884326766245
1772623336131606800,6.842606689453125,0.05142974298596382,1.2480299300655722,-0.2855651735316962
1772623336141636900,6.852636962890625,0.09817337398231028,1.3102815113171935,-0.22997189939180387
1772623336151665700,6.862665771484375,0.26689620196223257,1.295033965563774,-0.19878102590683847
1772623336161695700,6.87269580078125,0.450481083509326,1.2616361383527517,-0.15609461614573372
1772623336171725800,6.882725830078125,0.6862590936303138,1.2427946597605943,-0.05985785451550037
1772623336181756000,6.892755859375,1.0040086999952793,1.1775032724216579,0.03542178905298933
1772623336191785000,6.902784912109375,1.3311024732887744,1.0557748353287577,0.12731049327524377
1772623336201814800,6.912814697265625,1.6168039134860037,0.9481830601379275,0.19408526930604128
1772623336211844600,6.9228447265625,1.8833710296243429,0.7972448951736092,0.2550064970030449
1772623336221874700,6.932874755859375,2.1302625544339415,0.6003688626378775,0.27993955220226197
1772623336231904800,6.94290478515625,2.216796928548813,0.3954588689893484,0.3038521235136315
1772623336241933800,6.952933837890625,2.230439084932208,0.19078706801086662,0.34144396834839136
1772623336251964000,6.9629638671875,2.1961405094891786,0.0030272388666868206,0.3429713971113786
1772623336261994000,6.972993896484375,2.1361054352432487,-0.10634499000012874,0.31728461920171974
1772623336272023600,6.9830234375,2.0462638362765313,-0.1381926651597023,0.2847693287125789
1772623336282053600,6.9930537109375,1.9097540096372365,-0.1829354777276516,0.2990458009441383
1772623336292082700,7.003082763671875,1.81351306502223,-0.26303952653408047,0.25157447672775013
1772623336302112500,7.013112548828125,1.7593524357676504,-0.3484729536697268,0.25302346995966507
1772623336312142600,7.023142578125,1.6548434290230274,-0.41161797662973404,0.34564737485498187
1772623336322172700,7.033172607421875,1.6378478705585002,-0.4681365671873092,0.42966260575577614
1772623336332202800,7.04320263671875,1.6078285798698664,-0.4787251812189817,0.42333157610334454
1772623336342231600,7.0532314453125,1.4741671283990143,-0.4721870116218924,0.29945622664224353
1772623336352261600,7.06326171875,1.2801742500841617,-0.46070115648955107,0.19159683175748213
1772623336362291500,7.07329150390625,1.1146107629179953,-0.4905547352224588,0.14381814949181862
1772623336372321500,7.083321533203125,0.9208172065675259,-0.5555304807409643,0.1847993719033897
1772623336382350600,7.0933505859375,0.6989455567240714,-0.6263470612421631,0.2546949103032239
1772623336392380700,7.103380615234375,0.5061953719466924,-0.6595759616270661,0.34123193303290755
1772623336402410800,7.11341064453125,0.30354513992369175,-0.6495841444447636,0.43282413852661844
1772623336412440600,7.123440673828125,0.12604220863878726,-0.65567077088207,0.4661990963187068
1772623336422470700,7.133470703125,-0.007595277434587478,-0.7178840659499168,0.49000426173284645
1772623336432499700,7.143499755859375,-0.12379121484160423,-0.8011930482774973,0.4929127695906907
1772623336442529800,7.15352978515625,-0.22728315349817274,-0.8846683270826935,0.5021814235975965
1772623336452559600,7.1635595703125,-0.33979017325937744,-0.9767980369865894,0.49333494052551685
1772623336462589700,7.173589599609375,-0.49095221010744566,-1.0386489284828304,0.37304022603016346
1772623336472619500,7.18361962890625,-0.7049643786221742,-0.9988865346759557,0.1865138294047676
1772623336482648600,7.193648681640625,-0.9863473710983991,-0.9186471690520643,-0.028761710109282284
1772623336492678700,7.2036787109375,-1.3034510807752608,-0.8136676221862434,-0.2751193472378887
1772623336502708700,7.213708740234375,-1.5644301676481962,-0.7054676519691944,-0.4285132165249437
1772623336512738800,7.22373876953125,-1.6811434069275855,-0.643848523402214,-0.4336236548738554
1772623336522768600,7.2337685546875,-1.756899197396636,-0.6053527885302901,-0.4503165040647611
1772623336532797700,7.243797607421875,-1.7214654804438352,-0.505968577453494,-0.3317265476606786
1772623336542827500,7.25382763671875,-1.5807424200236797,-0.39248774422407146,-0.09844974323827772
1772623336552857600,7.263857666015625,-1.4781722723871469,-0.326525325755775,0.12858411167394368
1772623336562887700,7.2738876953125,-1.2806839531719685,-0.24162615162730217,0.2208057193786837
1772623336572916700,7.283916748046875,-1.0386638337910175,-0.06371668536812067,0.27505143310083074
1772623336582946600,7.293946533203125,-0.9132441409647464,-0.017972586803138256,0.284593679884728
1772623336592976600,7.3039765625,-0.8690613003671169,-0.2086705152258277,0.29718146837698295
1772623336603006700,7.3140068359375,-0.917493615102768,-0.42430122485309835,0.30577498133499176
1772623336613036500,7.32403662109375,-1.066664185872674,-0.48944911206811664,0.1795694718932733
1772623336623065600,7.334065673828125,-1.248492579141259,-0.3792684894278645,-0.13543821535240858
1772623336633095700,7.344095703125,-1.4956272650569677,-0.20221388643234967,-0.5390282587513328
1772623336643125500,7.35412548828125,-1.822461510631442,-0.10231500383168458,-0.8323409046046435
1772623336653155600,7.364155517578125,-1.942413001179695,-0.040460897465050216,-0.8789896238591521
1772623336663185700,7.374185546875,-1.7945710486650466,0.08848901531398295,-0.8885051287665963
1772623336673214700,7.384214599609375,-1.4427023150771856,0.2845128149345517,-0.8267555056877434
1772623336683244800,7.394244873046875,-1.003281554764509,0.5713368294209241,-0.6646287149719894
1772623336693274600,7.404274658203125,-0.6052998892992735,0.8413494098380208,-0.4370362763289362
1772623336703304400,7.414304443359375,-0.21322832466065883,0.9811053787916898,-0.3123785808511078
1772623336713334500,7.42433447265625,0.1708136627793312,1.1096794439956545,-0.2887299211729318
1772623336723363600,7.434363525390625,0.44641281115710735,1.2767948367789388,-0.31843915953170504
1772623336733393700,7.4443935546875,0.67035776014328,1.3406693430572747,-0.400575152557157
1772623336743423700,7.454423828125,0.7611819404065608,1.3398378606691956,-0.4438109580956399
1772623336753453800,7.464453857421875,0.7019383087992668,1.260872752764821,-0.559214064624533
1772623336763482600,7.474482666015625,0.6521317831009626,1.1861012971580027,-0.7162317686982452
1772623336773512700,7.4845126953125,0.6663374185860157,1.1818407171040772,-0.922059388648346
1772623336783542500,7.49454248046875,0.7440425895571708,1.195642447963357,-1.1330990441583095
1772623336793572600,7.504572509765625,0.8248509872406721,1.156549916242063,-1.2161632579445838
1772623336803602700,7.514602783203125,0.821163823160529,1.0629244148224593,-1.1736738503266124
1772623336813631500,7.524631591796875,0.8448515727400779,0.888492561545968,-1.0887919926591216
1772623336823661600,7.53466162109375,0.9437871632665396,0.7217515550330281,-1.0456406140010803
1772623336833691600,7.544691650390625,1.0793208383500574,0.6632406216144562,-0.9981339627429843
1772623336843721700,7.5547216796875,1.246112990528345,0.6397945718362927,-0.9257933875449001
1772623336853751600,7.56475146484375,1.3953250623524187,0.595080400840938,-0.8807968924768269
1772623336863780900,7.57478076171875,1.4925105943411587,0.5283683330491185,-0.8203801254369318
1772623336873810400,7.584810546875,1.521494112241268,0.4835524552449584,-0.726229577229917
1772623336883840500,7.594840576171875,1.532464419066906,0.4689619120955467,-0.6364896850720048
1772623336893870600,7.60487060546875,1.57863463408947,0.5074719677537679,-0.5554769239228219
1772623336903900700,7.614900634765625,1.5924270125985145,0.5211532871037722,-0.48304541903827336
1772623336913929700,7.6249296875,1.5665087274879217,0.48408641599118707,-0.3739843750124797
1772623336923959800,7.634959716796875,1.5018693743169307,0.41267391542345283,-0.291721613802202
1772623336933989600,7.64498974609375,1.470077813258767,0.348248789525032,-0.24531963585037736
1772623336944019500,7.65501953125,1.4255816689282654,0.31066140166968104,-0.1998490752634592
1772623336954049500,7.665049560546875,1.323980658584833,0.2635249719634652,-0.16239342402899637
1772623336964078600,7.67507861328125,1.1887310611397026,0.18153847041130064,-0.1383669896801468
1772623336974108700,7.685108642578125,1.0902122347205876,0.11183891124129294,-0.18235216141436247
1772623336984138800,7.695138671875,0.9933405909866094,0.07932692695409059,-0.23592589415907858
1772623336994168600,7.70516845703125,0.8624585411012172,0.04697802427411079,-0.27534493615468963
1772623337004197600,7.71519775390625,0.7541513111174106,-0.0329328400477767,-0.2783480817597359
1772623337014227700,7.725227783203125,0.6632417906582355,-0.11960048515349626,-0.28897417825758454
1772623337024257500,7.735257568359375,0.5429904403805732,-0.17703560603410004,-0.32045645417086777
1772623337034287600,7.74528759765625,0.4476823927015066,-0.2189806045770645,-0.3515895513202995
1772623337044317700,7.755317626953125,0.3672469199836254,-0.2595420398071408,-0.30995526269432155
1772623337054346500,7.765346435546875,0.2700666486918926,-0.35279110912978645,-0.29083257427429776
1772623337064376600,7.77537646484375,0.22317396461367606,-0.41726138934418555,-0.31518936395552005
1772623337074406700,7.78540673828125,0.22225977237820624,-0.4474421542048454,-0.341876733742468
1772623337084436700,7.795436767578125,0.23642682941853999,-0.5016382931642234,-0.35767917343229055
1772623337094466600,7.805466552734375,0.24880174234509467,-0.6028225394003093,-0.3624725817212835
1772623337104495600,7.81549560546875,0.2672393163114786,-0.7519644685976207,-0.3415106769090518
1772623337114525400,7.825525390625,0.2764940513908863,-0.8905150072842836,-0.3148507796509191
1772623337124555500,7.835555419921875,0.20954583675563335,-1.0111860442787408,-0.3327627588406205
1772623337134585600,7.845585693359375,0.07447568753063678,-1.1237842494547365,-0.31015089486427605
1772623337144615700,7.85561572265625,-0.03814648304283619,-1.2572021014280617,-0.26618907660618424
1772623337154644700,7.865644775390625,-0.23488486067354677,-1.3259832305788992,-0.2381766322279349
1772623337164674600,7.875674560546875,-0.4940057524591684,-1.317952338206023,-0.236212309885025
1772623337174704600,7.88570458984375,-0.7869891663581132,-1.3129495614826678,-0.21967549150604754
1772623337184734500,7.895734375,-1.031558970221877,-1.3128500466309487,-0.23996209087260065
1772623337194763800,7.905763671875,-1.1648013194978237,-1.2933330068647861,-0.33114027220532294
1772623337204793600,7.915793701171875,-1.2572516396582125,-1.1724914356090128,-0.38282019056007266
1772623337214823700,7.92582373046875,-1.2423936777442692,-1.0348876762531698,-0.42330125403031704
1772623337224853500,7.935853515625,-1.1430126815378665,-0.8906539773635566,-0.38876240355800834
1772623337234883600,7.945883544921875,-1.0024866049945353,-0.7505252295747399,-0.3258324846534058
1772623337244912600,7.95591259765625,-0.7472066065460443,-0.6519073266953229,-0.23506887547094374
1772623337254942700,7.965942626953125,-0.6007920564860105,-0.64400517526865,-0.0346307300068438
1772623337264972800,7.975972900390625,-0.5266752653956412,-0.6827545926406979,0.14643636003304272
1772623337275002600,7.986002685546875,-0.43619069235026836,-0.7229521629944443,0.23757691276911644
1772623337285029600,7.996029541015625,-0.44250294423699377,-0.7113821367099881,0.18373579779248683
1772623337295059700,8.006059814453126,-0.4083931693643331,-0.6612722441509366,0.16119382071457802
1772623337305093400,8.01609326171875,-0.3548199846088886,-0.5493886169850826,0.09497932718135416
1772623337315123200,8.026123291015624,-0.24951661261618135,-0.4958811909422278,0.0376030968811363
1772623337325153300,8.0361533203125,-0.1679816542237997,-0.5909381864696741,0.18760215436443686
1772623337335182000,8.04618212890625,-0.08882569992244244,-0.8583020059436559,0.5113164412874728
1772623337345212200,8.056212158203126,-0.03836977040469646,-1.2115198160529137,0.8546697138559073
1772623337355242200,8.0662421875,-0.1324503221154213,-1.4697905207499862,1.0233870619431138
1772623337365272300,8.076272216796875,-0.38292204349935055,-1.4129413830637931,0.764784933334589
1772623337375302400,8.086302490234376,-1.0025421345740557,-0.8942188302382826,0.21169833861440418
1772623337385331500,8.09633154296875,-1.6621300788998603,-0.24823504837304353,-0.4850775459203869
1772623337395361300,8.106361328125,-2.0699691215127705,0.12212854232639074,-0.8115113209351896
1772623337405391000,8.11639111328125,-2.298774954533577,0.169027363884449,-0.6947568728625774
1772623337415421200,8.126421142578126,-2.0539093825936314,0.23628128346800803,-0.5133731546215713
1772623337425450200,8.1364501953125,-1.4591799871474505,0.5208493357211351,-0.1403576246412471
1772623337435480300,8.146480224609375,-0.7678951743096113,0.8196344216361642,0.22675058099143205
1772623337445510400,8.156510498046876,-0.13469897782504558,1.0735226734653114,0.397656013707444
1772623337455540200,8.166540283203124,0.35341596302986145,1.279314126123488,0.4549635626856237
1772623337465570300,8.1765703125,0.7060206096768379,1.3706845420926808,0.420561599933356
1772623337475599400,8.186599365234375,0.9218658388376235,1.284744919000566,0.4712546992078423
1772623337485629400,8.19662939453125,0.9666618428975343,1.0987173204764724,0.5623381879944354
1772623337495659300,8.2066591796875,0.9056254826545714,0.9309697672694921,0.44709012589678165
1772623337505689300,8.216689453125,0.8220137179881334,0.9269891732007265,0.13105119590722022
1772623337515719400,8.226719482421874,0.5461451050192118,0.9583788754597306,-0.17884338610842823
1772623337525748200,8.236748291015624,0.3488391566336155,0.8348600478187203,-0.4533658451654017
1772623337535778300,8.2467783203125,0.116036947453022,0.7129799272954463,-0.6524520280312747
1772623337545808400,8.256808349609376,-0.21042554219961165,0.6780611741274595,-0.758474581144005
1772623337555838500,8.26683837890625,-0.36184827581048007,0.7025552716538309,-0.725177730089426
1772623337565868300,8.276868408203125,-0.265138544639945,0.8464081545323133,-0.782228235566616
1772623337575897300,8.2868974609375,-0.11341945843100547,1.1161565310552715,-0.8478077921971678
1772623337585927200,8.29692724609375,0.03582710018455982,1.3410694482907652,-0.724769806875661
1772623337595957200,8.306957275390625,0.311916662427783,1.4109782662972807,-0.5031576482186093
1772623337605987300,8.3169873046875,0.7000549792706966,1.4177163423806427,-0.3329276670787483
1772623337616017400,8.327017333984376,1.0150000496089457,1.3716928423523902,-0.2167959174817428
1772623337626046200,8.337046142578124,1.2170453014761209,1.2314143108293414,-0.07416369897201656
1772623337636076300,8.347076171875,1.4624673382550477,0.9978338107526302,0.06391703024581075
1772623337646106400,8.3571064453125,1.6878355980426072,0.6882347776174544,0.14927337355725467
1772623337656136200,8.36713623046875,1.8012164780288933,0.48479251843392845,0.17341164338327944
1772623337666165200,8.377165283203125,1.9327818340033291,0.3544526126012206,0.17533895818404852
1772623337676195300,8.3871953125,2.0770693089067933,0.21072072575390338,0.1461836639136076
1772623337686225200,8.39722509765625,2.0838333962142466,0.029753625489771365,0.1832050153840333
1772623337696255200,8.407255126953125,2.0393717386752366,-0.19526976638287305,0.20863105999827383
1772623337706285300,8.417285400390625,1.9862451286435125,-0.4119222202733159,0.27229046222120523
1772623337716314400,8.427314453125,1.922030138364434,-0.5625044114068151,0.3537080047789961
1772623337726344400,8.437344482421874,1.8327350673645735,-0.6321218452513218,0.41707631510086357
1772623337736374300,8.447374267578125,1.6961077518254517,-0.6499053392231464,0.4784801204167306
1772623337746404400,8.457404296875,1.4975427432894706,-0.6477493302330374,0.5336617632821202
1772623337756434200,8.46743408203125,1.2457371429532766,-0.6520654398664831,0.5596755446564405
1772623337766463200,8.477463134765625,0.9736322664320468,-0.641149785837531,0.5694959142619743
1772623337776493300,8.487493408203125,0.7145189734309911,-0.602187894758582,0.5612859755277634
1772623337786523400,8.4975234375,0.5112830504745245,-0.568787729460001,0.5222512749409303
1772623337796553500,8.507553466796875,0.3283545870095491,-0.5193393695496022,0.5745686874816194
1772623337806583300,8.517583251953125,0.20996201634109019,-0.48742125950232146,0.622936376015842
1772623337816612400,8.5276123046875,0.1961199534714222,-0.4885463180094957,0.6182395965017378
1772623337826642200,8.53764208984375,0.1804202800363302,-0.49427550931125874,0.7080377947181463
1772623337836672300,8.54767236328125,0.14002864841520785,-0.5300036791659891,0.8482794282969087
1772623337846702300,8.557702392578125,0.048773675519227976,-0.5888191484890878,0.9645460197873413
1772623337856731100,8.567731201171876,-0.04805120646357536,-0.7065012328006327,1.041050875058025
1772623337866761200,8.57776123046875,-0.17789514547288418,-0.8190034302562474,1.0545599796462803
1772623337876791300,8.587791259765625,-0.3809340845525265,-0.8900774926498531,1.0433660201326012
1772623337886821400,8.5978212890625,-0.5591302587985992,-0.9289651494488119,0.9303027547281235
1772623337896853200,8.607853271484375,-0.9481664012640714,-0.9585559855923056,0.48258339101709424
1772623337906883300,8.61788330078125,-1.220601532652974,-0.9299716961428522,0.31787958942018446
1772623337916912400,8.627912353515624,-1.5227449890851974,-0.9323027694389223,0.14846634062384254
1772623337926942500,8.6379423828125,-1.720497512194514,-0.9150906456142663,0.0389337244303897
1772623337936972300,8.64797216796875,-1.8086106799334287,-0.8719923853829502,0.044134188283467664
1772623337947002400,8.65800244140625,-1.8185569044083356,-0.8591849262580274,0.16523246511351317
1772623337957032200,8.6680322265625,-1.8463871606200932,-0.7645762590199708,0.2738415641207248
1772623337967061200,8.678061279296875,-1.9010241752147674,-0.5649138106361031,0.31070319498479365
1772623337977091300,8.68809130859375,-1.8278975642055273,-0.3740013626798987,0.3018030454967171
1772623337987121400,8.698121337890624,-1.6482669732421635,-0.2917611786276102,0.3409812827400863
1772623337997151500,8.7081513671875,-1.6473235549122094,-0.4087418366715312,0.4802042407955974
1772623338007180300,8.71818017578125,-1.750212851500511,-0.5442261196553707,0.5722536885375157
1772623338017210400,8.72821044921875,-1.8867413828402757,-0.41788785067945716,0.3665353011155501
1772623338027240200,8.738240234375,-1.9931074156284332,-0.03623626550734043,-0.05421491672508418
1772623338037270300,8.748270263671875,-2.167698843380809,0.35871523848176,-0.4004037780456245
1772623338047300400,8.75830029296875,-2.274012269198894,0.5435065732091665,-0.5401473624417558
1772623338057329200,8.7683291015625,-2.060854087164998,0.6252909763179719,-0.5568513540811837
1772623338067359200,8.778359130859375,-1.5928975527197122,0.8260087789736688,-0.4272887527639046
1772623338077389300,8.788389404296876,-0.9575503156810998,1.083327005251497,-0.201479617341049
1772623338087419400,8.79841943359375,-0.338328868535161,1.2285590675286948,-0.15139359884792938
1772623338097449200,8.80844921875,0.1822282062411308,1.335898475393653,-0.1355936890419107
1772623338107478300,8.818478271484375,0.704547029992938,1.4773932508386671,-0.07906593793034553
1772623338117508400,8.82850830078125,1.1736135715067386,1.5138756000615656,0.01817738866023719
1772623338127538200,8.8385380859375,1.4020973329663275,1.4205623794615267,0.02670022926852107
1772623338137568300,8.848568359375,1.459042624503374,1.2608771366789937,-0.08602036017812788
1772623338147598300,8.858598388671876,1.4834212789565324,1.1423605012394487,-0.2644337573714554
1772623338157627400,8.86862744140625,1.3628186310231685,1.1268534277670086,-0.5241955408765003
1772623338167657500,8.878657470703125,1.2296516850709915,1.1620578660085796,-0.7927654116719961
1772623338177687300,8.888687255859375,1.0206564679354428,1.111834576202929,-1.1290788487315178
1772623338187717000,8.898717041015624,0.7148831305682659,1.0009574957311154,-1.4071392726562917
1772623338197747200,8.908747314453125,0.3241477829694748,0.9070014471828937,-1.6223371438242493
1772623338207776300,8.9187763671875,-0.03919745340049267,0.8197077791333198,-1.7118968571096658
1772623338217806300,8.928806396484376,-0.2774152578890324,0.6904059841766953,-1.6630683826632797
1772623338227836400,8.93883642578125,-0.4092565081954002,0.6082207451820373,-1.4552885326668619
1772623338237866500,8.948866455078125,-0.4527145416498184,0.60721799788028,-1.159844427742809
1772623338247896300,8.958896240234376,-0.3442775478065014,0.6941852104544639,-0.9340741630256175
1772623338257925400,8.96892529296875,-0.14391104280650616,0.9086781482234597,-0.7299409259032458
1772623338267955200,8.978955078125,0.09785247146487236,1.1155322616770862,-0.4447757845398038
1772623338277985300,8.9889853515625,0.3777379188597202,1.2314286316156386,-0.22115725449640303
1772623338288015400,8.999015380859374,0.6985369759231805,1.2768866067156195,-0.17797560856426134
1772623338298044200,9.009044189453125,0.9519482578903437,1.2344894804909825,-0.1855947600647807
1772623338308070000,9.01906982421875,1.2341238620489836,1.1193702324047683,-0.09949511497220956
1772623338318100000,9.029099853515625,1.509485694539547,0.9380433589175343,0.06279863894144072
1772623338328129800,9.0391298828125,1.6976584883987902,0.7281637601628899,0.15062680659336036
1772623338338159900,9.049159912109374,1.8003028703153132,0.49040334405303,0.10891896867398172
1772623338348189000,9.05918896484375,1.8372364704370499,0.23918168108463286,0.023702339793904684
1772623338358219000,9.069218994140625,1.8575316549688576,0.0073632222443819045,-0.05865665289903991
1772623338368248800,9.079248779296876,1.8556570932686327,-0.16799012979120015,-0.04995618156837299
1772623338378279000,9.08927880859375,1.8262392756044863,-0.314451149341464,-0.02295968190017156
1772623338388308700,9.099308837890625,1.7481436440110205,-0.44343379534631966,-0.08646472467845305
1772623338398337800,9.109337890625,1.6521505366772413,-0.501281880941987,-0.187419564339146
1772623338408367900,9.119367919921874,1.5491957736372948,-0.5321846764668822,-0.31720220161527396
1772623338418398000,9.12939794921875,1.397864809963107,-0.5700795228362083,-0.38742973018214105
1772623338428428000,9.139427978515625,1.2408897029221058,-0.6058309274360537,-0.4291432945894077
1772623338438457900,9.149457763671874,1.0765835223406552,-0.5972367020919919,-0.4950075864454731
1772623338448487000,9.15948681640625,0.9140864370077848,-0.5098989026397467,-0.4953600896775722
1772623338458516700,9.169516845703125,0.8113269042789936,-0.41579175518304107,-0.4899383203571662
1772623338468546800,9.179546875,0.69146952175498,-0.3626490707993507,-0.46883539963904763
1772623338478577000,9.189576904296874,0.5493833562880754,-0.35335604953616856,-0.42036600429601967
1772623338488606000,9.19960595703125,0.4775619826585054,-0.3645411681562662,-0.40854397601187226
1772623338498635800,9.2096357421875,0.4514502208024263,-0.34637627365142104,-0.4298044984444976
1772623338508665900,9.219665771484374,0.44573359672129154,-0.32900779022127385,-0.42878125634398306
1772623338518696000,9.229696044921875,0.4758148467302322,-0.43191316116154194,-0.38202326802872116
1772623338528725800,9.239725830078125,0.5092079977661371,-0.6118877432569861,-0.2952575693760067
1772623338538754800,9.2497548828125,0.5020511117488146,-0.7778247399106621,-0.24863179260566828
1772623338548785000,9.259784912109374,0.4305249216735363,-0.92733696372509,-0.32683457436803726
1772623338558814700,9.269814697265625,0.43443303502798075,-1.055479651774466,-0.41949798928983506
1772623338568844800,9.2798447265625,0.4014396969646215,-1.1455883772447704,-0.4338803695812821
1772623338578875000,9.289875,0.26739772174358367,-1.254585635319352,-0.4025175553292036
1772623338588904000,9.299904052734375,0.046243280258774756,-1.37021984719038,-0.39146819191798565
1772623338598934000,9.30993408203125,-0.1887508860081434,-1.376900055606663,-0.438833863802813
1772623338608963800,9.3199638671875,-0.42814241045117374,-1.3061240993767975,-0.4034742715321481
1772623338618993700,9.32999365234375,-0.711492319086194,-1.250947278816998,-0.32074308909252286
1772623338629023700,9.340023681640625,-0.9256056098878384,-1.1904758589804172,-0.2743000484779477
1772623338639052800,9.350052734375,-1.091488830527663,-1.0531304582998156,-0.22159992022998629
1772623338649083000,9.360082763671874,-1.151139289370179,-0.8936384000018238,-0.08115847149649634
1772623338659113000,9.370113037109375,-1.057713986697793,-0.7949363259702921,0.16471892610080538
1772623338669143000,9.38014306640625,-0.8824421754658222,-0.7580468572512269,0.389979779991135
1772623338679173000,9.390173095703124,-0.6866910553067922,-0.7130635139256716,0.560835309150815
1772623338689202000,9.400201904296875,-0.6037719490796327,-0.6008969781652093,0.6231757377296686
1772623338699231700,9.410231689453125,-0.5551274528980255,-0.4126318298473954,0.5931363541010767
1772623338709261800,9.42026171875,-0.4512538214474916,-0.2487649174660444,0.48278424735143777
1772623338719292000,9.4302919921875,-0.3882113820791244,-0.31272505620121954,0.5318429138245061
1772623338729320700,9.44032080078125,-0.4092477403670549,-0.6245566706940532,0.7785900251947343
1772623338739350800,9.450350830078126,-0.4699567683517933,-0.9403498822942375,1.0497115167018025
1772623338749380900,9.460380859375,-0.5322697244018316,-1.0709636366322637,1.138872366862744
1772623338759411000,9.470410888671875,-0.7375023741334676,-0.9316571650117635,0.8316844865225255
1772623338769440800,9.480440673828125,-1.1792758350521326,-0.5008087104722857,0.17789180273832753
1772623338779470000,9.490469970703124,-1.883249449071288,-0.03562134847939014,-0.4579018080946058
1772623338789499600,9.500499755859375,-2.5732500673174856,0.1727788253724575,-0.7350548348508775
1772623338799529700,9.51052978515625,-2.8992794262498616,0.29219021769464015,-0.8473106563299894
1772623338809559800,9.520559814453126,-2.96319572584331,0.5755582465082406,-0.7673345447521657
1772623338819590000,9.53058984375,-2.6032225962549447,0.8967164922729134,-0.40408184550385917
1772623338829619000,9.540618896484375,-1.958877229246497,1.0562333927512169,-0.08155325210089795
1772623338839649000,9.55064892578125,-1.3078496079951525,1.2172627436190844,0.06650993281584233
1772623338849679000,9.56067919921875,-0.6905798794388771,1.4547764914914965,0.20484432626748456
1772623338859708700,9.570708740234375,-0.08150339421033859,1.5461173891052602,0.3873120951518416
1772623338869738800,9.58073876953125,0.4486567906916141,1.4202742101699113,0.6428574665382504
1772623338879767800,9.590767822265626,0.7269061613172292,1.29005296228081,0.8318313476473093
1772623338889798000,9.6007978515625,0.8527221599847078,1.1813239997535943,0.7783648381367325
1772623338899828000,9.610827880859375,0.9189695328742266,1.2044652213662863,0.6436798157718032
1772623338909858000,9.620858154296876,0.903802358880639,1.2724518391385673,0.4839806175291538
1772623338919886800,9.630886962890624,0.7877332627236843,1.288571783812344,0.32921938714534044
1772623338929917000,9.6409169921875,0.49343292100727554,1.1805559379905461,0.15042250705976037
1772623338939947000,9.650947021484376,0.2394856324672699,1.057229125790298,-0.08009402060275897
1772623338949976800,9.660976806640624,0.070305123847723,1.0627890980049968,-0.29557691925717516
1772623338960007000,9.6710068359375,0.007332827106118202,1.131353807926178,-0.36682080352604385
1772623338970035700,9.68103564453125,0.13708382713496683,1.1589765588670968,-0.357024655046314
1772623338980065800,9.691065673828126,0.2885673510223627,1.1623662013053893,-0.30139561547329646
1772623338990096000,9.701095947265625,0.48730830064713954,1.1345163636103273,-0.1761965796603821
1772623339000126000,9.7111259765625,0.803356948313117,1.0276210462510584,-0.06735359883205964
1772623339010156000,9.721156005859376,1.1654986541122196,0.8626447113230824,0.06298994199614971
1772623339020185000,9.73118505859375,1.483429462262988,0.719054863294959,0.18184855927377938
1772623339030215000,9.74121484375,1.7493769851982592,0.583051232612133,0.2596036155349575
1772623339040244700,9.75124462890625,1.936562521585822,0.4325786393329501,0.35546905963476744
1772623339050274800,9.76127490234375,1.9376801274389028,0.2550330379500985,0.3946570145545527
1772623339060305000,9.771304931640625,1.9700737460434437,0.08603723824769258,0.36757395998090503
1772623339070334000,9.781333984375,1.983260559874773,0.03507569729536771,0.37044465657901016
1772623339080364000,9.791364013671876,1.907470282614231,0.03247808201760054,0.38964536040499803
1772623339090393900,9.801393798828125,1.719502071416378,0.01054886654317379,0.41909634968638415
1772623339100424000,9.811423828125,1.4770774628877639,-0.017311200284957886,0.405640655785799
1772623339110453800,9.821453857421876,1.2337579513460397,-0.038600948812067506,0.2820321953662671
1772623339120482800,9.83148291015625,1.0188736761718988,-0.03583616027384996,0.15056018023109063
1772623339130513000,9.841512939453125,0.9309072234272956,-0.11088175664693116,0.11919144769487902
1772623339140543000,9.85154296875,0.9747457806318998,-0.20449878249913453,0.11972955489326267
1772623339150572800,9.86157275390625,0.983887702986598,-0.23787001396417617,0.16343476804178206
1772623339160601900,9.871601806640625,1.0343705205112694,-0.2633291571304202,0.2200502248362638
1772623339170632000,9.8816318359375,1.1093974121838808,-0.3118807143315673,0.29223591999989
1772623339180662000,9.891662109375,1.0642074403703212,-0.38743659831434485,0.3874088335245848
1772623339190691800,9.90169189453125,0.9759802908629178,-0.4842129649803042,0.4892890992008149
1772623339200722000,9.911721923828125,0.8737672861009835,-0.5955401273071765,0.44473132434356955
1772623339210750700,9.921750732421875,0.8696680340886116,-0.6807078892439603,0.49436044764835385
1772623339220780800,9.93178076171875,0.9206804284453391,-0.6988648927032947,0.6877824307400733
1772623339230811000,9.941810791015625,0.9218617471843957,-0.6991694286078214,0.8774276352394371
1772623339240841000,9.951841064453125,0.9360001626521348,-0.7583028778389096,0.9385865989487617
1772623339250871000,9.96187109375,0.8142483446836472,-0.8731780880361795,0.9448337497100233
1772623339260899800,9.97189990234375,0.4919347914040088,-1.0397402308508754,0.889841418871656
1772623339270930000,9.981929931640625,-0.09371931718289851,-1.2479822915315628,0.6634940849188715
1772623339280959700,9.991959716796876,-0.5871574988871813,-1.471058640989661,0.30889545144308356
1772623339290989800,10.00198974609375,1.8353601551711558,-0.9571236147016287,0.005105917437421158
1772623339301021000,10.01202099609375,0.6915168680280447,-0.48705958658307785,0.8861464368112385
1772623339311050000,10.022050048828126,-0.7637912461221218,-0.8081447671115398,1.3931019794754682
1772623339321080000,10.032080078125,-1.131323997309804,-1.2894415523841976,0.7105493391476572
1772623339331110000,10.04210986328125,-1.7787515482425689,-1.1578943165883422,0.5563611228788271
1772623339341140000,10.052139892578126,-2.1782775205403566,-0.715244657357037,0.7665090537134558
1772623339351169800,10.062169677734374,-2.3810849889516827,-0.41263825958818195,1.1534697781443595
1772623339361198800,10.07219873046875,-1.5480132858544586,-0.11329290944188833,0.8739985375735908
1772623339371229000,10.08222900390625,-0.11526888568997383,0.8810974828585982,0.5021775511400773
