time,seconds_elapsed,z,y,x
1772623329351460900,0.0624609375,0.020978305488824844,0.07910340279340744,0.09348007291555405
1772623329361491000,0.072490966796875,0.01220718864351511,0.09893811494112015,0.13159097731113434
1772623329371519700,0.082519775390625,0.02295251190662384,0.058382436633110046,0.13983559608459473
1772623329381549800,0.0925498046875,0.0005357256159186363,-0.026662036776542664,0.12169845402240753
1772623329391580000,0.102579833984375,0.12605850398540497,-0.1379520744085312,0.08736604452133179
1772623329401610000,0.11260986328125,0.05395905673503876,-0.23827436566352844,0.05655982345342636
1772623329411639800,0.122639892578125,0.15882448852062225,-0.3022195100784302,0.03854913264513016
1772623329421670000,0.132669921875,0.03485792875289917,-0.3110848069190979,0.034900203347206116
1772623329431698700,0.14269873046875,0.07839102298021317,-0.2858361601829529,0.03751835599541664
1772623329441728800,0.152728759765625,-0.09024632722139359,-0.2138286828994751,0.032632920891046524
1772623329451758800,0.1627587890625,-0.07495924830436707,-0.12261782586574554,0.021921955049037933
1772623329461789000,0.172788818359375,-0.24738767743110657,-0.007117251865565777,0.017388612031936646
1772623329471819000,0.182819091796875,-0.198659285902977,0.11416176706552505,0.017859194427728653
1772623329481847800,0.192847900390625,-0.3025236129760742,0.2055601328611374,0.04303307086229324
1772623329491878000,0.2028779296875,-0.17494913935661316,0.27051568031311035,0.0623503103852272
1772623329501907700,0.21290771484375,-0.19258694350719452,0.29695215821266174,0.07462763786315918
1772623329511937800,0.222937744140625,-0.01646331325173378,0.27842479944229126,0.07911240309476852
1772623329521967900,0.2329677734375,-0.03648111969232559,0.2440698742866516,0.06849683076143265
1772623329531997000,0.242996826171875,0.10534791648387909,0.21548298001289368,0.04626796022057533
1772623329542027000,0.253027099609375,0.04056103527545929,0.20283837616443634,0.019701117649674416
1772623329552056800,0.263056884765625,0.14627495408058167,0.1724035143852234,-0.014429954811930656
1772623329562087000,0.2730869140625,0.07259149104356766,0.11791743338108063,-0.05213901028037071
1772623329572116700,0.28311669921875,0.1636524200439453,0.04523497819900513,-0.10481660813093185
1772623329582146800,0.293146728515625,0.06684084236621857,-0.05532820150256157,-0.16818782687187195
1772623329592175900,0.30317578125,0.12245989590883255,-0.17977479100227356,-0.23976826667785645
1772623329602206000,0.3132060546875,-0.031333521008491516,-0.2874843180179596,-0.31212514638900757
1772623329612235800,0.32323583984375,-0.07577022910118103,-0.2721461057662964,-0.3656142055988312
1772623329622265900,0.333265869140625,-0.29720014333724976,-0.11055222153663635,-0.38750743865966797
1772623329632296000,0.3432958984375,-0.321576863527298,0.11330218613147736,-0.3634803891181946
1772623329642325000,0.353324951171875,-0.43400105834007263,0.316929429769516,-0.2944706976413727
1772623329652355000,0.36335498046875,-0.32607245445251465,0.4529155194759369,-0.19887176156044006
1772623329662385000,0.373385009765625,-0.30425453186035156,0.496598482131958,-0.08848567306995392
1772623329672414700,0.383414794921875,-0.08585216104984283,0.45898374915122986,0.03653455898165703
1772623329682444800,0.39344482421875,0.018281854689121246,0.3016992211341858,0.16204288601875305
1772623329692475000,0.403474853515625,0.25947582721710205,0.12958788871765137,0.2964097559452057
1772623329702504000,0.41350390625,0.3400590717792511,-0.03796650096774101,0.4359886050224304
1772623329712534000,0.423533935546875,0.48747462034225464,-0.15119293332099915,0.558862566947937
1772623329722564000,0.433564208984375,0.4458802342414856,-0.19924359023571014,0.6412027478218079
1772623329732593700,0.44359375,0.4835328161716461,-0.17403224110603333,0.6694636940956116
1772623329742623700,0.453623779296875,0.3723793923854828,-0.095630943775177,0.6430147886276245
1772623329752652800,0.46365283203125,0.33296939730644226,0.028240930289030075,0.572067379951477
1772623329762683000,0.473682861328125,0.1849222630262375,0.1676410436630249,0.45937347412109375
1772623329772713000,0.483712890625,0.06400862336158752,0.289650559425354,0.3153553009033203
1772623329782743000,0.493742919921875,-0.04057184234261513,0.3568058907985687,0.17088574171066284
1772623329792772900,0.50377294921875,-0.11384952068328857,0.36286458373069763,0.03955274447798729
1772623329802802700,0.513802734375,-0.15768764913082123,0.3353942334651947,-0.03854983299970627
1772623329812832000,0.52383203125,-0.18028004467487335,0.29605162143707275,-0.06807363778352737
1772623329822861800,0.53386181640625,-0.17326834797859192,0.22123077511787415,-0.061415866017341614
1772623329832892000,0.543891845703125,-0.14336957037448883,0.1414898782968521,-0.020378950983285904
1772623329842922000,0.553921875,-0.09640386700630188,0.06765622645616531,0.04909775033593178
1772623329852951800,0.563951904296875,-0.05872359871864319,0.02581636607646942,0.1417296826839447
1772623329862980900,0.57398095703125,-0.030153531581163406,-0.0012768441811203957,0.23582540452480316
1772623329873011000,0.584010986328125,0.00677093118429184,0.004269988276064396,0.3299758732318878
1772623329883041000,0.594041015625,0.05258285999298096,0.04114724323153496,0.3942842185497284
1772623329893070800,0.60407080078125,0.09812451153993607,0.05907750502228737,0.4233582019805908
1772623329903101000,0.614100830078125,0.13211743533611298,0.07604806125164032,0.4092225432395935
1772623329913129700,0.624129638671875,0.15425975620746613,0.07075662910938263,0.36149898171424866
1772623329923159800,0.634159912109375,0.17694313824176788,0.05251946672797203,0.289398193359375
1772623329933190000,0.64418994140625,0.1923665702342987,0.01682671532034874,0.21203628182411194
1772623329943220000,0.654219970703125,0.19335345923900604,-0.03610687330365181,0.1451006978750229
1772623329953250000,0.66425,0.1673405021429062,-0.08269834518432617,0.09599678963422775
1772623329963280000,0.67427978515625,0.12210974842309952,-0.12616926431655884,0.0756971687078476
1772623329973309000,0.684308837890625,0.05636162683367729,-0.16638565063476562,0.07471100240945816
1772623329983338800,0.6943388671875,-0.012615337036550045,-0.18455485999584198,0.09081265330314636
1772623329993368800,0.704368896484375,-0.07626169174909592,-0.15929263830184937,0.12347579002380371
1772623330003399000,0.71439892578125,-0.12615859508514404,-0.10522747039794922,0.16693110764026642
1772623330013429000,0.724428955078125,-0.15182161331176758,-0.03422892466187477,0.21350419521331787
1772623330023457800,0.734457763671875,-0.1653987616300583,0.024426579475402832,0.24602513015270233
1772623330033488000,0.74448779296875,-0.15460205078125,0.07024439424276352,0.2624494135379791
1772623330043518000,0.75451806640625,-0.13188152015209198,0.11285632848739624,0.2568581700325012
1772623330053547800,0.7645478515625,-0.09828893840312958,0.12714286148548126,0.2241564244031906
1772623330063577900,0.774577880859375,-0.060545019805431366,0.12329196184873581,0.17512309551239014
1772623330073607000,0.78460693359375,-0.01285472884774208,0.09265229105949402,0.13595545291900635
1772623330083636700,0.79463671875,0.02791263908147812,0.05773844197392464,0.11525089293718338
1772623330093666800,0.804666748046875,0.04737395420670509,0.03373829647898674,0.11945229023694992
1772623330103697000,0.81469677734375,0.04602275416254997,0.018614336848258972,0.13258618116378784
1772623330113727000,0.82472705078125,0.034302182495594025,0.014576983638107777,0.1428241729736328
1772623330123756800,0.8347568359375,0.007477143779397011,0.021271798759698868,0.12846416234970093
1772623330133785900,0.844785888671875,-0.03049926646053791,0.013192565180361271,0.08562587946653366
1772623330143816000,0.85481591796875,-0.07330729067325592,-0.011403684504330158,0.012351884506642818
1772623330153845800,0.864845703125,-0.12058905512094498,-0.018053065985441208,-0.07816310226917267
1772623330163875800,0.874875732421875,-0.16591258347034454,-0.001616016961634159,-0.16813507676124573
1772623330173906000,0.884906005859375,-0.20251481235027313,0.029003942385315895,-0.2359844297170639
1772623330183935000,0.89493505859375,-0.23687328398227692,0.08738259971141815,-0.2769264578819275
1772623330193965000,0.904965087890625,-0.2647342085838318,0.1597670465707779,-0.2846520245075226
1772623330203995000,0.914994873046875,-0.26596692204475403,0.24876193702220917,-0.27131277322769165
1772623330214024700,0.925024658203125,-0.2349325716495514,0.3173452913761139,-0.25602811574935913
1772623330224054800,0.9350546875,-0.1712988018989563,0.3527020812034607,-0.24541033804416656
1772623330234084900,0.9450849609375,-0.08690883219242096,0.37994489073753357,-0.23631323873996735
1772623330244114000,0.955114013671875,-0.008119497448205948,0.4079911708831787,-0.23619960248470306
1772623330254144000,0.96514404296875,0.06313710659742355,0.4116343855857849,-0.23593994975090027
1772623330264174000,0.975174072265625,0.1421595811843872,0.3933500051498413,-0.24641890823841095
1772623330274204000,0.985203857421875,0.21869590878486633,0.3502075970172882,-0.26041728258132935
1772623330284233700,0.995233642578125,0.28878116607666016,0.2565627992153168,-0.28737545013427734
1772623330294262800,1.0052626953125,0.33657318353652954,0.05930086225271225,-0.32353559136390686
1772623330304293400,1.01529345703125,0.3422428369522095,-0.2714807391166687,-0.3801075518131256
1772623330314323500,1.025323486328125,0.29693740606307983,-0.6279423832893372,-0.42123499512672424
1772623330324353500,1.035353515625,0.21102972328662872,-0.8676402568817139,-0.43080320954322815
1772623330334383400,1.04538330078125,0.10301296412944794,-0.9460809826850891,-0.40117180347442627
1772623330344412400,1.055412353515625,-0.025695186108350754,-0.853152871131897,-0.32121777534484863
1772623330354442200,1.065442138671875,-0.14917531609535217,-0.6049185991287231,-0.1939450353384018
1772623330364472300,1.075472412109375,-0.23256738483905792,-0.2553722858428955,-0.02026424929499626
1772623330374502400,1.08550244140625,-0.23530644178390503,0.09530583769083023,0.14879189431667328
1772623330384532500,1.095532470703125,-0.15556421875953674,0.36056438088417053,0.2887687087059021
1772623330394562600,1.1055625,-0.015347190201282501,0.5228915214538574,0.3990129232406616
1772623330404591400,1.11559130859375,0.1692725270986557,0.5525704026222229,0.46566933393478394
1772623330414621400,1.125621337890625,0.36515867710113525,0.4621885418891907,0.4873373508453369
1772623330424651300,1.1356513671875,0.5347974896430969,0.2712523937225342,0.46980345249176025
1772623330434681300,1.145681396484375,0.663079559803009,0.046114057302474976,0.44105011224746704
1772623330444711400,1.15571142578125,0.71885746717453,-0.1651218682527542,0.3988087773323059
1772623330454740200,1.165740234375,0.6894745230674744,-0.3503649830818176,0.34902656078338623
1772623330464770300,1.175770263671875,0.5930911302566528,-0.499543696641922,0.2913341224193573
1772623330474800400,1.18580029296875,0.4607415795326233,-0.6132073998451233,0.21974648535251617
1772623330484830500,1.19583056640625,0.31815797090530396,-0.6621415615081787,0.13968613743782043
1772623330494860300,1.2058603515625,0.18220943212509155,-0.637316882610321,0.054368313401937485
1772623330504889600,1.2158896484375,0.03912170231342316,-0.5509340763092041,-0.03074762225151062
1772623330514919200,1.225919189453125,-0.11045021563768387,-0.3946012258529663,-0.12689678370952606
1772623330524949200,1.23594921875,-0.24441328644752502,-0.1937732845544815,-0.23361454904079437
1772623330534979300,1.245979248046875,-0.32941871881484985,0.0072272056713700294,-0.353510320186615
1772623330545009400,1.256009521484375,-0.37190115451812744,0.14835935831069946,-0.4833358824253082
1772623330555038500,1.26603857421875,-0.37493395805358887,0.20846369862556458,-0.5892087817192078
1772623330565068500,1.276068603515625,-0.35380974411964417,0.21973372995853424,-0.647142767906189
1772623330575098400,1.286098388671875,-0.3129701614379883,0.1690031737089157,-0.6480855345726013
1772623330585128200,1.296128173828125,-0.2442643940448761,0.12802794575691223,-0.5836433172225952
1772623330595158300,1.306158203125,-0.1622273176908493,0.11712471395730972,-0.4610516130924225
1772623330605188400,1.316188232421875,-0.0676894411444664,0.10519815981388092,-0.31465044617652893
1772623330615217400,1.326217529296875,0.01562222745269537,0.06449786573648453,-0.17739644646644592
1772623330625247500,1.33624755859375,0.09998361766338348,0.009712603874504566,-0.05597873032093048
1772623330635277300,1.34627734375,0.16740314662456512,-0.044067803770303726,0.03382812440395355
1772623330645307400,1.356307373046875,0.20280328392982483,-0.10822674632072449,0.09725739806890488
1772623330655337200,1.366337158203125,0.2120785415172577,-0.16552892327308655,0.14543983340263367
1772623330665366500,1.376366455078125,0.18759149312973022,-0.19918283820152283,0.17948971688747406
1772623330675396400,1.386396240234375,0.10929056257009506,-0.25718116760253906,0.17782257497310638
1772623330685426400,1.396426513671875,-0.010080482810735703,-0.28504860401153564,0.12685391306877136
1772623330695456300,1.406456298828125,-0.10383866727352142,-0.2501484155654907,0.051875267177820206
1772623330705486300,1.416486328125,-0.11641809344291687,-0.16373872756958008,-0.024928616359829903
1772623330715515400,1.426515380859375,-0.059870395809412,-0.041644785553216934,-0.08830651640892029
1772623330725545500,1.43654541015625,0.03102388046681881,0.06074529141187668,-0.10938660800457001
1772623330735575600,1.446575439453125,0.10880336165428162,0.11318054050207138,-0.09176075458526611
1772623330745605400,1.45660546875,0.15386851131916046,0.08575841784477234,-0.0481223538517952
1772623330755635200,1.46663525390625,0.17135988175868988,0.00320575013756752,0.008922290056943893
1772623330765664300,1.476664306640625,0.1688322126865387,-0.09759443253278732,0.05155206844210625
1772623330775694300,1.4866943359375,0.17220669984817505,-0.2031131237745285,0.08088839054107666
1772623330785724400,1.496724365234375,0.20141947269439697,-0.2686569094657898,0.10756056010723114
1772623330795754500,1.50675439453125,0.2326706051826477,-0.27112486958503723,0.1414913684129715
1772623330805784600,1.51678466796875,0.24102747440338135,-0.2366945892572403,0.16554223001003265
1772623330815813400,1.5268134765625,0.23967991769313812,-0.16008104383945465,0.15861748158931732
1772623330825843500,1.536843505859375,0.24584250152111053,-0.046478018164634705,0.12347821146249771
1772623330835873300,1.546873291015625,0.2634078860282898,0.07176259905099869,0.06765569746494293
1772623330845903400,1.5569033203125,0.28532326221466064,0.16883206367492676,0.003555568866431713
1772623330855933400,1.566933349609375,0.3128262460231781,0.22204148769378662,-0.06208442524075508
1772623330865963500,1.576963623046875,0.3476299047470093,0.24188774824142456,-0.11304379999637604
1772623330875992300,1.586992431640625,0.3932940661907196,0.253883421421051,-0.144443541765213
1772623330886022400,1.5970224609375,0.4438609778881073,0.23782280087471008,-0.17686454951763153
1772623330896052500,1.607052490234375,0.4917709529399872,0.19661812484264374,-0.2078472226858139
1772623330906082300,1.617082275390625,0.5226721167564392,0.11713789403438568,-0.24450799822807312
1772623330916112400,1.6271123046875,0.5226971507072449,-0.0031123431399464607,-0.282316118478775
1772623330926141200,1.63714111328125,0.49318432807922363,-0.12731167674064636,-0.2986203730106354
1772623330936171300,1.647171142578125,0.43337082862854004,-0.21682611107826233,-0.2566361725330353
1772623330946201300,1.657201416015625,0.3525865375995636,-0.24902553856372833,-0.1552678495645523
1772623330956231400,1.6672314453125,0.267794668674469,-0.22405946254730225,-0.0039022942073643208
1772623330966261500,1.677261474609375,0.18692758679389954,-0.13478362560272217,0.15920662879943848
1772623330976290600,1.68729052734375,0.13957472145557404,0.021913835778832436,0.28527402877807617
1772623330986320400,1.6973203125,0.15514804422855377,0.18072398006916046,0.32158151268959045
1772623330996350200,1.70735009765625,0.2162657231092453,0.2745213210582733,0.2497003972530365
1772623331006380300,1.71738037109375,0.2988465428352356,0.33119091391563416,0.12003226578235626
1772623331016410400,1.727410400390625,0.3846144378185272,0.3045366406440735,-0.0402815006673336
1772623331026439400,1.737439453125,0.4532603621482849,0.12294424325227737,-0.23424752056598663
1772623331036469500,1.747469482421875,0.486430287361145,-0.12141569703817368,-0.4022192060947418
1772623331046499600,1.75749951171875,0.4634690582752228,-0.2984757125377655,-0.5101420283317566
1772623331056529400,1.767529296875,0.37606358528137207,-0.31818443536758423,-0.5198055505752563
1772623331066559200,1.777559326171875,0.24556109309196472,-0.17871427536010742,-0.44314146041870117
1772623331076588300,1.78758837890625,0.10177863389253616,0.09993891417980194,-0.2840655446052551
1772623331086618400,1.797618408203125,-0.007452754303812981,0.432027667760849,-0.09312958270311356
1772623331096648400,1.8076484375,-0.026719659566879272,0.7277858257293701,0.10310091078281403
1772623331106678500,1.817678466796875,0.03520498797297478,0.8954350352287292,0.27371931076049805
1772623331116708400,1.827708251953125,0.16832095384597778,0.938121497631073,0.3900451362133026
1772623331126737400,1.8377373046875,0.3333297371864319,0.8503419756889343,0.4532175660133362
1772623331136767500,1.847767578125,0.49909287691116333,0.6417149901390076,0.467308908700943
1772623331146797300,1.85779736328125,0.6340233683586121,0.36488354206085205,0.464366614818573
1772623331156827400,1.867827392578125,0.7228443622589111,0.08133729547262192,0.46972596645355225
1772623331166857500,1.877857421875,0.748963475227356,-0.12717421352863312,0.510465145111084
1772623331176886300,1.88788623046875,0.7085694670677185,-0.25697028636932373,0.5695593953132629
1772623331186916400,1.897916259765625,0.6185342073440552,-0.3461708128452301,0.6237778067588806
1772623331196946400,1.907946533203125,0.4785297214984894,-0.367621511220932,0.6628456115722656
1772623331206976500,1.9179765625,0.2964012026786804,-0.330781489610672,0.6554350852966309
1772623331217006300,1.92800634765625,0.09913180023431778,-0.2550443708896637,0.6040251851081848
1772623331227035400,1.938035400390625,-0.09438511729240417,-0.14366155862808228,0.508547306060791
1772623331237065200,1.948065185546875,-0.25870031118392944,-0.012343485839664936,0.37916380167007446
1772623331247095300,1.95809521484375,-0.3921559453010559,0.11671792715787888,0.24034903943538666
1772623331257125400,1.96812548828125,-0.48735809326171875,0.22626572847366333,0.11350135505199432
1772623331267155500,1.978155517578125,-0.5466535091400146,0.3004854917526245,0.007569802924990654
1772623331277184500,1.9881845703125,-0.562989354133606,0.3572683334350586,-0.06830711662769318
1772623331287214300,1.99821435546875,-0.5308928489685059,0.38286006450653076,-0.0997910350561142
1772623331297248800,2.008248779296875,-0.47590309381484985,0.3844560980796814,-0.09392328560352325
1772623331307278800,2.01827880859375,-0.4058806896209717,0.3545045256614685,-0.06637701392173767
1772623331317309000,2.028308837890625,-0.34424155950546265,0.2960100471973419,-0.026072468608617783
1772623331327338000,2.038337890625,-0.29885509610176086,0.20268628001213074,0.01564253866672516
1772623331337368000,2.0483681640625,-0.2867465019226074,0.11608028411865234,0.04871952906250954
1772623331347398000,2.05839794921875,-0.28289955854415894,0.048326797783374786,0.07086318731307983
1772623331357427700,2.068427734375,-0.2906578779220581,0.037552982568740845,0.07205601781606674
1772623331367457800,2.078457763671875,-0.30536824464797974,0.050741955637931824,0.052487850189208984
1772623331377486800,2.08848681640625,-0.3195223808288574,0.09291710704565048,0.011771316640079021
1772623331387517000,2.098516845703125,-0.3195246458053589,0.133083313703537,-0.057583924382925034
1772623331397547000,2.108547119140625,-0.29673412442207336,0.16756431758403778,-0.12808258831501007
1772623331407577000,2.1185771484375,-0.26564115285873413,0.1783248484134674,-0.1840304732322693
1772623331417607000,2.12860693359375,-0.2408551126718521,0.191298708319664,-0.2205945998430252
1772623331427636000,2.138635986328125,-0.2172948569059372,0.2154746800661087,-0.23045843839645386
1772623331437666000,2.148666015625,-0.2017212212085724,0.25385937094688416,-0.2130831778049469
1772623331447696000,2.15869580078125,-0.19402939081192017,0.26874759793281555,-0.19838842749595642
1772623331457726000,2.168725830078125,-0.18934835493564606,0.2757088243961334,-0.1777971237897873
1772623331467756000,2.178756103515625,-0.18271301686763763,0.2822115123271942,-0.15363667905330658
1772623331477784800,2.188784912109375,-0.18427495658397675,0.2773264944553375,-0.1307143270969391
1772623331487815000,2.19881494140625,-0.18659809231758118,0.23095174133777618,-0.11725033819675446
1772623331497845000,2.208844970703125,-0.19245171546936035,0.16311809420585632,-0.10866618156433105
1772623331507875000,2.218875,-0.16688024997711182,0.11479906737804413,-0.08593274652957916
1772623331517905000,2.22890478515625,-0.11677767336368561,0.06062743812799454,-0.03548555076122284
1772623331527934000,2.238933837890625,-0.06355399638414383,-0.03425786644220352,0.029289323836565018
1772623331537963800,2.2489638671875,-0.006130116060376167,-0.14644938707351685,0.12067969143390656
1772623331547993900,2.258993896484375,0.03614814579486847,-0.2502439618110657,0.22400756180286407
1772623331558024000,2.26902392578125,0.05427814647555351,-0.332823783159256,0.32604873180389404
1772623331568054000,2.279053955078125,0.03782251849770546,-0.37769246101379395,0.4066563546657562
1772623331578083000,2.2890830078125,0.004766563884913921,-0.36219552159309387,0.45255088806152344
1772623331588113000,2.29911279296875,-0.05280598625540733,-0.2844218909740448,0.451305091381073
1772623331598143000,2.30914306640625,-0.12234377861022949,-0.18198740482330322,0.3963632583618164
1772623331608172800,2.3191728515625,-0.1862722635269165,-0.08552010357379913,0.30291077494621277
1772623331618203000,2.329202880859375,-0.2126554250717163,-0.01222910638898611,0.1986892968416214
1772623331628232000,2.33923193359375,-0.1712692528963089,0.01745486818253994,0.11654254794120789
1772623331638262000,2.349261962890625,-0.06396489590406418,0.0412808358669281,0.08570660650730133
1772623331648291800,2.359291748046875,0.08365724235773087,0.11569695174694061,0.11713646352291107
1772623331658322000,2.369322021484375,0.2432764768600464,0.1860174536705017,0.17375420033931732
1772623331668352000,2.37935205078125,0.3891758322715759,0.1919620931148529,0.2288053035736084
1772623331678381000,2.389381103515625,0.502973735332489,0.12231456488370895,0.24931882321834564
1772623331688411000,2.399410888671875,0.5653663873672485,-0.032492827624082565,0.24485161900520325
1772623331698441000,2.40944091796875,0.5583268404006958,-0.24931195378303528,0.21952469646930695
1772623331708470800,2.419470703125,0.4717942178249359,-0.5064746141433716,0.17921601235866547
1772623331718500900,2.4295009765625,0.31674548983573914,-0.7364103198051453,0.13173185288906097
1772623331728530000,2.439530029296875,0.09157872945070267,-0.886031448841095,0.09800247102975845
1772623331738560000,2.44956005859375,-0.16951757669448853,-0.8765540719032288,0.09459735453128815
1772623331748590000,2.459590087890625,-0.39959532022476196,-0.6759501695632935,0.12102320790290833
1772623331758620000,2.469619873046875,-0.5774872303009033,-0.34662607312202454,0.16230833530426025
1772623331768649700,2.479649658203125,-0.7038758993148804,0.03427800536155701,0.18225444853305817
1772623331778678800,2.4896787109375,-0.7594512701034546,0.4695282578468323,0.17435844242572784
1772623331788708900,2.499708984375,-0.7323991060256958,0.8180794715881348,0.1152263879776001
1772623331798739000,2.509739013671875,-0.6301770806312561,1.0172417163848877,0.029497098177671432
1772623331808769000,2.51976904296875,-0.48096293210983276,1.0657778978347778,-0.06531433761119843
1772623331818799000,2.529799072265625,-0.3163233995437622,0.9206624031066895,-0.14680705964565277
1772623331828828000,2.539827880859375,-0.17082490026950836,0.5917419195175171,-0.22924481332302094
1772623331838858000,2.54985791015625,-0.06651128083467484,0.16830149292945862,-0.29724809527397156
1772623331848887800,2.5598876953125,-0.030970148742198944,-0.2952822744846344,-0.3552192449569702
1772623331858918000,2.56991796875,-0.05158914253115654,-0.7032915949821472,-0.39008215069770813
1772623331868948000,2.579947998046875,-0.10804452002048492,-0.9837091565132141,-0.39350035786628723
1772623331878976800,2.589976806640625,-0.19981972873210907,-1.1197110414505005,-0.3718810975551605
1772623331889006800,2.6000068359375,-0.3267928957939148,-1.0994864702224731,-0.30454713106155396
1772623331899037000,2.610036865234375,-0.4351670444011688,-0.938410222530365,-0.1984204351902008
1772623331909067000,2.62006689453125,-0.5106755495071411,-0.6401911973953247,-0.060252465307712555
1772623331919096800,2.630096923828125,-0.5369335412979126,-0.2920295000076294,0.058603350073099136
1772623331929126100,2.640126220703125,-0.5088793039321899,0.01826222613453865,0.12089551240205765
1772623331939155700,2.65015576171875,-0.4576038718223572,0.19574406743049622,0.09844479709863663
1772623331949185800,2.660185791015625,-0.4250435531139374,0.26281365752220154,-0.010378701612353325
1772623331959215900,2.6702158203125,-0.3956976532936096,0.2467702329158783,-0.17327387630939484
1772623331969246000,2.680245849609375,-0.36492136120796204,0.09059472382068634,-0.3673212230205536
1772623331979275000,2.69027490234375,-0.323385089635849,-0.10102798044681549,-0.5104812979698181
1772623331989305000,2.70030517578125,-0.2642812728881836,-0.2248092144727707,-0.5710582733154297
1772623331999335000,2.7103349609375,-0.20582298934459686,-0.24775314331054688,-0.5490885376930237
1772623332009364700,2.72036474609375,-0.16111528873443604,-0.20672380924224854,-0.4726351201534271
1772623332019394800,2.730394775390625,-0.11934227496385574,-0.10711812227964401,-0.3651944100856781
1772623332029423900,2.740423828125,-0.07409556955099106,0.020356331020593643,-0.2571389079093933
1772623332039454000,2.750453857421875,-0.029967259615659714,0.11195603013038635,-0.1664699763059616
1772623332049484000,2.760484130859375,0.001995652914047241,0.13566870987415314,-0.1154581755399704
1772623332059513900,2.770513916015625,0.04233136028051376,0.03340999409556389,-0.10176286101341248
1772623332069543000,2.78054296875,0.10175550729036331,-0.08878438919782639,-0.07094085961580276
1772623332079573000,2.790572998046875,0.15791438519954681,-0.17414483428001404,-0.03153033182024956
1772623332089603000,2.80060302734375,0.19155006110668182,-0.2479836642742157,0.012827921658754349
1772623332099633000,2.8106328125,0.19481056928634644,-0.272807240486145,0.06620299816131592
1772623332109663000,2.8206630859375,0.1876620203256607,-0.23987655341625214,0.12016551196575165
1772623332119691800,2.83069189453125,0.16376547515392303,-0.1610906571149826,0.15878987312316895
1772623332129721900,2.840721923828125,0.1513470858335495,-0.07350625842809677,0.18762561678886414
1772623332139752000,2.850751953125,0.15238945186138153,0.03336959332227707,0.2031979262828827
1772623332149782000,2.860781982421875,0.16406115889549255,0.11067326366901398,0.19755826890468597
1772623332159812000,2.87081201171875,0.17881080508232117,0.1586490422487259,0.18255269527435303
1772623332169841000,2.8808408203125,0.19699546694755554,0.1696317493915558,0.1740349978208542
1772623332179870700,2.89087060546875,0.2169846147298813,0.16812066733837128,0.18007025122642517
1772623332189900800,2.90090087890625,0.224929541349411,0.15490303933620453,0.20298439264297485
1772623332199931000,2.910930908203125,0.2246597558259964,0.13592909276485443,0.24234138429164886
1772623332209961000,2.9209609375,0.22758379578590393,0.09904495626688004,0.28106290102005005
1772623332219990000,2.930989990234375,0.23206643760204315,0.03644309565424919,0.3059610426425934
1772623332230019800,2.941019775390625,0.23362471163272858,-0.037399083375930786,0.3024112284183502
1772623332240050000,2.9510498046875,0.23437759280204773,-0.12224525958299637,0.2874208092689514
1772623332250079700,2.961079833984375,0.2270357608795166,-0.19926817715168,0.26449552178382874
1772623332260109800,2.97110986328125,0.213013157248497,-0.2529420554637909,0.25539255142211914
1772623332270139000,2.981138916015625,0.1917242407798767,-0.26322463154792786,0.268829882144928
1772623332280169000,2.9911689453125,0.15692444145679474,-0.1922181099653244,0.29577547311782837
1772623332290198800,3.00119873046875,0.11889897286891937,-0.06172329932451248,0.312208354473114
1772623332300225300,3.011225341796875,0.08562863618135452,0.09925147145986557,0.3042367100715637
1772623332310255400,3.02125537109375,0.06605961918830872,0.25190773606300354,0.2568773925304413
1772623332320284400,3.031284423828125,0.06258206814527512,0.3402218818664551,0.1889508068561554
1772623332330314200,3.041314208984375,0.0701005682349205,0.3332573473453522,0.1120913177728653
1772623332340344000,3.051343994140625,0.08674878627061844,0.25923582911491394,0.04421639069914818
1772623332350374100,3.0613740234375,0.1124507412314415,0.14615754783153534,-0.016493134200572968
1772623332360404200,3.071404296875,0.12223733216524124,0.038653191179037094,-0.0820670798420906
1772623332370433300,3.081433349609375,0.12279574573040009,-0.03444830700755119,-0.14844007790088654
1772623332380463400,3.09146337890625,0.11933417618274689,-0.08829742670059204,-0.2169933021068573
1772623332390493200,3.1014931640625,0.10549504309892654,-0.16147835552692413,-0.30230826139450073
1772623332400523300,3.111523193359375,0.08598632365465164,-0.28716757893562317,-0.3940165936946869
1772623332410552300,3.12155224609375,0.048134997487068176,-0.4357243776321411,-0.4873518645763397
1772623332420582400,3.13158251953125,-0.012532874941825867,-0.5598077178001404,-0.5515444278717041
1772623332430612200,3.1416123046875,-0.08931438624858856,-0.6087178587913513,-0.5840613842010498
1772623332440642300,3.151642333984375,-0.17439652979373932,-0.5674612522125244,-0.5598452687263489
1772623332450672000,3.161672119140625,-0.26989519596099854,-0.4254360795021057,-0.48873889446258545
1772623332460701200,3.171701171875,-0.3452160656452179,-0.18225140869617462,-0.371091365814209
1772623332470731300,3.181731201171875,-0.3769260048866272,0.1071961522102356,-0.21919018030166626
1772623332480761300,3.19176123046875,-0.34950077533721924,0.36571693420410156,-0.07778778672218323
1772623332490791400,3.20179150390625,-0.27879732847213745,0.5307365655899048,0.03526553511619568
1772623332500821200,3.2118212890625,-0.17077575623989105,0.5756800770759583,0.12829694151878357
1772623332510850300,3.221850341796875,-0.025226343423128128,0.5153253078460693,0.20915915071964264
1772623332520880000,3.231880126953125,0.15390293300151825,0.40166959166526794,0.2801094949245453
1772623332530910200,3.24191015625,0.3188577890396118,0.2633795738220215,0.35634106397628784
1772623332540940300,3.251940185546875,0.4165204167366028,0.144242525100708,0.41197049617767334
1772623332550970400,3.261970458984375,0.4512360990047455,0.06649693101644516,0.4511886239051819
1772623332560999200,3.271999267578125,0.4406428337097168,0.03563941270112991,0.45400118827819824
1772623332571029200,3.282029296875,0.38646405935287476,0.014108341187238693,0.4119129180908203
1772623332581059300,3.292059326171875,0.28759658336639404,0.013104328885674477,0.33576783537864685
1772623332591089200,3.302089111328125,0.1734851449728012,0.027688782662153244,0.24288035929203033
1772623332601119200,3.312119140625,0.04419400542974472,0.019570935517549515,0.1518031805753708
1772623332611148300,3.322148193359375,-0.0740048885345459,-0.0030630938708782196,0.07349853962659836
1772623332621178000,3.33217822265625,-0.16843366622924805,0.0019907867535948753,0.021729085594415665
1772623332631208200,3.342208251953125,-0.2409881204366684,0.03118746541440487,-0.007631252054125071
1772623332641238300,3.35223828125,-0.2944207191467285,0.058493390679359436,-0.022128701210021973
1772623332651268400,3.362268310546875,-0.342507541179657,0.07480791211128235,-0.03491286188364029
1772623332661297400,3.37229736328125,-0.37351125478744507,0.0862635001540184,-0.03678426519036293
1772623332671327200,3.3823271484375,-0.38868868350982666,0.07819808274507523,-0.042040519416332245
1772623332681357000,3.392357177734375,-0.3890274167060852,0.05127858370542526,-0.05649535730481148
1772623332691387100,3.40238720703125,-0.37110769748687744,0.02136395126581192,-0.07579062879085541
1772623332701416200,3.412416259765625,-0.34522202610969543,-0.013827594928443432,-0.09789672493934631
1772623332711446300,3.4224462890625,-0.32256242632865906,-0.0313151478767395,-0.13254733383655548
1772623332721476400,3.432476318359375,-0.30022570490837097,-0.03468351811170578,-0.16579928994178772
1772623332731506400,3.44250634765625,-0.27286821603775024,-0.035376083105802536,-0.20992152392864227
1772623332741536300,3.452536376953125,-0.23585480451583862,-0.019972892478108406,-0.2458752691745758
1772623332751565300,3.4625654296875,-0.19870516657829285,0.005258574150502682,-0.27222391963005066
1772623332761595100,3.47259521484375,-0.1725795567035675,0.034373585134744644,-0.28999677300453186
1772623332771625200,3.482625244140625,-0.16298004984855652,0.05529312789440155,-0.28764721751213074
1772623332781655300,3.4926552734375,-0.17344973981380463,0.061643436551094055,-0.26989248394966125
1772623332791685400,3.502685302734375,-0.19444361329078674,0.032897599041461945,-0.25066331028938293
1772623332801714200,3.512714111328125,-0.21514809131622314,-0.018139220774173737,-0.23518235981464386
1772623332811744300,3.522744140625,-0.23450300097465515,-0.06061139702796936,-0.21971672773361206
1772623332821774300,3.5327744140625,-0.24138221144676208,-0.07549820840358734,-0.21531905233860016
1772623332831804200,3.54280419921875,-0.24015849828720093,-0.05268500745296478,-0.20317822694778442
1772623332841834200,3.552834228515625,-0.22511722147464752,-0.002196534536778927,-0.18919555842876434
1772623332851863000,3.562863037109375,-0.18780194222927094,0.02595530077815056,-0.1637348085641861
1772623332861893000,3.57289306640625,-0.12102051824331284,0.04966143146157265,-0.1238718181848526
1772623332871923200,3.582923095703125,-0.03786250948905945,0.06319886445999146,-0.0678761899471283
1772623332881953300,3.592953369140625,0.050195708870887756,0.07732293754816055,0.015607785433530807
1772623332891983400,3.6029833984375,0.11255047470331192,0.078471839427948,0.10854028165340424
1772623332902012400,3.613012451171875,0.14196348190307617,0.0703878104686737,0.20123958587646484
1772623332912042200,3.623042236328125,0.15153391659259796,0.022454457357525826,0.2681317925453186
1772623332922072000,3.633072021484375,0.16877201199531555,-0.04749133437871933,0.3165499269962311
1772623332932102100,3.64310205078125,0.17868417501449585,-0.1296769380569458,0.3545285761356354
1772623332942132200,3.65313232421875,0.17722634971141815,-0.1984863579273224,0.37413501739501953
1772623332952161300,3.663161376953125,0.1697101593017578,-0.2442537546157837,0.37952834367752075
1772623332962191400,3.67319140625,0.1698547750711441,-0.2797667384147644,0.37528195977211
1772623332972221200,3.68322119140625,0.16443616151809692,-0.31116873025894165,0.37315574288368225
1772623332982251300,3.693251220703125,0.14877571165561676,-0.30024921894073486,0.3806703984737396
1772623332992280300,3.7032802734375,0.12872380018234253,-0.2664283514022827,0.39744117856025696
1772623333002310400,3.713310302734375,0.09710036218166351,-0.1810881644487381,0.4282028079032898
1772623333012340200,3.72334033203125,0.05993102490901947,-0.0513734295964241,0.45236074924468994
1772623333022370300,3.733370361328125,0.011945119127631187,0.10316288471221924,0.4568234086036682
1772623333032400400,3.743400390625,-0.034303322434425354,0.2457527220249176,0.4425899386405945
1772623333042429200,3.75342919921875,-0.06896356493234634,0.33698275685310364,0.4111156463623047
1772623333052459300,3.763459228515625,-0.08058451116085052,0.36764201521873474,0.36469995975494385
1772623333062489300,3.7734892578125,-0.0689275935292244,0.3472864031791687,0.31473585963249207
1772623333072519400,3.78351953125,-0.03608796373009682,0.3228427767753601,0.2780681252479553
1772623333082549200,3.79354931640625,0.012447877787053585,0.32336315512657166,0.2619283199310303
1772623333092578000,3.803578125,0.06624244898557663,0.3369695246219635,0.25203749537467957
1772623333102608100,3.813608154296875,0.12923206388950348,0.33374202251434326,0.2271561175584793
1772623333112638200,3.82363818359375,0.19468484818935394,0.29412564635276794,0.18470452725887299
1772623333122668300,3.833668212890625,0.2518099248409271,0.21270322799682617,0.11600057035684586
1772623333132698400,3.843698486328125,0.27019909024238586,0.023118145763874054,0.014098136685788631
1772623333142727200,3.85372705078125,0.2491321712732315,-0.29555490612983704,-0.11909747123718262
1772623333152757200,3.86375732421875,0.18629156053066254,-0.630831241607666,-0.27502167224884033
1772623333162787000,3.873787109375,0.07098814100027084,-0.845186710357666,-0.4077690541744232
1772623333172817200,3.883817138671875,-0.07859489321708679,-0.8666924834251404,-0.4781874120235443
1772623333182846200,3.89384619140625,-0.2551132142543793,-0.6927491426467896,-0.4425836205482483
1772623333192876300,3.903876220703125,-0.4208027124404907,-0.3649626672267914,-0.3319336771965027
1772623333202906400,3.91390625,-0.5102361440658569,0.04247462376952171,-0.16035978496074677
1772623333212936200,3.923936279296875,-0.49049851298332214,0.427304744720459,0.00989239476621151
1772623333222966300,3.93396630859375,-0.3773953914642334,0.6985399723052979,0.15308444201946259
1772623333232995300,3.943995361328125,-0.20158882439136505,0.8069939017295837,0.23972360789775848
1772623333243025400,3.954025390625,-0.002071445807814598,0.7494097352027893,0.2559092044830322
1772623333253055200,3.96405517578125,0.19226720929145813,0.54193115234375,0.19705119729042053
1772623333263085300,3.974085205078125,0.3529812693595886,0.2595321834087372,0.08565570414066315
1772623333273115100,3.984115234375,0.45806434750556946,0.00032788049429655075,-0.055486343801021576
1772623333283144200,3.994144287109375,0.4751107096672058,-0.21451438963413239,-0.20203876495361328
1772623333293174300,4.00417431640625,0.4269123673439026,-0.3772751986980438,-0.33707669377326965
1772623333303203300,4.014203369140625,0.33217093348503113,-0.4823896288871765,-0.4546014666557312
1772623333313233400,4.0242333984375,0.19737976789474487,-0.5470646023750305,-0.5490160584449768
1772623333323263500,4.034263427734375,0.0547533817589283,-0.5688937306404114,-0.5970059633255005
1772623333333292300,4.044292236328125,-0.05101719871163368,-0.5307832956314087,-0.5915154814720154
1772623333343322400,4.054322265625,-0.1144435778260231,-0.4271985590457916,-0.52295982837677
1772623333353352200,4.064352294921875,-0.15228989720344543,-0.26860907673835754,-0.3934032917022705
1772623333363382300,4.07438232421875,-0.16704247891902924,-0.06801632046699524,-0.23524507880210876
1772623333373412400,4.084412353515625,-0.14440234005451202,0.11550294607877731,-0.09453513473272324
1772623333383441200,4.094441162109375,-0.09273195266723633,0.21220044791698456,-0.001971642952412367
1772623333393471200,4.10447119140625,-0.03264204412698746,0.23618222773075104,0.04646356776356697
1772623333403501300,4.114501220703125,0.021044084802269936,0.21624794602394104,0.05760756507515907
1772623333413531400,4.124531494140625,0.06140942499041557,0.1561281830072403,0.030841436237096786
1772623333423560400,4.134560546875,0.08762318640947342,0.06210502237081528,-0.03478124737739563
1772623333433590500,4.144590576171875,0.0976223424077034,-0.045107658952474594,-0.12202784419059753
1772623333443620000,4.1546201171875,0.08665890991687775,-0.14418284595012665,-0.20066379010677338
1772623333453650200,4.164650146484375,0.04984121397137642,-0.21752260625362396,-0.26320287585258484
1772623333463680300,4.17468017578125,0.010716180317103863,-0.24213047325611115,-0.30358198285102844
1772623333473709300,4.184709228515625,-0.01658785715699196,-0.2304711639881134,-0.32061469554901123
1772623333483739400,4.194739501953125,-0.03356124833226204,-0.17662391066551208,-0.31577733159065247
1772623333493769500,4.20476953125,-0.04139198362827301,-0.1162167489528656,-0.2911558151245117
1772623333503799300,4.21479931640625,-0.044974733144044876,-0.0580863393843174,-0.2493220716714859
1772623333513829000,4.2248291015625,-0.04005184769630432,-0.00030737556517124176,-0.200193852186203
1772623333523858400,4.2348583984375,-0.034101009368896484,0.03690230846405029,-0.15422263741493225
1772623333533888300,4.24488818359375,-0.03893091529607773,0.051246389746665955,-0.11738286912441254
1772623333543918300,4.25491845703125,-0.05693894624710083,0.05446215718984604,-0.10365080833435059
1772623333553948400,4.264948486328125,-0.08258862048387527,0.04684554040431976,-0.1049351692199707
1772623333563978200,4.274978271484375,-0.10791901499032974,0.038680024445056915,-0.10784920305013657
1772623333574007300,4.28500732421875,-0.11731469631195068,0.0639381855726242,-0.09622438997030258
1772623333584037400,4.295037353515625,-0.11517804116010666,0.11044017225503922,-0.07307379692792892
1772623333594067500,4.3050673828125,-0.11332596093416214,0.15755608677864075,-0.03891810029745102
1772623333604097300,4.31509716796875,-0.10797460377216339,0.17683391273021698,-0.008805736899375916
1772623333614126000,4.3251259765625,-0.09638611227273941,0.1617487668991089,0.00802278146147728
1772623333624156200,4.33515625,-0.08270758390426636,0.11471173912286758,0.007228360511362553
1772623333634186200,4.345186279296875,-0.0640348270535469,0.012994187884032726,0.0015696771442890167
1772623333644216300,4.35521630859375,-0.05709756165742874,-0.13950879871845245,-0.009074977599084377
1772623333654246400,4.365246337890625,-0.05470767244696617,-0.28516486287117004,-0.005668874830007553
1772623333664275500,4.375275390625,-0.0551215298473835,-0.379425048828125,0.0002625174820423126
1772623333674305300,4.38530517578125,-0.06427355855703354,-0.43507641553878784,0.0045747337862849236
1772623333684335000,4.395335205078125,-0.10074102878570557,-0.4510495066642761,-0.003017938230186701
1772623333694365200,4.405365234375,-0.14928752183914185,-0.4219973683357239,-0.012480415403842926
1772623333704395300,4.415395263671875,-0.22064238786697388,-0.347013384103775,-0.025660134851932526
1772623333714424300,4.42542431640625,-0.2972703278064728,-0.22702652215957642,-0.03628108650445938
1772623333724454400,4.435454345703125,-0.3566790521144867,-0.06178615987300873,-0.03264107555150986
1772623333734484200,4.445484130859375,-0.38255536556243896,0.11496542394161224,-0.01005419809371233
1772623333744514300,4.455514404296875,-0.3670419454574585,0.2533464729785919,0.029467646032571793
1772623333754544400,4.46554443359375,-0.3147999346256256,0.3128388822078705,0.06385514885187149
1772623333764573400,4.475573486328125,-0.24202454090118408,0.32276713848114014,0.08393990993499756
1772623333774603300,4.485603271484375,-0.1572093367576599,0.2872575521469116,0.07314881682395935
1772623333784633300,4.49563330078125,-0.06803871691226959,0.22086575627326965,0.03882359713315964
1772623333794663200,4.5056630859375,0.013484060764312744,0.1686328947544098,-0.015208636410534382
1772623333804692200,4.515692138671875,0.07975655794143677,0.12328805774450302,-0.08043530583381653
1772623333814722300,4.525722412109375,0.11465327441692352,0.035852137953042984,-0.15113452076911926
1772623333824752400,4.53575244140625,0.12439326196908951,-0.1347816437482834,-0.22826579213142395
1772623333834782500,4.545782470703125,0.10382910817861557,-0.3848215639591217,-0.30528396368026733
1772623333844812300,4.555812255859375,0.04256361722946167,-0.6653339266777039,-0.4025929272174835
1772623333854841300,4.56584130859375,-0.07322220504283905,-0.8798577189445496,-0.49407094717025757
1772623333864871200,4.57587109375,-0.23633043467998505,-0.9519151449203491,-0.5454433560371399
1772623333874901200,4.5859013671875,-0.4149365723133087,-0.8522849678993225,-0.53131502866745
1772623333884931300,4.595931396484375,-0.5954304337501526,-0.590735912322998,-0.4620547294616699
1772623333894963200,4.605963134765625,-0.7382861375808716,-0.24387617409229279,-0.34710657596588135
1772623333904993300,4.6159931640625,-0.7867729663848877,0.12727420032024384,-0.21786338090896606
1772623333915022300,4.626022216796875,-0.7256759405136108,0.4456440806388855,-0.09911680221557617
1772623333925052400,4.636052490234375,-0.5608749985694885,0.6661349534988403,-0.012300146743655205
1772623333935082200,4.646082275390625,-0.3230815827846527,0.766498327255249,0.059203680604696274
1772623333945112300,4.6561123046875,-0.07611200213432312,0.7556933164596558,0.1173735111951828
1772623333955141400,4.666141357421875,0.13685168325901031,0.652134120464325,0.15775083005428314
1772623333965171500,4.67617138671875,0.31462302803993225,0.4975626766681671,0.196146160364151
1772623333975201300,4.686201171875,0.46081891655921936,0.34949207305908203,0.24017423391342163
1772623333985231400,4.6962314453125,0.5567225217819214,0.22366490960121155,0.28290945291519165
1772623333995261200,4.70626123046875,0.6068317294120789,0.11980849504470825,0.32507437467575073
1772623334005290200,4.716290283203125,0.6077329516410828,0.026400525122880936,0.3546711504459381
1772623334015320300,4.7263203125,0.5693247318267822,-0.057980552315711975,0.36172202229499817
1772623334025350400,4.736350341796875,0.4917135238647461,-0.14481398463249207,0.3502499461174011
1772623334035380500,4.74638037109375,0.38616427779197693,-0.22375768423080444,0.30770614743232727
1772623334045410300,4.756410400390625,0.2694656252861023,-0.28962379693984985,0.23390518128871918
1772623334055439400,4.766439453125,0.15177513659000397,-0.29809942841529846,0.139827698469162
1772623334065469200,4.77646923828125,0.04291815683245659,-0.2622886896133423,0.034216057509183884
1772623334075499300,4.786499267578125,-0.05748937651515007,-0.1870676428079605,-0.061913587152957916
1772623334085529300,4.796529296875,-0.12575764954090118,-0.0907733291387558,-0.13628901541233063
1772623334095559400,4.806559326171875,-0.15667791664600372,0.010769630782306194,-0.17835545539855957
1772623334105588200,4.816588134765625,-0.15517455339431763,0.08622390776872635,-0.19325052201747894
1772623334115618300,4.826618408203125,-0.12334349006414413,0.1291116327047348,-0.17643457651138306
1772623334125648400,4.8366484375,-0.07075564563274384,0.13961993157863617,-0.12925641238689423
1772623334135678200,4.84667822265625,-0.022582465782761574,0.12694524228572845,-0.06926295161247253
1772623334145707300,4.856707275390625,0.014164097607135773,0.1015477329492569,-0.001595756970345974
1772623334155737300,4.8667373046875,0.03407369554042816,0.07721419632434845,0.047692667692899704
1772623334165767200,4.87676708984375,0.04449038207530975,0.060106586664915085,0.05911603197455406
1772623334175797200,4.88679736328125,0.047107841819524765,0.04232101887464523,0.03445015102624893
1772623334185827300,4.896827392578125,0.04242626950144768,0.02352602407336235,-0.018587501719594002
1772623334195856400,4.9068564453125,0.01914837770164013,-0.00454529095441103,-0.09286333620548248
1772623334205886500,4.916886474609375,-0.009346695616841316,-0.032905589789152145,-0.1714499145746231
1772623334215916300,4.926916259765625,-0.05186527967453003,-0.05915542319417,-0.23884114623069763
1772623334225946000,4.936946044921875,-0.11168786883354187,-0.07364381849765778,-0.28661373257637024
1772623334235976200,4.94697607421875,-0.184529647231102,-0.08202700316905975,-0.322006493806839
1772623334246005200,4.957005126953125,-0.25446638464927673,-0.07574620842933655,-0.3407250642776489
1772623334256035300,4.967035400390625,-0.3167702853679657,-0.04389296472072601,-0.3398650288581848
1772623334266065400,4.9770654296875,-0.3693291246891022,0.002317940816283226,-0.3106600046157837
1772623334276095500,4.987095458984375,-0.3996151089668274,0.04517533257603645,-0.27023375034332275
1772623334286125000,4.997125,-0.39911630749702454,0.06147254630923271,-0.23184481263160706
1772623334296154600,5.007154541015625,-0.36712804436683655,0.05898169428110123,-0.19356149435043335
1772623334306184400,5.017184326171875,-0.3079797625541687,0.046509843319654465,-0.16372743248939514
1772623334316214500,5.027214599609375,-0.2537737488746643,0.02021065354347229,-0.1503739207983017
1772623334326244600,5.03724462890625,-0.20288711786270142,-0.024595431983470917,-0.15760067105293274
1772623334336273700,5.047273681640625,-0.1603272408246994,-0.053163811564445496,-0.17386722564697266
1772623334346303700,5.0573037109375,-0.11406386643648148,-0.05624295771121979,-0.19696509838104248
1772623334356333800,5.067333740234375,-0.07291539013385773,-0.047028183937072754,-0.2234164923429489
1772623334366363600,5.07736376953125,-0.04461291804909706,-0.033006906509399414,-0.2380039542913437
1772623334376393500,5.0873935546875,-0.031217802315950394,-0.02272902801632881,-0.23723739385604858
1772623334386422500,5.097422607421875,-0.03319040685892105,-0.032378725707530975,-0.2276066094636917
1772623334396452600,5.10745263671875,-0.04134248569607735,-0.06124357879161835,-0.21340730786323547
1772623334406482700,5.117482666015625,-0.052460916340351105,-0.07918103784322739,-0.1960807740688324
1772623334416512800,5.1275126953125,-0.07302303612232208,-0.09120446443557739,-0.15334676206111908
1772623334426542600,5.13754248046875,-0.08891864120960236,-0.06540775299072266,-0.09474202245473862
1772623334436571600,5.147571533203125,-0.08610009402036667,-0.011583848856389523,-0.01568968966603279
1772623334446601700,5.157601806640625,-0.06663770973682404,0.05568547174334526,0.06847312301397324
1772623334456631600,5.167631591796875,-0.03592309355735779,0.14735324680805206,0.14735016226768494
1772623334466661600,5.17766162109375,0.020376399159431458,0.22948460280895233,0.1871902495622635
1772623334476691700,5.187691650390625,0.10608645528554916,0.29821380972862244,0.1937345415353775
1772623334486720500,5.197720458984375,0.22501684725284576,0.3583735525608063,0.16533538699150085
1772623334496750600,5.20775048828125,0.33564701676368713,0.40294793248176575,0.1112217828631401
1772623334506780700,5.21778076171875,0.40933749079704285,0.41704246401786804,0.035030342638492584
1772623334516810800,5.227810791015625,0.43863362073898315,0.370591938495636,-0.06945496797561646
1772623334526839800,5.23783984375,0.44623667001724243,0.256877601146698,-0.21884605288505554
1772623334536869600,5.24786962890625,0.4340129792690277,0.0607362724840641,-0.3882831931114197
1772623334546899500,5.2578994140625,0.3756615221500397,-0.21043424308300018,-0.5381723046302795
1772623334556929500,5.267929443359375,0.27589625120162964,-0.4560650587081909,-0.6414309144020081
1772623334566959600,5.277959716796875,0.13835997879505157,-0.5432848930358887,-0.6626831889152527
1772623334576988700,5.28798876953125,-0.022750113159418106,-0.4660463333129883,-0.6037757396697998
1772623334587018800,5.298018798828125,-0.17084263265132904,-0.2699905335903168,-0.45931577682495117
1772623334597048600,5.308048583984375,-0.24912233650684357,0.02277193032205105,-0.23706850409507751
1772623334607078700,5.31807861328125,-0.2314080446958542,0.3249030113220215,0.014141623862087727
1772623334617108500,5.3281083984375,-0.11877026408910751,0.5532118082046509,0.24273887276649475
1772623334627137500,5.338137451171875,0.05442415922880173,0.6522603631019592,0.41178837418556213
1772623334637167600,5.348167724609375,0.24288806319236755,0.6170672178268433,0.5097683668136597
1772623334647197700,5.35819775390625,0.4031118154525757,0.46964794397354126,0.5302723050117493
1772623334657227500,5.3682275390625,0.5184517502784729,0.2693321704864502,0.49375566840171814
1772623334667257600,5.378257568359375,0.5694379210472107,0.048332422971725464,0.41966918110847473
1772623334677286700,5.38828662109375,0.5245895385742188,-0.18637971580028534,0.33223992586135864
1772623334687316700,5.398316650390625,0.4172942042350769,-0.3818717300891876,0.23866549134254456
1772623334697346600,5.4083466796875,0.29914960265159607,-0.4629592001438141,0.14853395521640778
1772623334707376600,5.418376708984375,0.19346794486045837,-0.42301470041275024,0.07383522391319275
1772623334717405400,5.428405517578125,0.10349296033382416,-0.29053452610969543,0.035469744354486465
1772623334727435500,5.438435546875,0.040106531232595444,-0.11590626090765,0.03687269613146782
1772623334737465600,5.448465576171875,0.00791870802640915,0.04752146080136299,0.05727421119809151
1772623334747495700,5.45849560546875,0.009001016616821289,0.1743859350681305,0.06958334147930145
1772623334757525800,5.46852587890625,0.035915639251470566,0.2654763460159302,0.0705660730600357
1772623334767554600,5.478554443359375,0.07522256672382355,0.28687429428100586,0.061127033084630966
1772623334777584600,5.488584716796875,0.12535713613033295,0.24732083082199097,0.041739571839571
1772623334787614500,5.498614501953125,0.18944931030273438,0.17351824045181274,0.021004198119044304
1772623334797644500,5.50864453125,0.24847081303596497,0.11046209931373596,0.012993946671485901
1772623334807674600,5.518674560546875,0.2789091467857361,0.0644376203417778,0.017157265916466713
1772623334817703700,5.52870361328125,0.28514575958251953,0.05877494439482689,0.02389034628868103
1772623334827733500,5.5387333984375,0.28528904914855957,0.046518806368112564,0.036074843257665634
1772623334837763600,5.548763671875,0.27688395977020264,0.020818065851926804,0.032006729394197464
1772623334847793700,5.558793701171875,0.25781306624412537,-0.008774715475738049,0.014306295663118362
1772623334857823500,5.568823486328125,0.2322256863117218,-0.037796780467033386,-0.0005402956157922745
1772623334867852800,5.578852783203125,0.1971750259399414,-0.06856587529182434,-0.010283470153808594
1772623334877882600,5.588882568359375,0.1680360585451126,-0.11456908285617828,-0.01207365095615387
1772623334887912400,5.598912353515625,0.1465965360403061,-0.1491108238697052,-0.012874197214841843
1772623334897942500,5.608942626953125,0.1248740702867508,-0.14836812019348145,-0.007869178429245949
1772623334907971600,5.6189716796875,0.10324494540691376,-0.11155152320861816,-0.008491558954119682
1772623334918001700,5.629001708984375,0.08242220431566238,-0.057218827307224274,0.001408470794558525
1772623334928031700,5.63903173828125,0.05998268350958824,-0.0007145395502448082,0.0020652059465646744
1772623334938061800,5.649061767578125,0.048340730369091034,0.03737114742398262,0.003588964231312275
1772623334948091600,5.659091552734375,0.04078827425837517,0.05254343897104263,0.0023841504007577896
1772623334958120700,5.66912060546875,0.042137060314416885,0.05947502702474594,-0.004010151606053114
1772623334968150500,5.679150634765625,0.05078248307108879,0.0633949339389801,-0.000590653158724308
1772623334978180600,5.6891806640625,0.06370542198419571,0.07086903601884842,0.015130091458559036
1772623334988210700,5.699210693359375,0.07495620846748352,0.07751176506280899,0.047678712755441666
1772623334998240800,5.70924072265625,0.07169036567211151,0.07384133338928223,0.07117711007595062
1772623335008269600,5.71926953125,0.057807572185993195,0.06256365031003952,0.06819223612546921
1772623335018299600,5.729299560546875,0.043246880173683167,0.044672466814517975,0.02643827348947525
1772623335028329700,5.739329833984375,0.039273977279663086,0.014432539232075214,-0.048148877918720245
1772623335038359600,5.749359619140625,0.028993045911192894,-0.03794662654399872,-0.13692177832126617
1772623335048389600,5.7593896484375,0.01109527237713337,-0.1216612309217453,-0.21422135829925537
1772623335058418400,5.76941845703125,-0.01495998166501522,-0.22183974087238312,-0.2551249563694
1772623335068448500,5.779448486328125,-0.05833621695637703,-0.3160450756549835,-0.24313513934612274
1772623335078478600,5.789478515625,-0.1264415979385376,-0.3892090618610382,-0.17167939245700836
1772623335088508700,5.7995087890625,-0.20215526223182678,-0.43316373229026794,-0.038823340088129044
1772623335098537700,5.809537841796875,-0.2754825949668884,-0.41115498542785645,0.11851076036691666
1772623335108567800,5.81956787109375,-0.32994452118873596,-0.3278379738330841,0.2710944414138794
1772623335118597600,5.82959765625,-0.35346105694770813,-0.21044670045375824,0.402165025472641
1772623335128627500,5.83962744140625,-0.3336583375930786,-0.0804026797413826,0.49255508184432983
1772623335138657500,5.849657470703125,-0.2928903102874756,0.03753446042537689,0.5351009964942932
1772623335148686600,5.8596865234375,-0.23573005199432373,0.12956930696964264,0.5332586169242859
1772623335158716700,5.869716552734375,-0.15463653206825256,0.157701313495636,0.5014821887016296
1772623335168746800,5.879746826171875,-0.06185678392648697,0.13165906071662903,0.4501614272594452
1772623335178776800,5.88977685546875,0.019774379208683968,0.09028736501932144,0.39416301250457764
1772623335188806700,5.899806640625,0.08385695517063141,0.052028123289346695,0.3393239974975586
1772623335198835700,5.909835693359375,0.12549139559268951,0.017872728407382965,0.29622945189476013
1772623335208865500,5.919865478515625,0.14750267565250397,-0.03301016241312027,0.2461545765399933
1772623335218895600,5.9298955078125,0.15395328402519226,-0.10769008100032806,0.18599504232406616
1772623335228925700,5.93992578125,0.12942104041576385,-0.2153896540403366,0.09166267514228821
1772623335238954500,5.94995458984375,0.05549291521310806,-0.33911141753196716,-0.03920989856123924
1772623335248984600,5.959984619140625,-0.06695763021707535,-0.44952392578125,-0.18790510296821594
1772623335259014700,5.9700146484375,-0.21057240664958954,-0.5013877153396606,-0.3397667706012726
1772623335269044700,5.980044677734375,-0.3552587330341339,-0.46730276942253113,-0.4697705805301666
1772623335279074600,5.990074462890625,-0.4759295582771301,-0.3504622280597687,-0.5284487009048462
1772623335289104000,6.000103759765625,-0.5848919749259949,-0.18258480727672577,-0.514865517616272
1772623335299133700,6.0101337890625,-0.6628440022468567,-0.015785664319992065,-0.4448661208152771
1772623335309163800,6.020163818359375,-0.6682193279266357,0.13285121321678162,-0.3395569920539856
1772623335319193900,6.03019384765625,-0.5940192341804504,0.2269914299249649,-0.22112247347831726
1772623335329224000,6.040223876953125,-0.44008907675743103,0.25933924317359924,-0.10397055000066757
1772623335339252700,6.050252685546875,-0.2207048535346985,0.240011066198349,0.01198298204690218
1772623335349282800,6.06028271484375,0.02207930013537407,0.16916565597057343,0.12149057537317276
1772623335359313000,6.07031298828125,0.23001542687416077,0.05816798284649849,0.21314610540866852
1772623335369342700,6.0803427734375,0.3865504562854767,-0.040901076048612595,0.2964055836200714
1772623335379372800,6.090372802734375,0.49092793464660645,-0.09409672021865845,0.3591526746749878
1772623335389401900,6.10040185546875,0.5506429076194763,-0.07299275696277618,0.4022282361984253
1772623335399431700,6.110431640625,0.5639569163322449,-0.011467022821307182,0.4073762893676758
1772623335409461800,6.120461669921875,0.535783588886261,0.055172454565763474,0.38580042123794556
1772623335419491800,6.130491943359375,0.482170045375824,0.13218243420124054,0.32950249314308167
1772623335429521000,6.14052099609375,0.41722142696380615,0.1817752867937088,0.25124815106391907
1772623335439551000,6.150551025390625,0.33978715538978577,0.1984635442495346,0.17804042994976044
1772623335449580800,6.160580810546875,0.2674354612827301,0.17913244664669037,0.10243381559848785
1772623335459610600,6.170610595703125,0.19541501998901367,0.1395818442106247,0.030124381184577942
1772623335469640700,6.180640625,0.1275494247674942,0.0964152067899704,-0.031828202307224274
1772623335479669800,6.190669677734375,0.0763154849410057,0.07172790914773941,-0.08024303615093231
1772623335489699800,6.200699951171875,0.0373302660882473,0.05180267244577408,-0.11783461272716522
1772623335499730000,6.21072998046875,0.014004966244101524,0.04121870547533035,-0.1423303782939911
1772623335509760000,6.220760009765625,-0.005075783468782902,0.04578949138522148,-0.14962850511074066
1772623335519789600,6.23078955078125,-0.01795072853565216,0.05533836781978607,-0.14668112993240356
1772623335529819000,6.24081884765625,-0.02575591951608658,0.055762879550457,-0.14679405093193054
1772623335539848700,6.2508486328125,-0.02611834928393364,0.04192965477705002,-0.15002650022506714
1772623335549878800,6.260878662109375,-0.02877352014183998,0.027992265298962593,-0.16713199019432068
1772623335559908900,6.270908935546875,-0.028973475098609924,0.020146090537309647,-0.18972794711589813
1772623335569939000,6.28093896484375,-0.024930797517299652,0.004252343438565731,-0.21973246335983276
1772623335579967700,6.2909677734375,-0.017972081899642944,-0.0033577298745512962,-0.24020804464817047
1772623335589997800,6.300997802734375,-0.013320072554051876,-0.0016133589670062065,-0.25142741203308105
1772623335600028000,6.31102783203125,-0.023691624402999878,0.010281236842274666,-0.24893587827682495
1772623335610057700,6.3210576171875,-0.0544668473303318,0.022858280688524246,-0.2581765353679657
1772623335620086800,6.331086669921875,-0.09113165736198425,0.028354216367006302,-0.26868802309036255
1772623335630116600,6.34111669921875,-0.133721724152565,0.04273022711277008,-0.2926445007324219
1772623335640146700,6.351146728515625,-0.18939946591854095,0.06641389429569244,-0.3176015615463257
1772623335650176800,6.3611767578125,-0.24299664795398712,0.10831473767757416,-0.33516696095466614
1772623335660206800,6.371206787109375,-0.2817673683166504,0.17418651282787323,-0.34198275208473206
1772623335670236000,6.38123583984375,-0.29664963483810425,0.24333202838897705,-0.32956522703170776
1772623335680266000,6.391265869140625,-0.27562031149864197,0.303440123796463,-0.3076547384262085
1772623335690295800,6.4012958984375,-0.21962948143482208,0.3422764539718628,-0.28322502970695496
1772623335700325600,6.41132568359375,-0.14673450589179993,0.35917818546295166,-0.24929822981357574
1772623335710355700,6.421355712890625,-0.07635435461997986,0.3459553122520447,-0.2074250876903534
1772623335720384800,6.431384765625,-0.009997604414820671,0.31777140498161316,-0.15353170037269592
1772623335730414800,6.441414794921875,0.05523519217967987,0.2724156379699707,-0.0842897891998291
1772623335740445000,6.45144482421875,0.11225680261850357,0.21091298758983612,0.0028838589787483215
1772623335750474800,6.461474853515625,0.1640891134738922,0.12717653810977936,0.1006716713309288
1772623335760504800,6.4715048828125,0.20069196820259094,0.03246403858065605,0.20054186880588531
1772623335770534000,6.481533935546875,0.2347620576620102,-0.05557980015873909,0.29835736751556396
1772623335780563700,6.491563720703125,0.2573780417442322,-0.14421498775482178,0.37306085228919983
1772623335790593800,6.50159375,0.27358657121658325,-0.250072181224823,0.4210512936115265
1772623335800623900,6.511623779296875,0.28325244784355164,-0.371332049369812,0.4321335256099701
1772623335810652700,6.521652587890625,0.2661527991294861,-0.47982069849967957,0.4302102029323578
1772623335820682800,6.531682861328125,0.2230958491563797,-0.5534441471099854,0.42543843388557434
1772623335830712800,6.541712890625,0.1680525690317154,-0.5919247269630432,0.4390099048614502
1772623335840743000,6.551742919921875,0.1159478947520256,-0.5533356666564941,0.4721931517124176
1772623335850772700,6.561772705078125,0.07232717424631119,-0.4365217387676239,0.5083346366882324
1772623335860801800,6.5718017578125,0.04667787626385689,-0.25928953289985657,0.5390855073928833
1772623335870831600,6.58183154296875,0.0694257989525795,-0.03798059746623039,0.5312161445617676
1772623335880861700,6.59186181640625,0.13546928763389587,0.19440366327762604,0.4694308638572693
1772623335890891800,6.601891845703125,0.21999962627887726,0.3966987133026123,0.3568291962146759
1772623335900921900,6.611921875,0.29021260142326355,0.5459383726119995,0.22088973224163055
1772623335910951000,6.621950927734375,0.30859214067459106,0.6280463337898254,0.08613377809524536
1772623335920980700,6.631980712890625,0.2885262072086334,0.6339163780212402,-0.05113803967833519
1772623335931010800,6.6420107421875,0.26106715202331543,0.5382212400436401,-0.18300233781337738
1772623335941040600,6.65204052734375,0.2400258630514145,0.32254332304000854,-0.29794490337371826
1772623335951070000,6.662070068359375,0.19446024298667908,0.008208825252950191,-0.37294697761535645
1772623335961099800,6.672099853515625,0.12208732217550278,-0.3193007707595825,-0.36983034014701843
1772623335971129900,6.6821298828125,0.0545991025865078,-0.5157333612442017,-0.29763469099998474
1772623335981159700,6.69215966796875,-0.017372289672493935,-0.5314998030662537,-0.1755378097295761
1772623335991189800,6.702189697265625,-0.10328879207372665,-0.4214193820953369,-0.019810527563095093
1772623336001218800,6.71221875,-0.16310076415538788,-0.18956542015075684,0.16811908781528473
1772623336011249000,6.722248779296875,-0.15456479787826538,0.11806003749370575,0.3417840898036957
1772623336021279000,6.732279052734375,-0.08202295005321503,0.3892417252063751,0.4601229727268219
1772623336031308800,6.742308837890625,0.018333211541175842,0.5556229948997498,0.4953126311302185
1772623336041338600,6.752338623046875,0.12360936403274536,0.6095414161682129,0.4795586168766022
1772623336051367700,6.76236767578125,0.22024428844451904,0.5670120716094971,0.4189535677433014
1772623336061397800,6.772397705078125,0.29047301411628723,0.46790072321891785,0.3091701567173004
1772623336071427800,6.782427734375,0.3281759023666382,0.31506162881851196,0.1669216752052307
1772623336081458000,6.7924580078125,0.31358298659324646,0.13742202520370483,0.017434310168027878
1772623336091488000,6.802488037109375,0.2601437270641327,-0.06277710944414139,-0.1278507113456726
1772623336101516800,6.812516845703125,0.18423891067504883,-0.24838869273662567,-0.23504678905010223
1772623336111547000,6.822546875,0.11542469263076782,-0.3489890694618225,-0.3035275638103485
1772623336121576700,6.83257666015625,0.05768869072198868,-0.36056530475616455,-0.3319584131240845
1772623336131606800,6.842606689453125,-0.004650048445910215,-0.2975064516067505,-0.3245529532432556
1772623336141636900,6.852636962890625,-0.05594348907470703,-0.18711510300636292,-0.28131115436553955
1772623336151665700,6.862665771484375,-0.07912523299455643,-0.054124027490615845,-0.218735933303833
1772623336161695700,6.87269580078125,-0.0680394098162651,0.05786733701825142,-0.15778875350952148
1772623336171725800,6.882725830078125,-0.033673714846372604,0.14445975422859192,-0.10749095678329468
1772623336181756000,6.892755859375,0.03225419670343399,0.20747816562652588,-0.0609516017138958
1772623336191785000,6.902784912109375,0.11819733679294586,0.24884983897209167,-0.023448169231414795
1772623336201814800,6.912814697265625,0.22097674012184143,0.26103779673576355,0.00593384075909853
1772623336211844600,6.9228447265625,0.3065454363822937,0.2680317759513855,0.03206930682063103
1772623336221874700,6.932874755859375,0.37113818526268005,0.27037930488586426,0.04130137339234352
1772623336231904800,6.94290478515625,0.4068778157234192,0.23811590671539307,0.04617868736386299
1772623336241933800,6.952933837890625,0.415277361869812,0.17323538661003113,0.041770197451114655
1772623336251964000,6.9629638671875,0.4042239189147949,0.0768558531999588,0.03101901337504387
1772623336261994000,6.972993896484375,0.378235787153244,-0.025512833148241043,0.03268897160887718
1772623336272023600,6.9830234375,0.3303324580192566,-0.11389249563217163,0.036069054156541824
1772623336282053600,6.9930537109375,0.26703718304634094,-0.17133060097694397,0.037245698273181915
1772623336292082700,7.003082763671875,0.22231021523475647,-0.20056065917015076,0.04185349866747856
1772623336302112500,7.013112548828125,0.18392011523246765,-0.2249521166086197,0.033281076699495316
1772623336312142600,7.023142578125,0.1475117802619934,-0.2785583436489105,0.012371799908578396
1772623336322172700,7.033172607421875,0.11595433205366135,-0.34061968326568604,0.0036436589434742928
1772623336332202800,7.04320263671875,0.09467487782239914,-0.39273110032081604,-0.003915191628038883
1772623336342231600,7.0532314453125,0.09194290637969971,-0.432659387588501,-0.008884166367352009
1772623336352261600,7.06326171875,0.09516613185405731,-0.454173743724823,-0.010966491885483265
1772623336362291500,7.07329150390625,0.10031644999980927,-0.4230192303657532,0.00006946176290512085
1772623336372321500,7.083321533203125,0.09301645308732986,-0.35706180334091187,0.02105730213224888
1772623336382350600,7.0933505859375,0.08449139446020126,-0.26577553153038025,0.04609759524464607
1772623336392380700,7.103380615234375,0.06978382170200348,-0.16330721974372864,0.07265464216470718
1772623336402410800,7.11341064453125,0.06100590527057648,-0.0709792971611023,0.09046386182308197
1772623336412440600,7.123440673828125,0.06785449385643005,0.0018818601965904236,0.09828902781009674
1772623336422470700,7.133470703125,0.08786427229642868,0.05833430960774422,0.09211993962526321
1772623336432499700,7.143499755859375,0.12777148187160492,0.07811333984136581,0.08180951327085495
1772623336442529800,7.15352978515625,0.15526308119297028,0.04553338140249252,0.07289901375770569
1772623336452559600,7.1635595703125,0.1806480586528778,-0.022717580199241638,0.06727361679077148
1772623336462589700,7.173589599609375,0.19226449728012085,-0.12043434381484985,0.07122014462947845
1772623336472619500,7.18361962890625,0.1836201399564743,-0.2265906035900116,0.08215588331222534
1772623336482648600,7.193648681640625,0.16185270249843597,-0.3225369155406952,0.09480878710746765
1772623336492678700,7.2036787109375,0.11883997917175293,-0.4003683030605316,0.08959325402975082
1772623336502708700,7.213708740234375,0.04301081597805023,-0.4299415647983551,0.0737181231379509
1772623336512738800,7.22373876953125,-0.06888455897569656,-0.36037927865982056,0.04742898792028427
1772623336522768600,7.2337685546875,-0.18083494901657104,-0.1951579600572586,0.004432308487594128
1772623336532797700,7.243797607421875,-0.27514228224754333,0.014857846312224865,-0.03879239410161972
1772623336542827500,7.25382763671875,-0.31907719373703003,0.19926872849464417,-0.08097715675830841
1772623336552857600,7.263857666015625,-0.30222657322883606,0.3015176057815552,-0.10699118673801422
1772623336562887700,7.2738876953125,-0.23768946528434753,0.3428705036640167,-0.1148725226521492
1772623336572916700,7.283916748046875,-0.15014471113681793,0.35255029797554016,-0.1001439094543457
1772623336582946600,7.293946533203125,-0.0367426835000515,0.33798855543136597,-0.09423410147428513
1772623336592976600,7.3039765625,0.07916181534528732,0.29063063859939575,-0.10191226750612259
1772623336603006700,7.3140068359375,0.16779407858848572,0.18312589824199677,-0.12726116180419922
1772623336613036500,7.32403662109375,0.21191813051700592,0.03319338336586952,-0.1715567260980606
1772623336623065600,7.334065673828125,0.19854585826396942,-0.1310805380344391,-0.2345127910375595
1772623336633095700,7.344095703125,0.13522255420684814,-0.2868773341178894,-0.3078589141368866
1772623336643125500,7.35412548828125,0.005786753259599209,-0.41400569677352905,-0.3990260064601898
1772623336653155600,7.364155517578125,-0.1661442518234253,-0.43116846680641174,-0.4737361967563629
1772623336663185700,7.374185546875,-0.3400711417198181,-0.3162764012813568,-0.5057852268218994
1772623336673214700,7.384214599609375,-0.4795832335948944,-0.08209000527858734,-0.4872954785823822
1772623336683244800,7.394244873046875,-0.5789744257926941,0.20856857299804688,-0.44864869117736816
1772623336693274600,7.404274658203125,-0.6205117702484131,0.46012091636657715,-0.4142390489578247
1772623336703304400,7.414304443359375,-0.5789677500724792,0.6214168667793274,-0.3861565589904785
1772623336713334500,7.42433447265625,-0.48160848021507263,0.6827830076217651,-0.35273972153663635
1772623336723363600,7.434363525390625,-0.3572501242160797,0.6398003697395325,-0.3076786696910858
1772623336733393700,7.4443935546875,-0.22607769072055817,0.5277464985847473,-0.2447204738855362
1772623336743423700,7.454423828125,-0.11588451266288757,0.3654162883758545,-0.17953741550445557
1772623336753453800,7.464453857421875,-0.0075002494268119335,0.16832105815410614,-0.10476039350032806
1772623336763482600,7.474482666015625,0.09510708600282669,-0.02916804887354374,-0.01218118704855442
1772623336773512700,7.4845126953125,0.18879848718643188,-0.17694778740406036,0.10937390476465225
1772623336783542500,7.49454248046875,0.25018247961997986,-0.22705627977848053,0.2511959969997406
1772623336793572600,7.504572509765625,0.2708480954170227,-0.20252616703510284,0.36734098196029663
1772623336803602700,7.514602783203125,0.24810710549354553,-0.1666131466627121,0.43305110931396484
1772623336813631500,7.524631591796875,0.20851922035217285,-0.11940541863441467,0.4354402422904968
1772623336823661600,7.53466162109375,0.15430782735347748,-0.05870863050222397,0.38105878233909607
1772623336833691600,7.544691650390625,0.09468097984790802,-0.0044328756630420685,0.28804945945739746
1772623336843721700,7.5547216796875,0.02688066102564335,0.03300829976797104,0.17927460372447968
1772623336853751600,7.56475146484375,-0.04515145719051361,0.049036264419555664,0.07483422756195068
1772623336863780900,7.57478076171875,-0.11196745187044144,0.03164348751306534,-0.009196605533361435
1772623336873810400,7.584810546875,-0.1788966953754425,-0.002667614258825779,-0.07631811499595642
1772623336883840500,7.594840576171875,-0.24057577550411224,-0.029414834454655647,-0.11760172247886658
1772623336893870600,7.60487060546875,-0.29089194536209106,-0.03636941313743591,-0.13027676939964294
1772623336903900700,7.614900634765625,-0.32270753383636475,-0.023557893931865692,-0.1375264823436737
1772623336913929700,7.6249296875,-0.3364230692386627,-0.009209580719470978,-0.1475258469581604
1772623336923959800,7.634959716796875,-0.33928072452545166,0.0029716845601797104,-0.17445258796215057
1772623336933989600,7.64498974609375,-0.3378886878490448,0.017939448356628418,-0.20859484374523163
1772623336944019500,7.65501953125,-0.3407372832298279,0.024502962827682495,-0.24227866530418396
1772623336954049500,7.665049560546875,-0.35162001848220825,0.001340385526418686,-0.28064149618148804
1772623336964078600,7.67507861328125,-0.3583296239376068,-0.01528416108340025,-0.3300304412841797
1772623336974108700,7.685108642578125,-0.36020687222480774,-0.014956592582166195,-0.36960235238075256
1772623336984138800,7.695138671875,-0.37566646933555603,-0.0008447412401437759,-0.400922030210495
1772623336994168600,7.70516845703125,-0.39547640085220337,0.02036307379603386,-0.4254188537597656
1772623337004197600,7.71519775390625,-0.4238608181476593,0.05303299054503441,-0.43895572423934937
1772623337014227700,7.725227783203125,-0.43807491660118103,0.08356453478336334,-0.44996178150177
1772623337024257500,7.735257568359375,-0.44638580083847046,0.11313553154468536,-0.4477382302284241
1772623337034287600,7.74528759765625,-0.4538112282752991,0.14205053448677063,-0.44129177927970886
1772623337044317700,7.755317626953125,-0.45611974596977234,0.16931746900081635,-0.42890679836273193
1772623337054346500,7.765346435546875,-0.4530693590641022,0.20298807322978973,-0.40715330839157104
1772623337064376600,7.77537646484375,-0.4288301467895508,0.2527523636817932,-0.37304553389549255
1772623337074406700,7.78540673828125,-0.3883594274520874,0.30189675092697144,-0.3315010368824005
1772623337084436700,7.795436767578125,-0.3311998248100281,0.33440402150154114,-0.2816787660121918
1772623337094466600,7.805466552734375,-0.25028181076049805,0.3287557065486908,-0.22792071104049683
1772623337104495600,7.81549560546875,-0.15405629575252533,0.29312649369239807,-0.16633448004722595
1772623337114525400,7.825525390625,-0.059528451412916183,0.2249450385570526,-0.08941254019737244
1772623337124555500,7.835555419921875,0.027263198047876358,0.12815330922603607,-0.022824373096227646
1772623337134585600,7.845585693359375,0.10228923708200455,0.025755830109119415,0.0473235547542572
1772623337144615700,7.85561572265625,0.16564533114433289,-0.06414473056793213,0.12605732679367065
1772623337154644700,7.865644775390625,0.21213720738887787,-0.15916605293750763,0.1976122111082077
1772623337164674600,7.875674560546875,0.23519738018512726,-0.2469349354505539,0.25161033868789673
1772623337174704600,7.88570458984375,0.23469483852386475,-0.31506553292274475,0.2852196991443634
1772623337184734500,7.895734375,0.21248304843902588,-0.30608901381492615,0.29656484723091125
1772623337194763800,7.905763671875,0.1832151710987091,-0.22346630692481995,0.29102492332458496
1772623337204793600,7.915793701171875,0.15743309259414673,-0.10821916162967682,0.27419933676719666
1772623337214823700,7.92582373046875,0.1343325674533844,0.007162556052207947,0.2699473202228546
1772623337224853500,7.935853515625,0.11197984218597412,0.11308129131793976,0.27160027623176575
1772623337234883600,7.945883544921875,0.09289643168449402,0.2159903645515442,0.2707430124282837
1772623337244912600,7.95591259765625,0.07827477157115936,0.34515413641929626,0.26390182971954346
1772623337254942700,7.965942626953125,0.07146293669939041,0.45806950330734253,0.23580200970172882
1772623337264972800,7.975972900390625,0.07820698618888855,0.5501353144645691,0.19232551753520966
1772623337275002600,7.986002685546875,0.10321620106697083,0.6028928160667419,0.1419861763715744
1772623337285029600,7.996029541015625,0.14462867379188538,0.5922753810882568,0.08870073407888412
1772623337295059700,8.006059814453126,0.19522607326507568,0.5475323796272278,0.06270455569028854
1772623337305093400,8.01609326171875,0.23521879315376282,0.5118186473846436,0.0641573965549469
1772623337315123200,8.026123291015624,0.2718055546283722,0.48893705010414124,0.10036440193653107
1772623337325153300,8.0361533203125,0.3153432309627533,0.4802267253398895,0.17125897109508514
1772623337335182000,8.04618212890625,0.35441288352012634,0.4672826826572418,0.24940916895866394
1772623337345212200,8.056212158203126,0.40013378858566284,0.4112788438796997,0.30606240034103394
1772623337355242200,8.0662421875,0.4260796308517456,0.2455415427684784,0.3039492070674896
1772623337365272300,8.076272216796875,0.3895614445209503,-0.06965227425098419,0.21642719209194183
1772623337375302400,8.086302490234376,0.2778351902961731,-0.4310789108276367,0.06938288360834122
1772623337385331500,8.09633154296875,0.09868185967206955,-0.6896945238113403,-0.09221316874027252
1772623337395361300,8.106361328125,-0.10683001577854156,-0.747248113155365,-0.21869760751724243
1772623337405391000,8.11639111328125,-0.28128689527511597,-0.5972864627838135,-0.24190205335617065
1772623337415421200,8.126421142578126,-0.4315246045589447,-0.2979857623577118,-0.15910224616527557
1772623337425450200,8.1364501953125,-0.5078584551811218,0.07527071237564087,-0.015357431024312973
1772623337435480300,8.146480224609375,-0.47978848218917847,0.41902196407318115,0.12275996804237366
1772623337445510400,8.156510498046876,-0.35236573219299316,0.6379088759422302,0.22510094940662384
1772623337455540200,8.166540283203124,-0.15123794972896576,0.6757513284683228,0.2720404863357544
1772623337465570300,8.1765703125,0.06039798632264137,0.5622208118438721,0.26188886165618896
1772623337475599400,8.186599365234375,0.23738713562488556,0.32386529445648193,0.21464437246322632
1772623337485629400,8.19662939453125,0.36470523476600647,0.04505901411175728,0.15280182659626007
1772623337495659300,8.2066591796875,0.41134998202323914,-0.23035764694213867,0.0968402847647667
1772623337505689300,8.216689453125,0.3557203412055969,-0.4680130183696747,0.05091610178351402
1772623337515719400,8.226719482421874,0.2254510074853897,-0.5939695835113525,0.0074407970532774925
1772623337525748200,8.236748291015624,0.038941606879234314,-0.6527423858642578,-0.05539108067750931
1772623337535778300,8.2467783203125,-0.17326787114143372,-0.6674632430076599,-0.1139523983001709
1772623337545808400,8.256808349609376,-0.3784288763999939,-0.6225267648696899,-0.14108747243881226
1772623337555838500,8.26683837890625,-0.5195364356040955,-0.47451016306877136,-0.12248236685991287
1772623337565868300,8.276868408203125,-0.5873910188674927,-0.2784561812877655,-0.0837213397026062
1772623337575897300,8.2868974609375,-0.6017060279846191,-0.11008686572313309,-0.04250519350171089
1772623337585927200,8.29692724609375,-0.5641265511512756,0.01174230594187975,0.003409062512218952
1772623337595957200,8.306957275390625,-0.48783576488494873,0.12161421030759811,0.03266201913356781
1772623337605987300,8.3169873046875,-0.3917562663555145,0.18991748988628387,0.031189538538455963
1772623337616017400,8.327017333984376,-0.2974441647529602,0.20564211905002594,0.0027839969843626022
1772623337626046200,8.337046142578124,-0.21779689192771912,0.20536024868488312,-0.03187059611082077
1772623337636076300,8.347076171875,-0.1556922346353531,0.18934878706932068,-0.05810220167040825
1772623337646106400,8.3571064453125,-0.11882986128330231,0.15758304297924042,-0.08788734674453735
1772623337656136200,8.36713623046875,-0.10698545724153519,0.13804209232330322,-0.09971790760755539
1772623337666165200,8.377165283203125,-0.11338155716657639,0.12562647461891174,-0.11262278258800507
1772623337676195300,8.3871953125,-0.1345909833908081,0.10294326394796371,-0.13093148171901703
1772623337686225200,8.39722509765625,-0.1496315598487854,0.054695188999176025,-0.17064006626605988
1772623337696255200,8.407255126953125,-0.17186975479125977,-0.010608716867864132,-0.21107350289821625
1772623337706285300,8.417285400390625,-0.1948317587375641,-0.09851276874542236,-0.25582757592201233
1772623337716314400,8.427314453125,-0.21664732694625854,-0.1996321976184845,-0.2741259038448334
1772623337726344400,8.437344482421874,-0.25026240944862366,-0.29823821783065796,-0.2903372347354889
1772623337736374300,8.447374267578125,-0.28840261697769165,-0.37867873907089233,-0.3045116364955902
1772623337746404400,8.457404296875,-0.32595306634902954,-0.4336710274219513,-0.3224674165248871
1772623337756434200,8.46743408203125,-0.36131078004837036,-0.4510585367679596,-0.33803170919418335
1772623337766463200,8.477463134765625,-0.3759271502494812,-0.4394720792770386,-0.3537302017211914
1772623337776493300,8.487493408203125,-0.37059229612350464,-0.3918403685092926,-0.33771342039108276
1772623337786523400,8.4975234375,-0.35142338275909424,-0.3294704556465149,-0.29797250032424927
1772623337796553500,8.507553466796875,-0.31939008831977844,-0.2560438811779022,-0.22818703949451447
1772623337806583300,8.517583251953125,-0.2634081542491913,-0.17499257624149323,-0.13208940625190735
1772623337816612400,8.5276123046875,-0.19821158051490784,-0.11862943321466446,-0.027158454060554504
1772623337826642200,8.53764208984375,-0.14514249563217163,-0.11153532564640045,0.07113801687955856
1772623337836672300,8.54767236328125,-0.09206544607877731,-0.16514955461025238,0.15321902930736542
1772623337846702300,8.557702392578125,-0.04421371594071388,-0.23907648026943207,0.2127259373664856
1772623337856731100,8.567731201171876,0.00725400447845459,-0.3175047039985657,0.2501175105571747
1772623337866761200,8.57776123046875,0.051571860909461975,-0.3950027525424957,0.2641129791736603
1772623337876791300,8.587791259765625,0.09270545095205307,-0.4617098867893219,0.2669045031070709
1772623337886821400,8.5978212890625,0.12315702438354492,-0.5312192440032959,0.2768990993499756
1772623337896853200,8.607853271484375,0.1264987587928772,-0.5915382504463196,0.29028868675231934
1772623337906883300,8.61788330078125,0.0953965038061142,-0.6465511918067932,0.30590733885765076
1772623337916912400,8.627912353515624,0.041827548295259476,-0.6658007502555847,0.31351199746131897
1772623337926942500,8.6379423828125,-0.027457572519779205,-0.6185219883918762,0.3154306411743164
1772623337936972300,8.64797216796875,-0.10025028884410858,-0.5059107542037964,0.3135906755924225
1772623337947002400,8.65800244140625,-0.15960296988487244,-0.38031840324401855,0.29747626185417175
1772623337957032200,8.6680322265625,-0.19305972754955292,-0.3044723570346832,0.2592274248600006
1772623337967061200,8.678061279296875,-0.209894597530365,-0.25263914465904236,0.18402116000652313
1772623337977091300,8.68809130859375,-0.20569825172424316,-0.16840684413909912,0.09220042824745178
1772623337987121400,8.698121337890624,-0.18277350068092346,-0.05237850546836853,-0.027469247579574585
1772623337997151500,8.7081513671875,-0.14833615720272064,0.01532570831477642,-0.16706949472427368
1772623338007180300,8.71818017578125,-0.11731169372797012,-0.01345004327595234,-0.30752840638160706
1772623338017210400,8.72821044921875,-0.10618767142295837,-0.11849204450845718,-0.4331558346748352
1772623338027240200,8.738240234375,-0.1282343566417694,-0.23486758768558502,-0.5329246520996094
1772623338037270300,8.748270263671875,-0.1828739047050476,-0.32769232988357544,-0.5939845442771912
1772623338047300400,8.75830029296875,-0.25061771273612976,-0.3218162953853607,-0.6121089458465576
1772623338057329200,8.7683291015625,-0.31370478868484497,-0.1782391369342804,-0.5675023198127747
1772623338067359200,8.778359130859375,-0.38420164585113525,0.06798199564218521,-0.4730130732059479
1772623338077389300,8.788389404296876,-0.43052148818969727,0.38638606667518616,-0.3440188765525818
1772623338087419400,8.79841943359375,-0.39579710364341736,0.7050516605377197,-0.2181750237941742
1772623338097449200,8.80844921875,-0.2894275188446045,0.9308776259422302,-0.09976768493652344
1772623338107478300,8.818478271484375,-0.13904203474521637,1.0100739002227783,0.011486324481666088
1772623338117508400,8.82850830078125,0.026361843571066856,0.959382951259613,0.11529048532247543
1772623338127538200,8.8385380859375,0.19966329634189606,0.7625868320465088,0.21381165087223053
1772623338137568300,8.848568359375,0.3644905984401703,0.47317710518836975,0.3015923798084259
1772623338147598300,8.858598388671876,0.5145469307899475,0.17821253836154938,0.3985790014266968
1772623338157627400,8.86862744140625,0.6113246083259583,-0.08538047969341278,0.5006566643714905
1772623338167657500,8.878657470703125,0.6631554365158081,-0.2888091504573822,0.5988727807998657
1772623338177687300,8.888687255859375,0.6922624111175537,-0.4319692552089691,0.681280791759491
1772623338187717000,8.898717041015624,0.6972798109054565,-0.5536604523658752,0.7166076302528381
1772623338197747200,8.908747314453125,0.649416983127594,-0.6600968837738037,0.6872901916503906
1772623338207776300,8.9187763671875,0.5215018391609192,-0.7174015045166016,0.6080989241600037
1772623338217806300,8.928806396484376,0.325905978679657,-0.695549726486206,0.49015843868255615
1772623338227836400,8.93883642578125,0.08214884251356125,-0.6303916573524475,0.3662922978401184
1772623338237866500,8.948866455078125,-0.15013979375362396,-0.5175284743309021,0.2523476183414459
1772623338247896300,8.958896240234376,-0.3288516104221344,-0.3650725185871124,0.1540456861257553
1772623338257925400,8.96892529296875,-0.4462527930736542,-0.17942889034748077,0.066463902592659
1772623338267955200,8.978955078125,-0.5085734724998474,-0.007154864724725485,-0.011329850181937218
1772623338277985300,8.9889853515625,-0.49937334656715393,0.14771461486816406,-0.07174552232027054
1772623338288015400,8.999015380859374,-0.4145558774471283,0.27836233377456665,-0.11348829418420792
1772623338298044200,9.009044189453125,-0.2839195728302002,0.3620622754096985,-0.11986230313777924
1772623338308070000,9.01906982421875,-0.14244331419467926,0.3943800926208496,-0.09564699977636337
1772623338318100000,9.029099853515625,-0.04713650420308113,0.3829761743545532,-0.05006993189454079
1772623338328129800,9.0391298828125,0.0020641768351197243,0.33254459500312805,-0.00307812774553895
1772623338338159900,9.049159912109374,0.02163761295378208,0.2616235315799713,0.01895846426486969
1772623338348189000,9.05918896484375,0.03266157954931259,0.18918432295322418,0.015723764896392822
1772623338358219000,9.069218994140625,0.03019389696419239,0.13407179713249207,-0.010081201791763306
1772623338368248800,9.079248779296876,0.0037382906302809715,0.07123126089572906,-0.034239351749420166
1772623338378279000,9.08927880859375,-0.04095594584941864,0.005673820152878761,-0.0665416345000267
1772623338388308700,9.099308837890625,-0.08615688979625702,-0.0502854660153389,-0.09147229790687561
1772623338398337800,9.109337890625,-0.13290417194366455,-0.08037492632865906,-0.12339561432600021
1772623338408367900,9.119367919921874,-0.18017646670341492,-0.08516396582126617,-0.1600791960954666
1772623338418398000,9.12939794921875,-0.2305871844291687,-0.07729752361774445,-0.2085295468568802
1772623338428428000,9.139427978515625,-0.2708456516265869,-0.0638570785522461,-0.25808778405189514
1772623338438457900,9.149457763671874,-0.2947304844856262,-0.05624363571405411,-0.2865756154060364
1772623338448487000,9.15948681640625,-0.3127067983150482,-0.04863791912794113,-0.2971669137477875
1772623338458516700,9.169516845703125,-0.31932154297828674,-0.018915709108114243,-0.28456324338912964
1772623338468546800,9.179546875,-0.31828436255455017,0.023640718311071396,-0.26047030091285706
1772623338478577000,9.189576904296874,-0.30275067687034607,0.06497883796691895,-0.23460301756858826
1772623338488606000,9.19960595703125,-0.27520838379859924,0.10998401045799255,-0.21446052193641663
1772623338498635800,9.2096357421875,-0.23628762364387512,0.15072184801101685,-0.18213745951652527
1772623338508665900,9.219665771484374,-0.1822453737258911,0.17155711352825165,-0.13226614892482758
1772623338518696000,9.229696044921875,-0.12564468383789062,0.18180043995380402,-0.07220868021249771
1772623338528725800,9.239725830078125,-0.0748119056224823,0.1797923892736435,-0.004268667194992304
1772623338538754800,9.2497548828125,-0.01765887252986431,0.1564851999282837,0.05731826648116112
1772623338548785000,9.259784912109374,0.03722444921731949,0.11181765794754028,0.10474734753370285
1772623338558814700,9.269814697265625,0.07604694366455078,0.07157249748706818,0.14443804323673248
1772623338568844800,9.2798447265625,0.08901622146368027,0.008767674677073956,0.17447806894779205
1772623338578875000,9.289875,0.08444677293300629,-0.07968602329492569,0.18332988023757935
1772623338588904000,9.299904052734375,0.06831033527851105,-0.16736853122711182,0.17720304429531097
1772623338598934000,9.30993408203125,0.0452236607670784,-0.231855109333992,0.16233646869659424
1772623338608963800,9.3199638671875,-0.00214562239125371,-0.27174708247184753,0.1255130022764206
1772623338618993700,9.32999365234375,-0.06527585536241531,-0.2741391360759735,0.07770978659391403
1772623338629023700,9.340023681640625,-0.13676372170448303,-0.22165153920650482,0.023549828678369522
1772623338639052800,9.350052734375,-0.21289631724357605,-0.12882332503795624,-0.033656734973192215
1772623338649083000,9.360082763671874,-0.2814028561115265,-0.0003693653270602226,-0.08367818593978882
1772623338659113000,9.370113037109375,-0.3205718398094177,0.16440440714359283,-0.10219620913267136
1772623338669143000,9.38014306640625,-0.30215421319007874,0.32392212748527527,-0.08814272284507751
1772623338679173000,9.390173095703124,-0.2243899255990982,0.4261411726474762,-0.05128643289208412
1772623338689202000,9.400201904296875,-0.10993602871894836,0.41276678442955017,0.0031481245532631874
1772623338699231700,9.410231689453125,0.011711044237017632,0.32071009278297424,0.07100547105073929
1772623338709261800,9.42026171875,0.12095841020345688,0.22490394115447998,0.13716256618499756
1772623338719292000,9.4302919921875,0.2046288102865219,0.15978378057479858,0.19114750623703003
1772623338729320700,9.44032080078125,0.25267115235328674,0.11549538373947144,0.2171686440706253
1772623338739350800,9.450350830078126,0.2709398865699768,0.07665692269802094,0.21268388628959656
1772623338749380900,9.460380859375,0.2650349736213684,0.03007006272673607,0.15879479050636292
1772623338759411000,9.470410888671875,0.2646663784980774,-0.08841744065284729,0.06690934300422668
1772623338769440800,9.480440673828125,0.23349159955978394,-0.3151920735836029,-0.05646076798439026
1772623338779470000,9.490469970703124,0.14837856590747833,-0.614008903503418,-0.19486364722251892
1772623338789499600,9.500499755859375,0.01007629744708538,-0.8512217402458191,-0.30979838967323303
1772623338799529700,9.51052978515625,-0.1384575217962265,-0.9148688912391663,-0.33748167753219604
1772623338809559800,9.520559814453126,-0.2988637685775757,-0.8074224591255188,-0.2754344344139099
1772623338819590000,9.53058984375,-0.45561397075653076,-0.4869794547557831,-0.12518423795700073
1772623338829619000,9.540618896484375,-0.5330473780632019,-0.025053437799215317,0.07015169411897659
1772623338839649000,9.55064892578125,-0.4848354160785675,0.4487229287624359,0.23730899393558502
1772623338849679000,9.56067919921875,-0.33126938343048096,0.8213722705841064,0.3401786684989929
1772623338859708700,9.570708740234375,-0.12468556314706802,1.024939775466919,0.3813684582710266
1772623338869738800,9.58073876953125,0.08639350533485413,1.0566176176071167,0.3602893054485321
1772623338879767800,9.590767822265626,0.2747684717178345,0.9034180045127869,0.30006590485572815
1772623338889798000,9.6007978515625,0.4277500808238983,0.6229922771453857,0.22998261451721191
1772623338899828000,9.610827880859375,0.5122742652893066,0.27827751636505127,0.1845264434814453
1772623338909858000,9.620858154296876,0.5190514922142029,-0.06291282176971436,0.17132017016410828
1772623338919886800,9.630886962890624,0.45248422026634216,-0.36486440896987915,0.18018050491809845
1772623338929917000,9.6409169921875,0.35336798429489136,-0.5655142068862915,0.181169793009758
1772623338939947000,9.650947021484376,0.25361955165863037,-0.6320798993110657,0.16656741499900818
1772623338949976800,9.660976806640624,0.16738027334213257,-0.5830152034759521,0.130154550075531
1772623338960007000,9.6710068359375,0.07711909711360931,-0.42875930666923523,0.08029352128505707
1772623338970035700,9.68103564453125,0.0009417859837412834,-0.19746749103069305,0.029059965163469315
1772623338980065800,9.691065673828126,-0.05706692114472389,0.029040485620498657,-0.02777428925037384
1772623338990096000,9.701095947265625,-0.0831611305475235,0.19191618263721466,-0.09636248648166656
1772623339000126000,9.7111259765625,-0.07036517560482025,0.30578604340553284,-0.16349677741527557
1772623339010156000,9.721156005859376,-0.029993008822202682,0.3622834086418152,-0.19889186322689056
1772623339020185000,9.73118505859375,0.011883866041898727,0.35181424021720886,-0.20536601543426514
1772623339030215000,9.74121484375,0.05227512866258621,0.3016604483127594,-0.18046949803829193
1772623339040244700,9.75124462890625,0.06929033249616623,0.22663652896881104,-0.14200946688652039
1772623339050274800,9.76127490234375,0.0711156576871872,0.14413496851921082,-0.10058319568634033
1772623339060305000,9.771304931640625,0.06785301864147186,0.069088414311409,-0.060932185500860214
1772623339070334000,9.781333984375,0.059399574995040894,-0.00810629315674305,-0.02037099562585354
1772623339080364000,9.791364013671876,0.04676207900047302,-0.10490554571151733,0.013149414211511612
1772623339090393900,9.801393798828125,0.03083105757832527,-0.20913150906562805,0.024286489933729172
1772623339100424000,9.811423828125,0.0201571062207222,-0.28224462270736694,0.009002076461911201
1772623339110453800,9.821453857421876,0.023847639560699463,-0.2948930859565735,-0.02583816647529602
1772623339120482800,9.83148291015625,0.02828233316540718,-0.25588175654411316,-0.08188758790493011
1772623339130513000,9.841512939453125,0.016015227884054184,-0.18311627209186554,-0.14519508183002472
1772623339140543000,9.85154296875,-0.009595592506229877,-0.10367711633443832,-0.1889375001192093
1772623339150572800,9.86157275390625,-0.047158967703580856,-0.055356454104185104,-0.22291125357151031
1772623339160601900,9.871601806640625,-0.08095315098762512,-0.042427871376276016,-0.23767343163490295
1772623339170632000,9.8816318359375,-0.09569241851568222,-0.06815776228904724,-0.2252524495124817
1772623339180662000,9.891662109375,-0.09728073328733444,-0.10738692432641983,-0.20532932877540588
1772623339190691800,9.90169189453125,-0.09966465830802917,-0.1078869178891182,-0.1627117097377777
1772623339200722000,9.911721923828125,-0.07684642821550369,-0.06692617386579514,-0.10395757108926773
1772623339210750700,9.921750732421875,-0.04699210450053215,-0.030319157987833023,-0.013150895945727825
1772623339220780800,9.93178076171875,-0.036426011472940445,-0.037607960402965546,0.09721022844314575
1772623339230811000,9.941810791015625,-0.02845194563269615,-0.08272267878055573,0.2041977494955063
1772623339240841000,9.951841064453125,-0.009677193127572536,-0.12936528027057648,0.2789050340652466
1772623339250871000,9.96187109375,0.017782609909772873,-0.17307497560977936,0.29099348187446594
1772623339260899800,9.97189990234375,0.043262939900159836,-0.1686117798089981,0.23032639920711517
1772623339270930000,9.981929931640625,0.06248878687620163,-0.07382483035326004,0.11121342331171036
1772623339280959700,9.991959716796876,0.10746478289365768,0.20614875853061676,-0.02456490695476532
1772623339290989800,10.00198974609375,0.12392891943454742,0.8559194207191467,0.32829105854034424
1772623339301021000,10.01202099609375,-0.006761972792446613,0.381327360868454,0.680077075958252
1772623339311050000,10.022050048828126,-0.20214010775089264,-0.16872814297676086,0.7784170508384705
1772623339321080000,10.032080078125,-0.3008648455142975,-0.4771679937839508,0.5204986929893494
1772623339331110000,10.04210986328125,-0.36855387687683105,-0.6367427110671997,0.15735061466693878
1772623339341140000,10.052139892578126,-0.47351181507110596,-0.6759717464447021,-0.20187579095363617
1772623339351169800,10.062169677734374,-0.5666173100471497,-0.4596080780029297,-0.517612874507904
1772623339361198800,10.07219873046875,-0.541637122631073,-0.07021958380937576,-0.5999034643173218
1772623339371229000,10.08222900390625,-0.42700856924057007,0.1510419249534607,-0.352547824382782
