time,seconds_elapsed,z,y,x
1772482596767492400,0.077492431640625,0.6999446153640747,-1.1392706632614136,-0.06880373507738113
1772482596777490200,0.087490234375,0.6777327656745911,-1.1536173820495605,-0.07495085150003433
1772482596787488300,0.09748828125,0.6596688628196716,-1.166877031326294,-0.0645681694149971
1772482596797486300,0.107486328125,0.6436941623687744,-1.1832938194274902,-0.05366306006908417
1772482596807485200,0.117485107421875,0.6399322152137756,-1.1744118928909302,-0.06354072690010071
1772482596817483300,0.127483154296875,0.6306270956993103,-1.2040162086486816,-0.0506662055850029
1772482596827481300,0.1374814453125,0.62590491771698,-1.2280337810516357,-0.04194968566298485
1772482596837479200,0.147479248046875,0.626269519329071,-1.271240472793579,-0.03768223524093628
1772482596847478300,0.157478271484375,0.6331095695495605,-1.2930623292922974,-0.04090229049324989
1772482596857476400,0.167476318359375,0.6351897716522217,-1.2973140478134155,-0.039701469242572784
1772482596867474400,0.177474365234375,0.633764386177063,-1.3013739585876465,-0.03675631433725357
1772482596877472300,0.18747216796875,0.6373268961906433,-1.2881691455841064,-0.06858455389738083
1772482596887470300,0.19747021484375,0.6498425602912903,-1.303275465965271,-0.10432744026184082
1772482596897469200,0.20746923828125,0.6666236519813538,-1.3467466831207275,-0.13446669280529022
1772482596907467000,0.217467041015625,0.6782612204551697,-1.3896042108535767,-0.15036973357200623
1772482596917465000,0.227465087890625,0.6951970458030701,-1.3844894170761108,-0.17107181251049042
1772482596927463200,0.237463134765625,0.720592200756073,-1.3855211734771729,-0.18723183870315552
1772482596937461200,0.247461181640625,0.7594472169876099,-1.3946397304534912,-0.20757199823856354
1772482596947460000,0.257460205078125,0.7922404408454895,-1.398679494857788,-0.2326253056526184
1772482596957458200,0.267458251953125,0.8172246217727661,-1.4221101999282837,-0.2459205985069275
1772482596967456000,0.2774560546875,0.8173365592956543,-1.4541699886322021,-0.23837284743785858
1772482596977454000,0.2874541015625,0.7913446426391602,-1.4658691883087158,-0.2420450747013092
1772482596987452200,0.2974521484375,0.753065288066864,-1.465887427330017,-0.2182714194059372
1772482596997451300,0.307451171875,0.7311501502990723,-1.4889914989471436,-0.19192743301391602
1772482597007449000,0.317448974609375,0.7229564785957336,-1.4623236656188965,-0.1593354344367981
1772482597017447200,0.327447265625,0.6652511358261108,-1.5415103435516357,-0.1952950358390808
1772482597027445200,0.3374453125,0.6371221542358398,-1.5611205101013184,-0.1687418520450592
1772482597037444000,0.347444091796875,0.5962135791778564,-1.520277976989746,-0.20117169618606567
1772482597047442200,0.357442138671875,0.5575023889541626,-1.5478417873382568,-0.24942100048065186
1772482597057440300,0.367440185546875,0.5333626866340637,-1.5355430841445923,-0.3074158728122711
1772482597067438000,0.37743798828125,0.5068031549453735,-1.5468536615371704,-0.3708898425102234
1772482597077436200,0.387436279296875,0.495705246925354,-1.5714788436889648,-0.43149247765541077
1772482597087435300,0.397435302734375,0.5090972185134888,-1.500666618347168,-0.42514699697494507
1772482597097433300,0.407433349609375,0.5094820261001587,-1.4286383390426636,-0.3489118814468384
1772482597107431200,0.41743115234375,0.5034868121147156,-1.3375704288482666,-0.23709045350551605
1772482597117429200,0.42742919921875,0.4954262375831604,-1.290908932685852,-0.14207366108894348
1772482597127427000,0.437427001953125,0.4808591902256012,-1.2751808166503906,-0.07519493997097015
1772482597137426200,0.44742626953125,0.4603659212589264,-1.225171685218811,-0.02764766663312912
1772482597147424300,0.45742431640625,0.4381438195705414,-1.2065292596817017,0.008425352163612843
1772482597157422300,0.46742236328125,0.4161551594734192,-1.2300329208374023,0.03233068436384201
1772482597167420200,0.477420166015625,0.4048492908477783,-1.267103672027588,0.05310419946908951
1772482597177418200,0.487418212890625,0.41016390919685364,-1.3128951787948608,0.08300058543682098
1772482597187417300,0.497417236328125,0.4298993647098541,-1.3689788579940796,0.10803703963756561
1772482597197415200,0.507415283203125,0.45116257667541504,-1.4259270429611206,0.13942746818065643
1772482597207413200,0.517413330078125,0.46650341153144836,-1.4682267904281616,0.1751643866300583
1772482597217411300,0.527411376953125,0.48684754967689514,-1.4997544288635254,0.20833300054073334
1772482597227409200,0.5374091796875,0.49522069096565247,-1.524436354637146,0.22109434008598328
1772482597237408300,0.547408203125,0.4990508556365967,-1.51789128780365,0.19742657244205475
1772482597247406300,0.55740625,0.500560462474823,-1.5067505836486816,0.1253148317337036
1772482597257404400,0.567404296875,0.4952530562877655,-1.4901604652404785,0.03791547566652298
1772482597267402200,0.57740234375,0.47486916184425354,-1.4255784749984741,-0.04470394179224968
1772482597277401000,0.587401123046875,0.4520735740661621,-1.3794149160385132,-0.08832945674657822
1772482597287399200,0.597399169921875,0.4328676164150238,-1.3265998363494873,-0.10394427180290222
1772482597297397200,0.607397216796875,0.4244898557662964,-1.2704254388809204,-0.09943979978561401
1772482597307395300,0.617395263671875,0.416209876537323,-1.2414333820343018,-0.05900003761053085
1772482597317393400,0.627393310546875,0.4199031591415405,-1.2493245601654053,-0.032823558896780014
1772482597327392000,0.63739208984375,0.431429386138916,-1.2634660005569458,-0.022796697914600372
1772482597337390000,0.64739013671875,0.42930975556373596,-1.2476959228515625,-0.006643558852374554
1772482597347388200,0.65738818359375,0.4151739478111267,-1.2182406187057495,0.02334722690284252
1772482597357386200,0.66738623046875,0.3853500187397003,-1.2312520742416382,0.057126760482788086
1772482597367384300,0.67738427734375,0.35517966747283936,-1.2384244203567505,0.058082882314920425
1772482597377383200,0.687383056640625,0.31320053339004517,-1.214796543121338,0.03446410596370697
1772482597387381200,0.69738134765625,0.26420265436172485,-1.183276891708374,-0.008200230076909065
1772482597397379000,0.707379150390625,0.23528949916362762,-1.1581553220748901,-0.06540359556674957
1772482597407377200,0.717377197265625,0.21908435225486755,-1.14262855052948,-0.12744800746440887
1772482597417375200,0.727375244140625,0.22786027193069458,-1.160402774810791,-0.16897894442081451
1772482597427374000,0.7373740234375,0.26330292224884033,-1.1996675729751587,-0.20019933581352234
1772482597437372200,0.7473720703125,0.330421507358551,-1.2384974956512451,-0.2140621542930603
1772482597447370200,0.757370361328125,0.410856157541275,-1.2736388444900513,-0.22073352336883545
1772482597457368000,0.7673681640625,0.5048263072967529,-1.3252860307693481,-0.21699869632720947
1772482597467366100,0.7773662109375,0.587831437587738,-1.3939793109893799,-0.20238180458545685
1772482597477365200,0.787365234375,0.6696298718452454,-1.4552087783813477,-0.18520334362983704
1772482597487363000,0.797363037109375,0.7435765266418457,-1.5017861127853394,-0.1613040715456009
1772482597497361200,0.807361083984375,0.8017876148223877,-1.518436312675476,-0.14112530648708344
1772482597507359200,0.817359130859375,0.8472479581832886,-1.4948389530181885,-0.11119520664215088
1772482597517357000,0.827357177734375,0.8734135031700134,-1.427488088607788,-0.06538084894418716
1772482597527356200,0.837356201171875,0.8707578182220459,-1.3655979633331299,-0.025965111330151558
1772482597537354200,0.847354248046875,0.8570582270622253,-1.3097525835037231,-0.004623870365321636
1772482597547352300,0.857352294921875,0.8299393653869629,-1.2590690851211548,0.008356597274541855
1772482597557350100,0.86735009765625,0.794589102268219,-1.2243529558181763,0.021775200963020325
1772482597567349200,0.877349365234375,0.7556746006011963,-1.2109272480010986,0.030649926513433456
1772482597577347300,0.887347412109375,0.7218287587165833,-1.2163981199264526,0.03183156996965408
1772482597587345200,0.89734521484375,0.669495701789856,-1.229240894317627,0.034447815269231796
1772482597597343200,0.90734326171875,0.6252411603927612,-1.2065099477767944,0.018021170049905777
1772482597607341300,0.91734130859375,0.5725672841072083,-1.1458373069763184,0.013917901553213596
1772482597617340400,0.92734033203125,0.5238511562347412,-1.0990344285964966,0.028867553919553757
1772482597627338200,0.937338134765625,0.4960463345050812,-1.0777348279953003,0.05370767042040825
1772482597637336300,0.94733642578125,0.4937131404876709,-1.0784651041030884,0.04565081000328064
1772482597647334100,0.957334228515625,0.516346275806427,-1.0960583686828613,0.021300984546542168
1772482597657332200,0.967332275390625,0.5445390343666077,-1.0827676057815552,-0.018260806798934937
1772482597667331300,0.977331298828125,0.575208842754364,-1.0624622106552124,-0.05481691658496857
1772482597677329700,0.98732958984375,0.6119953393936157,-1.044643759727478,-0.07217779755592346
1772482597687327500,0.997327392578125,0.6866005063056946,-1.0442651510238647,-0.10432316362857819
1772482597697325600,1.00732568359375,0.7507864236831665,-1.0464180707931519,-0.13967636227607727
1772482597707323600,1.01732373046875,0.7957255840301514,-1.0508846044540405,-0.1727670431137085
1772482597717322200,1.027322265625,0.84880131483078,-1.0551539659500122,-0.19249413907527924
1772482597727320300,1.0373203125,0.8930006623268127,-1.0403339862823486,-0.18804387748241425
1772482597737318400,1.047318359375,0.9280840754508972,-1.0507051944732666,-0.16542164981365204
1772482597747316500,1.05731640625,0.9089726209640503,-1.0250873565673828,-0.16465279459953308
1772482597757314600,1.067314453125,0.8349860310554504,-0.9422078728675842,-0.2012355774641037
1772482597767313400,1.0773134765625,0.7623052597045898,-0.8320154547691345,-0.238170325756073
1772482597777311500,1.0873115234375,0.7168440222740173,-0.720199465751648,-0.29003456234931946
1772482597787309300,1.097309326171875,0.6844943165779114,-0.671384871006012,-0.35939329862594604
1772482597797307400,1.107307373046875,0.6750645637512207,-0.681399941444397,-0.4528545141220093
1772482597807305500,1.117305419921875,0.6526553630828857,-0.743473470211029,-0.4994664788246155
1772482597817304300,1.12730419921875,0.6106716990470886,-0.844191312789917,-0.5266786813735962
1772482597827302400,1.137302490234375,0.5316529273986816,-0.8602837920188904,-0.5326073169708252
1772482597837300500,1.147300537109375,0.4546625018119812,-0.7263206839561462,-0.5245035886764526
1772482597847298300,1.15729833984375,0.4080454111099243,-0.5362542867660522,-0.5067061185836792
1772482597857296400,1.16729638671875,0.4029824733734131,-0.42070719599723816,-0.4692569673061371
1772482597867295500,1.17729541015625,0.41493964195251465,-0.2171306610107422,-0.5359852910041809
1772482597877293300,1.187293212890625,0.4495178461074829,-0.14803840219974518,-0.5384047627449036
1772482597887291400,1.19729150390625,0.44798141717910767,-0.2005775421857834,-0.6349458694458008
1772482597897289500,1.20728955078125,0.39027658104896545,-0.3414132297039032,-0.6320478320121765
1772482597907287300,1.217287353515625,0.35764724016189575,-0.5584033727645874,-0.7211851477622986
1772482597917286400,1.227286376953125,0.4086070954799652,-0.6568068861961365,-0.5451105237007141
1772482597927284500,1.237284423828125,0.5360456705093384,-0.6733829975128174,-0.32988911867141724
1772482597937282600,1.247282470703125,0.6463357210159302,-0.7348431944847107,-0.19273975491523743
1772482597947280400,1.2572802734375,0.7511756420135498,-0.7762681245803833,-0.19276992976665497
1772482597957279500,1.267279541015625,0.7518307566642761,-0.7484332919120789,-0.3765307068824768
1772482597967277600,1.277277587890625,0.6560791730880737,-0.6431950926780701,-0.5452785491943359
1772482597977275400,1.287275390625,0.49305111169815063,-0.5434235334396362,-0.7628870010375977
1772482597987273500,1.2972734375,0.2676583528518677,-0.33688169717788696,-0.9616565108299255
1772482597997271600,1.307271484375,-0.007544996216893196,-0.1083928644657135,-1.1141433715820312
1772482598007270700,1.317270751953125,-0.2955513000488281,0.11109316349029541,-1.1843599081039429
1772482598017268500,1.3272685546875,-0.5179588198661804,0.28384578227996826,-1.1768319606781006
1772482598027266600,1.3372666015625,-0.6350955963134766,0.36337339878082275,-1.1435409784317017
1772482598037264600,1.3472646484375,-0.6694650650024414,0.31186360120773315,-1.092024564743042
1772482598047262500,1.357262451171875,-0.6489014029502869,0.18441033363342285,-1.0094175338745117
1772482598057261600,1.367261474609375,-0.6061254739761353,0.00455428846180439,-0.8943798542022705
1772482598067259600,1.377259765625,-0.5533261895179749,-0.17747510969638824,-0.7329123616218567
1772482598077257500,1.387257568359375,-0.46180880069732666,-0.2940826714038849,-0.5285365581512451
1772482598087255600,1.397255615234375,-0.3065173923969269,-0.26449722051620483,-0.2899828553199768
1772482598097253600,1.407253662109375,-0.08991797268390656,-0.11772427707910538,-0.06933195888996124
1772482598107252500,1.41725244140625,0.14178884029388428,-0.008465463295578957,0.07822386920452118
1772482598117250600,1.42725048828125,0.33004212379455566,-0.029755305498838425,0.11252991855144501
1772482598127248600,1.43724853515625,0.46713244915008545,-0.122102290391922,0.12858623266220093
1772482598137246500,1.44724658203125,0.5694379806518555,-0.2734715938568115,0.12473158538341522
1772482598147244500,1.45724462890625,0.6005827784538269,-0.4856415092945099,0.12018837779760361
1772482598157243400,1.467243408203125,0.5578315854072571,-0.7172033786773682,0.11920248717069626
1772482598167241500,1.477241455078125,0.4720201790332794,-0.875517725944519,0.1226002648472786
1772482598177239300,1.4872392578125,0.37261608242988586,-0.9177565574645996,0.14011429250240326
1772482598187237400,1.4972373046875,0.2646097242832184,-0.8852201700210571,0.18163323402404785
1772482598197235700,1.507235595703125,0.13859611749649048,-0.829118013381958,0.2430127114057541
1772482598207234300,1.517234375,0.034794557839632034,-0.7701564431190491,0.3091680705547333
1772482598217232400,1.527232421875,-0.03388889878988266,-0.726149320602417,0.35512998700141907
1772482598227230500,1.53723046875,-0.07816500216722488,-0.7058054804801941,0.37661197781562805
1772482598237228300,1.547228271484375,-0.09213168919086456,-0.7099275588989258,0.37411394715309143
1772482598247226400,1.557226318359375,-0.06716504693031311,-0.7428098917007446,0.31738346815109253
1772482598257225500,1.5672255859375,-0.008788023144006729,-0.7614269852638245,0.24320776760578156
1772482598267223300,1.577223388671875,0.10380949079990387,-0.6909515261650085,0.1618916243314743
1772482598277221400,1.587221435546875,0.22929152846336365,-0.6073548793792725,0.060674190521240234
1772482598287219500,1.597219482421875,0.33493292331695557,-0.5885473489761353,-0.050460949540138245
1772482598297217300,1.60721728515625,0.39578935503959656,-0.6142348647117615,-0.1378304809331894
1772482598307216400,1.61721630859375,0.407245934009552,-0.6528679728507996,-0.19274823367595673
1772482598317214500,1.62721435546875,0.37501317262649536,-0.6896044611930847,-0.20053504407405853
1772482598327212500,1.637212646484375,0.3120183050632477,-0.7544394135475159,-0.16993218660354614
1772482598337210400,1.64721044921875,0.2624608874320984,-0.8240618705749512,-0.11503433436155319
1772482598347208400,1.65720849609375,0.2332562804222107,-0.8944064974784851,-0.05177847668528557
1772482598357207600,1.66720751953125,0.22799387574195862,-0.9547630548477173,0.006184157449752092
1772482598367205400,1.677205322265625,0.2436022162437439,-0.989071786403656,0.046861644834280014
1772482598377203500,1.687203369140625,0.25392329692840576,-0.9768079519271851,0.05858141928911209
1772482598387201500,1.697201416015625,0.26198017597198486,-0.9047242999076843,0.04628840088844299
1772482598397199400,1.707199462890625,0.24717247486114502,-0.7694336175918579,-0.0018610162660479546
1772482598407198500,1.717198486328125,0.20840275287628174,-0.5912676453590393,-0.06319113820791245
1772482598417196500,1.727196533203125,0.1509557068347931,-0.4081369638442993,-0.13889947533607483
1772482598427194400,1.7371943359375,0.06760092079639435,-0.2472856491804123,-0.21561862528324127
1772482598437192400,1.7471923828125,-0.028723219409585,-0.1365615427494049,-0.2639304995536804
1772482598447190500,1.7571904296875,-0.1376548409461975,-0.08008898794651031,-0.29152825474739075
1772482598457189600,1.767189697265625,-0.24760344624519348,-0.07272881269454956,-0.30134493112564087
1772482598467187500,1.7771875,-0.3422389626502991,-0.11365075409412384,-0.30997639894485474
1772482598477185500,1.787185546875,-0.4137538969516754,-0.1586262285709381,-0.32152998447418213
1772482598487183600,1.79718359375,-0.45455402135849,-0.20222418010234833,-0.3410576581954956
1772482598497181400,1.807181396484375,-0.4905540943145752,-0.2813786566257477,-0.3583788573741913
1772482598507180500,1.8171806640625,-0.5542114973068237,-0.4547024071216583,-0.3813574016094208
1772482598517178600,1.8271787109375,-0.65327388048172,-0.6937333941459656,-0.37778452038764954
1772482598527176400,1.837176513671875,-0.7693567872047424,-0.8247900605201721,-0.34329918026924133
1772482598537174500,1.847174560546875,-0.8795765042304993,-0.9399579167366028,-0.33634087443351746
1772482598547172600,1.857172607421875,-0.983936071395874,-0.9585399031639099,-0.3001900315284729
1772482598557171500,1.86717138671875,-1.0479069948196411,-0.9044255614280701,-0.2704329490661621
1772482598567169500,1.87716943359375,-1.0913459062576294,-0.830830991268158,-0.24980305135250092
1772482598577167600,1.887167724609375,-1.125905990600586,-0.6142424941062927,-0.21094433963298798
1772482598587165400,1.89716552734375,-1.1612988710403442,-0.3337281048297882,-0.15256822109222412
1772482598597163500,1.90716357421875,-1.193662405014038,0.05490672588348389,-0.06096586585044861
1772482598607162400,1.917162353515625,-1.1985963582992554,0.5008325576782227,0.032975055277347565
1772482598617160400,1.927160400390625,-1.1787904500961304,0.9683142900466919,0.1341743767261505
1772482598627158500,1.937158447265625,-1.1410406827926636,1.4138060808181763,0.21612760424613953
1772482598637156600,1.947156494140625,-1.0818971395492554,1.7691980600357056,0.2988283336162567
1772482598647154700,1.95715478515625,-1.0103137493133545,1.901528239250183,0.38899147510528564
1772482598657153300,1.9671533203125,-0.9287086725234985,1.7693955898284912,0.463753342628479
1772482598667151400,1.9771513671875,-0.823669970035553,1.4056192636489868,0.5028257369995117
1772482598677149000,1.98714892578125,-0.6694668531417847,0.9290593266487122,0.4889831244945526
1772482598687147000,1.99714697265625,-0.482995867729187,0.5345070958137512,0.42199328541755676
1772482598697144800,2.007144775390625,-0.3641381859779358,0.3633628189563751,0.32889556884765625
1772482598707143700,2.017143798828125,-0.2793116867542267,0.3050607442855835,0.24065814912319183
1772482598717141800,2.027141845703125,-0.23175804316997528,0.2895060181617737,0.13546116650104523
1772482598727139800,2.037139892578125,-0.21058449149131775,0.2771526277065277,0.01591286063194275
1772482598737138000,2.047137939453125,-0.2277807891368866,0.21735002100467682,-0.10011760145425797
1772482598747136000,2.057135986328125,-0.27006134390830994,0.1317715048789978,-0.2120780497789383
1772482598757134800,2.067134765625,-0.3315041959285736,0.06544546782970428,-0.31452426314353943
1772482598767132700,2.077132568359375,-0.3949896991252899,-0.028526462614536285,-0.3816172480583191
1772482598777130800,2.087130859375,-0.45971062779426575,-0.16825027763843536,-0.37792450189590454
1772482598787128800,2.09712890625,-0.5197414755821228,-0.34282079339027405,-0.3204217851161957
1772482598797126700,2.107126708984375,-0.5751485228538513,-0.48837026953697205,-0.2306404858827591
1772482598807125800,2.117125732421875,-0.6135011315345764,-0.596969485282898,-0.1040833443403244
1772482598817123800,2.127123779296875,-0.6078672409057617,-0.6932619214057922,0.0629943236708641
1772482598827121700,2.13712158203125,-0.563599169254303,-0.6652714014053345,0.21218599379062653
1772482598837119700,2.14711962890625,-0.5082866549491882,-0.5378894805908203,0.29159611463546753
1772482598847117800,2.157117919921875,-0.4364250600337982,-0.4978622794151306,0.3236787021160126
1772482598857117000,2.167116943359375,-0.36375537514686584,-0.5183936357498169,0.2948119044303894
1772482598867114800,2.17711474609375,-0.2836592495441437,-0.5676934719085693,0.19868279993534088
1772482598877112800,2.18711279296875,-0.20358839631080627,-0.6244779229164124,0.052188172936439514
1772482598887111000,2.19711083984375,-0.13581986725330353,-0.7119287848472595,-0.09807312488555908
1772482598897108700,2.207108642578125,-0.10066454857587814,-0.8265632390975952,-0.2300892174243927
1772482598907107800,2.21710791015625,-0.08690056204795837,-0.9315423965454102,-0.3225824236869812
1772482598917106000,2.22710595703125,-0.09661843627691269,-1.008044719696045,-0.3638252019882202
1772482598927103700,2.237103759765625,-0.1334032118320465,-1.037291407585144,-0.35109513998031616
1772482598937101800,2.247101806640625,-0.19311873614788055,-1.0152764320373535,-0.30093902349472046
1772482598947100000,2.257099853515625,-0.24511514604091644,-0.9536759257316589,-0.20917825400829315
1772482598957099000,2.26709912109375,-0.29019874334335327,-0.8656653761863708,-0.10467077046632767
1772482598967096800,2.277096923828125,-0.3154889643192291,-0.7721738219261169,0.011194393038749695
1772482598977095000,2.287094970703125,-0.35698235034942627,-0.6657318472862244,0.13382764160633087
1772482598987092700,2.2970927734375,-0.3969939947128296,-0.5964966416358948,0.2653450071811676
1772482598997090800,2.3070908203125,-0.42728665471076965,-0.5830706357955933,0.3905479311943054
1772482599007090000,2.31708984375,-0.4438616931438446,-0.6365000605583191,0.5069957971572876
1772482599017088000,2.327087890625,-0.4608135223388672,-0.7470510601997375,0.6113778352737427
1772482599027085800,2.3370859375,-0.4830573499202728,-0.9074749946594238,0.6993806958198547
1772482599037084000,2.347083984375,-0.5062079429626465,-1.0820785760879517,0.7584104537963867
1772482599047082000,2.35708203125,-0.5395911931991577,-1.2439059019088745,0.7861515879631042
1772482599057080800,2.367080810546875,-0.5764179229736328,-1.3719359636306763,0.7870626449584961
1772482599067079000,2.377078857421875,-0.6277056336402893,-1.4559723138809204,0.763917088508606
1772482599077077000,2.387076904296875,-0.698194146156311,-1.4602125883102417,0.718934178352356
1772482599087074800,2.39707470703125,-0.786467432975769,-1.403813123703003,0.6695652008056641
1772482599097073000,2.407072998046875,-0.8914393782615662,-1.2940914630889893,0.6323994994163513
1772482599107072000,2.417072021484375,-0.9893872141838074,-1.1730459928512573,0.6248066425323486
1772482599117070000,2.427070068359375,-1.0774544477462769,-1.0770334005355835,0.6617795825004578
1772482599127068000,2.43706787109375,-1.1540801525115967,-1.0005459785461426,0.7290176153182983
1772482599137066000,2.44706591796875,-1.2205877304077148,-1.0045136213302612,0.7744990587234497
1772482599147063800,2.457063720703125,-1.2786667346954346,-1.103231430053711,0.7895920276641846
1772482599157062700,2.467062744140625,-1.3012452125549316,-1.2913520336151123,0.7535578608512878
1772482599167060700,2.477060791015625,-1.273600459098816,-1.5521337985992432,0.6506267786026001
1772482599177058800,2.487058837890625,-1.1763447523117065,-1.7945235967636108,0.51719731092453
1772482599187057000,2.497056884765625,-1.0395125150680542,-1.930271863937378,0.38455700874328613
1772482599197055000,2.507054931640625,-0.8916119933128357,-1.9603098630905151,0.27053216099739075
1772482599207053800,2.5170537109375,-0.7778748869895935,-1.8746176958084106,0.21639440953731537
1772482599217051600,2.5270517578125,-0.6824034452438354,-1.7058444023132324,0.21163026988506317
1772482599227049700,2.5370498046875,-0.6035522818565369,-1.5189789533615112,0.2706063985824585
1772482599237047800,2.5470478515625,-0.5654177069664001,-1.3039175271987915,0.4176435172557831
1772482599247045600,2.557045654296875,-0.5586528778076172,-1.0761741399765015,0.644825279712677
1772482599257043700,2.567043701171875,-0.5442025661468506,-0.8955421447753906,0.901616632938385
1772482599267042800,2.577042724609375,-0.47468000650405884,-0.791011393070221,1.1338653564453125
1772482599277041000,2.587041015625,-0.37642425298690796,-0.7717921733856201,1.3142218589782715
1772482599287038700,2.597038818359375,-0.2647785246372223,-0.8329206109046936,1.4505451917648315
1772482599297036800,2.607036865234375,-0.12265121191740036,-0.9632724523544312,1.5270336866378784
1772482599307034600,2.61703466796875,0.02315504103899002,-1.1331627368927002,1.5562126636505127
1772482599317033700,2.62703369140625,0.1833372563123703,-1.3101633787155151,1.5704741477966309
1772482599327031800,2.63703173828125,0.3335558772087097,-1.4774128198623657,1.5757019519805908
1772482599337030000,2.64702978515625,0.48445191979408264,-1.636151671409607,1.5809478759765625
1772482599347027700,2.65702783203125,0.6190677285194397,-1.8004655838012695,1.589652419090271
1772482599357025800,2.66702587890625,0.7404857873916626,-1.979134440422058,1.6019699573516846
1772482599367025000,2.67702490234375,0.8458012938499451,-2.1546151638031006,1.6174228191375732
1772482599377022700,2.687022705078125,0.9415278434753418,-2.3240020275115967,1.6307131052017212
1772482599387020800,2.697020751953125,1.0222654342651367,-2.4756884574890137,1.6328222751617432
1772482599397019000,2.707018798828125,1.0993006229400635,-2.6205945014953613,1.6204785108566284
1772482599407016700,2.7170166015625,1.158638834953308,-2.7130584716796875,1.588591456413269
1772482599417015800,2.727015869140625,1.1786564588546753,-2.7521228790283203,1.5481621026992798
1772482599427014000,2.737013916015625,1.1873855590820312,-2.7435076236724854,1.5024588108062744
1772482599437012000,2.747011962890625,1.1855895519256592,-2.686429262161255,1.436387062072754
1772482599447009800,2.757009765625,1.1641849279403687,-2.5910730361938477,1.3694051504135132
1772482599457007900,2.7670078125,1.130028247833252,-2.530280828475952,1.3115780353546143
1772482599467007000,2.777007080078125,1.0886670351028442,-2.5486161708831787,1.2531815767288208
1772482599477004800,2.7870048828125,1.0316327810287476,-2.6016995906829834,1.2001961469650269
1772482599487003000,2.7970029296875,0.9815211892127991,-2.6560163497924805,1.1444759368896484
1772482599497001000,2.8070009765625,0.936845064163208,-2.6766109466552734,1.0917032957077026
1772482599506998800,2.816998779296875,0.9034506678581238,-2.6662752628326416,1.030221939086914
1772482599516998000,2.826997802734375,0.8744139671325684,-2.6439156532287598,0.973350465297699
1772482599526996000,2.836995849609375,0.8493704795837402,-2.613825559616089,0.9076625108718872
1772482599536993800,2.846993896484375,0.8226121068000793,-2.596240282058716,0.8375478386878967
1772482599546991900,2.856991943359375,0.7887412905693054,-2.5930545330047607,0.7647038102149963
1772482599556990000,2.866989990234375,0.7521446347236633,-2.580122232437134,0.6857243180274963
1772482599566989000,2.876989013671875,0.6822701096534729,-2.5571370124816895,0.6019793152809143
1772482599576987000,2.88698681640625,0.5814743041992188,-2.539358377456665,0.5181850790977478
1772482599586985000,2.89698486328125,0.46130186319351196,-2.495116949081421,0.4191623032093048
1772482599596983000,2.906983154296875,0.31880223751068115,-2.414740562438965,0.31416770815849304
1772482599606980900,2.91698095703125,0.16571280360221863,-2.295491933822632,0.1943417191505432
1772482599616979700,2.926979736328125,0.018649041652679443,-2.1553423404693604,0.08373052626848221
1772482599626978000,2.93697802734375,-0.11392603069543839,-1.9652379751205444,0.002493708860129118
1772482599636975900,2.946975830078125,-0.2328827679157257,-1.7956981658935547,-0.05441511422395706
1772482599646974000,2.956973876953125,-0.34999993443489075,-1.681465744972229,-0.07056213170289993
1772482599656972000,2.966971923828125,-0.46044042706489563,-1.5954546928405762,-0.04123300313949585
1772482599666970600,2.976970703125,-0.5193333625793457,-1.4903631210327148,0.019320443272590637
1772482599676968700,2.98696875,-0.5354598760604858,-1.3530172109603882,0.0989268571138382
1772482599686966800,2.996966796875,-0.5290427803993225,-1.2149276733398438,0.19616226851940155
1772482599696964900,3.00696484375,-0.5095766186714172,-1.089375376701355,0.3132238984107971
1772482599706963000,3.016962890625,-0.4774758219718933,-0.9700524806976318,0.44468823075294495
1772482599716961000,3.0269609375,-0.43387508392333984,-0.8650354743003845,0.5704836845397949
1772482599726959900,3.0369599609375,-0.38856256008148193,-0.7925717830657959,0.6851239204406738
1772482599736957700,3.046957763671875,-0.31209468841552734,-0.7273091077804565,0.7785260081291199
1772482599746955800,3.056955810546875,-0.23522405326366425,-0.7000069618225098,0.8493854999542236
1772482599756953900,3.066953857421875,-0.1690167933702469,-0.7133621573448181,0.9071763753890991
1772482599766951700,3.07695166015625,-0.10542289167642593,-0.7528189420700073,0.9413464665412903
1772482599776950800,3.08695068359375,-0.054414302110672,-0.8110330104827881,0.9743773937225342
1772482599786948900,3.096948974609375,-0.0029569854959845543,-0.8622228503227234,0.98764967918396
1772482599796947000,3.106947021484375,0.03928154706954956,-0.9100468158721924,0.9915820360183716
1772482599806944800,3.11694482421875,0.08287826925516129,-0.9509764909744263,0.9891837239265442
1772482599816942800,3.12694287109375,0.10972799360752106,-1.0009750127792358,0.9874774217605591
1772482599826942000,3.13694189453125,0.12390162795782089,-1.0852773189544678,0.9977231025695801
1772482599836939800,3.146939697265625,0.12921249866485596,-1.1719226837158203,1.0121432542800903
1772482599846937900,3.156937744140625,0.1294236183166504,-1.2706644535064697,1.036312222480774
1772482599856936000,3.16693603515625,0.12148100882768631,-1.3761714696884155,1.0803513526916504
1772482599866933800,3.176933837890625,0.10546647012233734,-1.4618074893951416,1.1481810808181763
1772482599876932900,3.186932861328125,0.08968058973550797,-1.5206412076950073,1.2503750324249268
1772482599886931000,3.196930908203125,0.0740332379937172,-1.5655465126037598,1.3762648105621338
1772482599896928800,3.2069287109375,0.06930959224700928,-1.573809266090393,1.5097297430038452
1772482599906926800,3.2169267578125,0.07388849556446075,-1.5586503744125366,1.6515536308288574
1772482599916925000,3.226925048828125,0.10845685750246048,-1.5551069974899292,1.7741689682006836
1772482599926924000,3.236924072265625,0.18915027379989624,-1.5603997707366943,1.8478363752365112
1772482599936921900,3.246921875,0.2877562344074249,-1.6096386909484863,1.872740626335144
1772482599946920000,3.256919921875,0.39349156618118286,-1.6860930919647217,1.864972472190857
1772482599956918000,3.26691796875,0.4985141158103943,-1.7523910999298096,1.828940987586975
1772482599966915800,3.276915771484375,0.5734723210334778,-1.7793852090835571,1.7872371673583984
1772482599976914000,3.286913818359375,0.6095520257949829,-1.7737140655517578,1.7520701885223389
1772482599986913000,3.2969130859375,0.6062884330749512,-1.7251973152160645,1.7382822036743164
1772482599996910800,3.306910888671875,0.5650837421417236,-1.6350456476211548,1.7532964944839478
1772482600006909000,3.316908935546875,0.531865119934082,-1.4890952110290527,1.7726033926010132
1772482600016907000,3.326906982421875,0.47755950689315796,-1.272701382637024,1.8129607439041138
1772482600026904800,3.33690478515625,0.4059477150440216,-0.9813147783279419,1.862813115119934
1772482600036904000,3.346904052734375,0.33361974358558655,-0.638352632522583,1.9211291074752808
1772482600046902000,3.356902099609375,0.2860265374183655,-0.3289564251899719,1.9731130599975586
1772482600056899800,3.36689990234375,0.24140578508377075,-0.15489542484283447,2.024721622467041
1772482600066898000,3.37689794921875,0.20171281695365906,-0.11659863591194153,2.0954320430755615
1772482600076896000,3.38689599609375,0.17783385515213013,-0.1606137603521347,2.1550474166870117
1772482600086895000,3.39689501953125,0.1693343222141266,-0.22753752768039703,2.1921324729919434
1772482600096893000,3.406892822265625,0.17419272661209106,-0.448198527097702,2.0824902057647705
1772482600106891000,3.41689111328125,0.2378939986228943,-0.960189700126648,1.695517897605896
1772482600116889000,3.42688916015625,0.3275279998779297,-1.3124028444290161,1.3483245372772217
1772482600126887000,3.436886962890625,0.34948867559432983,-1.563992977142334,1.0054237842559814
1772482600136885800,3.4468857421875,0.2493266612291336,-1.8732866048812866,0.5563796162605286
1772482600146883800,3.4568837890625,0.07593117654323578,-2.4104883670806885,-0.047458767890930176
1772482600156882000,3.4668818359375,-0.21538031101226807,-3.0888423919677734,-0.723006010055542
1772482600166880000,3.4768798828125,-0.6165208220481873,-3.662081003189087,-1.351441502571106
1772482600176878000,3.486878173828125,-0.9485030174255371,-3.8976030349731445,-1.835446834564209
1772482600186876700,3.496876708984375,-1.144864559173584,-3.9287731647491455,-2.207596778869629
1772482600196874800,3.506874755859375,-1.1599098443984985,-3.7683799266815186,-2.4345767498016357
1772482600206872800,3.516872802734375,-1.1307090520858765,-3.5282297134399414,-2.5435631275177
1772482600216871000,3.526870849609375,-1.07920241355896,-3.1692416667938232,-2.5194880962371826
1772482600226869000,3.536868896484375,-1.0318586826324463,-2.7777271270751953,-2.4241135120391846
1772482600236867800,3.546867919921875,-1.0216063261032104,-2.3625612258911133,-2.2140233516693115
1772482600246866000,3.556865966796875,-1.0537739992141724,-2.057255744934082,-1.899198293685913
1772482600256863700,3.56686376953125,-1.051536202430725,-1.7696974277496338,-1.4867700338363647
1772482600266861800,3.57686181640625,-1.0718846321105957,-1.52345609664917,-1.0566033124923706
1772482600276860000,3.58685986328125,-1.0785739421844482,-1.3824326992034912,-0.6270806789398193
1772482600286857700,3.596857666015625,-1.0904396772384644,-1.4712841510772705,-0.19208945333957672
1772482600296856800,3.60685693359375,-1.0508477687835693,-1.6314849853515625,0.23465068638324738
1772482600306855000,3.61685498046875,-1.0035816431045532,-1.65430748462677,0.5727120041847229
1772482600316852700,3.626852783203125,-0.8963454961776733,-1.5538948774337769,0.8279046416282654
1772482600326850800,3.636850830078125,-0.7253254652023315,-1.3969318866729736,1.0346208810806274
1772482600336849000,3.646848876953125,-0.5578219890594482,-1.227512240409851,1.2167991399765015
1772482600346847700,3.65684765625,-0.41487741470336914,-1.061265468597412,1.3756930828094482
1772482600356845800,3.666845703125,-0.3045809864997864,-0.8881232738494873,1.4913560152053833
1772482600366844000,3.676843994140625,-0.23300296068191528,-0.7146773934364319,1.5670233964920044
1772482600376841700,3.686841796875,-0.19549474120140076,-0.5438327193260193,1.5769442319869995
1772482600386839800,3.69683984375,-0.19954413175582886,-0.3818875253200531,1.5004736185073853
1772482600396839000,3.7068388671875,-0.22550621628761292,-0.2423168420791626,1.3444591760635376
1772482600406837000,3.7168369140625,-0.25920557975769043,-0.15605109930038452,1.1325732469558716
1772482600416834800,3.726834716796875,-0.2658751904964447,-0.13924415409564972,0.9131647348403931
1772482600426833000,3.7368330078125,-0.22390291094779968,-0.1970560997724533,0.6964924931526184
1772482600436831000,3.7468310546875,-0.13569927215576172,-0.28972262144088745,0.5217273831367493
1772482600446829800,3.756829833984375,-0.010333618149161339,-0.3839309811592102,0.39630213379859924
1772482600456828000,3.766827880859375,0.10889636725187302,-0.45553940534591675,0.30993181467056274
1772482600466826000,3.776825927734375,0.15356126427650452,-0.49756693840026855,0.23880180716514587
1772482600476823800,3.78682373046875,0.11849382519721985,-0.5960953831672668,0.1265391707420349
1772482600486822000,3.79682177734375,0.06240653991699219,-0.7081344723701477,0.0013376781716942787
1772482600496820000,3.806820068359375,0.038919053971767426,-0.797913670539856,-0.09977775067090988
1772482600506818800,3.81681884765625,0.0431271530687809,-0.8452790379524231,-0.16081924736499786
1772482600516817000,3.82681689453125,0.07366055995225906,-0.8286230564117432,-0.17966510355472565
1772482600526815000,3.83681494140625,0.12117563933134079,-0.7842400670051575,-0.1591312140226364
1772482600536812800,3.846812744140625,0.15244513750076294,-0.7053796052932739,-0.11847139149904251
1772482600546811000,3.856810791015625,0.16203749179840088,-0.5781545042991638,-0.09337395429611206
1772482600556810000,3.86681005859375,0.14062249660491943,-0.405102014541626,-0.08093992620706558
1772482600566808000,3.87680810546875,0.11260519176721573,-0.2537963390350342,-0.08856792747974396
1772482600576806000,3.886805908203125,0.09598147124052048,-0.15642477571964264,-0.10304034501314163
1772482600586804000,3.896803955078125,0.09489048272371292,-0.1216326430439949,-0.09211661666631699
1772482600596802000,3.906802001953125,0.10150337964296341,-0.10890486091375351,-0.05676208809018135
1772482600606801000,3.91680078125,0.08640599995851517,-0.0980871394276619,-0.0015978016890585423
1772482600616799000,3.926799072265625,0.03557503968477249,-0.07675015926361084,0.08004485815763474
1772482600626797000,3.936797119140625,-0.031087864190340042,-0.05119268223643303,0.18188998103141785
1772482600636795000,3.946794921875,-0.09152723848819733,-0.03373006731271744,0.3009476661682129
1772482600646793000,3.95679296875,-0.13164472579956055,-0.033515430986881256,0.4348296821117401
1772482600656791000,3.966791015625,-0.18047723174095154,-0.014436544850468636,0.5432347059249878
1772482600666790000,3.976789794921875,-0.2654571533203125,0.013953262940049171,0.6215720772743225
1772482600676788000,3.9867880859375,-0.3625892996788025,0.007211470045149326,0.641635537147522
1772482600686785800,3.996785888671875,-0.43503859639167786,0.04210126772522926,0.5890768766403198
1772482600696782800,4.006782958984375,-0.42054781317710876,0.12259212136268616,0.4847624599933624
1772482600706782000,4.016781982421875,-0.3199545741081238,0.2852044999599457,0.3852550685405731
1772482600716779800,4.02677978515625,-0.17695185542106628,0.5315016508102417,0.3234231472015381
1772482600726777900,4.03677783203125,-0.03218839690089226,0.8079020977020264,0.3116197884082794
1772482600736776000,4.04677587890625,0.058996640145778656,1.0360419750213623,0.32217204570770264
1772482600746773800,4.056773681640625,0.03508998453617096,1.177585244178772,0.3746664822101593
1772482600756772900,4.06677294921875,-0.04173102602362633,1.1536705493927002,0.43663719296455383
1772482600766771000,4.07677099609375,-0.11971084028482437,0.9522287249565125,0.45390763878822327
1772482600776768800,4.086768798828125,-0.19501572847366333,0.5250428318977356,0.35998913645744324
1772482600786766800,4.096766845703125,-0.29004958271980286,-0.009553313255310059,0.19152870774269104
1772482600796765000,4.106764892578125,-0.39370298385620117,-0.40065503120422363,0.01746343821287155
1772482600806763800,4.116763671875,-0.4590262174606323,-0.6156214475631714,-0.12872721254825592
1772482600816761900,4.126761962890625,-0.4715827703475952,-0.6825722455978394,-0.23441502451896667
1772482600826760000,4.136760009765625,-0.42882806062698364,-0.6239670515060425,-0.27246370911598206
1772482600836757800,4.1467578125,-0.3647468090057373,-0.47146543860435486,-0.23626655340194702
1772482600846755800,4.156755859375,-0.30303695797920227,-0.293667733669281,-0.14145371317863464
1772482600856754000,4.16675390625,-0.2514778971672058,-0.13479925692081451,-0.00505006592720747
1772482600866752800,4.176752685546875,-0.19655269384384155,-0.03827312961220741,0.16035506129264832
1772482600876750600,4.18675048828125,-0.1346922516822815,-0.021667523309588432,0.3493625223636627
1772482600886748700,4.196748779296875,-0.08805613964796066,-0.06903324276208878,0.5423190593719482
1772482600896746800,4.206746826171875,-0.06023276597261429,-0.1391201913356781,0.7260708212852478
1772482600906744800,4.216744873046875,-0.030745241791009903,-0.20363911986351013,0.8923394680023193
1772482600916743700,4.22674365234375,0.01897677406668663,-0.2574903666973114,1.0295733213424683
1772482600926741800,4.23674169921875,0.062440719455480576,-0.29058533906936646,1.1334717273712158
1772482600936739600,4.246739501953125,0.08707336336374283,-0.2951955199241638,1.1962454319000244
1772482600946737700,4.256737548828125,0.1001020297408104,-0.29496294260025024,1.2219785451889038
1772482600956735700,4.26673583984375,0.12300548702478409,-0.29638242721557617,1.206471562385559
1772482600966734600,4.276734619140625,0.15031105279922485,-0.28507834672927856,1.1531373262405396
1772482600976732700,4.286732666015625,0.20202751457691193,-0.27809765934944153,1.0589921474456787
1772482600986730800,4.296730712890625,0.23744642734527588,-0.30171576142311096,0.9388957023620605
1772482600996728600,4.306728515625,0.24882052838802338,-0.33302199840545654,0.828650176525116
1772482601006726700,4.3167265625,0.23000773787498474,-0.3622699975967407,0.7399653196334839
1772482601016724700,4.326724853515625,0.19850122928619385,-0.38666242361068726,0.6768110990524292
1772482601026723800,4.336723876953125,0.15889421105384827,-0.39372020959854126,0.6241791248321533
1772482601036721700,4.3467216796875,0.12919224798679352,-0.3846697211265564,0.5841147899627686
1772482601046719700,4.3567197265625,0.11950018256902695,-0.35955920815467834,0.5480018258094788
1772482601056717800,4.3667177734375,0.1211090013384819,-0.3234637677669525,0.5188995599746704
1772482601066715600,4.376715576171875,0.12573128938674927,-0.28590232133865356,0.49766263365745544
1772482601076714800,4.38671484375,0.13094362616539001,-0.2561422884464264,0.4772319197654724
1772482601086712800,4.396712890625,0.13943593204021454,-0.2270079255104065,0.4469769597053528
1772482601096712000,4.4067119140625,0.14701634645462036,-0.19626225531101227,0.40642207860946655
1772482601106709800,4.416709716796875,0.16769537329673767,-0.16680771112442017,0.3497493267059326
1772482601116707800,4.426707763671875,0.19542980194091797,-0.14305391907691956,0.27767565846443176
1772482601126705700,4.43670556640625,0.2130497694015503,-0.1260831207036972,0.19441238045692444
1772482601136703700,4.446703857421875,0.21916598081588745,-0.11196437478065491,0.11603528261184692
1772482601146702800,4.456702880859375,0.22014892101287842,-0.09277632087469101,0.0463327094912529
1772482601156701000,4.466700927734375,0.22129328548908234,-0.06578119099140167,-0.007700962945818901
1772482601166698800,4.47669873046875,0.22502240538597107,-0.03177588805556297,-0.04426373541355133
1772482601176696800,4.48669677734375,0.22870342433452606,0.00318502401933074,-0.07119734585285187
1772482601186695000,4.49669482421875,0.22471983730793,0.037542253732681274,-0.08266802877187729
1772482601196693800,4.50669384765625,0.21160829067230225,0.07540255784988403,-0.08254179358482361
1772482601206691800,4.51669189453125,0.1880519986152649,0.12345186620950699,-0.06549003720283508
1772482601216690000,4.52668994140625,0.14889049530029297,0.18237778544425964,-0.02947823889553547
1772482601226687700,4.536687744140625,0.10921238362789154,0.248519629240036,0.01717294752597809
1772482601236685800,4.546685791015625,0.06375781446695328,0.3134387135505676,0.06904706358909607
1772482601246684700,4.5566845703125,0.02002008631825447,0.3606783449649811,0.12517321109771729
1772482601256682800,4.566682861328125,-0.016599711030721664,0.36990591883659363,0.16961684823036194
1772482601266680800,4.576680908203125,-0.03565176948904991,0.3461371660232544,0.21216994524002075
1772482601276679000,4.586678955078125,-0.029543541371822357,0.31519147753715515,0.25775206089019775
1772482601286676700,4.5966767578125,0.0017184498719871044,0.283444881439209,0.3186209499835968
1772482601296675600,4.606675537109375,0.04744758829474449,0.24636036157608032,0.3977935314178467
1772482601306673700,4.616673583984375,0.09123462438583374,0.1906718909740448,0.48274722695350647
1772482601316671700,4.626671630859375,0.13041478395462036,0.10302993655204773,0.583838939666748
1772482601326669600,4.636669677734375,0.16092655062675476,0.0007003191858530045,0.6987612843513489
1772482601336668000,4.64666796875,0.2153005599975586,-0.047864288091659546,0.8284156918525696
1772482601346666000,4.656666015625,0.24019186198711395,0.024555526673793793,0.9781057834625244
1772482601356664600,4.66666455078125,0.25489065051078796,0.1630851775407791,1.1294617652893066
1772482601366662700,4.67666259765625,0.3079881966114044,0.33317458629608154,1.2157206535339355
1772482601376660700,4.68666064453125,0.3726175129413605,0.4728424847126007,1.182456135749817
1772482601386658600,4.696658447265625,0.3393852114677429,0.45853275060653687,1.0439568758010864
1772482601396656600,4.70665673828125,0.24076782166957855,0.20069187879562378,0.8731629848480225
1772482601406655700,4.71665576171875,0.12132497131824493,-0.20819731056690216,0.7197774052619934
1772482601416653800,4.72665380859375,-0.0036531826481223106,-0.648803174495697,0.6202700138092041
1772482601426651600,4.736651611328125,-0.11864724010229111,-1.026161789894104,0.6108492612838745
1772482601436649700,4.746649658203125,-0.2184305489063263,-1.3091835975646973,0.676482617855072
1772482601446647600,4.7566474609375,-0.3053242266178131,-1.4781612157821655,0.7667132019996643
1772482601456645600,4.766645751953125,-0.3815244436264038,-1.5333194732666016,0.8180797100067139
1772482601466644700,4.776644775390625,-0.43197327852249146,-1.4788438081741333,0.7979525923728943
1772482601476642800,4.786642822265625,-0.4582141935825348,-1.3769444227218628,0.7327560186386108
1772482601486640600,4.796640625,-0.4544009268283844,-1.2563360929489136,0.6078638434410095
1772482601496638700,4.806638671875,-0.4298444390296936,-1.1338744163513184,0.4402786195278168
1772482601506636800,4.81663671875,-0.4080934524536133,-1.007582426071167,0.23825502395629883
1772482601516635600,4.8266357421875,-0.4124317467212677,-0.85170978307724,0.06068077310919762
1772482601526633700,4.8366337890625,-0.4170706272125244,-0.6703061461448669,-0.07073412090539932
1772482601536631800,4.8466318359375,-0.4201279282569885,-0.4391056299209595,-0.14472313225269318
1772482601546629600,4.856629638671875,-0.4023981988430023,-0.17389900982379913,-0.16933241486549377
1772482601556627700,4.866627685546875,-0.3591732382774353,0.08800236880779266,-0.16575339436531067
1772482601566625800,4.876625732421875,-0.3290785253047943,0.30445635318756104,-0.14978910982608795
1772482601576625000,4.886625,-0.32915443181991577,0.42713218927383423,-0.12604489922523499
1772482601586622700,4.896622802734375,-0.34650278091430664,0.48097383975982666,-0.09636583924293518
1772482601596620800,4.906620849609375,-0.37241241335868835,0.46515920758247375,-0.0560317263007164
1772482601606618600,4.91661865234375,-0.4033512473106384,0.387909471988678,-0.012553324922919273
1772482601616616700,4.92661669921875,-0.4282025396823883,0.24023212492465973,0.028661224991083145
1772482601626615800,4.93661572265625,-0.43390554189682007,0.02711913175880909,0.059444863349199295
1772482601636614000,4.94661376953125,-0.42303770780563354,-0.22982558608055115,0.07918501645326614
1772482601646611700,4.95661181640625,-0.3872435390949249,-0.5099869966506958,0.08777420222759247
1772482601656609800,4.96660986328125,-0.3350977599620819,-0.7602096199989319,0.10532629489898682
1772482601666607900,4.97660791015625,-0.27400100231170654,-0.9472785592079163,0.14219559729099274
1772482601676607500,4.986607421875,-0.2013680785894394,-1.032712459564209,0.2097988873720169
1772482601686605600,4.99660546875,-0.12515419721603394,-1.0274978876113892,0.32221728563308716
1772482601696603600,5.006603759765625,-0.059042274951934814,-0.9557272791862488,0.464900404214859
1772482601706601700,5.016601806640625,0.007228089962154627,-0.86142498254776,0.6296505928039551
1772482601716599800,5.026599853515625,0.08312977850437164,-0.768695592880249,0.8194242715835571
1772482601726597600,5.03659765625,0.15763124823570251,-0.7047739028930664,1.0134183168411255
1772482601736596500,5.046596435546875,0.21915987133979797,-0.6872926354408264,1.2113865613937378
1772482601746594600,5.056594482421875,0.2762892246246338,-0.7049967050552368,1.4010679721832275
1772482601756592600,5.066592529296875,0.32759207487106323,-0.7457462549209595,1.583882212638855
1772482601766590700,5.0765908203125,0.3814705014228821,-0.7836176753044128,1.7505042552947998
1772482601776588800,5.0865888671875,0.4367894232273102,-0.8042986989021301,1.9106662273406982
1772482601786587400,5.09658740234375,0.49253833293914795,-0.8154174089431763,2.0674095153808594
1772482601796585500,5.10658544921875,0.5422627329826355,-0.8372294902801514,2.2166247367858887
1772482601806583600,5.11658349609375,0.5909335613250732,-0.8742607235908508,2.3687949180603027
1772482601816581400,5.126581298828125,0.6388254761695862,-0.937006950378418,2.5149149894714355
1772482601826579500,5.136579345703125,0.695481538772583,-1.003643274307251,2.6570358276367188
1772482601836577500,5.14657763671875,0.7642619609832764,-1.0836011171340942,2.7803571224212646
1772482601846576600,5.15657666015625,0.8375986218452454,-1.1722664833068848,2.8780627250671387
1772482601856574500,5.166574462890625,0.8938096761703491,-1.2903954982757568,2.9367034435272217
1772482601866572500,5.176572509765625,0.918070375919342,-1.4539120197296143,2.9147753715515137
1772482601876570600,5.186570556640625,0.878551185131073,-1.6966251134872437,2.763735294342041
1772482601886568400,5.196568359375,0.8086278438568115,-2.002248764038086,2.483208179473877
1772482601896567600,5.206567626953125,0.7016710042953491,-2.296793222427368,2.137802839279175
1772482601906565600,5.216565673828125,0.608798623085022,-2.5107452869415283,1.7862461805343628
1772482601916563500,5.2265634765625,0.5141054391860962,-2.5907437801361084,1.494911789894104
1772482601926561500,5.2365615234375,0.39565518498420715,-2.5734057426452637,1.2838935852050781
1772482601936559600,5.2465595703125,0.2522689998149872,-2.5181050300598145,1.140120506286621
1772482601946558500,5.256558349609375,0.12715953588485718,-2.479492425918579,1.0254521369934082
1772482601956556500,5.266556640625,0.06535769253969193,-2.430999279022217,0.9554534554481506
1772482601966554600,5.2765546875,0.08403854072093964,-2.3529250621795654,0.9529521465301514
1772482601976552400,5.286552490234375,0.12207113951444626,-2.269233226776123,1.0298943519592285
1772482601986550500,5.296550537109375,0.1474919319152832,-2.1822328567504883,1.1760786771774292
1772482601996548600,5.306548583984375,0.16926567256450653,-2.0967018604278564,1.3757151365280151
1772482602006547700,5.316547607421875,0.19646979868412018,-2.018855333328247,1.5925477743148804
1772482602016545500,5.326545654296875,0.2211889922618866,-1.945765495300293,1.7949494123458862
1772482602026543600,5.336543701171875,0.2405407726764679,-1.8745390176773071,1.970137357711792
1772482602036541700,5.346541748046875,0.24982616305351257,-1.8091474771499634,2.104745864868164
1772482602046539500,5.35653955078125,0.2695411145687103,-1.7535346746444702,2.1967203617095947
1772482602056538600,5.36653857421875,0.3100978434085846,-1.7270565032958984,2.2613096237182617
1772482602066536700,5.37653662109375,0.3596809506416321,-1.7384932041168213,2.3064050674438477
1772482602076534500,5.386534423828125,0.41085755825042725,-1.7747670412063599,2.328638792037964
1772482602086532600,5.39653271484375,0.4607175290584564,-1.8504282236099243,2.3279974460601807
1772482602096530700,5.40653076171875,0.5113343596458435,-1.943783164024353,2.285895347595215
1772482602106528500,5.416528564453125,0.563344419002533,-2.10029673576355,2.2062385082244873
1772482602116527600,5.426527587890625,0.6211305260658264,-2.2864978313446045,2.0804526805877686
1772482602126525700,5.436525634765625,0.6592444181442261,-2.4739866256713867,1.922616720199585
1772482602136523500,5.4465234375,0.6906383037567139,-2.735518455505371,1.7142552137374878
1772482602146521600,5.456521484375,0.6821625828742981,-3.030764102935791,1.4595812559127808
1772482602156519700,5.466519775390625,0.6242862343788147,-3.2954843044281006,1.1675493717193604
1772482602166518800,5.476518798828125,0.5223338603973389,-3.4721157550811768,0.8695317506790161
1772482602176516600,5.4865166015625,0.40068259835243225,-3.549440860748291,0.6053035855293274
1772482602186514700,5.4965146484375,0.2700290381908417,-3.546452045440674,0.40813156962394714
1772482602196512800,5.5065126953125,0.13810589909553528,-3.496028184890747,0.29398050904273987
1772482602206510600,5.516510498046875,0.02236546203494072,-3.4210147857666016,0.2586703300476074
1772482602216508700,5.5265087890625,-0.06295103579759598,-3.3207592964172363,0.2771683633327484
1772482602226507800,5.5365078125,-0.133689746260643,-3.209035873413086,0.347705215215683
1772482602236505600,5.546505615234375,-0.19907674193382263,-3.0787558555603027,0.4571310579776764
1772482602246503700,5.556503662109375,-0.2510163486003876,-2.9300646781921387,0.5920308828353882
1772482602256501800,5.566501708984375,-0.30692195892333984,-2.7473855018615723,0.7521156072616577
1772482602266499600,5.57649951171875,-0.3502246141433716,-2.5592076778411865,0.9317255616188049
1772482602276498400,5.58649853515625,-0.3719131350517273,-2.3781564235687256,1.1078041791915894
1772482602286496500,5.59649658203125,-0.35651153326034546,-2.1800880432128906,1.2769702672958374
1772482602296494600,5.60649462890625,-0.31635212898254395,-1.9790472984313965,1.418877124786377
1772482602306492700,5.61649267578125,-0.24992579221725464,-1.7990808486938477,1.5316321849822998
1772482602316490800,5.62649072265625,-0.18270495533943176,-1.6559958457946777,1.607003092765808
1772482602326488600,5.636488525390625,-0.12020895630121231,-1.541419506072998,1.6338584423065186
1772482602336487400,5.6464873046875,-0.08234520256519318,-1.4492480754852295,1.616409182548523
1772482602346485500,5.656485595703125,-0.07822398841381073,-1.3838322162628174,1.5831115245819092
1772482602356483600,5.666483642578125,-0.09806826710700989,-1.3564060926437378,1.5330486297607422
1772482602366481700,5.676481689453125,-0.12071839720010757,-1.3597707748413086,1.4790830612182617
1772482602376479700,5.686479736328125,-0.1401701271533966,-1.372664451599121,1.4317337274551392
1772482602386478600,5.696478515625,-0.15817484259605408,-1.386377215385437,1.3928323984146118
1772482602396476400,5.706476318359375,-0.1647893339395523,-1.3689457178115845,1.3619089126586914
1772482602406474500,5.716474609375,-0.1534271240234375,-1.309662103652954,1.3420032262802124
1772482602416472600,5.72647265625,-0.13957709074020386,-1.2167302370071411,1.3356987237930298
1772482602426470400,5.736470458984375,-0.12559707462787628,-1.097385287284851,1.3413269519805908
1772482602436468500,5.746468505859375,-0.1203882098197937,-0.9586693048477173,1.3607450723648071
1772482602446467600,5.756467529296875,-0.12184759229421616,-0.8147611618041992,1.3803613185882568
1772482602456465400,5.76646533203125,-0.12614381313323975,-0.6746876835823059,1.3883881568908691
1772482602466463500,5.77646337890625,-0.1306074559688568,-0.5402550101280212,1.3859550952911377
1772482602476461600,5.786461669921875,-0.14799657464027405,-0.42131397128105164,1.3685071468353271
1772482602486459400,5.79645947265625,-0.16863082349300385,-0.32750973105430603,1.3394062519073486
1772482602496458500,5.80645849609375,-0.18713659048080444,-0.2563876211643219,1.295438528060913
1772482602506456600,5.81645654296875,-0.2122989445924759,-0.21464712917804718,1.2382439374923706
1772482602516454700,5.82645458984375,-0.23581092059612274,-0.19700394570827484,1.168082356452942
1772482602526452500,5.836452392578125,-0.26837629079818726,-0.20095224678516388,1.0833261013031006
1772482602536450600,5.846450439453125,-0.301753431558609,-0.21849475800991058,0.9955669045448303
1772482602546448600,5.85644873046875,-0.3209242522716522,-0.24388325214385986,0.9013733863830566
1772482602556447500,5.866447509765625,-0.32595789432525635,-0.25008919835090637,0.8071244359016418
1772482602566445600,5.876445556640625,-0.3235650360584259,-0.24403992295265198,0.7263665795326233
1772482602576443600,5.886443603515625,-0.3193516433238983,-0.2473859190940857,0.6594660878181458
1772482602586441500,5.89644140625,-0.32082417607307434,-0.2564138174057007,0.6076722145080566
1772482602596439600,5.906439453125,-0.3166115880012512,-0.2557951509952545,0.5624490976333618
1772482602606438700,5.916438720703125,-0.294662207365036,-0.22313787043094635,0.5194973945617676
1772482602616436500,5.9264365234375,-0.2712375819683075,-0.16275762021541595,0.4767549932003021
1772482602626434600,5.9364345703125,-0.25174036622047424,-0.08181807398796082,0.4533778131008148
1772482602636432600,5.9464326171875,-0.24812352657318115,0.013583013787865639,0.4510451555252075
1772482602646430500,5.956430419921875,-0.23962512612342834,0.12285517901182175,0.4764440059661865
1772482602656428500,5.966428466796875,-0.22089990973472595,0.2241692841053009,0.5240769982337952
1772482602666427600,5.976427734375,-0.1957024186849594,0.3179819583892822,0.5868410468101501
1772482602676425000,5.986425048828125,-0.15795503556728363,0.37620317935943604,0.6546682715415955
1772482602686423000,5.996423095703125,-0.11454332619905472,0.41905516386032104,0.7188694477081299
1772482602696420900,6.0064208984375,-0.07461748272180557,0.4395434260368347,0.7840239405632019
1772482602706419000,6.0164189453125,-0.03287407010793686,0.4549202024936676,0.8494330048561096
1772482602716418000,6.02641796875,0.008309319615364075,0.4733245074748993,0.9190317988395691
1772482602726416100,6.036416015625,0.04273153468966484,0.5083239078521729,0.9965716600418091
1772482602736414000,6.0464140625,0.0647881031036377,0.5643908977508545,1.0682448148727417
1772482602746412000,6.056412109375,0.08167330175638199,0.6332905888557434,1.1305912733078003
1772482602756410000,6.06641015625,0.0829865112900734,0.6989132761955261,1.1717594861984253
1772482602766408000,6.076407958984375,0.08274532854557037,0.7382740378379822,1.2116503715515137
1772482602776407000,6.086406982421875,0.08810121566057205,0.7142102122306824,1.2396069765090942
1772482602786405000,6.096405029296875,0.09993351995944977,0.5846093893051147,1.2538291215896606
1772482602796403000,6.10640283203125,0.11087778210639954,0.30501025915145874,1.262851357460022
1772482602806401000,6.116401123046875,0.0939459577202797,-0.16245830059051514,1.1982932090759277
1772482602816399000,6.126399169921875,0.08621986210346222,-1.017606496810913,0.9242672324180603
1772482602826398000,6.13639794921875,0.061063725501298904,-1.7358133792877197,0.717424213886261
1772482602836396000,6.14639599609375,0.017129823565483093,-2.283118486404419,0.5899419188499451
1772482602846394000,6.15639404296875,-0.014841357246041298,-2.8180246353149414,0.44857701659202576
1772482602856392000,6.166391845703125,-0.06328505277633667,-3.373718738555908,0.30485260486602783
1772482602866390000,6.17639013671875,-0.13746605813503265,-3.9705116748809814,0.1920129656791687
1772482602876388000,6.18638818359375,-0.18089716136455536,-4.438875198364258,0.14108692109584808
1772482602886387200,6.19638720703125,-0.20679712295532227,-4.727693557739258,0.1662759929895401
1772482602896385000,6.206385009765625,-0.21303477883338928,-4.848606109619141,0.25663894414901733
1772482602906383000,6.216383056640625,-0.208760067820549,-4.77402400970459,0.40945252776145935
1772482602916381200,6.226381103515625,-0.190733402967453,-4.476541996002197,0.5985302925109863
1772482602926379000,6.23637890625,-0.1661202609539032,-4.0243682861328125,0.7853252291679382
1772482602936378000,6.246378173828125,-0.17030808329582214,-3.431147575378418,0.9516697525978088
1772482602946376200,6.256376220703125,-0.19981715083122253,-2.7997426986694336,1.0782831907272339
1772482602956374000,6.2663740234375,-0.2514270842075348,-2.2134764194488525,1.1552884578704834
1772482602966372000,6.2763720703125,-0.2877251207828522,-1.7083203792572021,1.1880321502685547
1772482602976370200,6.2863701171875,-0.2971702814102173,-1.2891758680343628,1.168133020401001
1772482602986368000,6.296367919921875,-0.2848716676235199,-0.9418988823890686,1.0820157527923584
1772482602996367000,6.3063671875,-0.231962651014328,-0.6397414207458496,0.936221182346344
1772482603006365200,6.316365234375,-0.1458125114440918,-0.3696838915348053,0.7588439583778381
1772482603016363000,6.326363037109375,-0.05628181993961334,-0.11461269855499268,0.5793713927268982
1772482603026361000,6.336361083984375,0.036507099866867065,0.14496204257011414,0.41220638155937195
1772482603036359200,6.346359130859375,0.14283938705921173,0.37923792004585266,0.2590445280075073
1772482603046357000,6.35635693359375,0.220884770154953,0.5757027268409729,0.11953332275152206
1772482603056355800,6.36635595703125,0.25756552815437317,0.6837090849876404,-0.011658251285552979
1772482603066354000,6.37635400390625,0.22366587817668915,0.7025121450424194,-0.1211485043168068
1772482603076352000,6.38635205078125,0.1427321434020996,0.6959471702575684,-0.1670859158039093
1772482603086350000,6.39635009765625,0.027041880413889885,0.6575910449028015,-0.14882081747055054
1772482603096348200,6.40634814453125,-0.10236617922782898,0.603299617767334,-0.052221041172742844
1772482603106347000,6.416346923828125,-0.15865767002105713,0.5475730299949646,0.10055326670408249
1772482603116344800,6.4263447265625,-0.16845010221004486,0.49128443002700806,0.2583596706390381
1772482603126343000,6.436343017578125,-0.15120044350624084,0.4369891285896301,0.3826211094856262
1772482603136341000,6.446341064453125,-0.1234617605805397,0.41608890891075134,0.43176281452178955
1772482603146338800,6.4563388671875,-0.09443303942680359,0.40182530879974365,0.4220055043697357
1772482603156337000,6.4663369140625,-0.06784003973007202,0.3602035641670227,0.3839329779148102
1772482603166336000,6.4763359375,-0.0444621779024601,0.2947031557559967,0.3313443064689636
1772482603176333800,6.486333740234375,-0.02070305310189724,0.19691509008407593,0.2785162329673767
1772482603186332000,6.496331787109375,0.005961745046079159,0.08286160230636597,0.24489842355251312
1772482603196330000,6.506330078125,0.026074469089508057,0.0069055864587426186,0.2089122086763382
1772482603206327800,6.516327880859375,0.06620529294013977,-0.028834450989961624,0.1622895896434784
1772482603216327000,6.526326904296875,0.09791102260351181,-0.02332969568669796,0.11116781085729599
1772482603226325000,6.536324951171875,0.11818747967481613,0.013344302773475647,0.08617398887872696
1772482603236323000,6.546322998046875,0.13419094681739807,0.05132737010717392,0.09151788800954819
1772482603246321000,6.55632080078125,0.14019721746444702,0.08048272132873535,0.10593896359205246
1772482603256319000,6.566319091796875,0.15140965580940247,0.10001647472381592,0.11449756473302841
1772482603266316800,6.57631689453125,0.16541080176830292,0.15179531276226044,0.1317385733127594
1772482603276316000,6.58631591796875,0.16761936247348785,0.2339828610420227,0.1684955209493637
1772482603286314000,6.59631396484375,0.14928722381591797,0.34529197216033936,0.1977689415216446
1772482603296312000,6.60631201171875,0.13965216279029846,0.46791377663612366,0.18901672959327698
1772482603306310000,6.616309814453125,0.10924270749092102,0.5942594408988953,0.15236882865428925
1772482603316308000,6.626307861328125,0.05182895064353943,0.6907278895378113,0.1441761553287506
1772482603326306000,6.63630615234375,0.03458072990179062,0.6586516499519348,0.16814900934696198
1772482603336305000,6.646304931640625,-0.004008740186691284,0.5586909651756287,0.2195834368467331
1772482603346303000,6.656302978515625,-0.011682753451168537,0.41566646099090576,0.2667471170425415
1772482603356301000,6.666301025390625,-0.01524979155510664,0.28928083181381226,0.2938048243522644
1772482603366299000,6.676298828125,-0.002880946733057499,0.20411039888858795,0.30575403571128845
1772482603376297000,6.686296875,-0.00032244715839624405,0.12480758130550385,0.28017571568489075
1772482603386296000,6.696296142578125,0.014760571531951427,0.012541105039417744,0.2396553009748459
1772482603396294100,6.706294189453125,0.024295754730701447,-0.11530766636133194,0.1894531100988388
1772482603406292000,6.7162919921875,0.022512681782245636,-0.2513469457626343,0.15272952616214752
1772482603416290000,6.7262900390625,0.005242615472525358,-0.3974492847919464,0.13868427276611328
1772482603426288000,6.7362880859375,-0.015771275386214256,-0.5485911965370178,0.16022196412086487
1772482603436286000,6.746285888671875,-0.020111162215471268,-0.6905485987663269,0.21500559151172638
1772482603446285000,6.75628515625,-0.008834512904286385,-0.8229297399520874,0.29815948009490967
1772482603456283100,6.766283203125,-0.010947996750473976,-0.9205234050750732,0.3991968631744385
1772482603466281000,6.776281005859375,-0.030709870159626007,-0.9837322235107422,0.5150226354598999
1772482603476279000,6.786279052734375,-0.051630329340696335,-1.0072214603424072,0.6168100237846375
1772482603486277000,6.796277099609375,-0.05477854236960411,-0.9991686940193176,0.7069727778434753
1772482603496276000,6.80627587890625,-0.03605678305029869,-0.977401614189148,0.7920394539833069
1772482603506274000,6.816274169921875,0.0062032658606767654,-0.9543019533157349,0.8705991506576538
1772482603516272000,6.826272216796875,0.06431024521589279,-0.934573769569397,0.9331949353218079
1772482603526270000,6.83627001953125,0.14152032136917114,-0.8849174380302429,0.9794341921806335
1772482603536268000,6.84626806640625,0.21772855520248413,-0.8049011826515198,0.9925470948219299
1772482603546266000,6.85626611328125,0.2849630117416382,-0.7258683443069458,0.983976423740387
1772482603556265200,6.86626513671875,0.3254862129688263,-0.6964761018753052,0.9670264720916748
1772482603566263000,6.876262939453125,0.3290892541408539,-0.7345389127731323,0.9526172280311584
1772482603576261000,6.88626123046875,0.29150673747062683,-0.8246773481369019,0.9576396942138672
1772482603586259200,6.89625927734375,0.2305271178483963,-0.9448934197425842,0.9745858907699585
1772482603596257000,6.906257080078125,0.16390495002269745,-1.0604838132858276,0.9940868616104126
1772482603606255000,6.916255126953125,0.10158868134021759,-1.1438854932785034,1.0145318508148193
1772482603616254200,6.926254150390625,0.07080386579036713,-1.2077549695968628,1.0287039279937744
1772482603626252000,6.936251953125,0.08273633569478989,-1.2350815534591675,1.0432161092758179
1772482603636250000,6.94625,0.10139098018407822,-1.2308443784713745,1.0495434999465942
1772482603646248200,6.956248291015625,0.1363709717988968,-1.1976640224456787,1.0394389629364014
1772482603656246000,6.96624609375,0.16980428993701935,-1.1388952732086182,1.0189781188964844
1772482603666244900,6.976244873046875,0.20700325071811676,-1.0697791576385498,0.9940717220306396
1772482603676243000,6.986242919921875,0.2527531683444977,-0.9864168167114258,0.9500331878662109
1772482603686241000,6.996240966796875,0.32128822803497314,-0.8944268226623535,0.8200961351394653
1772482603696238800,7.00623876953125,0.38816288113594055,-0.8063102960586548,0.6608156561851501
1772482603706237000,7.01623681640625,0.41323551535606384,-0.7201492786407471,0.5133867859840393
1772482603716235000,7.026235107421875,0.40791213512420654,-0.6369348168373108,0.3681211769580841
1772482603726233900,7.03623388671875,0.3810170590877533,-0.5514822006225586,0.23910902440547943
1772482603736231700,7.046231689453125,0.3456268310546875,-0.4481959939002991,0.15756915509700775
1772482603746229800,7.056229736328125,0.2914547622203827,-0.3278968036174774,0.14423507452011108
1772482603756227800,7.066227783203125,0.257545530796051,-0.2104516625404358,0.17846441268920898
1772482603766226000,7.076225830078125,0.25165799260139465,-0.11956337094306946,0.2235429733991623
1772482603776224000,7.08622412109375,0.2534601390361786,-0.0527622364461422,0.2531517446041107
1772482603786222800,7.096222900390625,0.25846198201179504,0.005843833088874817,0.2662186920642853
1772482603796220700,7.106220703125,0.26664480566978455,0.1096637099981308,0.2700411081314087
1772482603806218800,7.11621875,0.2758846879005432,0.27291497588157654,0.3042093813419342
1772482603816216800,7.126216796875,0.2660429775714874,0.4077204465866089,0.3398696482181549
1772482603826215000,7.13621484375,0.23541384935379028,0.4294036030769348,0.35279932618141174
1772482603836213800,7.1462138671875,0.20276854932308197,0.4120544195175171,0.3462255597114563
1772482603846211800,7.1562119140625,0.20378148555755615,0.35034453868865967,0.34272459149360657
1772482603856209700,7.166209716796875,0.2040368914604187,0.3106602430343628,0.3532494008541107
1772482603866207700,7.176207763671875,0.14758148789405823,0.32388898730278015,0.37207701802253723
1772482603876205800,7.186205810546875,0.07210297882556915,0.26178592443466187,0.3391451835632324
1772482603886203600,7.19620361328125,0.015721887350082397,0.12991863489151,0.24492043256759644
1772482603896202800,7.20620263671875,0.00627778610214591,-0.025061629712581635,0.10696816444396973
1772482603906200800,7.216200927734375,0.028057534247636795,-0.18436187505722046,-0.040453579276800156
1772482603916198700,7.22619873046875,0.10078925639390945,-0.34658703207969666,-0.16897399723529816
1772482603926196700,7.23619677734375,0.1980041116476059,-0.4451656937599182,-0.23221386969089508
1772482603936194800,7.24619482421875,0.22784829139709473,-0.39265426993370056,-0.23091158270835876
1772482603946192600,7.256192626953125,0.20484448969364166,-0.2057957649230957,-0.18900124728679657
1772482603956191700,7.266191650390625,0.1533820927143097,0.03978550806641579,-0.14463138580322266
1772482603966189800,7.27618994140625,0.10230328142642975,0.2741401791572571,-0.14694824814796448
1772482603976188000,7.28618798828125,0.07365725934505463,0.5097149014472961,-0.2126188725233078
1772482603986185700,7.296185791015625,0.0776284709572792,0.761664867401123,-0.3286604583263397
1772482603996183800,7.306183837890625,0.15059669315814972,0.938835620880127,-0.47106286883354187
1772482604006183000,7.316182861328125,0.22184190154075623,1.024712324142456,-0.5715970396995544
1772482604016180700,7.3261806640625,0.2586108446121216,1.0249041318893433,-0.6370162963867188
1772482604026178800,7.3361787109375,0.28209561109542847,1.0110136270523071,-0.6486451029777527
1772482604036177000,7.346177001953125,0.26526737213134766,1.0208086967468262,-0.5981545448303223
1772482604046174700,7.3561748046875,0.2346084862947464,1.020897388458252,-0.5107163190841675
1772482604056172800,7.3661728515625,0.1979077309370041,0.923464298248291,-0.440592885017395
1772482604066172000,7.376171875,0.1791618913412094,0.7327175140380859,-0.4387696385383606
1772482604076169700,7.386169677734375,0.1618228554725647,0.6120693683624268,-0.5443431735038757
1772482604086167800,7.396167724609375,0.10117408633232117,0.5976950526237488,-0.7392138242721558
1772482604096166000,7.406165771484375,-0.06282150745391846,0.6015310883522034,-0.8980942964553833
1772482604106163700,7.416163818359375,-0.3239990174770355,0.5947257280349731,-0.9373197555541992
1772482604116161800,7.426161865234375,-0.6307896375656128,0.5625475645065308,-0.8558629751205444
1772482604126161000,7.436160888671875,-0.8469443321228027,0.5066737532615662,-0.6723792552947998
1772482604136159000,7.446158935546875,-0.886520266532898,0.4480980634689331,-0.47929686307907104
1772482604146156800,7.45615673828125,-0.7907604575157166,0.30876609683036804,-0.353544145822525
1772482604156155000,7.46615478515625,-0.4879201650619507,0.0889975056052208,-0.28483644127845764
1772482604166153000,7.476153076171875,-0.12986330687999725,-0.14744322001934052,-0.26888060569763184
1772482604176150800,7.48615087890625,0.013242446817457676,-0.41064131259918213,-0.29738467931747437
1772482604186150000,7.49614990234375,-0.013734880834817886,-0.6524427533149719,-0.3642670214176178
1772482604196148000,7.50614794921875,-0.11611397564411163,-0.8292308449745178,-0.4652540981769562
1772482604206145800,7.516145751953125,-0.24819335341453552,-0.8601905703544617,-0.5609782338142395
1772482604216144000,7.526143798828125,-0.36877676844596863,-0.7806853652000427,-0.6189126968383789
1772482604226142000,7.536141845703125,-0.4274847209453583,-0.5503345727920532,-0.6018630266189575
1772482604236140800,7.546140869140625,-0.48881810903549194,-0.2604619860649109,-0.5207500457763672
1772482604246139000,7.556138916015625,-0.4857659339904785,-0.08708218485116959,-0.43510371446609497
1772482604256137000,7.566136962890625,-0.4272727966308594,-0.009671546518802643,-0.31971853971481323
1772482604266134800,7.576134765625,-0.3174268901348114,-0.06860704720020294,-0.17142163217067719
1772482604276132900,7.5861328125,-0.21234573423862457,-0.05252048745751381,-0.04935323819518089
1772482604286131000,7.596130859375,-0.10333254188299179,-0.0824352279305458,0.07266078889369965
1772482604296130000,7.606130126953125,0.037859998643398285,-0.18700052797794342,0.19498004019260406
1772482604306128000,7.6161279296875,0.1580902487039566,-0.31829002499580383,0.3135882019996643
1772482604316126000,7.6261259765625,0.24934212863445282,-0.4069458544254303,0.4432849586009979
1772482604326124000,7.6361240234375,0.327921986579895,-0.4579886496067047,0.5618451237678528
1772482604336121900,7.646121826171875,0.36301764845848083,-0.478180468082428,0.6520152688026428
1772482604346120000,7.656119873046875,0.34466812014579773,-0.42563679814338684,0.7053278088569641
1772482604356119000,7.666119140625,0.30480271577835083,-0.3095943331718445,0.6807957887649536
1772482604366116900,7.676116943359375,0.2665751576423645,-0.153736412525177,0.554695188999176
1772482604376115000,7.686114990234375,0.22137892246246338,-0.012361176311969757,0.3618626296520233
1772482604386113000,7.696113037109375,0.15675725042819977,0.09416689723730087,0.16203640401363373
1772482604396110800,7.70611083984375,0.08965811133384705,0.18990805745124817,0.0014424719847738743
1772482604406109000,7.71610888671875,0.02891078218817711,0.2897809147834778,-0.10400158911943436
1772482604416107800,7.726107666015625,-0.017659645527601242,0.38655832409858704,-0.15712925791740417
1772482604426105900,7.73610595703125,-0.06493266671895981,0.4758639931678772,-0.18665988743305206
1772482604436104000,7.74610400390625,-0.08429837971925735,0.5778116583824158,-0.21292266249656677
1772482604446102000,7.75610205078125,-0.0749584436416626,0.6435995697975159,-0.2521899938583374
1772482604456099800,7.766099853515625,-0.07014850527048111,0.6579878330230713,-0.29596009850502014
1772482604466098000,7.776097900390625,-0.07231786102056503,0.6122912764549255,-0.3406907618045807
1772482604476096800,7.7860966796875,-0.06810234487056732,0.5033254027366638,-0.3785787522792816
1772482604486094800,7.7960947265625,-0.0586223267018795,0.34953102469444275,-0.40418800711631775
1772482604496092700,7.8060927734375,-0.05916507914662361,0.13224583864212036,-0.40471771359443665
1772482604506090800,7.8160908203125,0.0035204067826271057,-0.08581246435642242,-0.3640616238117218
1772482604516088800,7.8260888671875,0.11721128225326538,-0.10558350384235382,-0.2220805138349533
1772482604526087700,7.836087646484375,0.10319778323173523,-0.04816136881709099,-0.17257919907569885
1772482604536085800,7.846085693359375,0.13031063973903656,0.05997415632009506,-0.1276884377002716
1772482604546083800,7.856083740234375,0.09184899926185608,0.13788564503192902,-0.10304364562034607
1772482604556081700,7.86608154296875,-0.11680273711681366,0.2267571985721588,-0.043649569153785706
1772482604566079700,7.876079833984375,-0.3259883522987366,0.27919554710388184,0.07412295788526535
1772482604576077800,7.886077880859375,-0.3874530494213104,0.14015880227088928,0.2175149917602539
1772482604586076700,7.89607666015625,-0.2708410322666168,-0.26943790912628174,0.24994529783725739
1772482604596074800,7.90607470703125,-0.0415833555161953,-0.5852081179618835,0.35820332169532776
1772482604606072800,7.91607275390625,0.18426953256130219,-0.8342515826225281,0.46423378586769104
1772482604616070700,7.926070556640625,0.33063313364982605,-1.0577105283737183,0.4935048818588257
1772482604626068700,7.93606884765625,0.42896097898483276,-1.1532970666885376,0.4923284947872162
1772482604636066800,7.94606689453125,0.3991034924983978,-0.9910881519317627,0.5263453125953674
1772482604646066000,7.95606591796875,0.25948962569236755,-0.593446671962738,0.5628294348716736
1772482604656063700,7.966063720703125,0.05812615901231766,-0.0911124050617218,0.5766059756278992
1772482604666061800,7.976061767578125,-0.09955205768346786,0.38642820715904236,0.5699103474617004
1772482604676060000,7.986059814453125,-0.16542987525463104,0.6598179340362549,0.5229321718215942
1772482604686057700,7.9960576171875,-0.18572479486465454,0.6958774924278259,0.4598240554332733
1772482604696055600,8.0060556640625,-0.16020824015140533,0.5586817860603333,0.4260908365249634
1772482604706053600,8.0160537109375,-0.10954861342906952,0.325335294008255,0.4629150331020355
1772482604716051700,8.0260517578125,-0.043755222111940384,0.0726386085152626,0.5850920677185059
1772482604726049500,8.036049560546875,0.014370172284543514,-0.16195815801620483,0.7686297297477722
1772482604736047900,8.0460478515625,0.09467460215091705,-0.2768216133117676,1.0516555309295654
1772482604746046700,8.056046630859376,0.1626359075307846,-0.35534194111824036,1.2961283922195435
1772482604756044800,8.066044921875,0.20715942978858948,-0.407406210899353,1.4853951930999756
1772482604766042600,8.076042724609374,0.2642054855823517,-0.37640997767448425,1.6547021865844727
1772482604776040700,8.086040771484376,0.3455016613006592,-0.23766008019447327,1.8157081604003906
1772482604786038800,8.096038818359375,0.3912370204925537,-0.07715877145528793,1.8497257232666016
1772482604796036600,8.10603662109375,0.48487189412117004,0.11918917298316956,1.6822609901428223
1772482604806035700,8.11603564453125,0.6254268288612366,0.5255147218704224,1.4675341844558716
1772482604816033800,8.12603369140625,0.7339658141136169,1.0005862712860107,1.2301679849624634
1772482604826031600,8.136031494140624,0.8751320838928223,1.4885520935058594,1.0703481435775757
1772482604836029700,8.14602978515625,1.1042057275772095,2.0480637550354004,1.006129503250122
1772482604846027800,8.15602783203125,1.5233522653579712,2.4979405403137207,0.9179139733314514
1772482604856025600,8.166025634765624,2.1293747425079346,2.8961713314056396,0.8598671555519104
1772482604866024700,8.176024658203126,3.004640817642212,3.1570043563842773,0.8646770715713501
1772482604876022800,8.186022705078125,4.091944217681885,2.90671968460083,0.8102811574935913
1772482604886020600,8.1960205078125,5.08501672744751,2.278749465942383,0.870997965335846
1772482604896018700,8.206018798828126,5.7215800285339355,1.038295865058899,1.0564535856246948
1772482604906016800,8.216016845703125,5.82144832611084,-0.3451896905899048,1.3984450101852417
1772482604916014600,8.2260146484375,5.5956878662109375,-1.1907899379730225,1.9570558071136475
1772482604926013700,8.236013671875,5.269616603851318,-1.760170817375183,2.561351776123047
1772482604936011800,8.24601171875,4.70003604888916,-2.8574278354644775,2.7586324214935303
1772482604946009900,8.256009765625,3.5820086002349854,-3.7172536849975586,1.9542906284332275
1772482604956007700,8.266007568359376,2.637620210647583,-3.8765151500701904,0.6227651834487915
1772482604966005800,8.276005859375,2.367123603820801,-2.8056535720825195,-0.0845518410205841
1772482604976003600,8.286003662109374,2.2393906116485596,-1.6018766164779663,-0.402967631816864
1772482604986002700,8.296002685546876,2.137798309326172,-0.9472019076347351,-0.722698450088501
1772482604996000800,8.306000732421875,2.044138193130493,-0.9617099761962891,-0.8890674114227295
1772482605005998800,8.315998779296875,1.77178955078125,-1.2550283670425415,-0.7506247758865356
1772482605015996700,8.32599658203125,1.5259315967559814,-1.5345532894134521,-0.41944125294685364
1772482605025994800,8.335994873046875,1.5046766996383667,-1.3512805700302124,-0.007519986480474472
1772482605035992800,8.345992919921875,1.8227430582046509,-0.6700085401535034,0.3786090612411499
1772482605045991700,8.35599169921875,2.052755117416382,-0.056528061628341675,0.64169842004776
1772482605055989800,8.36598974609375,1.8338639736175537,-0.11425367742776871,0.7920224070549011
1772482605065987800,8.37598779296875,1.2880892753601074,-0.6639463305473328,0.9017364382743835
1772482605075985700,8.385985595703126,0.7252206206321716,-1.4132806062698364,0.8143775463104248
1772482605085983700,8.395983642578125,0.4089803993701935,-3.1773428916931152,0.0524841770529747
1772482605095984600,8.405984619140625,0.383393794298172,-4.638678550720215,-0.38506972789764404
1772482605105982700,8.415982666015625,0.4424067735671997,-5.462822437286377,-0.8952674269676208
1772482605115980800,8.425980712890626,0.32912975549697876,-5.003796577453613,-1.476987600326538
1772482605125978600,8.435978515625,0.1281309574842453,-3.5947279930114746,-2.0505259037017822
1772482605135976700,8.445976806640624,0.00989645067602396,-1.8178555965423584,-2.3694229125976562
1772482605145975800,8.455975830078126,-0.12715445458889008,-0.22164873778820038,-2.4443142414093018
1772482605155973600,8.4659736328125,-0.30692794919013977,0.9833672046661377,-2.3791794776916504
1772482605165971700,8.4759716796875,-0.47501829266548157,1.707545280456543,-2.1767120361328125
1772482605175969800,8.4859697265625,-0.5699498653411865,1.8699538707733154,-1.848840594291687
1772482605185967600,8.495967529296875,-0.5279185771942139,1.5545403957366943,-1.464226484298706
1772482605195965700,8.505965576171874,-0.3748110830783844,0.9144684672355652,-1.0624114274978638
1772482605205964800,8.51596484375,-0.1442590355873108,0.23108161985874176,-0.6937100887298584
1772482605215962600,8.525962646484375,0.1535787731409073,-0.36244669556617737,-0.3871017098426819
1772482605225960700,8.535960693359375,0.4170937240123749,-0.8072472214698792,-0.17582698166370392
1772482605235958800,8.545958740234376,0.6073116064071655,-1.1098949909210205,-0.08937038481235504
1772482605245956600,8.55595654296875,0.7018279433250427,-1.2176705598831177,-0.13084936141967773
1772482605255955700,8.565955810546875,0.712412416934967,-1.2124779224395752,-0.22893331944942474
1772482605265953800,8.575953857421876,0.6417675614356995,-1.066563606262207,-0.3037373125553131
1772482605275951900,8.585951904296875,0.518367350101471,-0.8819493055343628,-0.321970671415329
1772482605285949700,8.59594970703125,0.3925412893295288,-0.6908735036849976,-0.29862180352211
1772482605295947800,8.60594775390625,0.2733222246170044,-0.48896193504333496,-0.2735491991043091
1772482605305945900,8.61594580078125,0.1671140044927597,-0.27472060918807983,-0.30569988489151
1772482605315944700,8.62594482421875,0.10090330988168716,-0.01398114301264286,-0.38631483912467957
1772482605325942800,8.63594287109375,0.03327234089374542,0.23896262049674988,-0.48589959740638733
1772482605335940900,8.64594091796875,-0.03227684274315834,0.4125695824623108,-0.5896121263504028
1772482605345938700,8.655938720703125,-0.06646132469177246,0.503720223903656,-0.6963698267936707
1772482605355936800,8.665936767578126,-0.07520288228988647,0.5494837164878845,-0.8197727203369141
1772482605365934800,8.675934814453125,-0.0657430961728096,0.5718104243278503,-0.9266424775123596
1772482605375933700,8.68593359375,-0.05712644010782242,0.5811863541603088,-1.0145715475082397
1772482605385931800,8.695931884765624,-0.050107330083847046,0.5249925255775452,-1.0785852670669556
1772482605395929900,8.705929931640625,-0.01293572410941124,0.31247228384017944,-1.1599693298339844
1772482605405927700,8.715927734375,0.04667254537343979,-0.15099358558654785,-1.2439422607421875
1772482605415925800,8.72592578125,0.08592913299798965,-0.7774428129196167,-1.3048908710479736
1772482605425923800,8.735923828125,0.08596166968345642,-1.3301202058792114,-1.259408712387085
1772482605435923000,8.7459228515625,0.051884930580854416,-1.5912526845932007,-1.2747501134872437
1772482605445920800,8.755920654296874,0.01724321022629738,-1.5770503282546997,-1.428503155708313
1772482605455918800,8.7659189453125,0.010469991713762283,-2.0842058658599854,-0.7258691191673279
1772482605465917000,8.7759169921875,0.4249928891658783,-2.6158447265625,0.5903089046478271
1772482605475914800,8.785914794921876,0.4470667839050293,-2.4282751083374023,1.3251127004623413
1772482605485912800,8.795912841796875,0.12229574471712112,-1.5636526346206665,1.532536268234253
1772482605495912000,8.805911865234375,-0.1834239512681961,-0.5327306985855103,1.7239173650741577
1772482605505909800,8.81590966796875,-0.24801479279994965,0.3405766785144806,1.8989585638046265
1772482605515907800,8.825907958984375,-0.1770005226135254,0.9258164167404175,1.7776278257369995
1772482605525906000,8.835906005859375,-0.10816333442926407,1.1690876483917236,1.457275152206421
1772482605535903700,8.84590380859375,-0.09842388331890106,0.499122679233551,1.2257881164550781
1772482605545901800,8.85590185546875,-0.12555278837680817,-0.6378995180130005,1.4494380950927734
1772482605555901000,8.86590087890625,-0.220271036028862,-1.7928760051727295,2.0528860092163086
1772482605565898800,8.875898681640624,-0.38921788334846497,-2.718827962875366,2.530160665512085
1772482605575896800,8.885896728515625,-0.48979613184928894,-2.909379720687866,2.5452184677124023
1772482605585895000,8.89589501953125,-0.44845134019851685,-2.337021827697754,2.3589394092559814
1772482605595892700,8.905892822265624,-0.2450428158044815,-1.3163731098175049,2.1403725147247314
1772482605605890800,8.915890869140625,-0.12759846448898315,-0.2681604325771332,1.781224012374878
1772482605615889700,8.9258896484375,-0.08865134418010712,0.2518731653690338,1.4644888639450073
1772482605625887700,8.9358876953125,0.020339619368314743,0.30846142768859863,1.3889291286468506
1772482605635885800,8.9458857421875,0.09282207489013672,0.16973178088665009,1.5021376609802246
1772482605645884000,8.9558837890625,0.06112067773938179,0.08965715765953064,1.4659507274627686
1772482605655881700,8.9658818359375,0.12031129747629166,0.11222398281097412,1.3766999244689941
1772482605665879800,8.9758798828125,0.1829584240913391,0.06943060457706451,1.2696852684020996
1772482605675878700,8.985878662109375,0.2873290181159973,-0.2356291562318802,1.2461251020431519
1772482605685876500,8.99587646484375,0.38316479325294495,-0.7271596193313599,1.2630034685134888
1772482605695874600,9.00587451171875,0.4047369360923767,-0.8340290784835815,1.263805627822876
1772482605705872600,9.01587255859375,0.3261881172657013,-0.8403117060661316,1.2061266899108887
1772482605715870500,9.025870361328124,0.17821861803531647,-0.7398689985275269,1.0509918928146362
1772482605725868500,9.03586865234375,0.08576256781816483,-0.7733138203620911,0.9310991764068604
1772482605735867400,9.045867431640625,0.011751723475754261,-1.086337924003601,0.8103194832801819
1772482605745865500,9.055865478515624,-0.1307726502418518,-1.3593372106552124,0.7972303628921509
1772482605755863600,9.065863525390625,-0.1892213076353073,-1.704345464706421,0.845872163772583
1772482605765861600,9.075861572265625,-0.15871380269527435,-1.3573322296142578,0.7614139318466187
1772482605775859500,9.085859375,-0.18069367110729218,-0.7530345320701599,0.7414883971214294
1772482605785857500,9.095857421875,-0.19956345856189728,-0.4431121051311493,0.7285653948783875
1772482605795856400,9.1058564453125,-0.24517622590065002,-0.3505302369594574,0.7165936827659607
1772482605805854500,9.1158544921875,-0.22396089136600494,-0.3381810188293457,0.6829792857170105
1772482605815852300,9.125852294921875,-0.14332462847232819,-0.32822638750076294,0.6470617651939392
1772482605825850400,9.135850341796875,0.0009673573076725006,-0.3388029932975769,0.6105131506919861
1772482605835848400,9.145848388671874,0.22658103704452515,-0.38435131311416626,0.5391356348991394
1772482605845846500,9.155846435546875,0.5121451020240784,-0.34240639209747314,0.45822766423225403
1772482605855845400,9.165845458984375,0.46298927068710327,-0.5077441930770874,0.36675524711608887
1772482605865843500,9.175843505859374,0.4914467930793762,-0.43681249022483826,0.2991069555282593
1772482605875841300,9.18584130859375,0.522545337677002,-0.11296676099300385,0.30273497104644775
1772482605885839400,9.19583935546875,0.36028212308883667,-0.008596420288085938,0.26386746764183044
1772482605895837400,9.20583740234375,0.1539715677499771,-0.1940150260925293,0.18614628911018372
1772482605905835300,9.215835205078125,0.09243354201316833,-0.16866302490234375,0.07825132459402084
1772482605915834400,9.22583447265625,-0.009447013027966022,-0.14152780175209045,-0.04469350725412369
1772482605925832400,9.23583251953125,-0.03044608235359192,-0.1389542520046234,-0.18066516518592834
1772482605935830300,9.245830322265626,-0.04241912066936493,-0.14762523770332336,-0.32034555077552795
1772482605945828400,9.255828369140625,-0.0034496570006012917,-0.17814695835113525,-0.39071083068847656
1772482605955826400,9.265826416015624,-0.05081211403012276,-0.05384550243616104,-0.4082552194595337
1772482605965824300,9.27582421875,0.3005995750427246,0.35332420468330383,-0.23375992476940155
1772482605975823400,9.2858232421875,0.02285584807395935,0.24561746418476105,-0.23437164723873138
1772482605985821400,9.295821533203124,-0.05239398404955864,0.20011161267757416,-0.187872052192688
1772482605995819500,9.305819580078126,0.031643129885196686,0.2649036645889282,-0.1374347060918808
1772482606005817300,9.3158173828125,0.09122346341609955,0.1374940127134323,-0.20875680446624756
1772482606015815400,9.3258154296875,0.1607077419757843,-0.003516098018735647,-0.3054037094116211
1772482606025813500,9.3358134765625,0.29513996839523315,-0.12127930670976639,-0.38683411478996277
1772482606035812400,9.345812255859375,0.46254172921180725,-0.25343015789985657,-0.40356382727622986
1772482606045810400,9.355810546875,0.5466262698173523,-0.4360147714614868,-0.4287310242652893
1772482606055808500,9.36580859375,0.560917854309082,-0.8020289540290833,-0.44341009855270386
1772482606065806300,9.375806396484375,0.5796367526054382,-1.4465500116348267,-0.528953492641449
1772482606075804400,9.385804443359374,0.6286072134971619,-2.4746479988098145,-1.4592480659484863
1772482606085802500,9.395802490234376,0.7621200680732727,-3.17753529548645,-1.2929162979125977
1772482606095801300,9.40580126953125,0.6205552220344543,-2.4357357025146484,0.2876266837120056
1772482606105799400,9.41579931640625,0.3874928951263428,-1.438270926475525,-0.18775931000709534
1772482606115797500,9.425797607421876,0.6699094176292419,-1.2374366521835327,-0.6944275498390198
1772482606125795300,9.43579541015625,0.8906028270721436,-1.609766960144043,-1.1111207008361816
1772482606135793400,9.44579345703125,1.1439019441604614,-2.1395115852355957,-1.482728362083435
1772482606145791500,9.45579150390625,1.446923851966858,-2.5324764251708984,-1.8016289472579956
1772482606155790600,9.46579052734375,1.5929304361343384,-2.5022807121276855,-1.7848873138427734
1772482606165788400,9.475788330078124,1.6069080829620361,-2.3234915733337402,-1.372010350227356
1772482606175786500,9.485786376953126,1.6409883499145508,-2.051201820373535,-0.8790393471717834
1772482606185784600,9.49578466796875,1.479894757270813,-1.5625100135803223,-0.520806074142456
1772482606195782400,9.505782470703124,1.1000391244888306,-0.8751093149185181,-0.4499196410179138
1772482606205780500,9.515780517578126,0.7302106022834778,-0.28425005078315735,-0.7845414876937866
1772482606215779600,9.525779541015625,0.6656531691551208,-0.03760191425681114,-0.769881546497345
1772482606225777400,9.53577734375,0.5267364382743835,0.10260332375764847,-0.6675935387611389
1772482606235775500,9.545775390625,0.3763117790222168,0.051429618149995804,-0.6179314255714417
1772482606245773600,9.555773681640625,0.2757655680179596,-0.053802210837602615,-0.5266405940055847
1772482606255771400,9.565771484375,0.12546394765377045,0.06237392872571945,-0.37667563557624817
1772482606265769500,9.57576953125,0.01690100133419037,0.3551428020000458,-0.18117904663085938
1772482606275768600,9.5857685546875,-0.02118060365319252,0.6612460017204285,0.0542617030441761
1772482606285766400,9.595766357421875,-0.06094781309366226,0.9121176600456238,0.2972017228603363
1772482606295764500,9.605764404296876,-0.09207137674093246,1.0242191553115845,0.48291778564453125
1772482606305762600,9.615762451171875,-0.11085120588541031,1.1357676982879639,0.6142765879631042
1772482606315760400,9.625760498046875,-0.09450631588697433,1.346682071685791,0.5996901988983154
1772482606325758500,9.635758544921876,-0.026036346331238747,1.4892373085021973,0.507163405418396
1772482606335757600,9.645757568359375,-0.02063518948853016,1.3620200157165527,0.4104855954647064
1772482606345755600,9.655755615234375,-0.10537724196910858,1.031670093536377,0.32544395327568054
1772482606355753500,9.66575341796875,-0.07107306271791458,0.612634539604187,0.21316826343536377
1772482606365751600,9.67575146484375,0.05510256811976433,0.23072727024555206,0.15531429648399353
1772482606375749400,9.685749267578124,0.14562875032424927,-0.11574892699718475,0.16919256746768951
1772482606385747500,9.69574755859375,0.17633725702762604,-0.3133784532546997,0.19268733263015747
1772482606395746600,9.70574658203125,0.1733289510011673,-0.3035127818584442,0.1965385377407074
1772482606405744600,9.71574462890625,0.12476424872875214,-0.12350038439035416,0.15679757297039032
1772482606415742500,9.725742431640626,0.07008662819862366,0.08502965420484543,0.08724567294120789
1772482606425740500,9.735740478515625,-0.011566623114049435,0.15041802823543549,-0.006888337433338165
1772482606435738600,9.745738525390625,-0.08875728398561478,0.10017270594835281,-0.041600510478019714
1772482606445736400,9.755736328125,-0.11045848578214645,0.004169627092778683,-0.009514398872852325
1772482606455735600,9.765735595703125,-0.12346882373094559,-0.07931993901729584,0.07255011051893234
1772482606465733600,9.775733642578125,-0.11768767237663269,-0.01926177181303501,0.11527746915817261
1772482606475731500,9.7857314453125,-0.07607897371053696,0.08185020089149475,0.11408570408821106
1772482606485729500,9.7957294921875,-0.01418287307024002,0.09175394475460052,0.15972143411636353
1772482606495727600,9.8057275390625,0.020337820053100586,-0.0006409678608179092,0.2198510766029358
1772482606505725400,9.815725341796876,0.010883606038987637,-0.1473042517900467,0.2715005874633789
1772482606515723500,9.8257236328125,-0.02390420064330101,-0.20135124027729034,0.31141284108161926
1772482606525722600,9.83572265625,-0.05616343766450882,-0.12091764807701111,0.24401646852493286
1772482606535720400,9.845720458984376,-0.05339561402797699,0.17542853951454163,0.19452720880508423
1772482606545718500,9.855718505859375,-0.06295178085565567,0.2342924326658249,0.1712196171283722
1772482606555716600,9.865716552734375,-0.06969544291496277,0.1658899337053299,0.16475212574005127
1772482606565714400,9.87571435546875,-0.057192131876945496,0.1240115687251091,0.16067762672901154
1772482606575712500,9.88571240234375,-0.052745722234249115,0.09227573871612549,0.17818018794059753
1772482606585711400,9.89571142578125,-0.056049637496471405,0.09605369716882706,0.20296995341777802
1772482606595709400,9.90570947265625,-0.03844001889228821,0.13523705303668976,0.21356481313705444
1772482606605707500,9.91570751953125,-0.008356829173862934,0.1612725555896759,0.20633646845817566
1772482606615705600,9.92570556640625,0.00775130046531558,0.08095640689134598,0.1948947310447693
1772482606625703700,9.93570361328125,0.02385592833161354,0.0541793629527092,0.15184257924556732
1772482606635701500,9.945701416015625,0.037360019981861115,0.05169064179062843,0.11397721618413925
1772482606645700400,9.955700439453125,0.032124992460012436,0.014287931844592094,0.12574687600135803
1772482606655698400,9.965698486328124,0.005326136481016874,0.08593814820051193,0.1351718157529831
1772482606665696300,9.9756962890625,-0.019123617559671402,0.15928296744823456,0.11477828770875931
1772482606675694600,9.985694580078125,-0.004441345110535622,0.1404602825641632,0.10525216162204742
1772482606685693200,9.995693115234374,0.005964683368802071,0.0948135182261467,0.10528263449668884
1772482606695691300,10.005691162109375,0.010378073900938034,0.07596233487129211,0.08090353012084961
1772482606705690000,10.015690185546875,0.007025637663900852,0.02782309614121914,0.06943871080875397
1772482606715688200,10.025688232421874,-0.0017598643898963928,0.0100741907954216,0.07338018715381622
1772482606725686300,10.035686279296876,-0.005524775013327599,0.035436004400253296,0.09648630768060684
1772482606735684000,10.04568408203125,0.006396865472197533,0.16925692558288574,0.03682803735136986
1772482606745682200,10.05568212890625,0.008877906017005444,0.1398620456457138,-0.007183610461652279
1772482606755680300,10.06568017578125,0.009951693005859852,0.06989707052707672,0.007595867849886417
1772482606765679400,10.075679443359375,0.00029298756271600723,0.06519919633865356,0.03429236635565758
1772482606775677200,10.08567724609375,-0.027248091995716095,0.0832596868276596,0.0560850165784359
1772482606785675300,10.09567529296875,-0.04508678987622261,0.13071221113204956,0.0715213194489479
1772482606795673300,10.10567333984375,-0.05406004935503006,0.2024199515581131,0.05591359734535217
1772482606805671200,10.115671142578124,-0.056095026433467865,0.20349867641925812,0.03197411447763443
1772482606815669200,10.125669189453125,-0.059987232089042664,0.1867721527814865,0.008346552029252052
1772482606825668400,10.13566845703125,-0.0634586438536644,0.19907012581825256,-0.009552092291414738
1772482606835666200,10.145666259765624,-0.08014414459466934,0.17050638794898987,0.04119390994310379
1772482606845664300,10.155664306640626,-0.0782327800989151,0.11787985265254974,0.06924620270729065
1772482606855662300,10.165662353515625,-0.06868508458137512,0.04987390339374542,0.07600876688957214
1772482606865660200,10.17566015625,-0.08137337118387222,0.08020016551017761,0.06994665414094925
1772482606875658200,10.185658203125,-0.08165779709815979,0.20532479882240295,0.026487860828638077
