time,seconds_elapsed,z,y,x
1772611434219177700,0.097177734375,0.0018884832970798016,-0.0011096326634287834,0.0008870810270309448
1772611434229174500,0.107174560546875,-0.0007806885987520218,-0.0013062427751719952,-0.002767357975244522
1772611434239171600,0.117171630859375,-0.0002023773267865181,0.00012410292401909828,0.0005550147034227848
1772611434249168600,0.127168701171875,0.0009331945329904556,0.00011318409815430641,0.0025238897651433945
1772611434259165400,0.13716552734375,-0.0011464748531579971,0.0017577651888132095,-0.0009644362144172192
1772611434269162800,0.147162841796875,-0.002017594873905182,0.0015170155093073845,0.00023398594930768013
1772611434279159600,0.15715966796875,-0.0006063524633646011,-0.0005974811501801014,0.0006216522306203842
1772611434289156600,0.167156494140625,0.00011589657515287399,-0.0007229158654808998,-0.00040845852345228195
1772611434299153700,0.177153564453125,0.00033665914088487625,0.0025367671623826027,-0.000827995128929615
1772611434309151700,0.18715185546875,0.0014562522992491722,-0.0009796703234314919,0.001046604011207819
1772611434319148500,0.1971484375,0.0008857119828462601,0.0007642828859388828,-0.0006647822447121143
1772611434329145600,0.2071455078125,0.000022581778466701508,0.0021203644573688507,-0.0012402911670506
1772611434339142700,0.217142578125,0.00046121515333652496,0.000682096928358078,0.003354430664330721
1772611434349139700,0.2271396484375,-0.00037981104105710983,-0.000011123716831207275,-0.00034203706309199333
1772611434359136500,0.237136474609375,-0.0021215099841356277,0.0007138936780393124,-0.0004190322943031788
1772611434369133800,0.2471337890625,-0.00210553128272295,-0.0017588511109352112,0.0010470375418663025
1772611434379130600,0.257130615234375,0.00003783963620662689,0.0007076016627252102,0.002179010771214962
1772611434389127700,0.267127685546875,-0.0011203689500689507,0.0025137579068541527,0.00020108092576265335
1772611434399125500,0.27712548828125,-0.0016783690080046654,-0.0023336666636168957,-0.001485598273575306
1772611434409122800,0.287122802734375,-0.001483159139752388,0.0013031461276113987,0.0012811594642698765
1772611434419119600,0.29711962890625,-0.0022373544052243233,-0.0005338783375918865,-0.002361956052482128
1772611434429116700,0.30711669921875,-0.00018831808120012283,-0.001237485557794571,-0.0016873772256076336
1772611434439113700,0.31711376953125,0.00038345903158187866,0.001067295204848051,0.0017985813319683075
1772611434449110500,0.327110595703125,-0.00015929341316223145,-0.0007851994596421719,-0.000015297438949346542
1772611434459107600,0.337107666015625,-0.0006751697510480881,0.00025714561343193054,-0.00263967365026474
1772611434469104600,0.347104736328125,0.0011978312395513058,0.0010827253572642803,-0.0005379067733883858
1772611434479101700,0.357101806640625,-0.00003114156424999237,-0.0002677636221051216,0.0015713167376816273
1772611434489099500,0.367099609375,0.001229865476489067,0.0018257470801472664,0.0006147092208266258
1772611434499096600,0.3770966796875,0.00009426288306713104,0.00020008254796266556,-0.0009433971717953682
1772611434509093600,0.38709375,-0.001320408657193184,-0.0006159101612865925,-0.0019290330819785595
1772611434519090700,0.397090576171875,0.0006302706897258759,-0.0005725878290832043,-0.001280426513403654
1772611434529087500,0.40708740234375,-0.000807836651802063,-0.0007464922964572906,0.0014945873990654945
1772611434539084800,0.417084716796875,-0.0002711489796638489,-0.0031551627907902002,0.0010783658362925053
1772611434549081600,0.42708154296875,-0.0001758076250553131,0.0015698177739977837,0.0006767609156668186
1772611434559078700,0.43707861328125,-0.00024387985467910767,0.00004174606874585152,-0.0016155117191374302
1772611434569075700,0.44707568359375,-0.00006651319563388824,0.0012742574326694012,-0.00020190561190247536
1772611434579073800,0.45707373046875,0.0008172476664185524,-0.00017046136781573296,0.000024798791855573654
1772611434589070600,0.467070556640625,0.0004742322489619255,-0.001774483360350132,-0.0005571022629737854
1772611434599067600,0.477067626953125,0.00010052137076854706,0.000735847745090723,-0.0004704701714217663
1772611434609064700,0.487064697265625,-0.00007311627268791199,0.0006314516067504883,-0.0017826096154749393
1772611434619061800,0.497061767578125,0.0004977714270353317,0.0017697494477033615,0.00011840509250760078
1772611434629058600,0.50705859375,-0.0009075785055756569,0.0005108732730150223,-0.0016246340237557888
1772611434639055600,0.5170556640625,-0.0010110465809702873,-0.00004368415102362633,-0.000710776075720787
1772611434649052700,0.527052734375,0.001466225367039442,0.0008687148801982403,0.0010136207565665245
1772611434659050200,0.53705029296875,-0.0010574739426374435,0.002062351442873478,-0.0004151747561991215
1772611434669048300,0.54704833984375,-0.00004360917955636978,0.00023702112957835197,0.000554216094315052
1772611434679045000,0.557045166015625,0.0007501253858208656,0.00009690271690487862,-0.0010964898392558098
1772611434689042400,0.56704248046875,0.00003320164978504181,-0.0005068359896540642,-0.0009068730287253857
1772611434699039200,0.577039306640625,-0.0006812149658799171,0.0005488051101565361,0.0005338182672858238
1772611434709036300,0.587036376953125,0.0006450386717915535,0.0017272536642849445,0.0007623177953064442
1772611434719033300,0.597033447265625,0.000051608309149742126,-0.0010941424407064915,-0.0030071898363530636
1772611434729030100,0.607030029296875,-0.0002938034012913704,-0.0017756451852619648,-0.0027003935538232327
1772611434739027200,0.617027099609375,-0.0010901344940066338,0.0017702821642160416,-0.0016496675089001656
1772611434749024300,0.627024169921875,-0.0018091872334480286,-0.0002454645000398159,-0.0036286627873778343
1772611434759022300,0.637022216796875,0.0006773741915822029,0.0012825061567127705,0.0010736407712101936
1772611434769019100,0.64701904296875,0.00014048069715499878,-0.0012102127075195312,-0.000825192779302597
1772611434779016200,0.65701611328125,0.0010029459372162819,0.0034026759676635265,-0.0006840387359261513
1772611434789013200,0.66701318359375,-0.001095091924071312,-0.00006502633914351463,-0.002032130490988493
1772611434799010300,0.67701025390625,-0.00010441150516271591,0.001074730884283781,-0.00018098624423146248
1772611434809007000,0.687007080078125,-0.0010322565212845802,0.0004954934120178223,-0.0012236139737069607
1772611434819004400,0.69700439453125,0.0008241813629865646,0.0015011797659099102,-0.0016381433233618736
1772611434829001200,0.707001220703125,-0.001350555568933487,0.00013444526121020317,-0.0018812897615134716
1772611434838999300,0.716999267578125,0.0006993701681494713,-0.001001490280032158,-0.0013419026508927345
1772611434848996000,0.72699609375,0.002972112037241459,0.0022829859517514706,-0.00018449267372488976
1772611434858993400,0.736993408203125,-0.0007047699764370918,-0.00006844289600849152,-0.0014203083701431751
1772611434868990200,0.746990234375,-0.0007460489869117737,0.003300189506262541,0.0006425762549042702
1772611434878987300,0.7569873046875,0.0008143121376633644,-0.0009632539004087448,0.002056957222521305
1772611434888984300,0.766984375,-0.00128878653049469,-0.0008932128548622131,-0.0011742566712200642
1772611434898981400,0.7769814453125,0.0006661638617515564,-0.0012956410646438599,-0.0012753168120980263
1772611434908978200,0.786978271484375,-0.0009932518005371094,-0.0002207891084253788,0.00077824667096138
1772611434918975200,0.796975341796875,0.000606008805334568,-0.0010398575104773045,-0.0004265918396413326
1772611434928973300,0.806973388671875,-0.0013460880145430565,0.0008358065970242023,0.0009148423559963703
1772611434938970400,0.816970458984375,-0.0009033167734742165,-0.0024361303076148033,-0.0018702480010688305
1772611434948967200,0.82696728515625,-0.000027402304112911224,0.0015921671874821186,0.0012126271612942219
1772611434958964200,0.836964111328125,0.00019236188381910324,0.0004649301990866661,0.0023955493234097958
1772611434968961300,0.846961181640625,0.0013971761800348759,0.001548304222524166,0.00011455221101641655
1772611434978958000,0.8569580078125,-0.0011196648702025414,0.0005992986261844635,-0.000666765496134758
1772611434988955100,0.866955078125,-0.002606241963803768,0.0005162078887224197,-0.0008995253592729568
1772611434998952200,0.8769521484375,0.0007505565881729126,0.00005287164822220802,-0.0008698655292391777
1772611435008949200,0.88694921875,-0.0021573491394519806,0.00012104818597435951,-0.0011718678288161755
1772611435018947000,0.896947021484375,-0.0013387538492679596,-0.0010240515694022179,0.00015509966760873795
1772611435028944100,0.906944091796875,-0.001780572347342968,-0.0014927680604159832,0.0001303320750594139
1772611435038941200,0.916941162109375,-0.00019707903265953064,0.0011186078190803528,-0.0005633789114654064
1772611435048938200,0.926938232421875,-0.000188557431101799,0.00009116018190979958,0.000006803777068853378
1772611435058935000,0.93693505859375,0.0007140384986996651,-0.0009009060449898243,0.000014300458133220673
1772611435068932400,0.946932373046875,-0.0006244666874408722,0.0028243232518434525,-0.002297323662787676
1772611435078929200,0.95692919921875,0.0009862203150987625,0.0006868108175694942,-0.002915785415098071
1772611435088926200,0.96692626953125,-0.0010609524324536324,-0.00047406088560819626,-0.000994048546999693
1772611435098924300,0.97692431640625,0.0016623437404632568,0.0002458794042468071,0.0009572980925440788
1772611435108921300,0.98692138671875,-0.0005081323906779289,-0.0022612204775214195,-0.0021655247546732426
1772611435118918100,0.996918212890625,-0.0031622936949133873,0.0005312357097864151,0.0013032853603363037
1772611435128915200,1.006915283203125,0.0006881039589643478,-0.0024773376062512398,-0.000016044359654188156
1772611435138912300,1.016912353515625,0.0007098875939846039,0.000998120754957199,0.0008645607158541679
1772611435148909300,1.026909423828125,-0.0005010524764657021,0.0021632532589137554,0.0004131547175347805
1772611435158906000,1.036906005859375,0.00033602863550186157,-0.0013183904811739922,0.0015700948424637318
1772611435168903400,1.0469033203125,0.0008529489859938622,0.0014912444166839123,0.00040922313928604126
1772611435178901200,1.0569013671875,0.0020811804570257664,-0.00045802025124430656,0.0031275348737835884
1772611435188898300,1.066898193359375,-0.0001870337873697281,-0.00019037257879972458,0.00016796402633190155
1772611435198895000,1.07689501953125,0.00017092376947402954,0.0035415119491517544,-0.0008719372563064098
1772611435208892400,1.086892333984375,0.0008210008963942528,-0.0006244713440537453,0.0007318183779716492
1772611435218889200,1.09688916015625,0.0015119202435016632,0.0005888654850423336,-0.0025463681668043137
1772611435228886000,1.106885986328125,0.00007754191756248474,0.0004684906452894211,-0.000034741126000881195
1772611435238883300,1.11688330078125,-0.00032944511622190475,0.00019834516569972038,0.0019638952799141407
1772611435248880000,1.126880126953125,0.00210495013743639,0.003324630204588175,-0.0005605150945484638
1772611435258877200,1.136877197265625,0.001327661331743002,-0.0009282603859901428,0.00010957568883895874
1772611435268875000,1.146875,0.0006197933107614517,-0.0011048279702663422,0.0020321113988757133
1772611435278872300,1.156872314453125,0.0008691390976309776,0.0008001835085451603,-0.0012892046943306923
1772611435288869000,1.166869140625,-0.0018440894782543182,-0.00010688882321119308,-0.0005704173818230629
1772611435298866200,1.1768662109375,0.0006453786045312881,-0.0006090542301535606,0.00011961767449975014
1772611435308863200,1.18686328125,-0.0029104743152856827,-0.0012370278127491474,-0.001166422851383686
1772611435318860300,1.1968603515625,0.0008569248020648956,-0.0003391243517398834,0.0018712175078690052
1772611435328857000,1.206857177734375,0.0005197683349251747,0.0016550510190427303,0.0003918311558663845
1772611435338854400,1.2168544921875,-0.0009776689112186432,0.00044515542685985565,0.0011041914112865925
1772611435348852200,1.226852294921875,-0.000043165870010852814,-0.00019054114818572998,0.0014165802858769894
1772611435358849300,1.236849365234375,-0.0012398762628436089,0.0002612709067761898,0.0009731845930218697
1772611435368846000,1.24684619140625,0.0008861254900693893,0.0006354451179504395,0.0020499005913734436
1772611435378843400,1.256843505859375,0.0016153594478964806,0.0018298989161849022,0.0028349426575005054
1772611435388840200,1.266840087890625,-0.003568749874830246,-0.00032086996361613274,-0.0006055952981114388
1772611435398837200,1.276837158203125,0.00021923333406448364,0.0012116273865103722,-0.0013063824735581875
1772611435408834300,1.286834228515625,-0.00028969720005989075,0.000002552289515733719,-0.0012882729060947895
1772611435418831400,1.296831298828125,-0.0005755359306931496,-0.0016449284739792347,0.0001711859367787838
1772611435428829200,1.3068291015625,0.00008785724639892578,-0.0016137692146003246,0.0036846944130957127
1772611435438826200,1.316826171875,0.00014996342360973358,0.0013462104834616184,0.0018278486095368862
1772611435448823300,1.3268232421875,0.0019140411168336868,-0.001177667174488306,0.00035272352397441864
1772611435458820400,1.3368203125,-0.0003597503527998924,-0.0020647631026804447,-0.0016168993897736073
1772611435468817200,1.346817138671875,0.001947079785168171,0.0018093371763825417,-0.00038572028279304504
1772611435478814200,1.356814208984375,-0.0002243630588054657,-0.0010788291692733765,-0.0008063451386988163
1772611435488811300,1.366811279296875,-0.0016094725579023361,-0.0003062463365495205,0.002652302384376526
1772611435498808000,1.37680810546875,-0.000051400624215602875,0.0005492502823472023,-0.0006379559636116028
1772611435508806100,1.38680615234375,0.0003294311463832855,0.0003921240568161011,-0.00011278083547949791
1772611435518803500,1.396803466796875,0.0008060671389102936,0.0014138887636363506,0.0008753491565585136
1772611435528800300,1.40680029296875,0.0010140594094991684,0.0005065496079623699,-0.000024266541004180908
1772611435538797000,1.416797119140625,-0.0009814631193876266,-0.0010200128890573978,-0.0028738263063132763
1772611435548794400,1.42679443359375,0.0017322981730103493,0.003566749393939972,0.0012458176352083683
1772611435558791200,1.436791259765625,-0.0013875560835003853,-0.0009292084723711014,-0.0007660556584596634
1772611435568788200,1.446788330078125,0.00040288642048835754,0.00036535412073135376,-0.0005958792753517628
1772611435578785300,1.456785400390625,0.0003789793699979782,-0.0006142961792647839,0.00012328242883086205
1772611435588783400,1.466783447265625,-0.00043035484850406647,-0.0017013982869684696,0.0012407447211444378
1772611435598780200,1.4767802734375,0.0008095689117908478,0.002017906866967678,0.001864005345851183
1772611435608777200,1.486777099609375,-0.00046262238174676895,-0.00042101601138710976,-0.000721923541277647
1772611435618774300,1.496774169921875,-0.00036431197077035904,-0.0009970404207706451,0.0001476593315601349
1772611435628771300,1.506771240234375,-0.0006809616461396217,0.000555848702788353,0.00039160484448075294
1772611435638768000,1.51676806640625,-0.0004710303619503975,0.002265266142785549,-0.001305349636822939
1772611435648765400,1.526765380859375,-0.0008358834311366081,0.00004019495099782944,0.0014867084100842476
1772611435658761700,1.53676171875,-0.00020596198737621307,0.0010497323237359524,0.001064153853803873
1772611435668759600,1.546759521484375,0.00018019601702690125,-0.00017958274111151695,0.003398414235562086
1772611435678756600,1.556756591796875,-0.00009557418525218964,-0.0006146500818431377,0.0003863447345793247
1772611435688753700,1.566753662109375,-0.0004769386723637581,0.002460502553731203,-0.0021745506674051285
1772611435698750700,1.576750732421875,-0.00024827197194099426,-0.0014356719329953194,0.0014743627980351448
1772611435708747500,1.58674755859375,0.0007962193340063095,0.00004025222733616829,-0.0005688145756721497
1772611435718744800,1.596744873046875,-0.0004775943234562874,0.0001901518553495407,-0.0016826577484607697
1772611435728741600,1.60674169921875,-0.00015215575695037842,-0.0006452817469835281,0.0011533424258232117
1772611435738739700,1.61673974609375,-0.000750894658267498,0.000546545721590519,0.00010684598237276077
1772611435748736500,1.626736572265625,0.0028888476081192493,0.00002696271985769272,0.00033348100259900093
1772611435758733800,1.63673388671875,-0.0004478245973587036,-0.000201402697712183,0.0008714068681001663
1772611435768730600,1.646730712890625,-0.0018382612615823746,-0.00019873958081007004,0.0009457091800868511
1772611435778727700,1.656727783203125,0.0035629686899483204,-0.0010364237241446972,-0.0013514431193470955
1772611435788724700,1.666724853515625,-0.0018800003454089165,0.0007963636890053749,-0.0012148232199251652
1772611435798721500,1.676721435546875,0.001528203021734953,0.0013696490786969662,0.000022715888917446136
1772611435808718600,1.686718505859375,0.0002339063212275505,0.0017619323916733265,-0.002534450963139534
1772611435818716700,1.696716552734375,0.00012293178588151932,-0.0004686773754656315,-0.001122170127928257
1772611435828713700,1.706713623046875,-0.0027639344334602356,0.0009515862911939621,0.0006570881232619286
1772611435838710500,1.71671044921875,0.002007948700338602,-0.001408460084348917,0.0005245557986199856
1772611435848707600,1.72670751953125,-0.00020353961735963821,0.002649398986250162,-0.0005849171429872513
1772611435858704600,1.73670458984375,0.0019638719968497753,-0.0014344966039061546,0.001116577535867691
1772611435868701700,1.74670166015625,0.0008767694234848022,-0.0006829523481428623,-0.0017692241817712784
1772611435878698500,1.756698486328125,-0.0006624422967433929,-0.00005318596959114075,0.00032846396788954735
1772611435888695800,1.76669580078125,0.00037512555718421936,0.0008501582778990269,-0.0007213540375232697
1772611435898693600,1.776693603515625,-0.0028326231986284256,0.0015966338105499744,-0.0012899157591164112
1772611435908691700,1.786691650390625,-0.0007036924362182617,-0.0004928824491798878,-0.0006174677982926369
1772611435918688800,1.796688720703125,0.00012856069952249527,-0.0034346606116741896,-0.00014174170792102814
1772611435928685600,1.806685546875,-0.001444568857550621,-0.001066045369952917,-0.0015753214247524738
1772611435938682600,1.8166826171875,-0.002259429544210434,0.0007747788913547993,0.0020509124733507633
1772611435948680700,1.8266806640625,0.0016871090047061443,-0.0009520146995782852,-0.0013584666885435581
1772611435958677800,1.836677734375,-0.001565852202475071,0.0005479166284203529,0.0007300390861928463
1772611435968674600,1.846674560546875,-0.00048247817903757095,-0.0031030108220875263,0.0008357665501534939
1772611435978671600,1.856671630859375,0.0003377767279744148,-0.0006344923749566078,-0.0016920492053031921
1772611435988668700,1.866668701171875,-0.0018113944679498672,-0.00003608036786317825,0.00047256797552108765
1772611435998665500,1.87666552734375,-0.000806937925517559,-0.0016201199032366276,-0.000530801247805357
1772611436008662800,1.886662841796875,-0.0020636841654777527,0.00008696643635630608,-0.0003113565035164356
1772611436018659600,1.89665966796875,-0.0009774668142199516,-0.0017631021328270435,0.002677835989743471
1772611436028657700,1.90665771484375,0.0005642371252179146,0.0023938254453241825,0.0010346658527851105
1772611436038654500,1.916654541015625,-0.000891626812517643,-0.0007476168684661388,-0.00008247187361121178
1772611436048651800,1.92665185546875,0.0005438169464468956,-0.0012829122133553028,0.001963369082659483
1772611436058648600,1.936648681640625,-0.000542408786714077,-0.0013097543269395828,-0.0004962831735610962
1772611436068645600,1.946645751953125,0.000355609692633152,0.0009520682506263256,0.0018765931017696857
1772611436078642700,1.956642578125,-0.0014398684725165367,-0.003000982105731964,-0.0005807089619338512
1772611436088639700,1.9666396484375,-0.0009977836161851883,0.0001881532371044159,0.0007572630420327187
1772611436098637600,1.976637451171875,0.00045409705489873886,-0.00041395146399736404,0.00012865522876381874
1772611436108634600,1.986634521484375,-0.0003661559894680977,0.0007117665372788906,-0.0006367373280227184
1772611436118631700,1.996631591796875,-0.00012417323887348175,0.0007073800079524517,-0.002154019195586443
1772611436128628700,2.006628662109375,-0.0030528511852025986,-0.002067101188004017,-0.0023143417201936245
1772611436138625500,2.01662548828125,-0.00039428938180208206,0.0015868078917264938,-0.0004428001120686531
1772611436148622800,2.026622802734375,-0.001218005083501339,-0.0012776884250342846,-0.001305131707340479
1772611436158619600,2.03661962890625,-0.00000643264502286911,-0.00022888462990522385,-0.0026885210536420345
1772611436168617700,2.04661767578125,-0.000264226458966732,-0.00029626255854964256,0.0014774617739021778
1772611436178614500,2.056614501953125,-0.0005154544487595558,-0.0014062123373150826,-0.0003932616673409939
1772611436188611800,2.06661181640625,0.0023365244269371033,-0.0007018065080046654,0.0000032833777368068695
1772611436198608600,2.076608642578125,0.000612746924161911,0.0009174803271889687,-0.0014884821139276028
1772611436208605700,2.086605712890625,0.0001493571326136589,-0.0008868114091455936,-0.0022996808402240276
1772611436218602800,2.096602783203125,-0.0021495185792446136,0.00037840288132429123,0.0043105753138661385
1772611436228599600,2.106599609375,0.0006867479532957077,-0.0006136246956884861,-0.0013430491089820862
1772611436238596600,2.1165966796875,-0.00014281831681728363,0.00032650213688611984,-0.001634934451431036
1772611436248594700,2.1265947265625,-0.0008901013061404228,-0.00018748780712485313,-0.0009182780049741268
1772611436258591700,2.136591796875,0.00016956962645053864,0.000016868114471435547,-0.0035345093347132206
1772611436268588500,2.146588623046875,-0.0011569513007998466,-0.002392227528616786,-0.001313166692852974
1772611436278585600,2.156585693359375,-0.0013488810509443283,-0.00009420467540621758,0.001202853862196207
1772611436288582700,2.166582763671875,0.0019398569129407406,-0.0012148628011345863,-0.00017959251999855042
1772611436298579700,2.176579833984375,0.0009350813925266266,-0.0012715510092675686,0.0020387815311551094
1772611436308576500,2.186576416015625,0.0014527994208037853,0.001499734353274107,-0.00035753101110458374
1772611436318574600,2.19657470703125,0.000055276788771152496,-0.00008179154247045517,0.0010419567115604877
1772611436328571600,2.206571533203125,-0.0004323478788137436,0.00044072046875953674,-0.002684338018298149
1772611436338568700,2.216568603515625,0.00015871785581111908,0.001268688589334488,-0.0007931264117360115
1772611436348565500,2.2265654296875,-0.00023649539798498154,0.0001962338574230671,-0.0017521306872367859
1772611436358562800,2.236562744140625,-0.00196883175522089,0.0010631275363266468,0.00027772877365350723
1772611436368559600,2.2465595703125,-0.00012565776705741882,-0.00042185094207525253,0.0012002475559711456
1772611436378556700,2.256556640625,-0.0003640083596110344,-0.0009718998335301876,0.0005351025611162186
1772611436388554500,2.266554443359375,0.0010139113292098045,0.0021751578897237778,-0.0002558561973273754
1772611436398551800,2.2765517578125,-0.0011645518243312836,0.0005045980215072632,0.00047195982187986374
1772611436408548600,2.286548583984375,0.0017926222644746304,0.0018007587641477585,0.00021443190053105354
1772611436418545700,2.296545654296875,0.002498973160982132,0.00039368635043501854,-0.001428692601621151
1772611436428542700,2.306542724609375,0.0021559582091867924,0.0010094093158841133,-0.0006846049800515175
1772611436438539800,2.316539794921875,0.0015834169462323189,0.0005974811501801014,-0.000026026275008916855
1772611436448536600,2.32653662109375,-0.0008544409647583961,-0.0008432888425886631,0.0009343097917735577
1772611436458534700,2.33653466796875,-0.0012547383084893227,-0.0006903861649334431,0.00003594346344470978
1772611436468531700,2.34653173828125,0.0010089483112096786,0.0010766210034489632,0.0017259856685996056
1772611436478528800,2.35652880859375,0.0004603574052453041,-0.0007720938883721828,-0.00001690629869699478
1772611436488525600,2.366525634765625,-0.001782822422683239,-0.0008993931114673615,0.0003756438381969929
1772611436498523000,2.37652294921875,-0.0006436938419938087,0.0010524760000407696,0.00011504953727126122
1772611436508519700,2.386519775390625,0.00018428359180688858,-0.0011297180317342281,0.002292450051754713
1772611436518516500,2.3965166015625,0.0011769728735089302,-0.0007467111572623253,-0.0009403256699442863
1772611436528514600,2.4065146484375,0.0002872105687856674,-0.00040715793147683144,0.0023308354429900646
1772611436538512000,2.416511962890625,0.0004587853327393532,0.00300138583406806,-0.000994974747300148
1772611436548508700,2.4265087890625,0.0007666470482945442,0.0016383803449571133,0.0002495204098522663
1772611436558505700,2.436505615234375,0.0005898429080843925,-0.00005025649443268776,0.0006412188522517681
1772611436568502800,2.446502685546875,-0.0007547875866293907,-0.0004254956729710102,0.0013970243744552135
1772611436578499600,2.45649951171875,0.0014080246910452843,0.0013942425139248371,-0.0007277894765138626
1772611436588496600,2.46649658203125,-0.0013563362881541252,-0.000961589626967907,-0.0022899997420608997
1772611436598494700,2.47649462890625,0.00084657222032547,-0.0003571496345102787,-0.0016564414836466312
1772611436608491800,2.48649169921875,0.0001533515751361847,-0.00021733343601226807,-0.0025885477662086487
1772611436618488600,2.496488525390625,0.00005842559039592743,-0.0008880756795406342,0.00047347182407975197
1772611436628485600,2.506485595703125,-0.0028175218030810356,-0.00020870333537459373,-0.001174758654087782
1772611436638482700,2.516482666015625,-0.0007987963035702705,0.0010388419032096863,0.0002721608616411686
1772611436648479700,2.526479736328125,-0.000422758050262928,-0.0020160702988505363,0.001271645538508892
1772611436658477000,2.53647705078125,-0.001921764574944973,0.00014384323731064796,0.0010010800324380398
1772611436668475000,2.546474853515625,-0.0010328013449907303,-0.0010729548521339893,0.0012149317190051079
1772611436678472000,2.556471923828125,0.0012509124353528023,0.0009109689854085445,-0.0013225218281149864
1772611436688469000,2.566468994140625,0.0012075034901499748,0.00046302517876029015,0.0026549086906015873
1772611436698466000,2.576466064453125,-0.0009059878066182137,-0.0011194292455911636,-0.00022099772468209267
1772611436708462800,2.586462890625,-0.0004473915323615074,0.0013570445589721203,0.0012490670196712017
1772611436718460200,2.596460205078125,-0.0018317829817533493,-0.0012135598808526993,0.00025775888934731483
1772611436728457000,2.60645703125,-0.0006520021706819534,-0.0013661589473485947,-0.0008676932193338871
1772611436738455000,2.616455078125,0.0020774793811142445,-0.0002884077839553356,0.0009618927724659443
1772611436748451800,2.626451904296875,-0.000510314479470253,-0.00015631504356861115,-0.0002743462100625038
1772611436758449200,2.63644921875,0.002067863941192627,-0.0007551289163529873,0.0005707461386919022
1772611436768446000,2.646446044921875,0.001158660277724266,-0.0001788209192454815,0.0004538334906101227
1772611436778443000,2.656443115234375,-0.0011952416971325874,-0.00044775940477848053,-0.0008902214467525482
1772611436788440000,2.666440185546875,0.0010982723906636238,-0.001184922643005848,-0.00041191745549440384
1772611436798436900,2.676436767578125,0.00012417789548635483,0.00008309539407491684,-0.0016778791323304176
1772611436808435000,2.68643505859375,0.000593959353864193,0.00030413782224059105,-0.0016475189477205276
1772611436818432000,2.696431884765625,-0.0001599946990609169,0.0005594096146523952,0.00043262215331196785
1772611436828429000,2.706428955078125,-0.0024644285440444946,-0.0025437057483941317,0.00011810287833213806
1772611436838425900,2.71642578125,0.0005294894799590111,-0.0004991148598492146,-0.00024337787181138992
1772611436848423000,2.7264228515625,-0.0007317839190363884,0.00036534713581204414,-0.00129612535238266
1772611436858420000,2.736419921875,-0.00023861974477767944,-0.0013101566582918167,0.001589115709066391
1772611436868417000,2.7464169921875,-0.00033848825842142105,0.0009697754867374897,0.0020298687741160393
1772611436878415000,2.7564150390625,-0.00023944023996591568,-0.001007947139441967,0.0017509986646473408
1772611436888412000,2.766411865234375,-0.000507354736328125,0.00009966176003217697,0.0012572486884891987
1772611436898409000,2.776408935546875,-0.0006730454042553902,-0.00000799400731921196,0.0003440692089498043
1772611436908406000,2.786406005859375,-0.0008312370628118515,0.00029267696663737297,0.0011278376914560795
1772611436918402800,2.79640283203125,0.0005560750141739845,-0.00048560136929154396,-0.00022166967391967773
1772611436928400100,2.806400146484375,-0.0014221211895346642,-0.0018339594826102257,-0.001303712371736765
1772611436938397000,2.81639697265625,-0.001594330184161663,-0.0002248077653348446,0.00023088976740837097
1772611436948395000,2.82639501953125,0.0001606922596693039,0.0011318065226078033,-0.0015169428661465645
1772611436958391800,2.836391845703125,-0.0014218585565686226,-0.00039383722469210625,-0.002007476519793272
1772611436968389000,2.84638916015625,0.0006820391863584518,-0.0011656214483082294,0.00036140531301498413
1772611436978386000,2.856385986328125,-0.000709223560988903,0.0019286349415779114,0.0006456365808844566
1772611436988383000,2.866383056640625,-0.001772889867424965,-0.00018618162721395493,0.000009940005838871002
1772611436998380000,2.876380126953125,-0.00015274062752723694,-0.0009371954947710037,0.0004303343594074249
1772611437008377000,2.886377197265625,0.0018867081962525845,0.0006164927035570145,0.0003701471723616123
1772611437018375000,2.896375,0.0003726379945874214,-0.000054342206567525864,0.000019404105842113495
1772611437028372000,2.9063720703125,-0.00039488449692726135,-0.002847998170182109,-0.0020642532035708427
1772611437038369000,2.916369140625,0.0021530957892537117,0.0010379399172961712,0.0004633762873709202
1772611437048366000,2.926365966796875,0.0019815880805253983,-0.002484889468178153,-0.0021832729689776897
1772611437058363000,2.93636279296875,-0.0014491640031337738,0.00015082396566867828,0.00034689484164118767
1772611437068360200,2.946360107421875,-0.000057928264141082764,-0.000567164272069931,0.0014007072895765305
1772611437078357000,2.95635693359375,-0.003056040033698082,0.0000479365698993206,-0.0017713531851768494
1772611437088355000,2.96635498046875,-0.00010232813656330109,-0.0007989485748112202,-0.0017023771069943905
1772611437098351900,2.976351806640625,0.0016828062944114208,0.001257946714758873,-0.0031843073666095734
1772611437108349200,2.98634912109375,0.00039197225123643875,0.002443586476147175,-0.0010572406463325024
1772611437118346000,2.996345947265625,-0.0007481761276721954,-0.0002453685738146305,0.00023044878616929054
1772611437128343000,3.006343017578125,0.0010196305811405182,-0.002895746612921357,-0.0009927409701049328
1772611437138340000,3.016340087890625,-0.00047340430319309235,0.0014020432718098164,0.002168465405702591
1772611437148338200,3.026338134765625,-0.000759427435696125,0.0011365259997546673,0.0012632571160793304
1772611437158335000,3.0363349609375,0.0009597539901733398,-0.0014889435842633247,0.0013002417981624603
1772611437168332000,3.04633203125,-0.001591288484632969,0.0010016444139182568,0.0001809149980545044
1772611437178329000,3.0563291015625,-0.0015574470162391663,-0.0004658312536776066,0.0023323073983192444
1772611437188326000,3.066325927734375,0.000680939294397831,-0.000023480039089918137,0.00024145981296896935
1772611437198323000,3.076322998046875,0.0000177919864654541,0.001346353441476822,0.003305308986455202
1772611437208320000,3.086320068359375,0.0007142089307308197,0.00050772400572896,-0.0005693240091204643
1772611437218318000,3.096318115234375,-0.00016872864216566086,0.0014821956865489483,-0.000026964116841554642
1772611437228315000,3.10631494140625,0.003106160555034876,0.0020787441171705723,-0.00013295793905854225
1772611437238312000,3.11631201171875,-0.0007935389876365662,-0.0014537912793457508,-0.0013535632751882076
1772611437248309000,3.12630908203125,-0.00010990537703037262,-0.00011581927537918091,-0.00030001671984791756
1772611437258306000,3.13630615234375,0.0000011213123798370361,0.0011964207515120506,-0.0005794432945549488
1772611437268302800,3.146302734375,-0.0030687041580677032,0.0007998761720955372,-0.0003117956221103668
1772611437278300200,3.156300048828125,-0.0018449677154421806,0.0015199938789010048,0.0005283989012241364
1772611437288298000,3.166298095703125,0.0028685610741376877,-0.00047018658369779587,-0.0016141142696142197
1772611437298295000,3.176294921875,0.000557352788746357,0.00030877115204930305,-0.002648266963660717
1772611437308291800,3.186291748046875,-0.002095688134431839,0.002205740660429001,-0.0007813912816345692
1772611437318289200,3.1962890625,-0.0001554330810904503,-0.0020140348933637142,0.0014711604453623295
1772611437328286000,3.206285888671875,0.0006680162623524666,-0.0014574341475963593,-0.0031254556961357594
1772611437338283000,3.216282958984375,-0.00024675019085407257,-0.0007898025214672089,0.0013615223579108715
1772611437348280800,3.22628076171875,0.0026912493631243706,-0.0004244167357683182,-0.0009591560810804367
1772611437358278100,3.236278076171875,0.0017881873063743114,-0.0023931716568768024,0.00007149111479520798
1772611437368275000,3.24627490234375,0.0004906952381134033,-0.0005316217429935932,0.002179382834583521
1772611437378272000,3.25627197265625,-0.0001547178253531456,-0.0007740864530205727,-0.0015010954812169075
1772611437388269000,3.26626904296875,0.0005310457199811935,0.000631529837846756,0.0004121190868318081
1772611437398266000,3.27626611328125,0.0008573029190301895,0.0012874258682131767,-0.001674119383096695
1772611437408263000,3.286262939453125,-0.0009728213772177696,0.00015931064262986183,-0.0008866223506629467
1772611437418261000,3.296260986328125,0.0005876151844859123,0.001229576300829649,-0.0014417162165045738
1772611437428258000,3.306258056640625,0.0035724863409996033,0.0002452717162668705,0.0012107924558222294
1772611437438255000,3.316255126953125,-0.0031901877373456955,-0.0009882966987788677,0.0010768971405923367
1772611437448252000,3.326251953125,0.0006793849170207977,0.0012386390008032322,0.001230028923600912
1772611437458249200,3.336249267578125,-0.0019119000062346458,-0.0025291219353675842,-0.001672864891588688
1772611437468246000,3.34624609375,-0.00013237539678812027,0.0012429794296622276,0.0017719338648021221
1772611437478242800,3.356242919921875,0.0007526734843850136,-0.002020724583417177,-0.00038448022678494453
1772611437488241000,3.366240966796875,-0.0018665455281734467,-0.00202392041683197,-0.0012212456203997135
1772611437498238200,3.37623828125,-0.00035129114985466003,-0.00005868636071681976,-0.0017093014903366566
1772611437508235000,3.386235107421875,0.0021219863556325436,0.0020334934815764427,0.000824962742626667
1772611437518232000,3.396232177734375,-0.00024341978132724762,-0.002192931715399027,0.0009225592948496342
1772611437528229000,3.40622900390625,-0.0018873894587159157,0.002398890908807516,-0.0009709484875202179
1772611437538226000,3.416225830078125,0.0003244960680603981,-0.0008453666232526302,0.0009725154377520084
1772611437548224000,3.42622412109375,0.0009191799908876419,0.0006353510543704033,0.0003884844481945038
1772611437558221000,3.436220947265625,0.00047332514077425003,0.0004672771319746971,0.0011718524619936943
1772611437568218000,3.446218017578125,-0.0030207429081201553,-0.0016265003941953182,-0.000069446861743927
1772611437578215000,3.45621484375,-0.001624000258743763,-0.00008665770292282104,-0.0009437995031476021
1772611437588212000,3.4662119140625,-0.002407768741250038,-0.0011921357363462448,-0.0005384660325944424
1772611437598209000,3.476208984375,-0.00030418019741773605,-0.001601971685886383,0.0009334343485534191
1772611437608207000,3.48620703125,0.001255100592970848,-0.000856553204357624,-0.0017773974686861038
1772611437618204000,3.496203857421875,-0.0021040672436356544,0.00017236778512597084,-0.001184751745313406
1772611437628201000,3.506200927734375,-0.0008028475567698479,-0.001480656210333109,0.0015950561501085758
1772611437638198000,3.516197998046875,0.0001774439588189125,0.000022231601178646088,0.0007953671738505363
1772611437648195000,3.526195068359375,-0.0030002398416399956,-0.00019721314311027527,0.0014262697659432888
1772611437658192100,3.536192138671875,-0.00007876753807067871,0.0012097936123609543,-0.0012834412045776844
1772611437668189000,3.54618896484375,0.0018525565974414349,0.00044972775503993034,-0.000017640646547079086
1772611437678187000,3.55618701171875,0.000993708148598671,-0.000803778413683176,-0.0013757883571088314
1772611437688184000,3.56618408203125,0.00361958472058177,-0.00003199419006705284,0.003358246758580208
1772611437698181000,3.57618115234375,-0.00040127988904714584,-0.0005788905546069145,0.0028405184857547283
1772611437708178000,3.586177978515625,0.002561486791819334,-0.0013799695298075676,-0.00298701087012887
1772611437718175200,3.59617529296875,-0.0002616019919514656,-0.0010721292346715927,-0.0019144657999277115
1772611437728172000,3.606172119140625,0.00022096280008554459,-0.0004976852796971798,0.0010917102918028831
1772611437738170000,3.616170166015625,-0.0008502835407853127,0.0011846991255879402,0.0025395629927515984
1772611437748167000,3.6261669921875,-0.0007235165685415268,0.0008888216689229012,0.0018420815467834473
1772611437758164200,3.636164306640625,-0.00036967452615499496,0.0024965438060462475,0.0006448528729379177
1772611437768161000,3.6461611328125,0.00009105261415243149,0.00172768859192729,-0.000049433205276727676
1772611437778158000,3.656157958984375,0.00007308367639780045,-0.000868604052811861,0.0019238926470279694
1772611437788155100,3.666155029296875,-0.0019349399954080582,-0.0010654116049408913,-0.00005456991493701935
1772611437798153200,3.6761533203125,-0.0005204379558563232,-0.00021078111603856087,-0.0008370536379516125
1772611437808150000,3.68614990234375,-0.0019183307886123657,0.0002715173177421093,-0.0004852502606809139
1772611437818147000,3.69614697265625,0.0003723893314599991,-0.0007751677185297012,-0.0008236528374254704
1772611437828144000,3.70614404296875,-0.0007163109257817268,-0.002454823348671198,-0.00020446814596652985
1772611437838141200,3.71614111328125,-0.0005957167595624924,-0.0034423768520355225,-0.0003609638661146164
1772611437848138000,3.726137939453125,0.00013745110481977463,0.0021665068343281746,-0.0007476550526916981
1772611437858135300,3.73613525390625,0.00022675096988677979,-0.0023319250904023647,0.000650069210678339
1772611437868133000,3.746133056640625,-0.0010984381660819054,-0.00259744212962687,0.0009720455855131149
1772611437878130200,3.756130126953125,-0.0008590267971158028,0.0003986237570643425,-0.00012304726988077164
1772611437888127000,3.766126953125,-0.0010393233969807625,0.0004385709762573242,0.002085245680063963
1772611437898124300,3.776124267578125,-0.000263742171227932,0.002873555291444063,0.0010806056670844555
1772611437908121000,3.78612109375,-0.0016653640195727348,-0.0001616491936147213,0.0013980544172227383
1772611437918118000,3.796117919921875,-0.0001711612567305565,-0.002687949687242508,0.000845699105411768
1772611437928116000,3.806115966796875,-0.00022682175040245056,0.00014485465362668037,0.0010755299590528011
1772611437938113300,3.81611328125,-0.0008484125137329102,-0.0026949404273182154,0.0010962565429508686
1772611437948110000,3.826110107421875,0.001550829503685236,-0.002389742061495781,-0.0010198913514614105
1772611437958107100,3.836107177734375,0.0013553961180150509,0.0013973535969853401,0.0028733331710100174
1772611437968104200,3.846104248046875,-0.0012720786035060883,0.0011483482085168362,0.00030471431091427803
1772611437978101000,3.85610107421875,-0.0021305037662386894,0.0010064085945487022,-0.000405662227421999
1772611437988099000,3.86609912109375,-0.0010402053594589233,-0.00008602021262049675,-0.0015644035302102566
1772611437998096100,3.87609619140625,0.0001595607027411461,-0.0003842907026410103,-0.0005432683974504471
1772611438008093200,3.88609326171875,-0.0007142219692468643,0.0012495587579905987,-0.0006420719437301159
1772611438018090000,3.896090087890625,0.000802517868578434,-0.00026709772646427155,-0.0008009127341210842
1772611438028087000,3.906087158203125,0.0008965274319052696,-0.00008387211710214615,-0.00045922957360744476
1772611438038084000,3.916083984375,-0.0010373974218964577,0.002448958344757557,-0.0012417999096214771
1772611438048082200,3.926082275390625,-0.0009740134701132774,0.0004073791205883026,-0.0010058442130684853
1772611438058079000,3.936078857421875,-0.00009725149720907211,0.001360329333692789,-0.0006540478207170963
1772611438068076000,3.946075927734375,-0.001566518098115921,-0.0008740625344216824,0.0002495627850294113
1772611438078073000,3.956072998046875,-0.0007455646991729736,-0.0003955680876970291,-0.000438593327999115
1772611438088070100,3.966070068359375,-0.0015274686738848686,0.0007330798543989658,-0.0007200893014669418
1772611438098067000,3.97606689453125,-0.0004450920969247818,0.00008500320836901665,0.0019585750997066498
1772611438108064300,3.986064208984375,0.0006318902596831322,0.0004234910011291504,0.0010815956629812717
1772611438118062000,3.99606201171875,0.000842842273414135,0.0006346488371491432,-0.004359695129096508
1772611438128059100,4.00605908203125,-0.0017111292108893394,-0.002496163360774517,0.000023602042347192764
1772611438138056000,4.016055908203125,0.0010614963248372078,-0.0009744465351104736,-0.00030558742582798004
1772611438148053200,4.02605322265625,-0.0013396097347140312,-0.0012221205979585648,0.00019029341638088226
1772611438158050000,4.036050048828125,0.00043915770947933197,0.00006644893437623978,0.0013435296714305878
1772611438168047000,4.046047119140625,0.00046152807772159576,-0.001598292961716652,-0.00006608199328184128
1772611438178045000,4.056044921875,0.0001099342480301857,-0.000813859049230814,-0.001611365471035242
1772611438188042200,4.066042236328125,0.0008071502670645714,0.001011737622320652,-0.0011844607070088387
1772611438198039000,4.0760390625,0.0008543170988559723,0.0019339732825756073,0.0008261334151029587
1772611438208036000,4.0860361328125,0.0002670902758836746,-0.0020850030705332756,-0.0020295740105211735
1772611438218033200,4.096033203125,0.000462360680103302,0.0019765361212193966,0.0007457127794623375
1772611438228030200,4.1060302734375,0.0010898010805249214,-0.00005891826003789902,0.00047327112406492233
1772611438238028000,4.116028076171875,0.0013862485066056252,-0.0022003790363669395,-0.0017606965266168118
1772611438248025000,4.126025146484375,0.00010686647146940231,0.0010862280614674091,-0.000009135343134403229
1772611438258022100,4.136022216796875,0.0029234052635729313,0.0006892741657793522,0.0020703724585473537
1772611438268019200,4.146019287109375,0.00042216386646032333,0.0003156326711177826,0.002576905768364668
1772611438278016000,4.15601611328125,-0.0009034685790538788,0.0021534771658480167,0.0023244251497089863
1772611438288013300,4.166013427734375,0.0003660600632429123,-0.0003925045020878315,0.001065815333276987
1772611438298011100,4.17601123046875,0.0004455307498574257,0.0007822858169674873,0.0006571388803422451
1772611438308008200,4.18600830078125,-0.000676991418004036,-0.000010004732757806778,-0.0005836277268826962
1772611438318005000,4.1960048828125,-0.002001345157623291,-0.0007967725396156311,-0.00033032381907105446
1772611438328002300,4.206002197265625,-0.001537955366075039,0.0009521250613033772,-0.001783877145498991
1772611438337999000,4.2159990234375,-0.0008857762441039085,-0.0000907769426703453,0.00036928942427039146
1772611438347996000,4.225995849609375,0.0022857817821204662,-0.0007038367912173271,-0.0006618867628276348
1772611438357994000,4.235993896484375,0.0034009073860943317,0.0009791050106287003,0.0011753393337130547
1772611438367991300,4.2459912109375,-0.0008383123204112053,-0.0022667553275823593,-0.0007317503914237022
1772611438377988000,4.255988037109375,-0.0004799840971827507,-0.000963049940764904,-0.0006134938448667526
1772611438387985200,4.265985107421875,-0.0009039593860507011,0.0009592194110155106,0.0010517807677388191
1772611438397982200,4.275982177734375,0.00228901207447052,0.0009017372503876686,-0.0022113495506346226
1772611438407979000,4.28597900390625,-0.001255655661225319,-0.0030565191991627216,-0.0006033331155776978
1772611438417977000,4.29597705078125,0.0013542487286031246,0.0010524443350732327,0.0016275453381240368
1772611438427974100,4.30597412109375,0.0012554456479847431,-0.002533501945436001,-0.00044812215492129326
1772611438437971200,4.31597119140625,-0.001391255296766758,-0.000042411498725414276,0.0005319491028785706
1772611438447968000,4.325968017578125,-0.0006434395909309387,-0.00013189390301704407,-0.0021242881193757057
1772611438457965000,4.335965087890625,-0.0008553639054298401,0.0000070640817284584045,-0.00018894299864768982
1772611438467962000,4.345962158203125,-0.0018159663304686546,-0.00008614687249064445,0.0011801882646977901
1772611438477960200,4.355960205078125,0.0004114098846912384,0.0002868832089006901,0.0009947852231562138
1772611438487957000,4.36595703125,0.0006297891959547997,-0.0018305960111320019,-0.0007916633039712906
1772611438497954000,4.3759541015625,0.0008775610476732254,-0.0004586242139339447,-0.00019337749108672142
1772611438507951000,4.385951171875,-0.0008399114012718201,-0.0019417386502027512,-0.0018440047279000282
1772611438517948200,4.3959482421875,-0.0007080249488353729,0.0009297803044319153,0.0008848630823194981
1772611438527945000,4.405945068359375,-0.0001559518277645111,0.0014754622243344784,0.0015756874345242977
1772611438537943000,4.415943115234375,0.0027386010624468327,0.0009390837512910366,0.0004975567571818829
1772611438547940000,4.425940185546875,0.0011684009805321693,-0.002030606847256422,-0.0002699661999940872
1772611438557937200,4.435937255859375,-0.0016897032037377357,-0.0005911779589951038,0.000013412907719612122
1772611438567934000,4.445933837890625,-0.0031512463465332985,0.0012277611531317234,-0.0014638425782322884
1772611438577931300,4.45593115234375,0.001820653211325407,0.0007788506336510181,0.0019026747904717922
1772611438587928000,4.465927978515625,0.0007412740960717201,-0.001325845718383789,0.0023929630406200886
1772611438597926100,4.475926025390625,-0.0012911390513181686,0.00024842238053679466,-0.0016220863908529282
1772611438607923000,4.4859228515625,0.0017536529339849949,-0.0007172399200499058,0.0011047236621379852
1772611438617920300,4.495920166015625,-0.00187621358782053,-0.000684304628521204,0.0020797643810510635
1772611438627917000,4.5059169921875,0.0001648329198360443,0.0016100089997053146,-0.000861696433275938
1772611438637914000,4.5159140625,0.00077823456376791,-0.000021106097847223282,-0.0017092307098209858
1772611438647911200,4.5259111328125,0.0014333724975585938,-0.002305565867573023,0.001749149989336729
1772611438657909200,4.5359091796875,-0.0022685155272483826,0.002033342607319355,0.0011168667115271091
1772611438667906300,4.54590625,0.000527537427842617,-0.0007323501631617546,0.0004990128800272942
1772611438677903000,4.555903076171875,-0.0010294746607542038,-0.0021316297352313995,0.0021015959791839123
1772611438687900400,4.565900390625,-0.0010782107710838318,0.0026101283729076385,-0.002402874641120434
1772611438697897200,4.575897216796875,0.002189533319324255,-0.0026543722487986088,0.0009385007433593273
1772611438707894300,4.585894287109375,0.0017056367360055447,0.00012383749708533287,-0.0006559337489306927
1772611438717892000,4.59589208984375,-0.002069731242954731,-0.0023701265454292297,0.001367934513837099
1772611438727889400,4.605889404296875,0.0006480244919657707,-0.0017232447862625122,-0.0019434397108852863
1772611438737886200,4.61588623046875,0.0004324456676840782,0.0007677325047552586,0.0003396295942366123
1772611438747883300,4.62588330078125,-0.00012042652815580368,-0.0014528115279972553,-0.0011261743493378162
1772611438757880300,4.63588037109375,-0.0007391069084405899,-0.00008892780169844627,-0.0009175236336886883
1772611438767877400,4.64587744140625,0.00010404922068119049,0.0003952351398766041,0.0007339022122323513
1772611438777875200,4.655875244140625,0.0005671912804245949,-0.0025553309824317694,0.001646410208195448
1772611438787872300,4.665872314453125,0.001608753576874733,0.0018996046856045723,-0.0005014287307858467
1772611438797869300,4.675869384765625,0.0018929755315184593,-0.00027201510965824127,-0.0022797472774982452
1772611438807866400,4.685866455078125,0.00036085955798625946,-0.0015527294017374516,0.0006710351444780827
1772611438817863200,4.69586328125,-0.0008570821955800056,-0.0014066044241189957,-0.0016989377327263355
1772611438827860500,4.705860595703125,0.0020180665887892246,-0.003375479718670249,0.0012108325026929379
1772611438837858300,4.7158583984375,-0.0020465487614274025,-0.0014666286297142506,-0.0010054940357804298
1772611438847855400,4.72585546875,-0.00001535564661026001,0.0015704398974776268,-0.001730406191200018
1772611438857852200,4.73585205078125,0.0017553390935063362,-0.0009107775986194611,0.0014720931649208069
1772611438867849500,4.745849365234375,0.0013108574785292149,-0.00039039598777890205,-0.0009449915960431099
1772611438877846300,4.75584619140625,-0.0010346146300435066,-0.000009759794920682907,0.0013011111877858639
1772611438887843000,4.765843017578125,-0.0008633732795715332,-0.0016731703653931618,0.0010718130506575108
1772611438897841200,4.775841064453125,-0.00044001638889312744,-0.000439611729234457,-0.0013872510753571987
1772611438907838500,4.78583837890625,0.001990383956581354,-0.0025389818474650383,-0.00023277057334780693
1772611438917835300,4.795835205078125,-0.00015151873230934143,0.00034147826954722404,-0.00045004626736044884
1772611438927832000,4.80583203125,0.00033583957701921463,-0.0011357772164046764,0.0012719533406198025
1772611438937829400,4.815829345703125,-0.0008473163470625877,-0.0013022590428590775,-0.0008803117088973522
1772611438947826200,4.825826171875,-0.0015463968738913536,-0.0025816415436565876,0.0010486156679689884
1772611438957824300,4.83582421875,0.0004392620176076889,0.0017646383494138718,-0.002890103030949831
1772611438967821000,4.845821044921875,-0.002297402359545231,-0.0005856016650795937,0.0026223743334412575
1772611438977818400,4.855818359375,-0.0005961330607533455,0.0029178541153669357,-0.0006419452838599682
1772611438987815200,4.865815185546875,-0.0006435373798012733,-0.000338659156113863,-0.002293371595442295
1772611438997812200,4.875812255859375,-0.0003281887620687485,-0.00003201235085725784,0.0006381846033036709
1772611439007809300,4.885809326171875,-0.0006810575723648071,0.0010388446971774101,0.001357237808406353
1772611439017807400,4.895807373046875,0.0005655437707901001,0.0002958495169878006,0.00046176137402653694
1772611439027804200,4.90580419921875,-0.000616367906332016,-0.00031055184081196785,-0.0004746061749756336
1772611439037801200,4.91580126953125,0.0008711516857147217,-0.0009699324145913124,0.0012545771896839142
1772611439047798300,4.92579833984375,-0.0005147578194737434,-0.001551033928990364,0.0005733408033847809
1772611439057795300,4.93579541015625,-0.000608460046350956,0.0004747193306684494,0.0012521403841674328
1772611439067793200,4.945793212890625,-0.00044867023825645447,0.0010901759378612041,-0.0008413707837462425
1772611439077790200,4.955790283203125,0.0005928166210651398,-0.0020460933446884155,0.0012969071976840496
1772611439087787300,4.965787353515625,0.0004604579880833626,0.0009121457114815712,-0.0015883618034422398
1772611439097784300,4.975784423828125,-0.000025797635316848755,0.00036643538624048233,-0.00034331995993852615
1772611439107781000,4.985781005859375,0.0004349285736680031,-0.0015057665295898914,0.00013311952352523804
1772611439117778200,4.995778076171875,-0.0008654333651065826,-0.0007187454029917717,0.003161052707582712
1772611439127776300,5.0057763671875,-0.0016401465982198715,-0.0009152870625257492,-0.0008121170103549957
1772611439137773300,5.015773193359375,-0.0004256144165992737,-0.001263053622096777,0.0006235470063984394
1772611439147770000,5.02577001953125,-0.000608307309448719,0.0010051606222987175,-0.0003735404461622238
1772611439157767200,5.03576708984375,-0.001178109087049961,-0.001443993765860796,0.0003831679932773113
1772611439167764200,5.04576416015625,-0.0015592072159051895,0.0009949291124939919,0.003433818928897381
1772611439177761300,5.05576123046875,0.0009275013580918312,0.0014084544964134693,-0.00028509972617030144
1772611439187759000,5.065759033203125,0.0003938041627407074,0.002612736076116562,0.0006182445213198662
1772611439197756400,5.07575634765625,-0.00005112588405609131,0.003417625091969967,-0.0033619257155805826
1772611439207753200,5.085753173828125,-0.00028761476278305054,0.0006689764559268951,-0.00011286931112408638
1772611439217750300,5.095750244140625,-0.001398877240717411,-0.002550664125010371,0.000511272344738245
1772611439227747300,5.105747314453125,-0.0010188445448875427,-0.00022172974422574043,0.0015901187434792519
1772611439237745400,5.115745361328125,0.000007634982466697693,-0.0035598475951701403,0.0015270402655005455
1772611439247742200,5.1257421875,0.0010971343144774437,0.0005496763624250889,-0.0006804540753364563
1772611439257739300,5.1357392578125,-0.0009009148925542831,0.00036281999200582504,0.002275328151881695
1772611439267736300,5.145736328125,0.0001941770315170288,-0.0003841966390609741,0.0007232381030917168
1772611439277733400,5.1557333984375,0.0006561633199453354,0.0002723168581724167,-0.00031505152583122253
1772611439287730200,5.165730224609375,-0.0015678424388170242,0.0006257183849811554,0.0034549194388091564
1772611439297728300,5.175728271484375,0.0020601684227585793,0.0011574383825063705,-0.0005799387581646442
1772611439307725300,5.185725341796875,0.001358159352093935,0.0006764717400074005,0.002447009552270174
1772611439317722400,5.195722412109375,0.0003561144694685936,-0.0010117581114172935,-0.00138072669506073
1772611439327719200,5.20571923828125,0.0016730474308133125,0.0018748417496681213,0.0022161388769745827
1772611439337716200,5.21571630859375,-0.002059590071439743,-0.0005613267421722412,-0.0016140872612595558
1772611439347713300,5.22571337890625,0.0001300610601902008,-0.0015213964506983757,0.00003813812509179115
1772611439357711400,5.23571142578125,0.0001715477555990219,0.00017231842502951622,0.0009648571722209454
1772611439367708200,5.245708251953125,0.00018859189003705978,-0.002238108776509762,0.0016069449484348297
1772611439377705200,5.255705322265625,-0.0007553314790129662,-0.002777412999421358,0.0012645572423934937
1772611439387702300,5.265702392578125,0.0005347039550542831,0.0023979083634912968,0.0013777418062090874
1772611439397699300,5.27569921875,0.0016960357315838337,-0.0016627642326056957,-0.0003172466531395912
1772611439407697200,5.285697265625,-0.00080840103328228,-0.0019104382954537868,-0.0002456074580550194
1772611439417694200,5.295694091796875,0.00045058876276016235,-0.0010829214006662369,-0.00026508281007409096
1772611439427691300,5.305691162109375,-0.0027963370084762573,-0.0003843745216727257,0.0016707689501345158
1772611439437688300,5.315688232421875,-0.000245044007897377,-0.0004950594156980515,-0.002056319732218981
1772611439447685000,5.32568505859375,0.0005728127434849739,-0.0017781704664230347,-0.00007466180250048637
1772611439457682200,5.33568212890625,0.0012804679572582245,-0.0014686621725559235,-0.000982366967946291
1772611439467678200,5.34567822265625,0.000019727274775505066,0.0018371199257671833,-0.001019651535898447
1772611439477675300,5.35567529296875,-0.0006772615015506744,-0.0021897288970649242,-0.00011809263378381729
1772611439487673300,5.36567333984375,-0.0003600791096687317,-0.0003750510513782501,0.0009453073143959045
1772611439497670100,5.375670166015625,0.0017665508203208447,0.0005602170713245869,-0.0007429951801896095
1772611439507667200,5.385667236328125,-0.0006103198975324631,-0.0014099893160164356,-0.0004678904078900814
1772611439517664300,5.395664306640625,0.00011913292109966278,0.0008551659993827343,-0.0000847172923386097
1772611439527661300,5.405661376953125,0.00030954834073781967,0.0005630170926451683,0.0003429865464568138
1772611439537659100,5.4156591796875,0.0007294537499547005,0.0005540563724935055,0.0012385984882712364
1772611439547656200,5.42565625,-0.00022821873426437378,0.0008350196294486523,0.0010063713416457176
1772611439557653200,5.4356533203125,0.000566200353205204,0.0013890592381358147,0.0002692975103855133
1772611439567650300,5.445650390625,-0.0005842847749590874,0.0013539055362343788,-0.0011618854478001595
1772611439577647000,5.455647216796875,0.00015733856707811356,-0.00006159674376249313,-0.0015485011972486973
1772611439587644400,5.46564453125,0.0009397752583026886,-0.0029742957558482885,0.0006776349619030952
1772611439597642200,5.475642333984375,0.0002485271543264389,0.0017269374802708626,0.00029934244230389595
1772611439607639300,5.485639404296875,-0.0007775891572237015,0.00015247659757733345,-0.0004721754230558872
1772611439617636000,5.495635986328125,0.0012108515948057175,-0.0009446674957871437,0.0006922879256308079
1772611439627633400,5.50563330078125,-0.00013457704335451126,0.0011107604950666428,0.00014314427971839905
1772611439637630200,5.515630126953125,0.001514530275017023,0.0025695832446217537,-0.0016642487607896328
1772611439647628300,5.525628173828125,0.000728631392121315,0.0013437303714454174,0.0007483088411390781
1772611439657625000,5.535625,0.0005255639553070068,0.0015877475962042809,0.000973493792116642
1772611439667621600,5.54562158203125,0.0011977460235357285,0.00041861971840262413,-0.0033091355580836535
1772611439677618400,5.555618408203125,0.0010485081002116203,0.0029175644740462303,-0.001710887998342514
1772611439687615700,5.56561572265625,0.00011427048593759537,-0.0016787848435342312,-0.0002576010301709175
1772611439697612500,5.575612548828125,0.001176874153316021,-0.00014141667634248734,-0.0038363502826541662
1772611439707610600,5.585610595703125,0.0007979059591889381,0.0008514099754393101,-0.00013988278806209564
1772611439717607400,5.595607421875,0.0006486857309937477,-0.0006529707461595535,-0.0012845471501350403
1772611439727604700,5.605604736328125,-0.0017668018117547035,-0.00030489545315504074,0.0019709006883203983
1772611439737601500,5.6156015625,0.00009248778223991394,0.000975647009909153,0.0008731489069759846
1772611439747598600,5.6255986328125,-0.0006278976798057556,0.0005335621535778046,0.0018332190811634064
1772611439757596400,5.635596435546875,-0.0017801988869905472,0.0005835415795445442,0.0024716989137232304
1772611439767593700,5.64559375,-0.0030350806191563606,-0.001442591194063425,-0.0013446109369397163
1772611439777590500,5.655590576171875,0.0017657866701483727,0.00012971321120858192,0.0003240988589823246
1772611439787587600,5.665587646484375,-0.00018710922449827194,0.002100984565913677,-0.0014719367027282715
1772611439797584600,5.675584716796875,0.0005436595529317856,0.0003423900343477726,0.0011807093396782875
1772611439807581400,5.68558154296875,0.0010565845295786858,0.0006337398663163185,0.000762593001127243
1772611439817579500,5.69557958984375,-0.00046140141785144806,-0.002404626226052642,-0.0016513173468410969
1772611439827576600,5.70557666015625,0.0007537985220551491,-0.00041817454621195793,-0.0013495809398591518
1772611439837573600,5.71557373046875,0.00006178393959999084,0.0006101978942751884,-0.0011191032826900482
1772611439847570400,5.7255703125,-0.0011190613731741905,-0.0011922293342649937,-0.0001648925244808197
1772611439857567500,5.7355673828125,0.000010835938155651093,0.0007782261818647385,-0.00030500628054142
1772611439867565600,5.745565673828125,-0.00018570572137832642,-0.0012875879183411598,0.0014902306720614433
1772611439877562600,5.755562744140625,-0.001737578772008419,-0.0019037248566746712,-0.000056805554777383804
1772611439887559400,5.765559326171875,-0.0008752467110753059,0.001524562481790781,0.000869442243129015
1772611439897556500,5.775556396484375,-0.0016695978119969368,0.0001640552654862404,-0.0014587952755391598
1772611439907553500,5.785553466796875,0.0000028675422072410583,-0.0006242403760552406,-0.0017469492740929127
1772611439917550600,5.795550537109375,-0.0018839770928025246,0.00006872043013572693,0.0009760558605194092
1772611439927548700,5.805548583984375,0.00017464719712734222,-0.0005520624108612537,-0.0012444877065718174
1772611439937545500,5.81554541015625,-0.000646478496491909,-0.00336321908980608,0.0005310368724167347
1772611439947542500,5.82554248046875,0.0003737788647413254,-0.00030111661180853844,-0.0012884344905614853
1772611439957539600,5.83553955078125,-0.000725114718079567,-0.002491836901754141,0.0010526529513299465
1772611439967536400,5.845536376953125,-0.00025986041873693466,-0.0002513192594051361,0.00009977398440241814
1772611439977534500,5.855534423828125,0.0003709988668560982,0.00019473396241664886,-0.00019320519641041756
1772611439987531500,5.865531494140625,-0.0016173170879483223,-0.0008516223169863224,0.000971661414951086
1772611439997528600,5.875528564453125,0.0019237617962062359,0.0007367618381977081,-0.0014575859531760216
1772611440007525400,5.885525390625,0.0003295931965112686,0.0003178464248776436,0.0004138173535466194
1772611440017522700,5.895522705078125,0.00041415076702833176,-0.0002772868610918522,0.0014596376568078995
1772611440027519500,5.90551953125,-0.0009914655238389969,-0.002216334454715252,0.00032007135450839996
1772611440037517600,5.915517578125,-0.0009076185524463654,0.00010014884173870087,0.0007283347658813
1772611440047514400,5.925514404296875,0.0012828311882913113,0.0003590080887079239,-0.0001196153461933136
1772611440057511700,5.93551171875,0.0016725333407521248,0.0014004698023200035,0.0017513618804514408
1772611440067508500,5.945508544921875,0.0021013026125729084,-0.0013148891739547253,0.0017441711388528347
1772611440077505500,5.955505615234375,0.0007122932001948357,0.000459037721157074,0.0014026360586285591
1772611440087503400,5.96550341796875,0.00015649106353521347,0.00006888434290885925,0.0008026259019970894
1772611440097500700,5.975500732421875,0.0004590870812535286,0.0007793428376317024,-0.0009321253746747971
1772611440107497500,5.98549755859375,0.0002127448096871376,0.0010888022370636463,-0.0017039095982909203
1772611440117494500,5.99549462890625,-0.0005732644349336624,-0.0007448140531778336,-0.00038162292912602425
1772611440127491600,6.00549169921875,0.0015830970369279385,0.00038436660543084145,0.0034996680915355682
1772611440137488600,6.015488525390625,0.0016105473041534424,0.00044371746480464935,0.00040714070200920105
1772611440147486500,6.025486572265625,0.0008169254288077354,0.00015529710799455643,0.0005679959431290627
1772611440157483500,6.0354833984375,0.0022012977860867977,0.0013910038396716118,0.00020508700981736183
1772611440167480600,6.04548046875,0.0018052859231829643,0.001031210646033287,0.0010913871228694916
1772611440177477600,6.0554775390625,0.0004615234211087227,-0.0009028948843479156,0.003418015781790018
1772611440187474400,6.065474365234375,-0.0009829746559262276,0.0024841134436428547,-0.000833720900118351
1772611440197472500,6.075472412109375,-0.0015144972130656242,0.0015285126864910126,0.0012673288583755493
1772611440207469600,6.085469482421875,0.001073828898370266,-0.0011935043148696423,0.0005208444781601429
1772611440217466600,6.095466552734375,0.00007746368646621704,-0.0012072273530066013,0.0008341534994542599
1772611440227463400,6.10546337890625,-0.0013164347037672997,-0.0008935066871345043,0.003176403697580099
1772611440237460700,6.115460693359375,0.0008152695372700691,0.000826339703053236,-0.00039612501859664917
1772611440247458600,6.12545849609375,0.0010877111926674843,0.0006918502040207386,-0.0008957339450716972
1772611440257455600,6.13545556640625,-0.0004202192649245262,-0.0006179278716444969,-0.0019753212109208107
1772611440267452400,6.145452392578125,-0.0018471414223313332,-0.0006083408370614052,-0.0011481433175504208
1772611440277449700,6.15544970703125,0.0008344687521457672,0.00043382495641708374,-0.00034251483157277107
1772611440287446500,6.165446533203125,0.0010872026905417442,0.001419194508343935,-0.00011508120223879814
1772611440297443600,6.175443603515625,0.002157044131308794,-0.003404727205634117,0.001625116914510727
1772611440307441400,6.18544140625,0.000023319385945796967,-0.002077141311019659,-0.001768016256392002
1772611440317438700,6.195438720703125,0.0004277704283595085,-0.0004674280062317848,0.0010245675221085548
1772611440327435500,6.205435546875,0.0003697136417031288,0.0016993200406432152,-0.0026711011305451393
1772611440337432600,6.2154326171875,0.0004534786567091942,0.001189734786748886,0.0014233044348657131
1772611440347429600,6.2254296875,0.00043057557195425034,0.00009251199662685394,0.0003132987767457962
1772611440357427700,6.235427734375,-0.0005684513598680496,0.0010185092687606812,0.0005246228538453579
1772611440367424500,6.245424560546875,0.0000986708328127861,-0.0014702146872878075,0.001283890102058649
1772611440377421600,6.255421630859375,0.00038318708539009094,0.002477484755218029,0.0022963578812777996
1772611440387418600,6.265418701171875,0.0004537608474493027,0.0001466860994696617,-0.0007444391958415508
1772611440397415700,6.275415771484375,-0.0006284592673182487,-0.0014454443007707596,0.0008905651047825813
1772611440407413500,6.28541357421875,-0.0020660338923335075,0.0008667120710015297,-0.0010815057903528214
1772611440417410600,6.29541064453125,-0.0008180858567357063,-0.0020379130728542805,0.000874614343047142
1772611440427407600,6.30540771484375,0.0013198996894061565,0.0014204676263034344,-0.0010609710589051247
1772611440437404700,6.31540478515625,-0.0017965752631425858,0.000964354258030653,0.0002958006225526333
1772611440447401500,6.3254013671875,0.00008920952677726746,-0.0020620618015527725,-0.0008363090455532074
1772611440457399600,6.335399658203125,0.003278633113950491,0.0008405079133808613,0.0006279200315475464
1772611440467396600,6.345396728515625,-0.0007472671568393707,-0.0002274196594953537,0.00037518609315156937
1772611440477393700,6.3553935546875,-0.0008949460461735725,0.00004137726500630379,-0.0014793514274060726
1772611440487390500,6.365390380859375,0.00017111748456954956,0.0017205001786351204,-0.0017709676176309586
1772611440497387500,6.375387451171875,0.000588507391512394,0.0005387868732213974,0.0011692531406879425
1772611440507385600,6.385385498046875,-0.00030152034014463425,-0.00001941155642271042,-0.00008296547457575798
1772611440517382700,6.395382568359375,0.0008477410301566124,-0.0008589518256485462,-0.000013274606317281723
1772611440527379500,6.40537939453125,-0.0008156690746545792,-0.0010930434800684452,-0.0004500332288444042
1772611440537376800,6.415376708984375,-0.0014721984043717384,0.0018094107508659363,-0.0007241289131343365
1772611440547373600,6.42537353515625,0.000006654299795627594,-0.0021560355089604855,0.002003213856369257
1772611440557370400,6.435370361328125,-0.0008433423936367035,0.0014068777672946453,-0.001428821124136448
1772611440567368400,6.445368408203125,-0.0004787556827068329,0.0016638725064694881,0.0010950565338134766
1772611440577365800,6.45536572265625,0.0006856992840766907,-0.0019535087049007416,-0.0002101687714457512
1772611440587362600,6.465362548828125,-0.0008040731772780418,0.0007067229598760605,0.00034696469083428383
1772611440597359400,6.475359375,-0.0016782954335212708,-0.0008539184927940369,-0.00027544843032956123
1772611440607356700,6.485356689453125,-0.0025784438475966454,0.00029470259323716164,-0.0005340413190424442
1772611440617354800,6.495354736328125,0.0002371910959482193,0.0016954685561358929,-0.000507161021232605
1772611440627351600,6.5053515625,-0.0005087601020932198,0.0003966451622545719,-0.00008824560791254044
1772611440637348400,6.515348388671875,-0.0008357279002666473,0.001581711694598198,-0.0005937214009463787
1772611440647345700,6.525345703125,0.0012924042530357838,0.00046877656131982803,0.0011615683324635029
1772611440657342500,6.535342529296875,-0.0032259980216622353,0.00038968445733189583,-0.0028312094509601593
1772611440667341300,6.54534130859375,0.0005423752591013908,-0.002096110489219427,-0.0005645928904414177
1772611440677338400,6.55533837890625,0.0006608478724956512,0.0007707052864134312,-0.002149189356714487
1772611440687335200,6.565335205078125,0.00012954697012901306,-0.002054908312857151,0.0010812249965965748
1772611440697332500,6.57533251953125,-0.0007687713950872421,0.001317132730036974,-0.0004868544638156891
1772611440707329300,6.585329345703125,0.00035508256405591965,0.0008766460232436657,0.00002260832116007805
1772611440717327400,6.595327392578125,-0.0010031629353761673,0.0019996757619082928,0.001658889465034008
1772611440727324200,6.60532421875,-0.001054561696946621,0.0008880719542503357,-0.000960861798375845
1772611440737321500,6.615321533203125,0.00034561287611722946,-0.0012728795409202576,0.003070561680942774
1772611440747318300,6.625318359375,0.00017277337610721588,-0.0013876617886126041,0.0010644025169312954
1772611440757315300,6.6353154296875,-0.0009137727320194244,0.0010016360320150852,-0.00036591198295354843
1772611440767313200,6.645313232421875,-0.00002587493509054184,-0.00002581113949418068,-0.0005890848115086555
1772611440777310500,6.655310546875,0.0011609531939029694,0.00033654971048235893,-0.0006404365412890911
1772611440787307300,6.665307373046875,0.00048291217535734177,0.0020742621272802353,-0.0010018274188041687
1772611440797304300,6.67530419921875,0.000647042877972126,-0.002932456089183688,-0.00046575069427490234
1772611440807301400,6.68530126953125,0.0018603787757456303,0.000635380856692791,0.00011162227019667625
1772611440817298200,6.695298095703125,-0.001234954223036766,-0.0012716297060251236,0.0017424365505576134
1772611440827296300,6.705296142578125,0.0008063586428761482,0.0016184328123927116,-0.0006490824744105339
1772611440837293300,6.715293212890625,0.0006747301667928696,0.0019244365394115448,0.00232126098126173
1772611440847290400,6.725290283203125,0.00048005301505327225,-0.0008668228983879089,-0.001164018176496029
1772611440857287200,6.735287109375,0.0004307674244046211,0.0023757941089570522,-0.0015462595038115978
1772611440867284200,6.7452841796875,0.002361825667321682,0.002896974328905344,0.0003206166438758373
1772611440877282300,6.7552822265625,0.0016748211346566677,0.00037555117160081863,-0.0011388561688363552
1772611440887279400,6.765279296875,-0.001034412533044815,0.0006304155103862286,-0.0005553574301302433
1772611440897276200,6.775276123046875,-0.0006902553141117096,0.0005037793889641762,-0.001265695784240961
1772611440907273200,6.785273193359375,0.0002871248871088028,-0.003411333542317152,-0.00031840940937399864
1772611440917270300,6.795270263671875,0.00030505843460559845,0.0013411445543169975,0.00035008229315280914
1772611440927268400,6.805268310546875,0.0029415879398584366,-0.0019238907843828201,0.0013756658881902695
1772611440937265400,6.815265380859375,-0.0004630712792277336,-0.000564945861697197,0.001209275797009468
1772611440947262200,6.82526220703125,0.0009835585951805115,0.0003389311023056507,0.0009110015816986561
1772611440957259300,6.83525927734375,0.0018122075125575066,0.0007827100344002247,0.000655448529869318
1772611440967256300,6.84525634765625,-0.0014408435672521591,-0.001129439566284418,-0.001734205987304449
1772611440977254400,6.85525439453125,-0.0006664330139756203,-0.0006116083823144436,0.0006893305107951164
1772611440987251200,6.865251220703125,0.00022492744028568268,-0.00015407754108309746,-0.00004676729440689087
1772611440997248300,6.875248291015625,0.0009874850511550903,-0.00006439955905079842,-0.0023347558453679085
1772611441007245300,6.885245361328125,-0.001011483371257782,0.0003960607573390007,0.0013534557074308395
1772611441017242000,6.8952421875,0.003056430257856846,-0.0005185618065297604,0.0012422441504895687
1772611441027240200,6.905240234375,0.0008004670962691307,-0.0009633093141019344,0.00021239975467324257
1772611441037237200,6.9152373046875,-0.0007066931575536728,-0.0011943858116865158,-0.0017024409025907516
1772611441047234300,6.925234375,-0.0007556946948170662,-0.0008497727103531361,-0.0003852411173284054
1772611441057231000,6.935231201171875,0.00036584772169589996,-0.0007794308476150036,0.0015801829285919666
1772611441067228400,6.945228515625,0.0019341828301548958,0.0008474942296743393,-0.0001583285629749298
1772611441077226500,6.9552265625,-0.0010606367141008377,0.000523122027516365,-0.00036302627995610237
1772611441087223300,6.965223388671875,0.000664825551211834,0.0008099447004497051,0.0022135814651846886
1772611441097220000,6.97522021484375,0.0007197558879852295,0.0004529869183897972,0.002165483310818672
1772611441107217400,6.985217529296875,-0.0012784134596586227,0.0026631439104676247,-0.0014007557183504105
1772611441117214200,6.995214111328125,-0.0009703915566205978,-0.00025244569405913353,0.0005241967737674713
1772611441127212300,7.00521240234375,-0.00030247122049331665,-0.001483625266700983,0.00041767023503780365
1772611441137209000,7.015208984375,0.00023392215371131897,0.0002763844095170498,-0.0032406242098659277
1772611441147206400,7.025206298828125,-0.0008521145209670067,0.00007211975753307343,-0.00036733970046043396
1772611441157203200,7.035203125,-0.0015051420778036118,0.0008468590676784515,0.001630199607461691
1772611441167200300,7.0452001953125,0.0002658599987626076,-0.0003499658778309822,-0.0017141979187726974
1772611441177198000,7.055197998046875,-0.0011117756366729736,0.0006763562560081482,-0.0008996590040624142
1772611441187195400,7.0651953125,-0.0013980651274323463,-0.000542305875569582,-0.0001699528656899929
1772611441197192200,7.075192138671875,-0.000402987003326416,0.0006455942057073116,0.00008207978680729866
1772611441207189200,7.085189208984375,-0.0014109928160905838,0.0006602415814995766,-0.00015547452494502068
1772611441217186300,7.095186279296875,0.0010016048327088356,0.002271059900522232,-0.00206660944968462
1772611441227184400,7.105184326171875,-0.0009835157543420792,-0.0013772044330835342,-0.0019065537489950657
1772611441237181200,7.11518115234375,-0.0000837007537484169,0.0025472124107182026,-0.0007516723126173019
1772611441247178200,7.12517822265625,-0.001631263643503189,0.00019990187138319016,-0.0020172065123915672
1772611441257175300,7.13517529296875,0.0013500628992915154,0.00006585149094462395,0.001291805412620306
1772611441267172400,7.14517236328125,-0.00004037376493215561,0.0015023606829345226,-0.00029197661206126213
1772611441277170200,7.155170166015625,0.0013713543303310871,0.0011968808248639107,0.0009276005439460278
1772611441287167200,7.165167236328125,0.0013958555646240711,0.0001513236202299595,0.00010095536708831787
1772611441297164300,7.175164306640625,0.000605633482336998,0.0012721577659249306,0.0009066197089850903
1772611441307161300,7.185161376953125,0.00023864954710006714,-0.0010999199002981186,0.0007878425531089306
1772611441317158100,7.195158203125,-0.0015418045222759247,-0.001397860236465931,-0.0017644851468503475
1772611441327156200,7.20515625,0.0008457191288471222,0.00036541838198900223,-0.0016702092252671719
1772611441337153300,7.2151533203125,0.001709754578769207,-0.0011984845623373985,-0.0017587416805326939
1772611441347150300,7.225150390625,-0.0016780523583292961,0.0026034442707896233,-0.000009310897439718246
1772611441357147100,7.235147216796875,-0.0019480064511299133,-0.0010096854530274868,0.00042665377259254456
1772611441367144400,7.24514453125,0.0007833316922187805,-0.00015401188284158707,0.0010218704119324684
1772611441377142300,7.255142333984375,-0.00027856510132551193,0.00014063110575079918,-0.00283414451405406
1772611441387139300,7.265139404296875,-0.0008199857547879219,-0.001968059688806534,-0.0015781978145241737
1772611441397136100,7.27513623046875,0.0007542464882135391,0.00010981922969222069,-0.002573315054178238
1772611441407133400,7.285133544921875,0.00023839250206947327,0.0005255383439362049,0.0019173072651028633
1772611441417130200,7.295130126953125,-0.0009683119133114815,-0.003132909070700407,0.001140695996582508
1772611441427128300,7.30512841796875,0.0030184397473931313,0.0012740897946059704,-0.0005714497528970242
1772611441437125000,7.315125,-0.0009430320933461189,-0.00007689371705055237,-0.00025845831260085106
1772611441447122400,7.325122314453125,-0.00042078644037246704,-0.000216709915548563,-0.0004563308320939541
1772611441457119200,7.335119140625,0.00212785042822361,0.0009272629395127296,-0.000946276355534792
1772611441467116300,7.3451162109375,0.0007371474057435989,-0.0003473255783319473,0.001265745609998703
1772611441477114000,7.355114013671875,-0.000059703364968299866,0.00047514401376247406,-0.0015676007606089115
1772611441487111400,7.365111328125,-0.0005017882212996483,-0.001067358534783125,-0.001158006489276886
1772611441497108200,7.375108154296875,0.001885071862488985,-0.0012133223935961723,-0.00048580486327409744
1772611441507105300,7.385105224609375,0.0017085042782127857,-0.0006023929454386234,-0.002226180862635374
1772611441517102300,7.395102294921875,-0.00046993885189294815,-0.0015147714875638485,0.000491549726575613
1772611441527100400,7.405100341796875,0.0005239527672529221,0.0016051214188337326,-0.001364140771329403
1772611441537097200,7.41509716796875,-0.0008747046813368797,0.0026628589257597923,-0.000680270604789257
1772611441547094300,7.42509423828125,0.00017458107322454453,-0.00008419202640652657,-0.0004978440701961517
1772611441557091300,7.43509130859375,-0.0020733876153826714,-0.0005879169330000877,0.0011182408779859543
1772611441567088400,7.44508837890625,0.0009751329198479652,0.00007041636854410172,-0.0010003033094108105
1772611441577086200,7.455086181640625,-0.0011024512350559235,0.00008842442184686661,-0.0017094495706260204
1772611441587083300,7.465083251953125,0.00033858511596918106,-0.0012005455791950226,-0.00033925287425518036
1772611441597080300,7.475080322265625,-0.00030939094722270966,0.001748721580952406,-0.00022255443036556244
1772611441607077400,7.485077392578125,-0.0009027430787682533,0.0036480887793004513,-0.000848397146910429
1772611441617074200,7.49507421875,0.002788818906992674,0.0012593804858624935,-0.0017543798312544823
1772611441627072300,7.505072265625,0.00003564264625310898,-0.0008266735821962357,-0.0010904539376497269
1772611441637069300,7.5150693359375,-0.00015378277748823166,-0.0006690900772809982,-0.0007004793733358383
1772611441647066400,7.52506640625,-0.0009231707081198692,0.00028964830562472343,0.00044361455366015434
1772611441657063200,7.535063232421875,-0.00026996154338121414,-0.0010932181030511856,0.0016453699208796024
1772611441667060500,7.545060546875,0.0010277973487973213,0.0016189445741474628,0.00014441274106502533
1772611441677058600,7.55505859375,-0.0008728876709938049,-0.0006870492361485958,-0.0007184813730418682
1772611441687055400,7.565055419921875,0.0029902937822043896,-0.0005781259387731552,-0.0001594838686287403
1772611441697052400,7.575052490234375,-0.0012109186500310898,0.0015506697818636894,-0.0007580569945275784
1772611441707049500,7.585049560546875,-0.00044286344200372696,-0.0014365976676344872,-0.0006920103915035725
1772611441717047600,7.595047607421875,-0.00018782354891300201,-0.0002891821786761284,-0.0015165605582296848
1772611441727044400,7.60504443359375,0.000774109736084938,0.000134260393679142,-0.0007642176933586597
1772611441737041400,7.61504150390625,0.00014264322817325592,0.001082753762602806,0.002939739264547825
1772611441747038500,7.62503857421875,0.00018844939768314362,0.0014183120802044868,-0.0015932274982333183
1772611441757035300,7.63503515625,0.0010039284825325012,-0.00019819196313619614,-0.00034223124384880066
1772611441767033300,7.645033447265625,-0.0008842526003718376,-0.0014924881979823112,-0.0006751264445483685
1772611441777030400,7.655030517578125,-0.0008160881698131561,0.00023979460820555687,0.0016535143367946148
1772611441787027500,7.66502734375,0.00015197135508060455,0.00022807670757174492,0.0011626933701336384
1772611441797024300,7.675024169921875,0.001658639870584011,-0.0024757443461567163,-0.0016003958880901337
1772611441807021300,7.685021240234375,0.00023890845477581024,0.0014465590938925743,0.0005471771582961082
1772611441817019400,7.695019287109375,0.001748229842633009,0.0004891459830105305,-0.0004165666177868843
1772611441827016400,7.705016357421875,-0.0006355661898851395,-0.0007055480964481831,0.0007267282344400883
1772611441837013500,7.715013427734375,0.0010439353063702583,0.002053620293736458,-0.0007737651467323303
1772611441847010300,7.72501025390625,0.00185113912448287,-0.0006697280332446098,0.0032452112063765526
1772611441857007400,7.73500732421875,-0.0017116488888859749,-0.0013438966125249863,-0.0005441675893962383
1772611441867005400,7.74500537109375,-0.0010474557057023048,0.0007197870872914791,0.000994606874883175
1772611441877002500,7.75500244140625,0.0019719908013939857,-0.0019314703531563282,0.000843921210616827
1772611441886999300,7.764999267578125,0.0005663745105266571,0.0008488697931170464,0.0008100992999970913
1772611441896996400,7.774996337890625,-0.0018480103462934494,-0.002175056841224432,0.00019844016060233116
1772611441906993400,7.784993408203125,0.00048438645899295807,0.0002542785368859768,0.00035929540172219276
1772611441916991500,7.794991455078125,0.0009751264005899429,-0.0016144816763699055,-0.0015143770724534988
1772611441926988300,7.80498828125,-0.00023608002811670303,0.00003135157749056816,-0.0005202190950512886
1772611441936985300,7.8149853515625,0.0000975513830780983,0.0018390091136097908,0.0008744406513869762
1772611441946982400,7.824982421875,0.0009947698563337326,-0.0002401205711066723,-0.0002225153148174286
1772611441956979200,7.834979248046875,0.0014976020902395248,-0.0003821263089776039,-0.0012089298106729984
1772611441966977300,7.844977294921875,-0.00021827314049005508,0.0026157936081290245,0.000018254853785037994
1772611441976974300,7.854974365234375,0.0006419764831662178,0.0019069621339440346,0.001928525511175394
1772611441986971400,7.864971435546875,-0.0009697685018181801,0.0011383737437427044,0.0010768468491733074
1772611441996968200,7.87496826171875,-0.003323327749967575,-0.00045401230454444885,0.0019313562661409378
1772611442006966300,7.88496630859375,0.000636526383459568,-0.0005805124528706074,0.0012690285220742226
1772611442016963600,7.894963623046875,-0.0015193922445178032,0.0029219812713563442,0.002819271292537451
1772611442026960400,7.90496044921875,0.0012465668842196465,0.0004044952802360058,-0.0003536189906299114
1772611442036957200,7.914957275390625,0.0014029936864972115,0.0002703978680074215,-0.00015962868928909302
1772611442046954500,7.92495458984375,-0.003021049313247204,0.0011676168069243431,-0.00016522174701094627
1772611442056952600,7.93495263671875,0.0015849010087549686,-0.000570851843804121,0.0008046966977417469
1772611442066949400,7.944949462890625,0.0010168487206101418,-0.00006884615868330002,0.0006811260245740414
1772611442076946200,7.9549462890625,-0.0003142626956105232,0.0003068065270781517,0.00036353664472699165
1772611442086943500,7.964943603515625,-0.0004777815192937851,0.00014142412692308426,-0.0011794986203312874
1772611442096940300,7.974940185546875,0.0010013487190008163,0.002146512269973755,0.0025264639407396317
1772611442106938400,7.9849384765625,-0.0005531385540962219,0.0017140144482254982,0.0008888863958418369
1772611442116935200,7.99493505859375,0.0005861986428499222,-0.000012130476534366608,0.001410183496773243
1772611442126932500,8.004932373046875,0.0004892591387033463,0.0009386180900037289,-0.000260417815297842
1772611442136929300,8.01492919921875,0.0009760977700352669,-0.0006843116134405136,-0.00021248171105980873
1772611442146926300,8.02492626953125,0.0009212363511323929,0.00004273140802979469,-0.0004359208978712559
1772611442156924200,8.034924072265625,-0.0007064035162329674,0.0003623603843152523,-0.00005117058753967285
1772611442166921500,8.04492138671875,-0.00013408996164798737,-0.0006837295368313789,0.00041328463703393936
1772611442176918300,8.054918212890625,-0.003870229236781597,0.002339824102818966,-0.0004254523664712906
1772611442186915300,8.064915283203124,0.0015250691212713718,-0.001104175578802824,0.0009511355310678482
1772611442196912400,8.074912353515625,-0.0006486149504780769,-0.0007197456434369087,0.0002912119962275028
1772611442206910500,8.084910400390624,-0.0002571307122707367,0.00006535463035106659,-0.0001854938454926014
1772611442216907300,8.0949072265625,-0.000278339721262455,-0.00011960277333855629,0.0004798141308128834
1772611442226904300,8.104904296875,0.0003618849441409111,-0.002923911204561591,-0.0035647286567837
1772611442236901400,8.1149013671875,-0.0007077967748045921,-0.0030839249957352877,-0.007337847258895636
1772611442246899500,8.1248994140625,0.0006123324856162071,0.0031302953138947487,0.008463219739496708
1772611442256896300,8.134896240234376,-0.0007843095809221268,0.004137471783906221,0.0026642177253961563
1772611442266893300,8.144893310546875,0.00015152525156736374,-0.0049231345765292645,0.003475682809948921
1772611442276890400,8.154890380859374,0.003265464212745428,0.0021711448207497597,0.011081738397479057
1772611442286887400,8.164887451171875,-0.0007950570434331894,-0.0010097348131239414,0.0014863698743283749
1772611442296885200,8.17488525390625,0.0007439181208610535,0.00029301736503839493,0.0038440697826445103
1772611442306882300,8.18488232421875,0.0010725520551204681,-0.0016707973554730415,-0.0009735883213579655
1772611442316879400,8.19487939453125,0.0025801626034080982,0.0034806779585778713,0.00046801846474409103
1772611442326876400,8.20487646484375,0.0007729418575763702,-0.0017492370679974556,0.0029988205060362816
1772611442336873200,8.214873291015625,-0.0010466445237398148,0.00121302530169487,-0.0031392332166433334
1772611442346871300,8.224871337890624,0.0018463470041751862,-0.0010621133260428905,0.0011495212092995644
1772611442356868400,8.234868408203125,-0.0014599747955799103,0.0013466463424265385,0.0008550137281417847
1772611442366865400,8.244865478515624,0.00021621864289045334,0.0006406423635780811,-0.0002512633800506592
1772611442376862200,8.2548623046875,0.0014800443314015865,-0.0007033096626400948,-0.0044708894565701485
1772611442386860300,8.2648603515625,0.00045499391853809357,-0.001445532776415348,-0.0014364835806190968
1772611442396857300,8.274857421875,-0.001717589795589447,-0.0003535086289048195,-0.0006579598411917686
1772611442406854400,8.2848544921875,0.0029173758812248707,-0.000787337776273489,-0.00033811433240771294
1772611442416851200,8.294851318359376,-0.0002057645469903946,0.0033173910342156887,0.00003708386793732643
1772611442426848500,8.3048486328125,0.00013192463666200638,0.000025724060833454132,-0.00009128032252192497
1772611442436846300,8.314846435546874,-0.000818103551864624,-0.0014262166805565357,0.00035389093682169914
1772611442446843400,8.324843505859375,0.0017686253413558006,-0.0003883829340338707,-0.0007103085517883301
1772611442456840200,8.334840087890624,-0.003871595486998558,-0.0008588982746005058,0.0012931437231600285
1772611442466837500,8.34483740234375,0.001080285757780075,0.0010766871273517609,0.0008462648838758469
1772611442476834300,8.354834228515625,-0.00022660475224256516,0.0001476593315601349,-0.0005989847704768181
1772611442486832400,8.364832275390626,0.0003148159012198448,0.00044566718861460686,0.0003080880269408226
1772611442496829200,8.3748291015625,0.002444164827466011,-0.000048570334911346436,0.00048518087714910507
1772611442506826500,8.384826416015626,-0.0006664078682661057,-0.0005258088931441307,-0.0007771574892103672
1772611442516823300,8.3948232421875,-0.0006349273025989532,-0.00016585038974881172,0.0014097965322434902
1772611442526821400,8.4048212890625,0.002562197856605053,0.0005276366136968136,-0.0005561490543186665
1772611442536818200,8.414818115234375,-0.00043276697397232056,0.0009734230116009712,0.00006185844540596008
1772611442546815500,8.4248154296875,0.00016431324183940887,0.00014731008559465408,-0.0017408356070518494
1772611442556812300,8.434812255859375,-0.0004744855687022209,-0.00004528136923909187,-0.0024708076380193233
1772611442566809300,8.444809326171875,-0.0009466642513871193,0.0012146597728133202,-0.002042571548372507
1772611442576807200,8.45480712890625,-0.0007740585133433342,-0.000338616780936718,-0.003360539674758911
1772611442586804500,8.464804443359375,-0.0011948375031352043,0.0020470432937145233,0.00021022697910666466
1772611442596801300,8.47480126953125,-0.00026682205498218536,-0.00021447660401463509,0.000631989911198616
1772611442606798300,8.48479833984375,0.0005731387063860893,0.0014667767100036144,0.001172345131635666
1772611442616795400,8.49479541015625,0.0009459620341658592,0.001663298811763525,-0.0007110759615898132
1772611442626793500,8.50479345703125,0.000469256192445755,-0.0007324805483222008,-0.0008341139182448387
1772611442636790300,8.514790283203125,0.000044927000999450684,0.0009281379170715809,-0.0012697638012468815
1772611442646787300,8.524787353515626,-0.00021180137991905212,0.0016407999210059643,-0.002443685196340084
1772611442656784400,8.534784423828125,0.000540650449693203,0.00036403024569153786,-0.003025056328624487
1772611442666782500,8.544782470703124,-0.0005147606134414673,-0.000182450283318758,-0.000822621863335371
1772611442676779300,8.554779296875,-0.0011960742995142937,0.0003056507557630539,0.0009613949805498123
1772611442686776300,8.5647763671875,0.0019235527142882347,0.002083843108266592,-0.0006191912107169628
1772611442696773400,8.5747734375,0.001354327891021967,-0.0011899466626346111,0.0010957852937281132
1772611442706770200,8.584770263671874,-0.0005588866770267487,0.00013151392340660095,0.0034745209850370884
1772611442716768300,8.594768310546876,0.0013404558412730694,-0.0013581477105617523,-0.0009960285387933254
1772611442726765300,8.604765380859375,0.0007665446028113365,0.0011995523236691952,-0.0004655267111957073
1772611442736762400,8.614762451171876,-0.0019173277541995049,0.00010629789903759956,0.0024164305068552494
1772611442746759200,8.62475927734375,-0.0007961373776197433,0.001273294910788536,0.002937610726803541
1772611442756757200,8.63475732421875,0.0008707176893949509,-0.0018263855017721653,0.0005150120705366135
1772611442766754300,8.64475439453125,-0.00010373257100582123,-0.0008029327727854252,0.0011946503072977066
1772611442776751400,8.65475146484375,0.001120072789490223,0.00007403967902064323,0.0003462838940322399
1772611442786748200,8.664748046875,-0.0006527937948703766,-0.0012005488388240337,0.0010019540786743164
1772611442796745200,8.6747451171875,-0.0004511158913373947,0.0016206437721848488,0.0004883361980319023
1772611442806743300,8.684743408203126,-0.00016562454402446747,-0.0007666135206818581,-0.0017559095285832882
1772611442816740400,8.694740234375,-0.001961975358426571,-0.00013449881225824356,0.0019082650542259216
1772611442826737200,8.704737060546876,0.00021648965775966644,-0.001094302162528038,0.0010272916406393051
1772611442836734200,8.714734130859375,-0.00046249013394117355,0.00033230381086468697,0.0019433367997407913
1772611442846731300,8.724731201171876,0.0021540657617151737,0.0017853244207799435,0.0027793031185865402
1772611442856729300,8.734729248046875,0.00011359341442584991,0.0016734227538108826,-0.0026994948275387287
1772611442866726400,8.744726318359374,-0.00093888770788908,-0.00017268024384975433,0.0007394449785351753
1772611442876723200,8.75472314453125,-0.0005880733951926231,0.0005270964466035366,-0.0009368928149342537
1772611442886720300,8.76472021484375,0.0010710759088397026,0.002576399128884077,-0.0038325476925820112
1772611442896718300,8.77471826171875,-0.00039680302143096924,-0.00324419979006052,-0.0007121190428733826
1772611442906715400,8.78471533203125,0.002756113652139902,-0.00006411923095583916,0.0013294601812958717
1772611442916712200,8.794712158203126,-0.00023379363119602203,0.0014428021386265755,-0.0015454255044460297
1772611442926709200,8.804709228515625,-0.0008031772449612617,-0.0010443241335451603,-0.00006444193422794342
1772611442936706300,8.814706298828124,0.00019552931189537048,0.0012017413973808289,-0.0015321043320000172
1772611442946704400,8.824704345703125,0.0002834135666489601,-0.0005583418533205986,0.001889791339635849
1772611442956701200,8.834701171875,0.0005597453564405441,-0.001145318616181612,0.0013934620656073093
1772611442966698200,8.8446982421875,-0.00005278177559375763,-0.0015016496181488037,0.0008435188792645931
1772611442976695300,8.8546953125,0.00035121291875839233,-0.0006258953362703323,0.0018438990227878094
1772611442986693400,8.864693359375,-0.0007492052391171455,-0.00023680739104747772,0.000376763753592968
1772611442996690200,8.874690185546875,-0.0017660055309534073,0.0011906237341463566,-0.0005673067644238472
1772611443006687200,8.884687255859374,-0.0015582786872982979,-0.0004525464028120041,0.0014207428321242332
1772611443016684300,8.894684326171875,0.00023392774164676666,0.0009207301773130894,0.0015460439026355743
1772611443026681000,8.90468115234375,-0.0010744836181402206,-0.0015067406930029392,0.0031375493854284286
1772611443036679200,8.91467919921875,-0.0007989592850208282,0.0019535301253199577,0.0022833491675555706
1772611443046676500,8.924676513671875,-0.0007531521841883659,0.0001508370041847229,0.00025135744363069534
1772611443056673300,8.93467333984375,0.001229175366461277,-0.0012913551181554794,-0.0020755277946591377
1772611443066670000,8.944670166015625,0.003225215245038271,-0.0006343531422317028,0.00047205202281475067
1772611443076668200,8.954668212890626,0.0008161021396517754,0.00006381701678037643,0.0008254488930106163
1772611443086665500,8.96466552734375,-0.00012798793613910675,-0.00040756212547421455,-0.0010313070379197598
1772611443096662300,8.974662353515624,0.000948343425989151,-0.00014688493683934212,0.0020128036849200726
1772611443106659000,8.9846591796875,0.0012282421812415123,-0.0011948389001190662,0.0005818875506520271
1772611443116656400,8.994656494140624,0.000021637417376041412,-0.00033795367926359177,-0.0015156585723161697
1772611443126654500,9.004654541015626,0.000644550658762455,-0.0003494052216410637,-0.002049888949841261
1772611443136651300,9.0146513671875,0.0006765080615878105,-0.0011566095054149628,-0.000017364509403705597
1772611443146648000,9.02464794921875,-0.0002982085570693016,0.00008149398490786552,0.00001912098377943039
1772611443156645400,9.034645263671875,0.00017924979329109192,0.00026724673807621,-0.001540040597319603
1772611443166643500,9.0446435546875,0.0019465237855911255,0.0016262577846646309,0.00018941611051559448
1772611443176640300,9.05464013671875,0.0007545566186308861,0.0024174340069293976,0.0004343525506556034
1772611443186637000,9.064636962890624,-0.0008571892976760864,0.0004871748387813568,-0.002121483441442251
1772611443196634400,9.07463427734375,0.001642616931349039,-0.000322156585752964,0.00022458098828792572
1772611443206631200,9.084631103515624,0.00029745418578386307,0.0025295563973486423,0.00013563130050897598
1772611443216629200,9.094629150390626,-0.0011625932529568672,-0.00007360521703958511,-0.000455344095826149
1772611443226626300,9.104626220703125,-0.00199190154671669,0.0006747432053089142,-0.000458539929240942
1772611443236623400,9.114623291015626,0.00012539979070425034,0.00009999191388487816,-0.00006199115887284279
1772611443246620200,9.1246201171875,-0.0008469205349683762,-0.0005450258031487465,-0.0011634747497737408
1772611443256618200,9.1346181640625,-0.0015024887397885323,-0.0005288883112370968,-0.0017085862345993519
1772611443266615300,9.144615234375,0.000796884298324585,0.001392316073179245,0.0001423107460141182
1772611443276612400,9.1546123046875,-0.0027554603293538094,0.0025348267517983913,0.000704396516084671
1772611443286609200,9.164609130859375,0.002117058727890253,0.0012061758898198605,0.0007280982099473476
1772611443296606200,9.174606201171875,-0.00001779012382030487,0.00029102014377713203,0.00024186819791793823
1772611443306604300,9.184604248046876,0.0010671811178326607,0.00018715672194957733,-0.0013949107378721237
1772611443316601300,9.194601318359375,0.0012381980195641518,-0.00028275325894355774,-0.000047917477786540985
1772611443326598100,9.20459814453125,0.00016387831419706345,-0.000766117125749588,0.00019682710990309715
1772611443336595200,9.21459521484375,-0.0012273117899894714,0.0010946481488645077,0.0023592058569192886
1772611443346593300,9.22459326171875,-0.0009743114933371544,-0.0016305642202496529,0.000424419529736042
1772611443356590300,9.23459033203125,-0.0023112772032618523,0.00008042389526963234,-0.0011877957731485367
1772611443366587400,9.24458740234375,-0.0008944757282733917,0.00046445196494460106,-0.00038591818884015083
1772611443376584200,9.254584228515625,-0.000047004781663417816,-0.0005824174731969833,-0.000019575469195842743
1772611443386581200,9.264581298828125,0.0004573976621031761,0.0023308144882321358,-0.001588443759828806
1772611443396579300,9.274579345703126,0.0005121007561683655,0.003573410678654909,-0.0003867419436573982
1772611443406576400,9.284576416015625,0.0013462030328810215,-0.00153639679774642,-0.00015984056517481804
1772611443416573200,9.2945732421875,0.0004879068583250046,0.0019687991589307785,0.0001840856857597828
1772611443426570200,9.3045703125,-0.0008577890694141388,0.0005400129593908787,0.0007840958423912525
1772611443436568300,9.314568359375,-0.0018267277628183365,-0.004424270708113909,-0.0007588975131511688
1772611443446565400,9.3245654296875,0.0015957006253302097,-0.00016827275976538658,0.0012733610346913338
1772611443456562200,9.334562255859375,0.0004775477573275566,-0.00009741587564349174,-0.0027730215806514025
1772611443466559200,9.344559326171876,0.0016693123616278172,0.0006368174217641354,-0.0002049352042376995
1772611443476557300,9.354557373046875,0.00053420290350914,0.0019627991132438183,-0.001578458584845066
1772611443486554400,9.364554443359374,0.0009888047352433205,-0.0036064034793525934,0.002345709130167961
1772611443496551200,9.37455126953125,0.0006746212020516396,-0.0006039491854608059,-0.00036019738763570786
1772611443506548200,9.38454833984375,0.0007965946570038795,0.0014450866729021072,0.00037110643461346626
1772611443516545300,9.394545166015625,0.0011752061545848846,-0.0013007139787077904,-0.000002527143806219101
1772611443526543400,9.40454345703125,0.0006066206842660904,0.001975240185856819,0.0002776375040411949
1772611443536540200,9.4145400390625,0.00001103617250919342,0.00015348009765148163,-0.0008459878154098988
1772611443546537500,9.424537353515625,-0.002049984410405159,-0.0002491897903382778,0.000843521673232317
1772611443556534300,9.4345341796875,0.0007757209241390228,0.0007650242187082767,0.0011569675989449024
1772611443566531000,9.444531005859375,-0.00015665125101804733,0.002013780642300844,-0.00007794005796313286
1772611443576529200,9.454529052734374,-0.0007128287106752396,-0.0008440758101642132,-0.000017777085304260254
1772611443586526500,9.4645263671875,0.00208189245313406,-0.00013887044042348862,-0.0006550713442265987
1772611443596523300,9.474523193359374,-0.0006352737545967102,0.0003973678685724735,0.0021437895484268665
1772611443606520000,9.48452001953125,0.000009211711585521698,0.0004287930205464363,-0.0004935390315949917
1772611443616518100,9.49451806640625,0.0008022831752896309,-0.002842302666977048,0.0018955497071146965
1772611443626515500,9.504515380859376,-0.00164063461124897,-0.0003919280134141445,0.000104573555290699
1772611443636512300,9.51451220703125,0.001520373858511448,0.001953942235559225,0.0006918385624885559
1772611443646509000,9.524509033203126,0.0007957275956869125,0.00002741161733865738,-0.0001390678808093071
1772611443656507100,9.534507080078125,-0.0017254697158932686,0.0006361892446875572,-0.0006024008616805077
1772611443666504200,9.544504150390624,-0.000028504058718681335,0.0017669671215116978,0.0031068497337400913
1772611443676501000,9.5545009765625,0.0010575735941529274,0.0002158312126994133,0.0015139630995690823
1772611443686498000,9.564498046875,0.0016181687824428082,-0.00010108482092618942,-0.0008882083930075169
1772611443696495000,9.5744951171875,-0.0014284737408161163,-0.0022440729662775993,-0.0016258480027318
1772611443706493200,9.5844931640625,-0.0002540191635489464,0.000054235104471445084,0.0011267950758337975
1772611443716490000,9.594489990234376,-0.001079482026398182,0.001085079275071621,-0.0005820877850055695
1772611443726487000,9.604487060546875,0.0007349299266934395,0.00018280046060681343,0.0023175617679953575
1772611443736484000,9.614484130859376,-0.00033498741686344147,0.003736342303454876,0.0017864848487079144
1772611443746482200,9.624482177734375,-0.0002255309373140335,0.0006524012424051762,-0.000028458889573812485
1772611443756479000,9.63447900390625,0.001051073893904686,-0.0009096721187233925,0.0017752614803612232
1772611443766476000,9.64447607421875,0.00042336713522672653,-0.0005709179677069187,-0.0006508785299956799
1772611443776473000,9.65447314453125,-0.0005126083269715309,-0.0007334575057029724,-0.002425440587103367
1772611443786471200,9.66447119140625,0.0010099206119775772,-0.0005726027302443981,-0.0005793371237814426
1772611443796468000,9.674468017578125,0.0009045349434018135,-0.00006726989522576332,-0.0022983429953455925
1772611443806465000,9.684465087890626,0.002842783462256193,0.0006909319199621677,0.0002401820383965969
1772611443816462000,9.694462158203125,-0.0014600064605474472,0.0007475167512893677,0.0015924060717225075
1772611443826459100,9.704459228515624,-0.0007619922980666161,-0.0013308138586580753,0.000115150585770607
1772611443836457000,9.71445703125,-0.0007217936217784882,-0.0012673730961978436,-0.0006141611374914646
1772611443846454000,9.7244541015625,-0.0004277806729078293,-0.0006902660243213177,0.0017003919929265976
1772611443856451000,9.734451171875,-0.0014030076563358307,-0.0003310726024210453,-0.000718788243830204
1772611443866449200,9.74444921875,-0.00027329474687576294,-0.00072069326415658,0.0012841755524277687
1772611443876446000,9.754446044921876,-0.0022591790184378624,0.0008905455470085144,0.00043057557195425034
1772611443886443300,9.764443359375,0.0012732381001114845,-0.0031942110508680344,0.00023696385324001312
1772611443896441300,9.77444140625,-0.0012402161955833435,-0.0014636898413300514,-0.00012692157179117203
1772611443906438100,9.784438232421875,0.00034063588827848434,-0.0001845736987888813,0.0006320793181657791
1772611443916435000,9.79443505859375,0.0020696790888905525,-0.00026736268773674965,0.0009229746647179127
1772611443926432300,9.804432373046875,-0.0008965497836470604,0.00044929375872015953,-0.0002232501283288002
1772611443936430300,9.814430419921875,-0.001591869629919529,-0.000907285138964653,0.0009834668599069118
1772611443946427100,9.82442724609375,0.0005117608234286308,-0.0014990391209721565,-0.0005893958732485771
1772611443956424000,9.834423828125,0.0009235572069883347,-0.0003218362107872963,0.0004268484190106392
1772611443966421200,9.844421142578126,-0.0006543658673763275,-0.000115174800157547,-0.0025564245879650116
1772611443976419300,9.85441943359375,0.0012939823791384697,0.00025878846645355225,0.0024173385463654995
1772611443986416000,9.864416015625,0.0005291225388646126,0.0004984731785953045,-0.0003960253670811653
1772611443996413200,9.8744130859375,0.0010702107101678848,-0.0010554194450378418,-0.0017429771833121777
1772611444006410200,9.88441015625,-0.0008264929056167603,0.0003619152121245861,0.001364932395517826
1772611444016407000,9.894406982421875,0.000809728167951107,0.00032314611598849297,0.0012920331209897995
1772611444026405000,9.904405029296875,0.003217491786926985,0.0012150388211011887,0.0015378426760435104
1772611444036402200,9.914402099609376,-0.0024924762547016144,0.002163967117667198,-0.0012639528140425682
1772611444046399200,9.924399169921875,-0.0008580945432186127,0.0011005671694874763,0.0014684507623314857
1772611444056396000,9.93439599609375,0.0000773165374994278,0.0030790409073233604,-0.001319708302617073
1772611444066394000,9.94439404296875,-0.0004172325134277344,0.0014835409820079803,0.0005410420708358288
1772611444076391200,9.95439111328125,0.0011976175010204315,-0.0014100703410804272,-0.0024196752347052097
1772611444086388200,9.96438818359375,-0.0004692552611231804,-0.002693713875487447,-0.0016103405505418777
1772611444096385000,9.974385009765625,-0.0006671734154224396,-0.0006298921070992947,0.0014092163182795048
1772611444106382000,9.984382080078126,0.0025065154768526554,-0.0012187170796096325,-0.0014400999061763287
1772611444116380200,9.994380126953125,-0.0003023659810423851,-0.0003861216828227043,-0.0008029756136238575
1772611444126377200,10.004377197265624,-0.0020600520074367523,0.0015436047688126564,0.00007213931530714035
1772611444136374000,10.0143740234375,0.0009095752611756325,0.003528287634253502,-0.00011456198990345001
1772611444146371000,10.02437109375,-0.0017325468361377716,0.00024114781990647316,0.0005421736277639866
1772611444156369200,10.034369140625,0.0003889426589012146,-0.0012530088424682617,0.0010978500358760357
1772611444166366200,10.0443662109375,-0.0018675532191991806,0.0010655391961336136,-0.0006055082194507122
1772611444176363300,10.05436328125,-0.0008405670523643494,0.002628818154335022,-0.001696801744401455
1772611444186360000,10.064360107421875,-0.0004914263263344765,-0.00020931242033839226,-0.0007420582696795464
1772611444196358100,10.074358154296876,-0.00013351161032915115,0.00225857924669981,-0.0006987163797020912
1772611444206355200,10.084355224609375,0.0009064525365829468,-0.002310872543603182,0.0011814753524959087
1772611444216352300,10.094352294921874,-0.0008134311065077782,-0.0013760696165263653,-0.0012450139038264751
1772611444226349000,10.10434912109375,-0.00031728390604257584,0.003167283721268177,0.0006476943381130695
1772611444236347100,10.11434716796875,0.0006288830190896988,-0.0003441586159169674,0.0003524217754602432
1772611444246344200,10.12434423828125,0.0006837444379925728,-0.0023428609129041433,-0.002549625001847744
1772611444256341200,10.13434130859375,0.0011212639510631561,-0.0004888470284640789,-0.0027695437893271446
1772611444266338000,10.144338134765626,0.0006863698363304138,-0.00045182928442955017,0.0010411734692752361
1772611444276335000,10.154335205078125,0.00002477504312992096,0.0041662780568003654,0.0005372078157961369
1772611444286333200,10.164333251953124,-0.0008756397292017937,0.001925760880112648,-0.0011959774419665337
1772611444296330200,10.174330322265625,0.0016801669262349606,0.000886653084307909,-0.0011049280874431133
1772611444306327000,10.1843271484375,0.0005160989239811897,0.0015939888544380665,-0.0024650045670568943
1772611444316324400,10.194324462890625,6.686896085739136e-7,0.00018441909924149513,-0.001341317780315876
1772611444326322200,10.204322265625,0.001196959987282753,0.0006312974728643894,-0.0014148210175335407
1772611444336319200,10.2143193359375,-0.00047297030687332153,0.00004237331449985504,0.0002711578272283077
1772611444346316000,10.22431591796875,-0.0007153172045946121,0.0002607526257634163,-0.0009821257553994656
1772611444356313300,10.234313232421876,0.0004347860813140869,0.00020347349345684052,-0.0003424971364438534
1772611444366311200,10.244311279296875,0.00041587837040424347,0.0014959056861698627,-0.0017086989246308804
1772611444376308200,10.25430810546875,-0.0010441532358527184,-0.0004429081454873085,0.0006716689094901085
1772611444386305000,10.264304931640625,0.00046905409544706345,0.0006636353209614754,0.0006892457604408264
1772611444396302300,10.27430224609375,0.0014335401356220245,-0.002347322879359126,-0.002988348016515374
1772611444406300200,10.284300048828126,0.0010122284293174744,-0.0008210651576519012,0.0004625762812793255
1772611444416297200,10.294297119140625,0.0010657189413905144,0.0003479430451989174,0.002056970726698637
1772611444426294000,10.3042939453125,0.0008542630821466446,-0.0017381110228598118,-0.002486914861947298
1772611444436291300,10.314291259765625,-0.00009045284241437912,-0.000051773618906736374,-0.002616774756461382
1772611444446288100,10.3242880859375,0.0006946474313735962,-0.0000794706866145134,-0.0014082323759794235
1772611444456286200,10.3342861328125,0.0022175656631588936,0.0001631597988307476,0.000360710546374321
1772611444466283000,10.344282958984374,-0.0004991255700588226,0.0009661028161644936,-0.0003234557807445526
1772611444476280300,10.3542802734375,-0.00010551046580076218,-0.00008428515866398811,0.000025369692593812943
1772611444486277000,10.364277099609374,-0.00014971941709518433,-0.0014054793864488602,-0.0008785072714090347
1772611444496275200,10.374275146484376,0.0017939237877726555,-0.00028250552713871,-0.002526614349335432
1772611444506272000,10.38427197265625,0.0003004232421517372,-0.0023022470995783806,-0.0034059903118759394
1772611444516269300,10.394269287109376,-0.0003692498430609703,-0.0008152695372700691,0.0009310683235526085
1772611444526266000,10.40426611328125,0.0005181161686778069,0.00047556450590491295,0.00013558240607380867
1772611444536264200,10.41426416015625,-0.0011886907741427422,-0.0007561519742012024,-0.0002065226435661316
1772611444546261000,10.424260986328125,0.0006592767313122749,0.0013046017847955227,0.00045474013313651085
1772611444556258300,10.43425830078125,0.0010161446407437325,-0.0008364799432456493,-0.000004445202648639679
1772611444566255000,10.444255126953125,-0.0018723197281360626,-0.0007845484651625156,-0.0010827593505382538
1772611444576253200,10.454253173828125,0.0005694432184100151,0.0035589211620390415,0.0013578906655311584
1772611444586250000,10.46425,0.0009273719042539597,0.0003982814960181713,-0.0006400127895176411
1772611444596247300,10.474247314453125,0.0012495536357164383,-0.0017598937265574932,0.0015377276577055454
1772611444606244000,10.484244140625,0.00004101172089576721,0.00009925896301865578,-0.0005999915301799774
1772611444616241200,10.4942412109375,0.0009839553385972977,0.00019943946972489357,-0.0025100158527493477
1772611444626239000,10.504239013671874,-0.0019234176725149155,-0.000426669605076313,0.0001281118020415306
1772611444636236300,10.514236328125,-0.0015284745022654533,0.0008085709996521473,0.0017513572238385677
1772611444646233000,10.524233154296875,0.0002752840518951416,-0.0005738758482038975,0.0029002451337873936
1772611444656230100,10.534230224609376,0.00004711747169494629,0.0021309792064130306,-0.0012645297683775425
1772611444666228200,10.544228271484375,0.001114511862397194,-0.0007875789888203144,-0.003396922955289483
1772611444676225500,10.5542255859375,0.0014323671348392963,-0.0010744985193014145,-0.0014438293874263763
1772611444686222300,10.564222412109375,-0.001147969625890255,-0.0004302798770368099,0.00026085972785949707
1772611444696219400,10.574219482421874,0.0011831102892756462,-0.0006580501794815063,-0.0005853399634361267
1772611444706217200,10.58421728515625,0.00041398871690034866,0.0017252126708626747,-0.0008077137172222137
1772611444716214500,10.594214599609375,0.00020880624651908875,0.000016222242265939713,-0.002519461326301098
1772611444726211300,10.60421142578125,-0.0004655066877603531,-0.0020770221017301083,-0.0011830870062112808
1772611444736208400,10.61420849609375,-0.00013890117406845093,-0.00006398791447281837,0.000048626214265823364
1772611444746206200,10.624206298828126,0.00004245992749929428,-0.0005287094973027706,0.0011250763200223446
1772611444756203500,10.63420361328125,0.00039987359195947647,-0.00013242755085229874,0.001054316759109497
1772611444766200300,10.644200439453124,-0.0014211954548954964,0.0007940861396491528,-0.0023872866295278072
1772611444776197400,10.654197265625,0.000314994715154171,-0.0013362248428165913,0.0005062445998191833
1772611444786194400,10.6641943359375,0.0009208638221025467,0.00040521612390875816,0.001111847348511219
1772611444796192500,10.674192626953126,-0.00014702044427394867,0.001767901238054037,0.002480290364474058
1772611444806189300,10.684189208984375,-0.0008373111486434937,-0.0011980612762272358,0.0012637586332857609
1772611444816186400,10.694186279296876,0.00003386847674846649,0.00029591983184218407,0.0020250817760825157
1772611444826183400,10.704183349609375,-0.00003910250961780548,-0.00048625050112605095,-0.0015358305536210537
1772611444836181500,10.714181396484374,-0.00010932236909866333,-0.0016182051040232182,-0.0005696788430213928
1772611444846178300,10.72417822265625,-0.0016092145815491676,0.0004398860037326813,0.0008998531848192215
1772611444856175400,10.73417529296875,-0.0005709268152713776,0.00006123213097453117,-0.0015563862398266792
1772611444866172400,10.74417236328125,-0.0005224570631980896,-0.00035049254074692726,0.00010009994730353355
1772611444876170500,10.75417041015625,-0.00103718601167202,0.0025232727639377117,0.0035506831482052803
1772611444886167300,10.764167236328126,-0.003704342059791088,-0.001253355760127306,0.0002028234302997589
1772611444896164400,10.774164306640625,0.001857300754636526,0.0014344141818583012,-0.0004009525291621685
1772611444906161400,10.784161376953126,0.0007901722565293312,-0.00021940888836979866,-0.00038231024518609047
1772611444916159500,10.794159423828125,0.00015000905841588974,0.001180829480290413,0.0007854118011891842
1772611444926156300,10.80415625,0.0009596096351742744,0.0017709857784211636,0.0004953937605023384
1772611444936153300,10.8141533203125,-0.00022133905440568924,0.00019369786605238914,0.0007112268358469009
1772611444946150400,10.824150390625,-0.0003249356523156166,0.001305833924561739,0.0004398506134748459
1772611444956148500,10.8341484375,-0.0044985804706811905,0.001191325020045042,0.0011900686658918858
1772611444966145300,10.844145263671875,0.00018432177603244781,0.0007859920151531696,-0.0019119810312986374
1772611444976142300,10.854142333984376,-0.00027177389711141586,-0.00022899359464645386,-0.0016092928126454353
1772611444986139400,10.864139404296875,0.0008321059867739677,-0.0005850582383573055,0.00027302931994199753
1772611444996136400,10.874136474609376,-0.001399477943778038,-0.002252602484077215,0.0027501527220010757
1772611445006134300,10.88413427734375,0.0002972213551402092,-0.0008861343376338482,0.0010036518797278404
1772611445016131300,10.89413134765625,0.0010863840579986572,-0.0011524730361998081,0.0012242784723639488
