time,seconds_elapsed,z,y,x
1772480036306914000,0.0689140625,-1.632100266817212,-0.5492863256543874,0.7582100849889218
1772480036316911900,0.078911865234375,-1.3590139780431985,-0.37730069648623465,1.1960976443849503
1772480036326910000,0.088909912109375,-0.9304507118314504,-0.33044133015573024,1.5593049335889517
1772480036336908000,0.098907958984375,-0.49954585092961784,-0.22049977696835993,1.6092903229855
1772480036346905900,0.10890576171875,-0.2744198754653334,-0.16803835284709928,1.3770989391796291
1772480036356904000,0.118904052734375,-0.12047054598629474,-0.21201777982711792,1.1616798264764248
1772480036366902000,0.128902099609375,0.06727846950292588,-0.2265051548629999,0.9982092199362814
1772480036376899800,0.13889990234375,0.292368643001467,-0.3105184860676527,0.7873004242643713
1772480036386897200,0.148897216796875,0.48338089807033535,-0.3836725696057081,0.6036800330124795
1772480036396895000,0.15889501953125,0.5406488456904888,-0.45837563615143295,0.4035325775906443
1772480036406893000,0.16889306640625,0.5293973838359117,-0.5518623136222363,0.34843481361642475
1772480036416891100,0.17889111328125,0.4714117894656956,-0.7430003870278596,0.3334843511134386
1772480036426889000,0.188888916015625,0.4290234310694039,-1.0087602784365415,0.19470964828208087
1772480036436887000,0.198886962890625,0.42210371480882164,-1.1498480805158615,-0.0002621580675244331
1772480036446885000,0.208885009765625,0.3153656338378787,-1.1930828266084192,-0.12973799441680312
1772480036456882000,0.2188818359375,0.2520364864826202,-1.2932728011101484,-0.15242577317357062
1772480036466880000,0.2288798828125,0.2622032218404114,-1.2579548194915056,-0.22786036886423824
1772480036476877800,0.2388779296875,0.23193667839244006,-1.1773738008230923,-0.41322292760834095
1772480036486876000,0.2488759765625,0.15577216099202632,-1.1737807447671889,-0.6103703244313597
1772480036496874000,0.2588740234375,0.03945347398817539,-0.935731282582879,-0.6656124653123319
1772480036506872000,0.2688720703125,-0.09381722459942102,-0.6481874293893576,-0.7707000025972723
1772480036516870100,0.2788701171875,-0.18957023956701158,-0.42188627266585826,-1.0115709519430995
1772480036526868200,0.2888681640625,-0.23945289924144744,-0.2970902646958828,-1.274469754832238
1772480036536866000,0.298865966796875,-0.21338190778717397,-0.22099662057459354,-1.479465673198551
1772480036546863000,0.308863037109375,-0.22775573944598435,-0.3455307627379894,-1.6007454897411166
1772480036556861000,0.31886083984375,-0.26360578211471436,-0.1104986025482416,-1.3790458354637025
1772480036566859000,0.32885888671875,0.08798808005452155,0.2598012752652168,-1.698324112700671
1772480036576857000,0.338857177734375,0.15012304918915031,-0.09306757527589797,-1.7466959294207394
1772480036586855000,0.34885498046875,0.08241115670502186,-0.08904372658729552,-1.7506179251700638
1772480036596853000,0.35885302734375,-0.23679098655581474,0.04557984791398048,-1.779503681784123
1772480036606851000,0.36885107421875,-0.6941267582654953,0.10743044714927673,-1.6220342153549194
1772480036616849000,0.378848876953125,-1.2013916591398417,0.038729835888743396,-1.6244085432708262
1772480036626846000,0.388845947265625,-1.5881585414990782,-0.01545709685087204,-1.592344010490179
1772480036636844000,0.398843994140625,-1.8269487390480934,-0.08352233281731605,-1.3806766515359281
1772480036646842000,0.408842041015625,-1.9065432308971881,-0.2415250293403864,-1.0953623109601438
1772480036656840200,0.418840087890625,-1.8273448987588286,-0.3443716558307409,-0.7779134411074221
1772480036666838000,0.428838134765625,-1.575682214024663,-0.37839492146372794,-0.544094894491136
1772480036676836000,0.438836181640625,-1.2717320004314183,-0.3940069166153669,-0.3332971579782665
1772480036686834200,0.448834228515625,-0.8950232784889638,-0.4546984089434147,-0.15475217029452323
1772480036696831000,0.4588310546875,-0.4910673609197139,-0.48400984362363814,-0.009934826298058032
1772480036706829000,0.4688291015625,-0.14340426232814787,-0.49184185242354866,0.06688347883597016
1772480036716827000,0.478826904296875,0.1041223455145955,-0.4728612576216459,0.10020853307172656
1772480036726825000,0.488824951171875,0.1732892591126263,-0.3355827846974134,0.08838657785281538
1772480036736823000,0.498822998046875,-0.0265768951497972,-0.037594109857082364,0.2339433420397341
1772480036746820900,0.50882080078125,-0.5109492884755135,0.28008535388112066,0.41729456096142525
1772480036756819000,0.51881884765625,-1.1845330249279737,0.45735622997581954,0.38937896455377335
1772480036766817000,0.528817138671875,-1.8291349970459938,0.5528524937033653,0.33490985387191174
1772480036776814000,0.53881396484375,-2.3425492143303153,0.5389578238636255,0.5666898803979158
1772480036786812200,0.548812255859375,-2.5963538795292376,0.32208851235210895,0.9722615626007318
1772480036796810000,0.55881005859375,-2.790149481706321,0.009109189128875731,1.2638045684330164
1772480036806808000,0.56880810546875,-2.874524339699745,-0.250406839454174,1.6689815522298215
1772480036816806100,0.57880615234375,-2.8797213238209483,-0.45770928119719023,1.556326940691471
1772480036826804000,0.588803955078125,-3.0984979302585125,-0.4737848022073507,1.3520429699867964
1772480036836802000,0.598802001953125,-3.434731287819147,-0.5588783298641443,1.5715962598852813
1772480036846800100,0.608800048828125,-3.6466076133489604,-0.4131517620682716,1.7329853839762508
1772480036856797000,0.618796875,-3.821063432022929,-0.4569306980401277,1.5761422327518462
1772480036866795000,0.628794921875,-3.80290555178076,-0.46763446288406846,1.2900333807975053
1772480036876792800,0.638792724609375,-3.6889343046858905,-0.7301952659904957,1.000628848298639
1772480036886791000,0.648791015625,-3.5840412670597432,-0.5853454810291528,1.2049275781810282
1772480036896789000,0.6587890625,-3.2577602714538574,-0.5014841255158186,1.3373365453727541
1772480036906786800,0.668786865234375,-2.7612340606063603,-0.6184715055614709,1.5125721162475645
1772480036916785000,0.678784912109375,-2.208146296842396,-0.8701374051660299,1.6247022655203938
1772480036926783000,0.688782958984375,-1.6693626605018972,-0.9881500366061925,1.6730280511416493
1772480036936780000,0.698780029296875,-1.3320251410916446,-0.9909230084508657,1.612399394916743
1772480036946778000,0.708778076171875,-1.2152730311065911,-1.0574959600329399,1.5156621912173927
1772480036956776000,0.71877587890625,-1.2191080792248248,-1.069340127083659,1.556346668305248
1772480036966774000,0.72877392578125,-1.318607733374834,-0.9222592220693826,1.663107253368944
1772480036976772000,0.738772216796875,-1.4437614687412976,-0.8632844705313444,1.63658004257977
1772480036986770000,0.74877001953125,-1.3887547440513968,-0.9113105425536632,1.5711140293262897
1772480036996768000,0.75876806640625,-1.1259031413048506,-0.9147679895311593,1.6012410181730985
1772480037006766000,0.76876611328125,-0.9779869545102119,-0.8536065416038036,1.6117336244843898
1772480037016763000,0.778762939453125,-1.1202838401183486,-0.7890414227128029,1.4457906364813446
1772480037026761000,0.788760986328125,-1.4750617391511798,-0.6912362975209951,1.2849892491504549
1772480037036758800,0.7987587890625,-1.8821034939065575,-0.5052262346535921,1.0571586909025907
1772480037046756900,0.8087568359375,-2.1557047464653847,-0.2783364643871784,0.6484570401109755
1772480037056755000,0.8187548828125,-2.0599372645810243,-0.3196779440790415,0.10291823042184114
1772480037066753000,0.8287529296875,-1.7150348628744483,-0.25658757391571996,-0.3044995180390775
1772480037076751000,0.838751220703125,-1.5361074517443776,-0.17531681941747665,-0.6484812977693974
1772480037086749200,0.848749267578125,-1.7148089451640844,-0.21249007351398466,-0.9546727144181728
1772480037096746000,0.85874609375,-2.0843430993020533,-0.06794073280394076,-1.2131468327328563
1772480037106744000,0.868744140625,-2.5601225824579594,0.029019758257269858,-1.2877495076440273
1772480037116742000,0.878741943359375,-2.9373586892753836,0.1358528240352869,-1.4099854558676481
1772480037126739700,0.88873974609375,-3.066431936173141,0.08639116625189781,-1.5409513846442102
1772480037136737800,0.89873779296875,-2.9626038974300024,0.10539864906072616,-1.267904697228223
1772480037146735900,0.90873583984375,-2.7969354885846376,0.10916589263975619,-0.9589765490919351
1772480037156733700,0.918733642578125,-2.559520817172527,0.028254034581780434,-0.7196507833614945
1772480037166731800,0.928731689453125,-2.1740850372865794,-0.06995850236713885,-0.3178708946570754
1772480037176728800,0.938728759765625,-1.7295757216632366,-0.2786240491569042,-0.15619856971055268
1772480037186727000,0.948726806640625,-1.3406325181782244,-0.4923199913293123,-0.13162833820804953
1772480037196725000,0.95872509765625,-0.9987427422910928,-0.7061456973612308,-0.035637861222773785
1772480037206722800,0.968722900390625,-0.6911772608101368,-0.9043938950330018,0.05008300455212593
1772480037216721000,0.978720947265625,-0.3393786698490381,-1.1173989323318003,0.18874562531113623
1772480037226719000,0.988718994140625,-0.1084381628870964,-1.1076017609387636,0.4073573965758085
1772480037236716800,0.998716796875,-0.1353127258092165,-1.0789999358326197,0.37839360628947616
1772480037246715000,1.00871484375,-0.3276511149153113,-1.1066530819118021,0.1819634178251028
1772480037256711700,1.018711669921875,-0.6275824482560157,-1.111592291879654,-0.06397782052233815
1772480037266709800,1.028709716796875,-1.0340303287714718,-1.1228759024381636,-0.2047908973135054
1772480037276707800,1.038707763671875,-1.5033686729639768,-1.1073813961863517,-0.23426965138465164
1772480037286705700,1.04870556640625,-1.904184100550413,-1.1095523104846476,-0.26121976376101375
1772480037296703700,1.058703857421875,-2.1917320453971625,-1.238369244533777,-0.3607634031832218
1772480037306701800,1.068701904296875,-2.375051554006338,-1.3727145866155623,-0.4303481038019061
1772480037316699600,1.07869970703125,-2.4874884311407803,-1.4339222117722035,-0.4719404895149171
1772480037326697700,1.08869775390625,-2.5090344925165176,-1.4607219558924436,-0.44792043924108144
1772480037336694800,1.09869482421875,-2.4622327015921472,-1.4995295331925154,-0.4497888634614646
1772480037346692900,1.10869287109375,-2.3606711464762684,-1.462602947333455,-0.3981329105041921
1772480037356691000,1.11869091796875,-2.2190987757503984,-1.3396663034945726,-0.3162757344201207
1772480037366688800,1.128688720703125,-2.0475477386072276,-1.1854285124629735,-0.3672913436472416
1772480037376686800,1.138686767578125,-1.868814388744533,-1.0452245074808597,-0.5740190542422234
1772480037386685000,1.148684814453125,-1.623920467492938,-1.0178601152151823,-0.8718417248658835
1772480037396682800,1.158682861328125,-1.361993286114931,-0.9779717569410801,-1.0090122073709964
1772480037406679800,1.1686796875,-1.2606667087987065,-0.8701777371764182,-1.0520720352880657
1772480037416677600,1.178677734375,-1.2929729413807391,-0.7995587250739336,-1.0157058597907422
1772480037426675700,1.18867578125,-1.2860586319476366,-0.7102917111247777,-0.8690363120563328
1772480037436673800,1.198673828125,-1.2919126186728476,-0.4904132809251547,-0.7413178407683968
1772480037446671600,1.208671630859375,-1.41281687990129,-0.28185002546608445,-0.7148129879415035
1772480037456669700,1.218669677734375,-1.653918715393543,0.06042670391201973,-0.6369647552378476
1772480037466667800,1.228667724609375,-2.003564219973981,0.6708972738474607,-0.5060509950399399
1772480037476665900,1.238665771484375,-2.235263436348736,1.3568728743612766,-0.49569984302595255
1772480037486663000,1.248662841796875,-2.140359585556388,1.7837591472715137,-0.4962652218237519
1772480037496660700,1.25866064453125,-1.5232088072046637,1.8150959502995012,-0.2836775331541896
1772480037506658800,1.268658935546875,-0.5394231032878161,1.533907603612542,-0.0011930091768503188
1772480037516657000,1.278656982421875,0.45882601026743647,1.0718278522461653,0.19852964496165512
1772480037526654700,1.28865478515625,1.1462059246212244,0.6656769088506698,0.5287808593727648
1772480037536652800,1.29865283203125,1.2883823987200855,0.5701216084122658,0.903806158272922
1772480037546651000,1.30865087890625,0.7870879505574703,0.6921843920260667,1.091819377656281
1772480037556648700,1.318648681640625,0.09186579827070236,0.8913508735865354,1.402802412495762
1772480037566645800,1.328645751953125,-0.3849517957612872,1.0244354019522666,1.6076764580480754
1772480037576643600,1.3386435546875,-0.5653749984070658,1.0279483785092831,1.6596915997065602
1772480037586641700,1.3486416015625,-0.3924620252609253,0.9877046309262514,1.6925383689060807
1772480037596639700,1.3586396484375,-0.03638619537204504,0.8899749090582132,1.6315047851420938
1772480037606637800,1.368637939453125,0.21138065096735953,0.7892652945965528,1.5709849961191416
1772480037616636000,1.378635986328125,0.3603065993264317,0.6297381649851799,1.4128569196507335
1772480037626634000,1.388634033203125,0.4786497778952121,0.34932840145528316,1.241030134306103
1772480037636631800,1.3986318359375,0.5485065734535456,0.06910568493008613,1.034054586429894
1772480037646628900,1.40862890625,0.5090817410379648,-0.0988262849330902,0.8711492125570773
1772480037656626700,1.418626708984375,0.34871143860071896,-0.10738251635432243,0.7829631257124244
1772480037666624800,1.428624755859375,0.11041764626652002,-0.03440437390506267,0.7165664074800908
1772480037676622800,1.438622802734375,-0.133825409860909,0.06557049654126167,0.6148262809269129
1772480037686620700,1.44862060546875,-0.41085283747613427,0.10811609132587909,0.4824008009918034
1772480037696618800,1.45861865234375,-0.6457163631007075,0.018787702578306198,0.38060558325052257
1772480037706616800,1.468616943359375,-0.72547788207978,-0.15568389818668366,0.39858708401247855
1772480037716614700,1.47861474609375,-0.7669409423246979,-0.25943711812794207,0.4614962523899972
1772480037726612000,1.488612060546875,-0.7728828995943069,-0.3345563642591238,0.5931194760315119
1772480037736609800,1.49860986328125,-0.6543667025461792,-0.30905718134343624,0.887864200514555
1772480037746607900,1.50860791015625,-0.38545857623964547,-0.3046680064737797,1.1489005705326796
1772480037756606000,1.51860595703125,0.04023030357956886,-0.35849954990446564,1.1181922746665776
1772480037766603800,1.528603759765625,0.5392971388205886,-0.4013374056339264,0.9474974159613251
1772480037776601900,1.538601806640625,0.9876324424728751,-0.41725978190898894,0.6952728595606982
1772480037786600000,1.548599853515625,1.3944661074355245,-0.4808873276889324,0.4358348646499216
1772480037796597800,1.55859765625,1.677660533247888,-0.45921734767258165,0.2449607028774917
1772480037806594800,1.5685947265625,1.631986577309668,-0.46267479465007777,-0.03298120923414826
1772480037816592600,1.578592529296875,1.5440183709993958,-0.005679214680194855,-0.26615429755374787
1772480037826590700,1.5885908203125,1.4565855867400765,0.23756255545020102,-0.6987504725433885
1772480037836588800,1.5985888671875,1.452619605718553,-0.09283610460758208,-1.1200754580646752
1772480037846586600,1.608586669921875,1.6495654886201023,-0.08405892391204833,-1.3689466123841703
1772480037856584700,1.618584716796875,1.7324363717913627,-0.004462240105867385,-1.4328059210933743
1772480037866582800,1.628582763671875,1.6007079342097044,0.027709260180592537,-1.3324812142960727
1772480037876579800,1.638579833984375,1.4230007125243544,0.04611702353060245,-1.164868393384665
1772480037886578000,1.648577880859375,1.2653259327813982,-0.05194704485833645,-0.9885727920629084
1772480037896575700,1.65857568359375,1.1235156616464257,-0.1781944206804037,-0.9655379534341394
1772480037906573800,1.66857373046875,0.8446732935637236,-0.33897944139838215,-1.0130717118948698
1772480037916572000,1.678572021484375,0.5845549151733518,-0.4807447043478489,-1.013760424811393
1772480037926569700,1.68856982421875,0.44255730477273464,-0.5453834729969501,-0.9423637063346803
1772480037936567800,1.69856787109375,0.3374512089177966,-0.6534422811776399,-0.8354083293512463
1772480037946566000,1.70856591796875,0.2362345217168331,-0.7599222957342863,-0.7751289249554276
1772480037956562700,1.718562744140625,0.15013649319261313,-0.8408768238902091,-0.7188812602937221
1772480037966560800,1.728560791015625,0.1306762981802225,-0.954866191163659,-0.6353614116944373
1772480037976558600,1.73855859375,0.11120791986137628,-0.9753624512255191,-0.3891295198373496
1772480037986556700,1.748556640625,0.302975815603137,-1.034906527084112,-0.3821097042031586
1772480037996554800,1.7585546875,0.6111614748090505,-1.0972580615788698,-0.43750849695056676
1772480038006552600,1.768552490234375,0.7716644637152552,-1.0424608879864214,-0.6600434330083429
1772480038016550700,1.778550537109375,0.7831886050313711,-0.847758984619379,-0.8229720416262746
1772480038026548700,1.788548828125,0.7883014180004596,-0.540342556220293,-0.8897183039486408
1772480038036545800,1.7985458984375,0.8039721576020121,-0.20937281827628612,-0.8946236116468906
1772480038046544000,1.8085439453125,0.8453390639960765,0.052635611644387244,-0.9145042240284382
1772480038056541700,1.818541748046875,0.9111652888640761,0.23242811517119405,-0.8837151180110872
1772480038066539800,1.828539794921875,0.8888117104977369,0.2630126385271549,-0.7393785432688892
1772480038076537900,1.838537841796875,0.8768941859498619,0.2514607324212789,-0.6029068566828966
1772480038086535700,1.84853564453125,0.8999640958920121,0.17694120574891567,-0.5283695020928979
1772480038096533800,1.85853369140625,0.9465291554510593,0.018752046743035315,-0.5107926366090775
1772480038106530800,1.86853076171875,0.902821531149745,-0.17400456777513026,-0.5572108350433409
1772480038116528600,1.878528564453125,0.5664575329467654,-0.07879413525164126,-0.6370820980072021
1772480038126526700,1.888526611328125,-0.19196283379197118,0.233131295004487,-0.8226181136220693
1772480038136524800,1.89852490234375,-1.193985912927985,0.6769277861833572,-0.8758410236351192
1772480038146523000,1.90852294921875,-2.157936451040208,1.1985633038461208,-0.7675755869664251
1772480038156521000,1.91852099609375,-2.8482287457093594,1.647486636519432,-0.5663220699988305
1772480038166518800,1.928518798828125,-3.4145226125270125,1.9502578694611787,-0.24837168036475776
1772480038176516900,1.938516845703125,-3.71624813580811,2.203795408156514,0.03443170030340552
1772480038186513700,1.948513671875,-3.6407033577412364,2.3889111525326965,0.39239027519896624
1772480038196511700,1.95851171875,-3.3231299847260116,2.328090480867028,0.6863469180442392
1772480038206509800,1.968509765625,-2.6710183676302433,2.244994849029183,0.886606893929839
1772480038216507600,1.978507568359375,-1.7121566770896315,2.095062061715126,0.8607952840641141
1772480038226505700,1.988505615234375,-0.6040826224640011,1.861820292073488,0.8247221001639962
1772480038236503800,1.99850390625,0.38600539646744725,1.7624229292541742,0.6951892729304731
1772480038246501600,2.008501708984375,0.9583712766751646,1.352718677291274,0.41293388153389093
1772480038256498700,2.018498779296875,1.3131722643226384,0.8150392028003931,0.034766485215723515
1772480038266496800,2.028496826171875,1.2635522011071443,0.3292839768141508,-0.04470511090606451
1772480038276494800,2.038494873046875,0.8611088800579308,-0.14876140544712543,0.24583587827682493
1772480038286493000,2.048492919921875,0.3913549408018589,-0.628697131499648,0.6298913097202777
1772480038296490800,2.05849072265625,-0.01850479398369789,-0.9896937589168548,1.1184186307683586
1772480038306488800,2.06848876953125,-0.34786563542634247,-1.165029867556691,1.425328863210976
1772480038316487000,2.07848681640625,-0.715856359514594,-1.2404337758481503,1.4822820457935333
1772480038326484700,2.088484619140625,-1.1357049888730049,-1.2887754896908998,1.5635682901218533
1772480038336481800,2.098481689453125,-1.5208257114604116,-1.2681874596923588,1.5382266358554362
1772480038346479600,2.108479736328125,-1.934229694724083,-1.2376602194815873,1.4877633998140691
1772480038356477700,2.118477783203125,-2.3114093951791523,-1.1601479407340287,1.4880352024927734
1772480038366475800,2.128475830078125,-2.529801970735192,-1.0322709178835152,1.3981307674229144
1772480038376473600,2.1384736328125,-2.602305773670971,-0.9852063843697308,1.280257544453442
1772480038386471700,2.1484716796875,-2.518789870594442,-0.8482716103166341,1.2305799058318136
1772480038396469800,2.1584697265625,-2.375995556858182,-0.6184574770361184,1.201640227073431
1772480038406466800,2.168466796875,-2.154891384255886,-0.4154752365797758,1.1486109399363398
1772480038416465000,2.17846484375,-1.7540777102351188,-0.328684841877222,1.0526146177321671
1772480038426462700,2.188462646484375,-1.0944587862491606,-0.43374329919815063,0.9536272970184684
1772480038436460800,2.198460693359375,-0.4118251896396279,-0.5514969874411821,0.821691938687861
1772480038446459000,2.208458984375,0.12102350369393824,-0.7218009471327066,0.6389224651768803
1772480038456456700,2.218456787109375,0.4750286647886037,-0.8963912058413028,0.5027765034139156
1772480038466454800,2.228454833984375,0.6792682118296622,-0.9934235930949449,0.46405251274406906
1772480038476452900,2.238452880859375,0.7726882538050412,-1.0604659157544374,0.4027063558995723
1772480038486449700,2.24844970703125,0.8090498992577194,-1.1494845079004763,0.28819384153485295
1772480038496447700,2.25844775390625,0.7678548422992229,-1.2088380296230314,0.026196663660556077
1772480038506445600,2.268445556640625,0.7311427759736776,-1.3060861054539679,-0.2857178068101406
1772480038516443600,2.278443603515625,0.6920107890248298,-1.4326029458671807,-0.5076169291824102
1772480038526441700,2.288441650390625,0.6231821674704552,-1.460489900702238,-0.5782262966737151
1772480038536439600,2.298439453125,0.42221039005368943,-1.3921762429326772,-0.6994752796866
1772480038546437600,2.308437744140625,0.08633212954103946,-1.2947229999184608,-0.7533050695516169
1772480038556435700,2.318435791015625,-0.2412012042135,-1.1526046857476233,-0.6915671369105577
1772480038566432800,2.328432861328125,-0.5308326773360371,-0.9666109894931316,-0.6627797261044382
1772480038576430800,2.338430908203125,-0.8249024251669644,-0.8251730588018894,-0.673345543782413
1772480038586428700,2.3484287109375,-1.1248533399909735,-0.688826898291707,-0.6437842259943485
1772480038596426800,2.3584267578125,-1.3434753403887152,-0.5476192692250013,-0.6243409821167588
1772480038606424800,2.3684248046875,-1.4041972278550265,-0.4838543608009815,-0.5937903610303997
1772480038616422700,2.378422607421875,-1.278133684167266,-0.4839584056973457,-0.5617926098756492
1772480038626420700,2.388420654296875,-1.0142080224484205,-0.5383405687481164,-0.5364660070478916
1772480038636417800,2.398417724609375,-0.6231538181588053,-0.6267249546438455,-0.5913469134010374
1772480038646415600,2.40841552734375,-0.21841917130202054,-0.749514298966527,-0.6680681879013777
1772480038656413700,2.41841357421875,0.014310849425196647,-0.8164099066317081,-0.7987816032215952
1772480038666411500,2.42841162109375,0.09246054929345845,-0.8352771041870116,-0.9191976425416767
1772480038676409600,2.43840966796875,0.10734276886582374,-0.8500538175582886,-0.9823590321145951
1772480038686407700,2.44840771484375,0.09524667288064956,-0.7986533006668091,-0.9786604698576032
1772480038696405800,2.45840576171875,0.03220540255606174,-0.7254284899801016,-0.9336481926985084
1772480038706403800,2.46840380859375,-0.08516746967583894,-0.6087187578320503,-0.9179071643397212
1772480038716401000,2.47840087890625,-0.26430852355659007,-0.45661213361024855,-0.9811043558783828
1772480038726398700,2.488398681640625,-0.4053419651001692,-0.33141689718961714,-1.0077660067021845
1772480038736396800,2.498396728515625,-0.47122576537430283,-0.09138707484304905,-1.028763494284451
1772480038746394600,2.50839453125,-0.45184623438268895,0.05226502476632595,-1.0965734403155742
1772480038756392700,2.518392822265625,-0.28618747014850376,0.03212181592583656,-1.192644289060682
1772480038766390800,2.528390869140625,-0.056579965355992315,-0.028452187502384183,-1.2853612973332404
1772480038776388600,2.538388671875,0.08199614616334437,-0.164165310806036,-1.4537003866925835
1772480038786385700,2.5483857421875,0.2296753093317151,-0.27634850544035433,-1.4268682016074656
1772480038796383700,2.5583837890625,0.23928163432776928,-0.40756373280286784,-1.2047402389153838
1772480038806381800,2.5683818359375,-0.25007570780366656,-0.23661738355457781,-1.2613185968361795
1772480038816380000,2.5783798828125,-1.1589829886078833,0.3669838851332664,-1.367665632662922
1772480038826377700,2.588377685546875,-1.9696648729816078,0.980672248071432,-1.2106170219942927
1772480038836375800,2.598375732421875,-2.6516084415003656,1.3026134609073399,-1.1073642989210783
1772480038846374000,2.608373779296875,-3.1295380884274837,1.6260907972693441,-1.1268930291250348
1772480038856371700,2.618371826171875,-3.262911662867665,1.9630407786667345,-1.123558039483428
1772480038866368800,2.62836865234375,-3.3717315185487267,2.153193932688236,-1.1056588101774454
1772480038876366800,2.638366943359375,-3.278564866812527,2.3427432755976914,-1.0104854947939514
1772480038886364700,2.64836474609375,-2.852670235288143,2.39131003036797,-0.7855883596494794
1772480038896362800,2.65836279296875,-2.2326158444494006,2.3050901290297507,-0.40951749721914527
1772480038906360800,2.66836083984375,-1.496864990158379,2.015346135443449,-0.004651332937180995
1772480038916358700,2.678358642578125,-0.7635966003328561,1.6476596549987792,0.48063452197164297
1772480038926356700,2.688356689453125,-0.1693845067590475,1.2636802114009857,1.0661202882543206
1772480038936353800,2.698353759765625,0.29232991842627526,0.8455015610814094,1.7264198879808186
1772480038946351900,2.708351806640625,0.6849070944994687,0.5489660076588392,2.2333435742020606
1772480038956350000,2.718349853515625,0.9641647653847932,0.34685412029623985,2.620012403014302
1772480038966347800,2.72834765625,1.2107193133249878,0.14193886595070362,2.9926199732482432
1772480038976345900,2.738345947265625,1.381243930029869,-0.020624270355701444,3.0183485810056325
1772480038986344000,2.748343994140625,1.3151903261467814,-0.28412498466074465,2.802910179080069
1772480038996341800,2.758341796875,1.041672952479124,-0.5905062247931957,2.383264963339269
1772480039006339800,2.76833984375,0.7789975830823183,-0.7087129175007343,1.9885393770605324
1772480039016336600,2.778336669921875,0.6089838385090232,-0.7303039870619773,1.7379396453827618
1772480039026334700,2.788334716796875,0.5664046337157488,-0.7386796012192964,1.6097352902740238
1772480039036332800,2.798332763671875,0.5787301545426249,-0.6747849289357661,1.5853797244355081
1772480039046330600,2.80833056640625,0.5510246937543154,-0.4649573526293039,1.5331944869071243
1772480039056328700,2.81832861328125,0.42451165273338554,-0.1921452046215534,1.3344625973716377
1772480039066326800,2.828326904296875,0.31138445524722336,-0.0012508768439292908,1.2219064777716993
1772480039076324600,2.83832470703125,0.1834837592601776,0.12148702955245971,1.0572741339758038
1772480039086322000,2.848322021484375,-0.012699322575330733,0.2952595421373844,0.9000134879916906
1772480039096319700,2.85831982421875,-0.12432020715177058,0.4491898746550083,0.8918994473800063
1772480039106317800,2.86831787109375,-0.029825813943147657,0.42618952281773087,1.1614601923763752
1772480039116316000,2.87831591796875,0.3880161517679691,0.23693536346256733,1.188518295171857
1772480039126313700,2.888313720703125,0.8748030588895082,-0.06175766025483608,1.1106979733884335
1772480039136311800,2.898311767578125,1.3031795703575015,-0.22018530419170856,1.010542485678196
1772480039146309600,2.9083095703125,1.5963655210912227,-0.35826749471426006,0.818814045163989
1772480039156307700,2.9183076171875,1.6696543369248509,-0.5560147571265697,0.5496273941770196
1772480039166304500,2.928304443359375,1.603629082353413,-0.8033955267578363,0.36755379397571086
1772480039176302600,2.938302490234375,1.5399138582900165,-1.045490464940667,0.24484540593475101
1772480039186300700,2.94830078125,1.5934344360753894,-0.7590513581186532,-0.1563344710499048
1772480039196298500,2.958298583984375,1.4258517180413006,-1.164028581559658,-0.30173341432660816
1772480039206296600,2.968296630859375,1.3293416010960937,-1.386822022423148,-0.47026773399710653
1772480039216294700,2.978294677734375,1.1647513428762555,-1.424575706756115,-0.509778783391416
1772480039226292700,2.988292724609375,0.8431260641217231,-1.4141115958869457,-0.46452159156054257
1772480039236289800,2.998289794921875,0.5201505398020148,-1.4639800809055565,-0.43705227761566634
1772480039246287600,3.00828759765625,0.3069868048101663,-1.5046411771178245,-0.4346405402988195
1772480039256285700,3.01828564453125,0.11649170548319816,-1.373892398223281,-0.410512061214447
1772480039266283800,3.02828369140625,-0.14355536123663187,-1.1104998204678296,-0.4411667271971702
1772480039276281600,3.038281494140625,-0.28175328709334135,-0.9262357244849204,-0.5386056494250894
1772480039286279700,3.04827978515625,-0.1925502782911062,-0.503247628057003,-0.7470303731963038
1772480039296277800,3.05827783203125,0.04489157338887453,-0.07880056499242782,-1.0726531971544027
1772480039306274600,3.068274658203125,0.3446779453009367,-0.006335048240423202,-1.1637123552173376
1772480039316272600,3.078272705078125,0.8168515129193663,0.15111352153122423,-1.2781404061689972
1772480039326270500,3.0882705078125,1.3488546953395009,0.23671207610070705,-1.3950585203707218
1772480039336268500,3.0982685546875,1.7727537691324948,0.2608744574546814,-1.4123381564736366
1772480039346266600,3.1082666015625,2.062993145020306,0.1978138979077339,-1.3428610078826546
1772480039356264700,3.1182646484375,2.20608761074692,0.14700199455916882,-1.2699062463089823
1772480039366262800,3.1282626953125,2.172333517444134,0.32682372418045996,-1.3033517120540141
1772480039376260900,3.1382607421875,1.993667095337808,0.39438977845311163,-1.3346964061275124
1772480039386257700,3.148257568359375,1.6975079740121959,0.45081952168345446,-1.3032666641190647
1772480039396255700,3.158255859375,1.4001955909982322,0.5587994194090367,-1.2796037567198275
1772480039406253600,3.168253662109375,1.1723062883004545,0.679248338085413,-1.2043602996870875
1772480039416251600,3.178251708984375,0.9931476987630128,0.721844786274433,-1.1315522531077264
1772480039426249700,3.188249755859375,0.8413707448869943,0.6878150909006595,-1.0423828543141485
1772480039436247600,3.19824755859375,0.7773147445619106,0.57393678278625,-0.840170429186523
1772480039446245600,3.20824560546875,0.7759726823031902,0.41729017704725263,-0.7055757885187864
1772480039456242700,3.21824267578125,0.7130173366963863,0.20891981381177901,-0.6973691011875868
1772480039466240800,3.22824072265625,0.5091890008047223,0.29259879849553105,-0.6985048272192478
1772480039476238800,3.23823876953125,0.1380441965997219,0.6612006402194499,-0.5022492646694183
1772480039486236700,3.248236572265625,-0.5486015582606196,0.9512503387540578,-0.30276889485418795
1772480039496234800,3.25823486328125,-1.4305351996824145,1.26967740598917,-0.135528122125566
1772480039506232800,3.26823291015625,-2.2873463825464246,1.5834212838441133,0.0718888859078288
1772480039516230700,3.278230712890625,-2.9756629932284353,1.732601791486144,0.2911757799550891
1772480039526228700,3.288228759765625,-3.2989038904860615,1.7934031739294527,0.6292310922458767
1772480039536225500,3.2982255859375,-3.276196384115517,1.7769862921357154,0.9824258137404918
1772480039546223600,3.3082236328125,-3.081252780947089,1.7044880421578883,1.0311360686346889
1772480039556221700,3.3182216796875,-2.770520359867811,1.6251701752930878,0.9711217449158429
1772480039566219500,3.328219482421875,-2.322586622753739,1.5447779571950435,0.8117465909957885
1772480039576217600,3.338217529296875,-1.7951602467298506,1.4492612352013587,0.6598275983005761
1772480039586215700,3.348215576171875,-1.1831079605609178,1.4136305343717335,0.43053310497999187
1772480039596213500,3.358213623046875,-0.5934376020699739,1.3326163849830626,0.20314999823868274
1772480039606210800,3.3682109375,-0.10878419984579085,1.144984858393669,0.21673107208460568
1772480039616208600,3.378208740234375,0.2706374343171716,0.8126607832312583,0.49061786358654497
1772480039626206700,3.388206787109375,0.559244532828033,0.40114685149788853,0.8424532794266939
1772480039636204800,3.398204833984375,0.7216355274379253,-0.007575988212227821,1.1561521490961313
1772480039646202600,3.40820263671875,0.7871282825678586,-0.33516017537117004,1.4622078105360268
1772480039656200700,3.41820068359375,0.7331321962252259,-0.5776560955703258,1.7633847600236534
1772480039666198800,3.42819873046875,0.5535676562353968,-0.8420359307974576,2.009933462744951
1772480039676195600,3.438195556640625,0.27823768018782136,-1.1103010830253361,2.1138196614161133
1772480039686193700,3.448193603515625,-0.12591302930116652,-1.2536790418684483,2.206456444059312
1772480039696191500,3.45819140625,-0.6548951103344559,-1.213784838375449,2.33508077814579
1772480039706189600,3.468189453125,-1.2751368404388428,-1.040968019080162,2.4331731958463787
1772480039716187600,3.478187744140625,-1.849625411888957,-0.850192933768034,2.4500498041063548
1772480039726185500,3.488185546875,-2.288355267328024,-0.7859037092089652,2.29420896179229
1772480039736183600,3.49818359375,-2.512632809269428,-0.6788777512073516,2.1227172536209222
1772480039746181600,3.508181640625,-2.4317957700133324,-0.5459241557449102,1.952840287169814
1772480039756178700,3.5181787109375,-2.0716481606408954,-0.4566594798833132,1.7726009166583419
1772480039766176800,3.5281767578125,-1.509972309012711,-0.4792296236097812,1.607519660051167
1772480039776174800,3.5381748046875,-0.8746493296325206,-0.446060928979516,1.4681111893609164
1772480039786172700,3.548172607421875,-0.2974596825301647,-0.3297638692855835,1.2429819990262387
1772480039796170800,3.558170654296875,0.08277151445001363,-0.32605624693930146,0.9206628927886485
1772480039806168600,3.56816845703125,0.30528029315322636,-0.2911374937713146,0.6735445734858513
1772480039816166700,3.578166748046875,0.5144736632093787,-0.2875134580552578,0.3840744284048676
1772480039826163700,3.588163818359375,0.7082680963426828,-0.2869417956471443,0.12223843244165182
1772480039836161500,3.59816162109375,0.8953045796483755,-0.42992461769282814,0.006101239484548568
1772480039846159600,3.60815966796875,1.0295666273608803,-0.5561924517810345,-0.12553513589948415
1772480039856157700,3.61815771484375,1.051967552000284,-0.6144423961758613,-0.22538433413952588
1772480039866155500,3.628155517578125,1.0160866758018732,-0.6530693562120199,-0.2837432918667793
1772480039876153600,3.638153564453125,0.9057610917329788,-0.6978378877431154,-0.3711532797724008
1772480039886151700,3.648151611328125,0.6804588829189538,-0.9286357713639736,-0.323239143691957
1772480039896148700,3.658148681640625,0.390360669067502,-0.3752975399702787,-0.5402297434955835
1772480039906146800,3.668146728515625,-0.03806874163150787,-0.329046660926938,-0.680956603308022
1772480039916144600,3.67814453125,-0.505494822461903,-0.506641946670413,-0.7950693047001958
1772480039926142700,3.688142822265625,-0.8621417302370071,-0.32775252946317196,-0.9237664117619395
1772480039936140800,3.698140869140625,-1.0980001121178269,-0.1227946050196886,-0.9147931239724159
1772480039946138600,3.708138671875,-1.2816829010814428,-0.20711422569453716,-0.7786550532549619
1772480039956136700,3.71813671875,-1.2827335791781544,-0.21929566187560556,-0.7715835074335337
1772480039966134500,3.728134521484375,-1.1358560877814887,-0.25796003131270406,-0.7491077639922499
1772480039976131600,3.738131591796875,-0.9009431700572371,-0.30581776103079317,-0.7629846059143542
1772480039986129700,3.748129638671875,-0.6455477285355329,-0.4065618622839451,-0.8266118594333529
1772480039996127500,3.75812744140625,-0.3885992123529315,-0.5415151071310043,-0.8539493636921047
1772480040006125600,3.76812548828125,-0.08305646887123584,-0.7042138525158167,-0.8180734559297561
1772480040016123600,3.77812353515625,0.16813216861039398,-0.7857675156086683,-0.7237026891008019
1772480040026121700,3.788121826171875,0.28385902720093725,-0.8087053236037492,-0.6464826712980866
1772480040036119800,3.798119873046875,0.254910872875154,-0.7434446236640214,-0.5889186633408069
1772480040046116600,3.80811669921875,0.12847089709043502,-0.6219675309836864,-0.5313301054641604
1772480040056114700,3.81811474609375,0.03540332181453704,-0.48115503871440884,-0.444632357481122
1772480040066112800,3.82811279296875,0.05328969163894653,-0.40407589068710803,-0.3093371673285961
1772480040076110600,3.838110595703125,0.14789397496283052,-0.4587193350225687,-0.20649287892580032
1772480040086108700,3.848108642578125,0.26920214081704613,-0.523456887871027,-0.2066790491476655
1772480040096106800,3.858106689453125,0.38222821601629253,-0.5851490816742182,-0.24993980646431443
1772480040106104600,3.8681044921875,0.46543782962262625,-0.6391945601165294,-0.2405786884009838
1772480040116101600,3.8781015625,0.5244792166560888,-0.7128256135165691,-0.24897505308538673
1772480040126099700,3.888099609375,0.5549684629440307,-0.7821884880781174,-0.24766747761815786
1772480040136097800,3.898097900390625,0.5340449173808097,-0.8338765897393227,-0.27602847970575095
1772480040146095900,3.908095947265625,0.5039090145751833,-0.8712380598843097,-0.3129138567715883
1772480040156094000,3.918093994140625,0.4528136181101203,-0.9418535648554563,-0.37417993411719797
1772480040166092000,3.928092041015625,0.4291425274044275,-0.9846510885745287,-0.4196352788686752
1772480040176089900,3.93808984375,0.39524668754339215,-1.0124690698266028,-0.5520759563729166
1772480040186087000,3.9480869140625,0.23756898519098757,-0.9805378080368041,-0.7497571678116918
1772480040196085000,3.9580849609375,-0.21298224094510076,-0.7918307611703872,-0.9598658991470932
1772480040206082800,3.968082763671875,-0.9354992273926734,-0.32964462682008744,-1.252246963238716
1772480040216081000,3.978080810546875,-1.812425854307413,0.410541871830821,-1.575486399191618
1772480040226079000,3.988078857421875,-2.6673437707707284,1.1560475196778774,-1.746417550870776
1772480040236075000,3.998074951171875,-2.689198751965165,1.146639055341482,-1.7498875650689005
1772480040246071800,4.00807177734375,-3.380387410952151,1.536742534777522,-1.860392012836039
1772480040256070000,4.01806982421875,-3.8453608379334208,1.639181749510765,-1.9622718401208519
1772480040266068000,4.02806787109375,-4.017464832784235,1.7248709049731492,-1.8637158965617417
1772480040276065800,4.038065673828125,-3.771286132419109,1.8598393473893402,-1.3687041819304226
1772480040286063900,4.04806396484375,-3.3592923082143065,1.8633675215154886,-0.6940738590344786
1772480040296062000,4.05806201171875,-2.8939488788768646,1.7018857507050036,-0.15454174241423607
1772480040306059800,4.068059814453125,-2.382738601377606,1.2898165231764316,0.20668197175711392
1772480040316057000,4.07805712890625,-1.7747054877221584,0.9729080438107252,0.6102914139762521
1772480040326055000,4.088054931640625,-1.0576461821585894,0.6464274339795112,0.7220660278096794
1772480040336053000,4.098052978515625,-0.2693915259093046,0.2600239781051874,0.9221884949207305
1772480040346051000,4.108051025390625,0.25433015037775036,0.027354455393552777,1.3213722296521067
1772480040356049000,4.118048828125,0.66394204788208,-0.1131868187189102,1.785825139890611
1772480040366047000,4.128046875,1.0682982168152928,-0.16519933002889156,2.1331363563045858
1772480040376045000,4.138045166015625,1.3834104604139923,-0.3451975852608681,2.287329139150679
1772480040386041900,4.148041748046875,1.5333429554671048,-0.5828507416039705,2.350752394530177
1772480040396040000,4.1580400390625,1.4255308155238628,-0.7459481309175491,2.303043425633013
1772480040406037800,4.168037841796875,1.0988500069454312,-0.8123919031620025,2.033880447782576
1772480040416035800,4.178035888671875,0.624929887920618,-0.7824690585851669,1.7949363748461007
1772480040426034000,4.188033935546875,0.06305851372033357,-0.5244102430731058,1.586310867805779
1772480040436031700,4.19803173828125,-0.5475663699939847,-0.18407412636876105,1.2963590766876936
1772480040446029800,4.20802978515625,-1.0334700645402073,0.032384266254305835,0.9977899716109037
1772480040456028000,4.21802783203125,-1.4123027928993106,0.21922727281451224,0.7144424010634421
1772480040466025000,4.22802490234375,-1.7833873913496732,0.16492051308751104,0.5248813677161932
1772480040476023000,4.23802294921875,-1.7539482386365532,0.11317045210599899,0.5601289144471288
1772480040486020900,4.248020751953125,-1.4481459674358368,0.18806056565642357,0.6008312194526195
1772480040496019000,4.25801904296875,-1.1450775051131843,0.20086159504055975,0.6778007696256041
1772480040506017000,4.26801708984375,-0.9552388238683343,0.17129180168509484,0.7225885903790593
1772480040516014800,4.278014892578125,-0.8006178787380457,0.0431780474692583,0.735414754204452
1772480040526013000,4.288012939453125,-0.5652431887209415,-0.052097266983985896,0.6601064152419567
1772480040536009700,4.298009765625,-0.23446634300053118,-0.23891104744970798,0.4732935115590691
1772480040546007800,4.3080078125,0.13971680598706007,-0.36492753712534903,0.3089943452402949
1772480040556006000,4.318005859375,0.48120530759692187,-0.41900516427159307,0.1258501931980252
1772480040566003700,4.328003662109375,0.8238438560247421,-0.5309831917226314,0.0041249709755182265
1772480040576001800,4.338001708984375,1.0855088793352246,-0.6766086372315884,-0.06987725382447242
1772480040586000000,4.347999755859375,1.1964362286895514,-0.7983943574696779,-0.16371756703853607
1772480040595997700,4.357997802734375,1.2177578336596488,-0.9489251106768846,-0.29068361252397296
1772480040605995000,4.3679951171875,1.1781406935423613,-1.068456329986453,-0.29954554889351126
1772480040615992800,4.377992919921875,1.0270376934051513,-1.0676216327279806,-0.3540294187530875
1772480040625991000,4.387990966796875,0.6966571535259485,-0.9956190573126077,-0.42592561118453737
1772480040635990000,4.397989990234375,-0.13430413328856228,-1.010782724174857,-0.7496426015213131
1772480040645988000,4.407988037109375,-0.557176202121377,-0.9925906494021415,-0.9083923170194029
1772480040655985000,4.41798486328125,-0.9178507579773664,-0.968266355484724,-0.9847782220855354
1772480040665983000,4.42798291015625,-1.183544013890624,-0.9036772711962461,-1.070020802824199
1772480040675980800,4.437980712890625,-1.3916624481916426,-0.8305845624566077,-1.1418752019405365
1772480040685979000,4.447978759765625,-1.551940396170318,-0.726371323788166,-1.2121367789074777
1772480040695977000,4.45797705078125,-1.6292109751164912,-0.6372972020626068,-1.2699644062370061
1772480040705974800,4.467974853515625,-1.5529747076541185,-0.5112549934238195,-1.1771364849358796
1772480040715972900,4.477972900390625,-1.4344798456549643,-0.4461123669058084,-0.9910241307377815
1772480040725969700,4.4879697265625,-1.408586694985628,-0.3402420086801052,-0.8183262616470456
1772480040735968000,4.497968017578125,-1.5214821295425296,-0.2925228106498718,-0.6758835378274322
1772480040745966000,4.507966064453125,-1.683565081116557,-0.2022153477370739,-0.5650698779806494
1772480040755964000,4.5179638671875,-1.8720988172426818,-0.18429507564306258,-0.57989569119066
1772480040765962000,4.5279619140625,-1.9776491497337818,-0.24545710809230803,-0.5914496431231498
1772480040775960000,4.5379599609375,-1.937549194535613,-0.30693478236198424,-0.5351657381042838
1772480040785958000,4.5479580078125,-1.830010903097689,-0.3834533738970756,-0.3338970235675573
1772480040795955000,4.557954833984375,-1.6528095851078628,-0.5158522580862045,-0.1375203188560903
1772480040805952800,4.567952880859375,-1.4244146709755061,-0.7472042684584855,-0.04333849872797727
1772480040815950800,4.577950927734375,-1.150682485513389,-0.9164970052808523,0.11454831633046268
1772480040825949000,4.587948974609375,-0.8892942333176731,-0.9172089529424905,0.35516514478474853
1772480040835946800,4.59794677734375,-0.7246411389946937,-1.0038456183880566,0.39589360714480276
1772480040845944800,4.60794482421875,-0.6700672527641057,-1.1396113486617803,0.38984205202087757
1772480040855943000,4.61794287109375,-0.6953741279780864,-1.1985346622735262,0.4573686510659754
1772480040865940700,4.627940673828125,-0.848758517050743,-1.1898282087266445,0.5147169704459608
1772480040875938000,4.63793798828125,-1.0993807528212667,-1.0122685788184405,0.5185264457315206
1772480040885935900,4.647935791015625,-1.417687993068993,-0.8438988020598888,0.40791663789376614
1772480040895934000,4.657933837890625,-1.7271628153026104,-0.6281435892701148,0.2695927475698292
1772480040905932000,4.66793212890625,-1.9730638677701353,-0.3068459350347519,0.10206775107234715
1772480040915929900,4.677929931640625,-2.18222479686141,-0.12609481560885905,-0.061303194485604756
1772480040925928000,4.687927978515625,-2.3061551279127595,0.08191080596745014,-0.09308832580298185
1772480040935926000,4.697926025390625,-2.3482015410035846,0.25697686549425125,-0.005792319665849209
1772480040945922800,4.7079228515625,-2.271937508751452,0.2806716293364763,0.03375233973711729
1772480040955921000,4.7179208984375,-2.082005011743307,0.31454759545326233,0.17835004963353276
1772480040965918700,4.727918701171875,-1.910109398946166,0.18409926081001757,0.39307080480903384
1772480040975916800,4.737916748046875,-1.7261475007802247,-0.02390577624440193,0.7286443832866847
1772480040985915000,4.747914794921875,-1.6335171478778123,-0.2238087553858757,1.002876042703539
1772480040995912700,4.75791259765625,-1.6721145895585416,-0.38215865791141984,1.1486302291586994
1772480041005910800,4.767910888671875,-1.7743989059910177,-0.5039864637255669,1.2486097757801413
1772480041015907800,4.777907958984375,-1.899077717322111,-0.5707265885680913,1.3358758251704275
1772480041025906000,4.787906005859375,-1.9685627569586037,-0.611017097902298,1.3976426916450262
1772480041035904000,4.797904052734375,-1.8900930313557385,-0.7515063495665788,1.35707161180377
1772480041045901800,4.80790185546875,-1.6547347079515455,-0.8662164323300122,1.2814273188851772
1772480041055900000,4.81789990234375,-1.4351792260959744,-0.9884241773724556,1.2646920187920332
1772480041065898000,4.82789794921875,-1.2895374139741063,-1.0839438219755888,1.2232223826758564
1772480041075895800,4.837895751953125,-1.2689862088546155,-1.1602449713677168,1.1835421141944824
1772480041085892900,4.847892822265625,-1.4379951602995396,-1.1538684220731257,1.2115038878314197
1772480041095890700,4.857890625,-1.7259540240347384,-1.177184415730834,1.1268370611540972
1772480041105888800,4.867888671875,-2.1330098073154686,-1.2191279529690742,1.0781566168762742
1772480041115886800,4.877886962890625,-2.5294401516854763,-1.245368894162774,0.9410156527265906
1772480041125884700,4.887884765625,-2.812209045562148,-1.4132313059210777,0.8103932766906916
1772480041135882800,4.8978828125,-2.9466955496802925,-1.4370359598785638,0.7807778906278312
1772480041145879800,4.9078798828125,-3.0019045189440248,-1.3447282630592583,0.7164842821545898
1772480041155878000,4.9178779296875,-2.894416204127669,-1.1226783340394497,0.529823061902076
1772480041165875700,4.927875732421875,-2.7023335433483124,-0.7790916911065578,0.314191913883388
1772480041175873800,4.937873779296875,-2.3578645646229384,-0.45094811649918554,0.05940890517160296
1772480041185872000,4.947871826171875,-1.8995830364957451,-0.3377735727399587,-0.17834391215369105
1772480041195869700,4.95786962890625,-1.3807625762537121,-0.3513333115369081,-0.4109367163673043
1772480041205867800,4.96786767578125,-0.9481421436056494,-0.4022691335260868,-0.6599168840192258
1772480041215865900,4.977865966796875,-0.7889978758320212,-0.4621206678986549,-0.879055747897923
1772480041225862700,4.987862548828125,-0.7944821524620056,-0.523565024420619,-1.0699249412342906
1772480041235860700,4.99786083984375,-0.9741828860521315,-0.549615411478281,-1.1658460793104022
1772480041245858600,5.007858642578125,-1.2265291691362856,-0.588068183991313,-1.1220020422130823
1772480041255856600,5.017856689453125,-1.5140961109444497,-0.663022594949603,-0.9487500463709234
1772480041265854700,5.027854736328125,-1.776332212141156,-0.5902852755188942,-0.6998025388795882
1772480041275852800,5.037852783203125,-1.9865528794184326,-0.6420476114600896,-0.6036483957652002
1772480041285851000,5.047850830078125,-2.107180661793053,-0.7048112338870763,-0.6847658593978733
1772480041295847700,5.05784765625,-2.209187330327928,-0.7820686610907316,-0.7665900830604135
1772480041305845800,5.067845703125,-2.2739023790836335,-0.8579846105575561,-0.8515314888954162
1772480041315843800,5.07784375,-2.216921431711316,-0.9800298585146665,-0.8723181102059782
1772480041325841700,5.087841552734375,-1.9958850636482237,-1.0890268243283032,-0.7608277201414108
1772480041335839700,5.09783984375,-1.7237237807646393,-1.1330091739177703,-0.583677474751696
1772480041345837800,5.107837890625,-1.56343472687006,-0.9727250884592532,-0.38672691567502915
1772480041355835600,5.117835693359375,-1.5162091575756669,-0.7871364658743143,-0.31282522864006457
1772480041365832700,5.127832763671875,-1.376887488386035,-0.7356476861774921,-0.27765819979943335
1772480041375830500,5.13783056640625,-1.0577204164385794,-0.7691238393217324,-0.16967399122491478
1772480041385828600,5.14782861328125,-0.7601049588248133,-0.8448498191744088,-0.1039758497159928
1772480041395827000,5.157826904296875,-0.5383318009197712,-0.8829992248266935,-0.030890812826156615
1772480041405824800,5.16782470703125,-0.47808542201071974,-0.883885944533348,-0.07099142561145126
1772480041415822800,5.17782275390625,-0.5916565638720989,-0.8716863881736994,-0.15407441716343165
1772480041425821000,5.187821044921875,-0.8104840237140655,-0.8592506849706173,-0.3513134377926588
1772480041435817700,5.197817626953125,-1.0278647918790578,-0.7625193264901637,-0.5255096556823701
1772480041445815800,5.20781591796875,-1.162217440484464,-0.6074684655100107,-0.6199181972384452
1772480041455813600,5.217813720703125,-1.1923726325124502,-0.48799979004263877,-0.7203495792806148
1772480041465811700,5.227811767578125,-1.1476342038586735,-0.3235550777733326,-0.8569283795028925
1772480041475809800,5.237809814453125,-1.1659604264050722,-0.19587328523397446,-1.0243594871718436
1772480041485807600,5.2478076171875,-1.2723305508464573,-0.0712286684334278,-1.196434036732465
1772480041495805700,5.2578056640625,-1.4411998015597463,0.12304244230091571,-1.4032368583902717
1772480041505802800,5.267802734375,-1.7179305843159556,0.3489385253548622,-1.5471272968001664
1772480041515800800,5.27780078125,-1.9855439946368336,0.5373112257003784,-1.7385997167266904
1772480041525799000,5.287798828125,-2.117391382423043,0.6740571991831064,-1.9754205138988792
1772480041535796700,5.297796630859375,-2.093703925104439,0.6998094800770283,-2.071675925430655
1772480041545794800,5.307794921875,-1.825499563153088,0.4958849903345108,-1.9472068113274872
1772480041555793000,5.31779296875,-1.4291738482013343,0.2364829435199499,-1.6860726800233126
1772480041565790700,5.327790771484375,-1.1365414396971463,0.1314081195861101,-1.4019801363274453
1772480041575787800,5.337787841796875,-1.0157871083334087,0.11719897696971893,-1.0747890401393174
1772480041585785900,5.347785888671875,-1.0739347613975405,0.14027531665265558,-0.7070942302577197
1772480041595783700,5.35778369140625,-1.1573670778438447,0.26829905449748037,-0.4434495774373412
1772480041605781800,5.36778173828125,-1.2122729725077748,0.4004992012441158,-0.2524311848886311
1772480041615779600,5.377779541015625,-1.0942354988873004,0.4689397002637386,-0.06540390780270099
1772480041625777700,5.387777587890625,-0.7914598820313811,0.4190589402854442,0.01924845195785165
1772480041635775700,5.397775634765625,-0.4227355829715729,0.31846623020172116,0.07737155510261655
1772480041645772800,5.407772705078125,-0.04778407995998859,0.2817927423208952,0.38469592130407687
1772480041655771000,5.41777099609375,0.19751374591737986,0.3064864540725946,0.8026689660489559
1772480041665769000,5.42776904296875,0.7144675355046987,0.5305804561406373,1.2572972323656082
1772480041675766800,5.437766845703125,1.0378025407865643,0.1266068567842245,1.4550539932586253
1772480041685764900,5.447764892578125,1.1704396176457403,-0.1625531994342804,1.5139767223484812
1772480041695762700,5.4577626953125,0.8686410291284322,-0.34188451519012447,1.5590877837069332
1772480041705760800,5.4677607421875,0.21230828720629213,-0.28707857376933094,1.5442821365021169
1772480041715757800,5.4777578125,-0.43106940381377934,-0.01711830806136131,1.628993971364945
1772480041725755600,5.487755615234375,-1.0370993609532713,0.2577589557826519,1.749834081315994
1772480041735753700,5.497753662109375,-1.4395324528694151,0.5059066181331873,1.8240470262572168
1772480041745751800,5.507751708984375,-1.5385241574972868,0.7195107903689145,1.8444281355068086
1772480041755749600,5.51774951171875,-1.5494260752618312,0.9639455696761607,1.9601555786192415
1772480041765747700,5.527747802734375,-1.3313894735366105,1.0280097533077002,1.999896345116198
1772480041775745500,5.53774560546875,-0.8457122812226414,0.981765304005146,1.9060475563347339
1772480041785742800,5.547742919921875,-0.2758595528796315,1.0087754760056733,1.7593230635426937
1772480041795741000,5.557740966796875,0.1746311752408743,0.9425649279952049,1.5041398034669458
1772480041805738800,5.56773876953125,0.6058335577845573,0.8166518986940383,1.2298758492156863
1772480041815736800,5.57773681640625,0.9415104505062103,0.7392968563348055,0.8399598551757633
1772480041825735000,5.58773486328125,1.4350111760526896,0.8540531163275241,0.7784307429797946
1772480041835732700,5.597732666015625,1.881106299562752,0.6122416712611913,0.716540834647417
1772480041845730800,5.607730712890625,2.2098840804204345,0.2797013229995966,0.5480256580688059
1772480041855727600,5.6177275390625,2.3853178042158483,0.10245207421481609,0.5031299930267036
1772480041865725700,5.6277255859375,2.389889642176032,-0.07065466793775559,0.5608507989808916
1772480041875723800,5.637723876953125,2.1941966819450256,-0.2460071431905031,0.4374405462808907
1772480041885721600,5.6477216796875,1.8970313061863182,-0.41858313946723935,0.20149331707283855
1772480041895719700,5.6577197265625,1.5905281932398676,-0.5318845244765281,-0.05364098929464817
1772480041905717800,5.6677177734375,1.2050193481177092,-0.6876397343337536,-0.3804503926888108
1772480041915715600,5.677715576171875,0.7996241915255784,-0.8798667720198631,-0.5909300031632184
1772480041925713000,5.687712890625,0.4678270628467202,-1.0479027867794035,-0.699865886439383
1772480041935710700,5.697710693359375,0.22488047627061605,-1.2165420281291008,-0.6301677885740995
1772480041945708800,5.707708740234375,0.03521364446133375,-1.3849036215811967,-0.43851329007893797
1772480041955707000,5.717706787109375,-0.08785071741044521,-1.5803560510545969,-0.17045418181717395
1772480041965704700,5.72770458984375,-0.1420163151010871,-1.6479741277754305,0.23655440132096409
1772480041975702800,5.737702880859375,-0.22464228360056876,-1.5089794985830782,0.5665905116766691
1772480041985700900,5.747700927734375,-0.33612697457671165,-1.3718968404918908,0.8386540332742035
1772480041995697700,5.75769775390625,-0.34995296309441326,-1.2384960857838392,0.9494120174109936
1772480042005695700,5.76769580078125,-0.16693740586787462,-1.0088006104469298,0.8092904300153255
1772480042015693600,5.777693603515625,0.29960224751681086,-0.8242530213475227,0.577882159411162
1772480042025691600,5.787691650390625,0.9107526164099573,-0.8712322146654129,0.3022520313732326
1772480042035689700,5.797689697265625,1.4964745295360684,-0.9839502468287944,-0.0314395327500999
1772480042045687600,5.8076875,1.886069182667136,-1.0471867474645375,-0.42125498902499675
1772480042055685600,5.817685546875,2.164827671858668,-1.0945856274992227,-0.6060257193557917
1772480042065682700,5.8276826171875,2.1765639946207402,-0.9933481897711753,-0.7153657995186745
1772480042075680800,5.8376806640625,1.8298714946269987,-0.8107774537026882,-0.9080445264950394
1772480042085678800,5.847678955078125,1.579960329735279,-0.6421522408783435,-0.9803343944191932
1772480042095676700,5.8576767578125,1.4315233339369295,-0.41873920681178567,-0.97678298554793
1772480042105674800,5.8676748046875,1.2510922402456401,-0.11526713212430477,-1.0664619412988423
1772480042115672800,5.8776728515625,1.0488742621600626,0.09309329423904418,-1.3174129706323146
1772480042125669600,5.887669677734375,0.8540379187583923,0.2307446921288967,-1.6190110681414602
1772480042135667700,5.897667724609375,0.731891840775311,0.3198445328176021,-1.8936182828724384
1772480042145665800,5.907665771484375,0.6869254485845565,0.4315659551590681,-2.1491741756528615
1772480042155663600,5.91766357421875,0.7093310493990779,0.6046849722713231,-2.2826498952932655
1772480042165661700,5.92766162109375,0.6931570364505052,0.7730190931946038,-2.327925937955081
1772480042175659800,5.93765966796875,0.6029416357353329,0.6219353822797536,-2.2486920961119234
1772480042185657900,5.947657958984375,0.7383630826160311,0.999766240119934,-2.521198977562785
1772480042195655000,5.957655029296875,0.7521241892039775,0.9844932676643132,-2.451169017394632
1772480042205652700,5.96765283203125,0.6719032360196113,1.0636936456292867,-2.1326080946467814
1772480042215650800,5.97765087890625,0.42078503342568874,1.4332225390702484,-1.8905813993945717
1772480042225649000,5.98764892578125,-0.1408560391500592,1.6011954254657028,-1.4607615572504697
1772480042235646700,5.997646728515625,-0.8869786498516797,1.8445406559705733,-1.0421657044321297
1772480042245644800,6.007644775390625,-1.6428116304457188,2.101986892542243,-0.6151141579575836
1772480042255643000,6.017642822265625,-2.2865748136520385,2.1587825464755297,-0.2201316743083298
1772480042265639700,6.0276396484375,-2.6731530415713785,2.266657230260968,0.08576353587284684
1772480042275637800,6.0376376953125,-2.7988562275141478,2.3943472061067816,0.2860331563696265
1772480042285635600,6.047635498046875,-2.7064038615271446,2.347697098612785,0.2726959742821753
1772480042295634000,6.057634033203125,-2.361668340820074,2.089882028728723,0.23352847762852905
1772480042305632000,6.067632080078125,-1.7574673526734113,1.8146739254951476,0.26156492393687364
1772480042315629800,6.0776298828125,-1.113938270483911,1.607297833994031,0.303349763482064
1772480042325628000,6.0876279296875,-0.567086770761013,1.376943017965555,0.21827289469912647
1772480042335624700,6.097624755859375,0.053497196909785265,1.0643266828358173,0.16695859478637576
1772480042345622800,6.107622802734375,0.5490183223679661,0.6557961508274078,-0.00109013332426548
1772480042355620900,6.117620849609375,0.802972625170648,0.2368622982263565,0.03309446035027504
1772480042365618700,6.12761865234375,0.7023623794302344,-0.2556377258449793,0.25763445262014867
1772480042375616800,6.13761669921875,0.519566310173273,-0.5848661730796099,0.7783686375290155
1772480042385614800,6.14761474609375,0.31754385465979573,-0.8731436012446879,1.240085108540952
1772480042395612700,6.15761279296875,0.15368512558490038,-1.1301964545845984,1.6757234277054667
1772480042405609700,6.167609619140625,-0.14540946467071772,-1.2461936545491217,2.229394252054393
1772480042415607800,6.17760791015625,-0.6178592188820242,-1.2058639822483062,2.8113351853370663
1772480042425606000,6.18760595703125,-1.1947469604283572,-1.1500649381369352,3.2098388288497923
1772480042435604000,6.19760400390625,-1.6983578688398002,-1.0710720654428005,3.386666345091164
1772480042445601800,6.207601806640625,-2.1038743137240408,-1.0016209280759096,3.212383544896543
1772480042455599900,6.217599853515625,-2.413554303140938,-0.9802736041426658,2.6667753232330083
1772480042465598000,6.227597900390625,-2.469443071362376,-0.9385796577513217,2.217338488079607
1772480042475594800,6.2375947265625,-2.301663369451463,-0.9311457083582878,1.854890200549364
1772480042485592800,6.2475927734375,-1.9266189274594188,-0.9205740454614162,1.5131190826058387
1772480042495590700,6.257590576171875,-1.4502543378919361,-0.8501116852253675,1.187787496679276
1772480042505588700,6.267588623046875,-1.0056363011971114,-0.8073504018634557,0.8626428116269409
1772480042515586800,6.2775869140625,-0.6117325526952743,-0.7602718398243189,0.6085292266093194
1772480042525584600,6.287584716796875,-0.2937354013100266,-0.770253135612607,0.5262799824677408
1772480042535582700,6.297582763671875,-0.005910100826621055,-0.8385942659109831,0.49956294819489117
1772480042545579800,6.307579833984375,0.24384061280637978,-0.9176111040025949,0.5251598923966289
1772480042555577900,6.317577880859375,0.4411731569379568,-0.9062199414163827,0.4821005028709769
1772480042565576000,6.327575927734375,0.6176648653537035,-0.9330956733822822,0.3701348965100944
1772480042575573800,6.33757373046875,0.7231924014911055,-0.993850294074416,0.3138996529385447
1772480042585571800,6.34757177734375,0.8164864789992571,-0.9637801499813794,0.2681068929262459
1772480042595570000,6.35756982421875,0.8680009776592255,-0.8942086011052132,0.12780483439713716
1772480042605566700,6.367566650390625,0.8848498211294412,-0.8040881851971149,-0.10766089490428567
1772480042615564800,6.377564697265625,0.8617886790156364,-0.7524100204080343,-0.5093132117062806
1772480042625563000,6.38756298828125,0.7386164728552103,-0.8714607627242803,-1.0030816482782363
1772480042635560700,6.397560791015625,0.5576695385962724,-0.97304832906425,-1.3948342100955544
1772480042645558800,6.407558837890625,0.30690321817994115,-1.0214794747561216,-1.5834376504570244
1772480042655556600,6.417556640625,-0.01871697542965412,-0.9829881237983703,-1.504837138081342
1772480042665554700,6.4275546875,-0.3110667676001787,-0.8951397444754838,-1.384473267339915
1772480042675552000,6.437552001953125,-0.5259834837391972,-0.8045791835844516,-1.260687020934373
1772480042685549800,6.4475498046875,-0.6484168542310595,-0.722283177691698,-1.1665633607342838
1772480042695548000,6.4575478515625,-0.6508712616458535,-0.6799462572216988,-1.128926434648782
1772480042705546000,6.4675458984375,-0.5524491735994815,-0.6602016923099756,-1.0744498713128268
1772480042715543800,6.477543701171875,-0.40181174514740703,-0.6878332110792398,-1.1348853430531918
1772480042725542000,6.4875419921875,-0.2961822099402547,-0.7293605687320232,-1.2087788467817009
1772480042735539700,6.497539794921875,-0.24618425332307814,-0.7337538352549076,-1.3037662842042743
1772480042745536800,6.507536865234375,-0.1313648649662733,-0.7246008069843053,-1.3882209294356405
1772480042755534800,6.517534912109375,-0.018249650178849695,-0.76271280323565,-1.4232270686261355
1772480042765532700,6.52753271484375,0.13190320962667465,-0.7587029830724,-1.408460876648873
1772480042775530800,6.53753076171875,0.2467281509414315,-0.6996715329110622,-1.3233195643275975
1772480042785528800,6.54752880859375,0.27864743003249165,-0.619508447393775,-1.2178111712820827
1772480042795526700,6.557526611328125,0.2780292981341481,-0.47793549214601516,-1.1019367209143935
1772480042805524700,6.567524658203125,0.3343628875136375,-0.4285585900366306,-1.0682464866280554
1772480042815521800,6.577521728515625,0.4718161324828863,-0.28911738612055776,-1.0819584933772683
1772480042825519900,6.587519775390625,0.5773132734820247,-0.2288414888560772,-1.1818692125461996
1772480042835518000,6.59751806640625,0.6144517485260963,-0.15637304949462413,-1.1794969304569065
1772480042845515800,6.607515869140625,0.6640054685071111,-0.05753273603618145,-1.2644018036738038
1772480042855513900,6.617513916015625,0.5833069609388709,-0.04620820894539356,-1.4605805015951394
1772480042865512000,6.627511962890625,0.27928309758752584,0.07111351762115956,-1.6220837535850703
1772480042875509800,6.637509765625,-0.309764452829957,0.4130044625520706,-1.581977368646115
1772480042885506800,6.6475068359375,-1.130124266131222,0.8358814998209476,-1.6136261602327227
1772480042895504600,6.657504638671875,-1.9864818600088356,1.217585984224081,-1.8634163290932773
1772480042905502700,6.667502685546875,-2.7693948629692193,1.5420231055289506,-1.9416681741617619
1772480042915500800,6.677500732421875,-3.456992219465971,1.8269933088421821,-1.7910256311431527
1772480042925498600,6.68749853515625,-3.934157311761379,1.8776620043277739,-1.4101162426404654
1772480042935496700,6.69749658203125,-4.038759842008352,1.8383949928224086,-0.9611683600477874
1772480042945493800,6.70749365234375,-3.7326775848224756,1.9718086070120333,-0.513969513079524
1772480042955491800,6.717491943359375,-3.2437197634026407,2.2231688016682862,0.013535773399472236
1772480042965490000,6.727489990234375,-2.6896672462597486,2.28703775498867,0.5709010683521628
1772480042975487700,6.73748779296875,-2.0642580503895878,2.2158009032487866,1.062274134220183
1772480042985485800,6.74748583984375,-1.4208385660544036,2.1333137586981055,1.5803487445309756
1772480042995484000,6.75748388671875,-0.7849152826935052,2.026931943818927,1.9864831751830874
1772480043005481700,6.767481689453125,-0.13553864351958037,1.813708879855275,2.2582010982133447
1772480043015478800,6.777478759765625,0.48919279921948905,1.4751742596149444,2.5827897568181157
1772480043025476600,6.7874765625,1.074636772187054,1.1383622253835202,2.927720215575397
1772480043035474700,6.797474609375,1.607732133758068,0.770517924028635,3.1304893978029487
1772480043045472800,6.80747265625,2.065095085735619,0.38949031597375866,3.352025532081723
1772480043055470600,6.817470703125,2.4082591193422673,0.041812604334950446,3.425462816475332
1772480043065468700,6.82746875,2.6628318463042375,-0.1725607987076044,3.126253659929335
1772480043075466800,6.837466796875,2.8223084147721527,-0.2862795323461294,2.4336115872636435
1772480043085463800,6.8474638671875,2.787170758156478,-0.3688935181468725,1.875143884027004
1772480043095462000,6.8574619140625,2.5871079122781753,-0.2211164475619793,1.4560352593809365
1772480043105459700,6.867459716796875,2.1129969468563794,-0.07203881577253342,1.1129507207512854
1772480043115457800,6.877457763671875,1.416123227970302,0.14120996715426445,0.8167349008023739
1772480043125456000,6.887455810546875,0.682252780598402,0.2395160276055336,0.5680135302171111
1772480043135453200,6.897453125,-0.014214695574343204,0.0906178440362215,0.41620150502771136
1772480043145451300,6.907451171875,-0.5745420552030205,0.045001171243190766,0.3302326558411121
1772480043155448300,6.9174482421875,-1.022333168976009,0.03191255708932876,0.47882571898400783
1772480043165446400,6.9274462890625,-1.265374740359187,-0.011793313646316528,0.8017112269327044
1772480043175444500,6.937444580078125,-1.2144628837674856,-0.10587211179137229,1.085976204586029
1772480043185442300,6.9474423828125,-0.8127990226581692,-0.3601443945020437,1.1980977321609854
1772480043195440400,6.9574404296875,-0.3118351216241717,-0.7534504693716764,1.0982359667003154
1772480043205438500,6.9674384765625,0.03953004635572433,-1.1858113743007181,0.9371335505962372
1772480043215435300,6.977435302734375,0.3960287778317928,-1.4794260718405245,0.7289727384582162
1772480043225433300,6.987433349609375,0.8231696100249886,-1.6922306181311606,0.5147212082296609
1772480043235431200,6.99743115234375,1.1624743378549813,-1.8946780210584402,0.21448504672348498
1772480043245429200,7.00742919921875,1.399396257314086,-1.9564514634042978,-0.08278174358308314
1772480043255427300,7.01742724609375,1.5403659859716892,-2.02813781247735,-0.303421513544023
1772480043265425200,7.027425048828125,1.714326714605093,-2.016364372575283,-0.4220455548807978
1772480043275423200,7.03742333984375,1.794094663324952,-1.9773153877347707,-0.5061187995791435
1772480043285420300,7.047420166015625,1.6628478717803954,-1.7469781073629855,-0.6521589633688331
1772480043295418400,7.05741845703125,1.4233224918246268,-1.4104676864266394,-0.829371679535508
1772480043305416400,7.06741650390625,1.1595102273523807,-1.1239771416783333,-1.0176409195065497
1772480043315414300,7.077414306640625,0.7727648261725902,-0.9254524651527404,-1.2241373055636882
1772480043325412400,7.087412353515625,0.4021685957610607,-0.6861842748284339,-1.2589341859176755
1772480043335410400,7.097410400390625,0.10990998900532722,-0.40782559860944745,-1.409151927652955
1772480043345408300,7.107408203125,0.07606909420192241,-0.3391968835413456,-1.5453507886469364
1772480043355405300,7.1174052734375,0.2686798705086112,-0.25455343773961064,-1.4464564069136976
1772480043365403100,7.127403076171875,0.5356961917191744,-0.08080430603027343,-1.2018828036576508
1772480043375401200,7.137401123046875,0.7527174789220095,-0.017509937727451325,-1.1302227580696345
1772480043385399300,7.1473994140625,0.825486947056651,-0.08447802610695361,-1.223622926300764
1772480043395397000,7.157397216796875,0.8418567748382687,-0.10154606528580189,-1.3945426798030733
1772480043405395200,7.167395263671875,0.8162412720665335,-0.06881108589768409,-1.6052192741543054
1772480043415393300,7.177393310546875,0.7656120318084955,-0.031089550268650054,-1.6009537256643176
1772480043425390300,7.187390380859375,0.7845452803373336,-0.06506722319424152,-1.395447519688308
1772480043435388400,7.197388427734375,0.7891174105584621,-0.09757949974238872,-1.0789362229466437
1772480043445386200,7.20738623046875,0.6963342051818966,-0.09849193841218948,-0.7431812965527177
1772480043455384300,7.21738427734375,0.47110827647447584,-0.1525450156390667,-0.6229378373205662
1772480043465382400,7.22738232421875,0.28784751231521366,-0.2543143682867288,-0.5321268087998032
1772480043475380200,7.237380126953125,0.060120414441823956,-0.2967787145286798,-0.5210711617782712
1772480043485377300,7.247377197265625,-0.18240590089559555,-0.264571558406949,-0.5554468941107392
1772480043495375400,7.257375244140625,-0.238099731066823,-0.15411971760988236,-0.5255564904987812
1772480043505373200,7.267373291015625,-0.07152823590189218,-0.14796236402392388,-0.5237810052588582
1772480043515371300,7.277371337890625,0.3156315912976861,-0.19151041384935377,-0.5745183820664882
1772480043525369300,7.287369384765625,0.5906619998767971,-0.13256547292768955,-0.58615270575881
1772480043535367200,7.2973671875,0.7670268670424819,0.0888531724512577,-0.36316724945455786
1772480043545365200,7.307365234375,0.901810600541532,0.5578355428129435,-0.34502047512829304
1772480043555362300,7.3173623046875,0.7133899694010615,1.1919137828290463,-0.4893658176988363
1772480043565360400,7.3273603515625,-0.04347761493772268,1.897990506607294,-0.6109264970093965
1772480043575358500,7.3373583984375,-1.1773293771594762,2.5580332089632747,-0.9356637703046202
1772480043585356300,7.347356201171875,-2.2849343529686332,2.830166727057099,-1.3032894604727625
1772480043595354400,7.357354248046875,-2.959473782710731,2.856131189396977,-1.462955706293881
1772480043605352400,7.3673525390625,-3.2632650063499806,2.7611884678989647,-1.5384420321717858
1772480043615350300,7.377350341796875,-2.9263895514935254,2.4362147554993627,-1.2677251028776169
1772480043625347300,7.387347412109375,-1.8299486515164374,1.9317916539222,-1.005189434212446
1772480043635345200,7.39734521484375,-0.6564958235293626,1.4055121098458767,-1.0336503895431757
1772480043645343200,7.40734326171875,0.07099193706810474,1.1130465823411941,-0.9982657724291085
1772480043655341300,7.41734130859375,0.30800095028877256,0.8590168762147427,-0.9055570935934781
1772480043665339100,7.427339111328125,0.20135785412490367,0.5588800834298133,-0.7049252156555652
1772480043675337200,7.437337158203125,-0.11066022285073995,0.252324071252346,-0.31282559396624565
1772480043685334300,7.447334228515625,-0.5170861837953329,-0.08102467078268527,0.16189999622255563
1772480043695332400,7.457332275390625,-1.0694362809345126,-0.40495442708730695,0.6572092324957252
1772480043705330400,7.467330322265625,-1.5180752437084912,-0.754642894026637,1.0983645615160464
1772480043715328300,7.477328369140625,-1.8168042155221105,-1.109617192414403,1.3071519811198116
1772480043725326300,7.487326416015625,-2.2494354618251324,-1.3179524843364954,1.6835680037260055
1772480043735324400,7.497324462890625,-2.472839143541455,-1.4328005142658948,2.1359157578900456
1772480043745322200,7.507322265625,-2.517978554211557,-1.4875515106290578,2.3802216501206157
1772480043755319300,7.5173193359375,-2.575282742188871,-1.4511486563831566,2.5514088223874567
1772480043765317000,7.527317138671875,-2.7956264518126845,-1.3120669334292412,2.5367951906234025
1772480043775315200,7.537315185546875,-3.069450991733372,-1.0345850400447845,2.552888831812143
1772480043785313300,7.547313232421875,-3.281085032939911,-0.6022399172067642,2.624250478975475
1772480043795311000,7.55731103515625,-3.386618122035265,-0.24154431856274602,2.5037843169033525
1772480043805309200,7.56730908203125,-3.339751449181139,-0.057625090494751924,2.154507353374362
1772480043815307300,7.577307373046875,-3.000481208142638,-0.016478256592154503,1.7345239917203783
1772480043825304300,7.58730419921875,-2.4609096362948417,-0.043054713350534436,1.5323191653773187
1772480043835302400,7.597302490234375,-1.834966479678452,-0.21905308529138565,1.380729258506
1772480043845300200,7.60730029296875,-1.0954296771079302,-0.4797025018185377,1.1345450051829218
1772480043855298300,7.61729833984375,-0.41608138577938075,-0.7527355991005897,0.9688795189470052
1772480043865296400,7.62729638671875,0.12174246561825275,-1.0585896004885436,0.947898690238595
1772480043875294200,7.637294189453125,0.5692348887056112,-1.317785311076045,1.1029746856600045
1772480043885291300,7.647291259765625,0.8743579454705118,-1.401964061975479,1.331550801578164
1772480043895289000,7.6572890625,1.0575754550099372,-1.4300094222426414,1.5027680767223237
1772480043905287200,7.667287109375,1.0637056283280253,-1.4599848737895489,1.544789939893782
1772480043915285200,7.67728515625,0.9536389874562621,-1.4484715461283921,1.3088570314720271
1772480043925283000,7.687282958984375,0.749862966273725,-1.4456009591281413,0.9592654490359127
1772480043935281200,7.69728125,0.5287596704542636,-1.494826470068097,0.6527851324431598
1772480043945279200,7.707279296875,0.29996055943518873,-1.442957166621089,0.33637904964163895
1772480043955276300,7.7172763671875,0.07416004571020603,-1.3410130419284105,-0.00395575188845396
1772480043965274400,7.7272744140625,-0.21600597268044947,-1.261234571814537,-0.35579832812175155
1772480043975272200,7.737272216796875,-0.5142635275900364,-1.1190309174478053,-0.5982068622983991
1772480043985270300,7.747270263671875,-0.8397270693331956,-0.8111287513583898,-0.6777975547552109
1772480043995268400,7.757268310546875,-1.1623340526014565,-0.4912228437423706,-0.6543428832791746
1772480044005266200,7.76726611328125,-1.4630325709223746,-0.27278409095704553,-0.6470641244478523
1772480044015263200,7.77726318359375,-1.6827327219456434,-0.12798515940010546,-0.7822704672731459
1772480044025261300,7.78726123046875,-1.8091990012153982,-0.07242343117594718,-0.9671569329380989
1772480044035259100,7.797259033203125,-1.8363100032418964,-0.03083645229041576,-1.1731431775160133
1772480044045257200,7.80725732421875,-1.7526158209890126,-0.048503626406192775,-1.2928969535350798
1772480044055255300,7.81725537109375,-1.587591847527027,-0.12413608275651931,-1.3010448964163661
1772480044065253400,7.82725341796875,-1.3364251296162604,-0.22650398581922052,-1.2311306715823709
1772480044075251500,7.83725146484375,-1.0443652603030205,-0.37443303209543227,-1.0426154940262435
1772480044085248300,7.847248291015625,-0.7539698170706629,-0.5350900425195694,-0.7552825071044266
1772480044095246300,7.857246337890625,-0.520161353456974,-0.6921206791400909,-0.4574801486164331
1772480044105244400,7.867244384765625,-0.3471305991500616,-0.8151210358649492,-0.20264131806418298
1772480044115242200,7.8772421875,-0.2485562431514263,-0.8626496797591447,0.06095467330887913
1772480044125240300,7.887240234375,-0.1893617113828659,-0.8767676369607448,0.21164865425378082
1772480044135239000,7.897239013671875,-0.17950111936479807,-0.8549158706367015,0.21037147392481564
1772480044145236700,7.90723681640625,-0.153644793574512,-0.8764192619144916,0.2396267945036292
1772480044155233800,7.91723388671875,-0.15058978991806507,-0.9563204816251992,0.21208689954057336
1772480044165231600,7.927231689453125,-0.18483692743480204,-1.0399643949955701,0.13639438356608152
1772480044175229700,7.937229736328125,-0.27158640560507774,-1.0679401971578597,0.1451366390787065
1772480044185227800,7.947227783203125,-0.48935880343616006,-1.01226916334033,0.12311375397145748
1772480044195225600,7.9572255859375,-0.8093719708189367,-0.9198615132778882,0.04741656182184815
1772480044205223700,7.9672236328125,-1.0508277343153953,-0.8508785779446363,-0.011275719512999056
1772480044215220700,7.977220703125,-1.3278493167117238,-0.7319821494072676,0.013027970007807015
1772480044225218800,7.98721875,-1.736471326395869,-0.5364420416504144,0.038811376692354675
1772480044235216000,7.9972158203125,-1.770847643250227,-0.5454571227550506,0.04916296709775925
1772480044245213700,8.007213623046875,-2.3653037747129795,-0.23368892888724802,-0.0790318895302713
1772480044255211800,8.017211669921876,-3.0420199639722703,0.5176648604661226,-0.19790625236630438
1772480044265209600,8.027209716796875,-3.6216657720550893,1.5528350069224834,-0.1862590691924095
1772480044275207700,8.037207763671875,-4.156278552451729,2.2456880919903517,-0.3535033490523696
1772480044285205800,8.047205810546876,-4.560653718346357,2.468033204564452,-0.5188508553802966
1772480044295202800,8.057202880859375,-4.582067677775025,2.3440637105464934,-0.5788854912348091
1772480044305201000,8.067200927734374,-3.985456121844053,2.097362739872932,-0.46169498983249063
1772480044315199000,8.077198974609376,-3.013568068730831,1.6818489248484372,0.060811757706850766
1772480044325196800,8.08719677734375,-1.9263930097490547,1.1741811422616242,0.6341422451630234
1772480044335195000,8.09719482421875,-1.0459744490653275,0.7072013438940048,0.9166443047970533
1772480044345193000,8.10719287109375,-0.33146833511590956,0.3091056966602802,1.1200924091994762
1772480044355190800,8.117190673828125,0.1618783689126372,0.047135260662436486,1.452929110059142
1772480044365187800,8.127187744140626,0.5302414334446192,-0.2018880154788494,1.8369015393942594
1772480044375185700,8.137185546875,0.8406070670381188,-0.3861994577348232,2.1158032364487647
1772480044385183700,8.147183837890625,1.0525640565887093,-0.3647282151609659,2.2243808078065515
1772480044395181800,8.157181884765626,1.0923355104848742,-0.3143161247849464,2.09733000664711
1772480044405179600,8.1671796875,0.8764309523522853,-0.2786918536961078,1.7031281519815324
1772480044415177700,8.177177734375,0.5068590965524316,-0.21007541358768939,1.1171955187141895
1772480044425174800,8.1871748046875,0.07415858440548181,-0.13087445110082627,0.4925102532044053
1772480044435172900,8.1971728515625,-0.40939094823002814,-0.05911328322589397,-0.11920973227024077
1772480044445171000,8.2071708984375,-0.9177803230896592,-0.01771218230128288,-0.7260951371952891
1772480044455168800,8.217168701171875,-1.480820156547427,-0.05964928979873657,-1.2182681212693451
1772480044465166800,8.227166748046875,-2.107900500500202,-0.21691724230647086,-1.540910760372877
1772480044475165000,8.2371650390625,-2.64293735152781,-0.45921325601935387,-1.7811621165156364
1772480044485162800,8.247162841796875,-3.0989824989050625,-0.5972878477573395,-1.7241747394025324
1772480044495159800,8.257159912109374,-3.4218998632967472,-0.6240116040319204,-1.2588804099038242
1772480044505157600,8.26715771484375,-3.5830373507142066,-0.7247223875373602,-0.6582406213700771
1772480044515155700,8.27715576171875,-3.4663594750091433,-0.9455214397132397,-0.3188943924859166
1772480044525153800,8.28715380859375,-3.1807506815314293,-1.2003519408285617,-0.03186784116476774
1772480044535151600,8.297151611328125,-2.8123884937822816,-1.404284613877535,0.1544935193583369
1772480044545149700,8.307149658203125,-2.4721800951108337,-1.5497861407458782,0.1383297355428338
1772480044555147800,8.317147705078124,-2.240603628332913,-1.6654478251457214,-0.10594868415892124
1772480044565144800,8.327144775390625,-2.112097367668152,-1.767022532004118,-0.24244594357758759
1772480044575143000,8.337142822265625,-2.0797677542105317,-1.750652996483445,-0.3179372378915548
1772480044585140700,8.347140625,-2.0535218445807693,-1.6826146485239266,-0.33200755655914543
1772480044595138800,8.357138916015625,-1.950011201223731,-1.5149632491677998,-0.3756277948379516
1772480044605137000,8.367136962890624,-1.8598375938236713,-1.3229068918734788,-0.3038575668737292
1772480044615134700,8.377134765625,-1.8492621315345168,-0.9972685780853032,-0.17194295907020568
1772480044625131800,8.3871318359375,-1.9004004903584717,-0.6600257512211799,0.007679156325757503
1772480044635131000,8.397130859375,-1.9181831075474618,-0.19793664750456808,0.20076573345065116
1772480044645128700,8.407128662109375,-1.8422221498951314,-0.11282383062541484,0.16963818925917148
1772480044655126800,8.417126708984375,-1.7090756622090935,-0.14135785119235514,0.2219116895928979
1772480044665124900,8.427124755859374,-1.5585381870001553,-0.21863573666214942,0.22318945444375277
1772480044675121700,8.43712158203125,-1.4502654438078402,-0.33921383467614646,0.15632190382927655
1772480044685119700,8.44711962890625,-1.4330001284912228,-0.5088187061876058,0.08678571852743625
1772480044695117800,8.457117919921876,-1.4370961656332015,-0.6896200944960117,0.11007160930782556
1772480044705116000,8.467115966796875,-1.486379544240236,-0.8506810095459222,0.2417135376498103
1772480044715114000,8.477114013671875,-1.5563786708787082,-0.9437737192630767,0.5051169290602207
1772480044725111800,8.48711181640625,-1.6373124485075472,-0.981737246954441,0.8242369469955563
1772480044735108900,8.49710888671875,-1.7217571568667889,-1.0405845727205276,1.0389046568095683
1772480044745106700,8.507106689453124,-1.7959832535505293,-1.1651420957595109,1.0768515256270765
1772480044755104800,8.517104736328125,-1.77473032990247,-1.268905252572894,1.1101935309976338
1772480044765102800,8.527102783203125,-1.6670575984299183,-1.2702046447336672,1.2465247861996291
1772480044775100700,8.5371005859375,-1.5224141496956347,-1.2767659029453993,1.2214672095716
1772480044785098800,8.5470986328125,-1.2900062005296349,-1.3270230950206516,1.082377011050284
1772480044795096800,8.557096923828125,-0.998874844238162,-1.3234651102781294,1.00775606983006
1772480044805094000,8.567093994140626,-0.7860884181261062,-1.3026105382978916,0.794382491479814
1772480044815092000,8.577092041015625,-0.6513280655026435,-1.289347736620903,0.5318289948970079
1772480044825089800,8.58708984375,-0.5749424526974558,-1.2571528554588556,0.3438718896150589
1772480044835088000,8.597087890625,-0.607529255786538,-1.1572609871208668,0.17487141373753545
1772480044845086000,8.6070859375,-0.6180091487467289,-0.9995809466809034,-0.00894201586842537
1772480044855083800,8.617083740234374,-0.4395905639216304,-0.8787298769444226,-0.245065478426218
1772480044865080800,8.627080810546875,-0.36403263411223885,-0.8045563872307538,-0.45518020111098884
1772480044875078700,8.63707861328125,-0.3121151076093316,-0.8207663482755422,-0.6425441628053784
1772480044885076700,8.64707666015625,-0.18075871821045875,-0.9061591511398553,-0.7875098292313516
1772480044895074800,8.65707470703125,-0.10747048689872025,-0.8246680318892001,-1.058200601170957
1772480044905072600,8.66707275390625,-0.19249971714764832,-0.7330565006405114,-1.2393791522286832
1772480044915070700,8.67707080078125,-0.27195173178613186,-0.6797048496812582,-1.223866233537346
1772480044925067800,8.68706787109375,-0.2875736638098955,-0.5695236425191164,-1.1881107372842727
1772480044935065900,8.69706591796875,-0.34255993023365733,-0.3212105604737997,-1.1050436008885502
1772480044945064000,8.70706396484375,-0.23937398878633975,-0.03885141644179821,-1.0511882381908595
1772480044955061800,8.717061767578125,-0.37506490025818345,-0.2350233923614025,-1.2571309358879923
1772480044965059800,8.727059814453124,-0.3255792770773172,-0.07347381701171397,-1.2226879835382103
1772480044975058000,8.737057861328125,0.05477993019670248,-0.06161912856698036,-0.9538529224678873
1772480044985055700,8.7470556640625,0.22921616738736628,-0.10420914701521396,-0.6149475692190229
1772480044995052800,8.757052734375,0.04793488660752773,-0.13030921843349932,-0.3839417419359088
1772480045005051000,8.76705078125,-0.39867286259979007,0.08777648313045501,-0.2653577403485775
1772480045015048700,8.777048583984374,-0.7093114679157734,0.19861527741849422,-0.21071429601311684
1772480045025046800,8.787046875,-0.9673939565643668,0.12937573697566984,-0.2279492161914706
1772480045035044900,8.797044921875,-1.211776421162486,0.19924422297179697,-0.25996464913338424
1772480045045042700,8.807042724609374,-1.6412001035958528,0.17049334478378295,-0.28120675912648435
1772480045055040000,8.8170400390625,-2.2668282029137012,0.28027356992959973,-0.1000637177735567
1772480045065037800,8.827037841796875,-2.590749191389978,0.4187812923878431,0.20690350555330514
1772480045075036000,8.837035888671876,-2.4646020610719916,0.4543436041563749,0.47550241978019475
1772480045085034000,8.847033935546875,-2.235416288822889,0.39324294650554653,0.689235479092598
1772480045095031800,8.85703173828125,-1.9425597161740062,0.5649959359616041,0.8680322495803237
1772480045105030000,8.86702978515625,-1.647615231335163,0.6516209109693766,0.955742973998189
1772480045115028000,8.877028076171875,-1.3748580283850431,0.777239341238141,1.0259177494645118
1772480045125024800,8.887024658203124,-1.1456740097016096,0.8249632154434919,0.9537474162667989
1772480045135022300,8.897022216796875,-1.0203323505476116,0.9256400966793298,0.7205845570802688
1772480045145020200,8.907020263671875,-1.0936121062919497,0.9568722702890634,0.3307996420741081
1772480045155018200,8.917018310546876,-1.2634212682038546,0.9906132118493318,0.047503801713883874
1772480045165016000,8.92701611328125,-1.4728595529317854,0.9329705856978893,-0.11896510985940695
1772480045175014100,8.93701416015625,-1.668230733862519,0.8602595697522163,-0.26312223638147114
1772480045185011500,8.947011474609376,-1.7389257338106632,0.7772633066356182,-0.229574771566689
1772480045195009300,8.95700927734375,-1.6189564153447746,0.5463076021045447,0.07168693359494209
1772480045205007400,8.96700732421875,-1.3413245920956134,0.15104396342635154,0.36943069376349447
1772480045215005400,8.97700537109375,-1.0094637505307793,-0.16221066960692404,0.620041823618114
1772480045225003300,8.987003173828125,-0.7771718289598822,-0.4687684353500604,0.8524655548751354
1772480045235001300,8.99700146484375,-0.7206257658734917,-0.6782207486033439,1.06884416026026
1772480045244999400,9.00699951171875,-0.6397060167700052,-0.7274433369338512,1.3953048963472245
1772480045254996200,9.016996337890625,-0.5954869358152151,-0.7467103474617004,1.750811694176495
1772480045264994300,9.026994384765626,-0.5987196341261267,-0.758135996839404,2.100138634327054
1772480045274992000,9.0369921875,-0.6468713783547282,-0.9066934041470289,2.3727970530778166
1772480045284990200,9.046990234375,-0.7496849793583155,-0.9451841705828905,2.5434195771992205
1772480045294988300,9.05698828125,-0.7877759328216314,-0.8596037361919879,2.577153504496813
1772480045304986000,9.066986083984375,-0.9086135585546493,-0.8267138585031032,2.4781647224783896
1772480045314983400,9.0769833984375,-1.000680432355404,-0.7507336116284131,2.2399679607778786
1772480045324981200,9.086981201171875,-1.1641454859375953,-0.6117436586111784,1.792156680999696
1772480045334979300,9.096979248046875,-1.3259662794440983,-0.4480646700173616,1.316078799419105
1772480045344977400,9.106977294921874,-1.2245523161053657,-0.3258148393988609,0.8402119302406906
1772480045354975200,9.116975341796875,-1.0857961718440055,-0.2319341941744089,0.3895896846950054
1772480045364973300,9.126973388671875,-0.9950415496855973,-0.27258243090510365,0.11994491467699407
1772480045374970000,9.13697021484375,-0.7198544892400502,-0.1755973899245262,0.01590177187845111
1772480045384968200,9.14696826171875,-0.5148772755742073,-0.12454933973252773,0.15967311395332218
1772480045394966300,9.15696630859375,-0.4247410775750875,-0.10172317541837692,0.3483982809983194
1772480045404964000,9.166964111328125,-0.3195478879585862,-0.1549970849663019,0.37653731089830395
1772480045414962200,9.176962158203125,-0.16547522436082363,-0.23703122505247592,0.30494287789240476
1772480045424960300,9.186960205078124,-0.022385434809327125,-0.2907967175096273,0.22161533699482677
1772480045434958300,9.196958251953125,0.1356266140639782,-0.40728725394904614,0.1323404320001602
1772480045444955400,9.206955322265625,0.3388818262428045,-0.5156283862024545,0.024251374811679122
1772480045454953200,9.216953125,0.5090431625932454,-0.6246212603628635,-0.12436039303168654
1772480045464951300,9.226951416015625,0.5173606168225408,-0.7785024930417537,-0.33133141086325046
1772480045474949400,9.236949462890625,0.4330465491056442,-0.9220248287916183,-0.502398171620816
1772480045484947200,9.246947265625,0.22860183488130567,-1.0470569836050272,-0.6453111433006823
1772480045494945300,9.2569453125,0.12829963217675686,-1.1390145518124102,-0.7494812734797597
1772480045504942000,9.266942138671874,0.0067006666824221605,-1.2272995689868926,-0.8020626707188785
1772480045514940200,9.276940185546875,-0.13368775495588778,-1.2765993142068386,-0.7603463663652539
1772480045524938200,9.286938232421875,-0.3053361149936914,-1.265578153976798,-0.7046168803587556
1772480045534936000,9.29693603515625,-0.4829629649192094,-1.1812041727662086,-0.5301021711044013
1772480045544934400,9.306934326171875,-0.5736760860234499,-1.0822235740542412,-0.48813934464380143
1772480045554932500,9.316932373046875,-0.6609650778979063,-0.9447294125527143,-0.5426474721617996
1772480045564929300,9.32692919921875,-0.7346569215744734,-0.8443675886154174,-0.5718168680228293
1772480045574927400,9.33692724609375,-0.7267004096120595,-0.8422066111892461,-0.593875701226294
1772480045584925200,9.34692529296875,-0.6738175452083349,-0.767183226647973,-0.5640661077655852
1772480045594923300,9.35692333984375,-0.5821943235218524,-0.7099491812974215,-0.5460945438757538
1772480045604921300,9.36692138671875,-0.4868804306238889,-0.6328396381318568,-0.5793173067808151
1772480045614919200,9.376919189453124,-0.41739568324834103,-0.5301560932487249,-0.6269828749276697
1772480045624917200,9.386917236328125,-0.34172844784557815,-0.4167155920296907,-0.6720936440251767
1772480045634914300,9.396914306640625,-0.30171032571196554,-0.29536300251185893,-0.7375941440701484
1772480045644912000,9.406912109375,-0.2876321159988642,-0.2783604297846555,-0.8539932028338313
1772480045654910200,9.41691015625,-0.2455278352409601,-0.2366653143495321,-0.9608030338667333
1772480045664908300,9.426908203125,-0.159333068343997,-0.14597031342387198,-1.0441323283299804
1772480045674906400,9.43690625,-0.07705489036887883,-0.044022097077965734,-1.1312244824580848
1772480045684904400,9.446904541015625,-0.004588496834039688,0.14511808050870895,-1.1508426445111632
1772480045694901200,9.4569013671875,0.09190028506219386,0.25742694734930993,-1.1913076336294413
1772480045704899300,9.4668994140625,0.2863046667873859,0.29566520032882687,-1.2958597488634287
1772480045714897400,9.4768974609375,0.6285445712864398,0.23488310710787771,-1.305461251553893
1772480045724895200,9.486895263671874,0.9085273415759205,0.05932312658429145,-1.3188507483504712
1772480045734893300,9.496893310546875,0.997849008321762,-0.0729670365333557,-1.2694158324435352
1772480045744891400,9.506891357421875,0.858950825241208,-0.09615209728777407,-1.1475915337607263
1772480045754888200,9.51688818359375,0.3353852162986994,0.12310966231822967,-1.0664113801553845
1772480045764886300,9.52688623046875,-0.5956050092369317,0.48141456643342967,-1.1988523499205708
1772480045774884000,9.536884033203124,-1.661103073939681,0.7959744368463754,-1.4284711067594587
1772480045784882400,9.54688232421875,-2.5785341452002526,1.318548112142086,-1.547139279498905
1772480045794880500,9.556880615234375,-3.5102652522310613,1.6596522906094788,-1.5422930085115134
1772480045804878300,9.56687841796875,-4.21437242950201,1.819496231085062,-1.4310596619479357
1772480045814876400,9.57687646484375,-4.680896300795674,1.844804275342822,-1.2268078399471938
1772480045824873200,9.586873291015625,-4.660989238798618,1.7675281434386967,-0.5732493850439787
1772480045834871300,9.596871337890626,-4.034664973910153,1.668693675199151,0.4844041036382317
1772480045844869400,9.606869384765625,-3.1671444732442495,1.591605759343505,1.4131839596480131
1772480045854867200,9.6168671875,-2.2070167082905767,1.4132003262609243,2.0020712049372493
1772480045864865300,9.626865234375,-1.2756202400416135,1.219111586356163,2.107462401343882
1772480045874863400,9.63686328125,-0.5810609355777502,1.053342347484827,2.057228590144217
1772480045884860200,9.646860107421874,-0.032716859209537506,0.8734417074084282,2.09416862000674
1772480045894858200,9.656858154296875,0.46743046474456784,0.5798182420402765,2.0935168780997393
1772480045904856300,9.666856201171875,0.9114572575479746,0.30448914277553557,2.043899737493694
1772480045914854400,9.6768544921875,1.2388500137880445,0.11271335598826408,2.0407067866712807
1772480045924852500,9.6868525390625,1.4302084519460796,-0.09244272137582302,2.0407561787709594
1772480045934850300,9.696850341796875,1.5040952336728572,-0.27987375695705413,2.0416022742062805
1772480045944847400,9.706847412109376,1.5517378593355415,-0.42150750248134133,2.025273947478831
1772480045954845200,9.71684521484375,1.5949614995121955,-0.5203595063775778,1.9358324537456035
1772480045964843300,9.72684326171875,1.6858622521430253,-0.5264975707411765,1.8221935073450206
1772480045974841300,9.73684130859375,1.7888994327694177,-0.41524961113035674,1.7024600434616206
1772480045984839200,9.746839111328125,1.7654753025621175,-0.23210721265375614,1.4475471247598528
1772480045994837200,9.756837158203124,1.5457231290906668,-0.01076455512046814,1.2007520460620522
1772480046004835300,9.76683544921875,1.2361363709151745,0.20694588339030742,0.9651692662522197
1772480046014832400,9.776832275390625,0.8949670182570815,0.41192543514370916,0.7323577047213912
1772480046024830500,9.78683056640625,0.5408849925339222,0.5379939472675324,0.5601943808987736
1772480046034828300,9.796828369140625,0.21283143429756163,0.5887082354605198,0.3782818164780736
1772480046044826400,9.806826416015625,0.05542378105819225,0.6259732594937085,0.22632512212097644
1772480046054824400,9.816824462890626,0.10124971268773078,0.5988818389505147,0.0825572871774435
1772480046064822300,9.826822265625,0.2921197828069329,0.48773441710472104,-0.04076017267256975
1772480046074819300,9.8368193359375,0.6226864929080009,0.2320119355857372,-0.12807605255395174
1772480046084817200,9.846817138671875,1.027331123393774,-0.15041910952627657,-0.2608329564005136
1772480046094815200,9.856815185546875,1.420616155475378,-0.47157940111756325,-0.2510843003243208
1772480046104813300,9.866813232421874,1.7805033603459595,-0.7235884150713682,-0.13968845667541027
1772480046114811100,9.87681103515625,2.0164196098938585,-0.8893804502964019,-0.017254501661658286
1772480046124809200,9.886809326171875,2.0959297844603655,-1.0557254432290792,-0.01731792228668928
1772480046134806500,9.896806640625,1.9916110395908355,-1.0694172839730978,-0.12715689188241958
1772480046144804600,9.9068046875,1.8234417538404464,-1.0675286937475204,-0.1495963949665427
1772480046154802700,9.916802734375,1.6961270410478113,-1.0838578972578048,-0.1560048007041216
1772480046164800800,9.92680078125,1.6043044973969458,-0.9677245036929846,-0.20847499265372751
1772480046174798800,9.936798828125,1.4121142845898866,-0.9469657933026552,-0.3997477983549237
1772480046184796700,9.946796630859374,1.1553387868866323,-0.8307926522493362,-0.5562020963922143
1772480046194794800,9.956794677734376,0.8304144665867089,-0.6239736101090908,-0.699567488014698
1772480046204791800,9.966791748046875,0.5042626503184438,-0.4463315626144409,-0.8327759350210427
1772480046214789600,9.97678955078125,0.3321194925010204,-0.33540859717428684,-0.8668792801529168
1772480046224787700,9.98678759765625,0.4067430640697479,-0.35899463994503017,-0.610750263659656
1772480046234785500,9.99678564453125,0.5217196888148784,-0.24664661013782022,-0.30807576909065243
1772480046244783600,10.00678369140625,0.6452218575820327,-0.16348784993588925,-0.2573290399327874
1772480046254781700,10.01678173828125,0.8226561075448989,-0.19417232653498648,-0.291897664488852
1772480046264778500,10.026778564453124,0.9758534496128558,-0.32011107479929923,-0.36781302943378685
1772480046274776600,10.036776611328126,1.0115595537662505,-0.4004384109675884,-0.42226095119714735
1772480046284774700,10.046774658203125,0.9686474637567997,-0.3681961835324764,-0.286684898276627
1772480046294772700,10.056772705078124,0.9016951574683189,-0.20973171471655366,0.020949264526367185
1772480046304770800,10.066770751953126,0.7662097054407,-0.055847559428215024,0.2649357155442238
1772480046314768600,10.0767685546875,0.6724430419847369,0.030334932509064674,0.19659955368191004
1772480046324765700,10.086765625,0.6172673904687166,0.10074059412181377,-0.15760346807241438
1772480046334763800,10.096763671875,0.6269996799319982,0.141402859377861,-0.5660165111809968
1772480046344761600,10.10676171875,0.6675503015071154,0.11841419797837734,-0.843044231057167
1772480046354759700,10.116759765625,0.6711211457312106,0.04074351379871368,-0.9001932284727692
1772480046364757800,10.1267578125,0.8592018773928284,0.08459317691922187,-0.8815671461969613
1772480046374755600,10.136755615234375,0.861298849672079,0.004741057047247886,-0.6965852573335171
1772480046384752600,10.146752685546875,0.8332587501019239,-0.046534956681728364,-0.5864741927981376
1772480046394750700,10.156750732421875,0.8496218558818102,0.01120762271285057,-0.5971083995372056
1772480046404748800,10.166748779296874,0.7740773700758814,0.34471067852675913,-0.6088038057669997
1772480046414747000,10.176746826171875,0.397305958160758,0.6601853256970643,-0.639085254523158
1772480046424744700,10.18674462890625,-0.24811083747148513,0.8568933081895113,-0.8117518516927957
1772480046434742800,10.19674267578125,-1.0037459574058651,1.2127975809037685,-0.8544789405241608
1772480046444740900,10.206740966796875,-1.7364155045554042,1.5841373231589793,-0.7890610041961074
1772480046454737700,10.216737548828124,-2.330416293466091,1.784963846886158,-0.6919999753698706
1772480046464735700,10.22673583984375,-2.7429069612771273,1.7369395284295082,-0.6057151921018957
1772480046474733600,10.236733642578125,-2.8754321021944285,1.542003816306591,-0.4575751334235072
1772480046484731600,10.246731689453124,-2.647413327898085,1.4442787706136702,-0.18721797735244033
1772480046494729700,10.256729736328126,-2.151381622569263,1.519746976312995,0.09135054222494363
1772480046504727600,10.2667275390625,-1.578885978502035,1.598397903701663,0.1461491771221161
1772480046514724600,10.276724609375,-1.0346107590079308,1.7014596342474222,0.112139063231647
1772480046524722700,10.28672265625,-0.5757563994288444,1.8112386903494595,0.05909428626447916
1772480046534720800,10.296720703125,-0.1698077006071806,1.7769447910815477,0.047236090688407416
1772480046544718800,10.30671875,0.1869543579801917,1.601324020281434,0.11678250512331724
1772480046554716700,10.316716552734375,0.536976294657588,1.313585521298647,0.3162932700768113
1772480046564714800,10.32671484375,0.8593009538531303,0.91849665466547,0.5773150270476937
1772480046574711600,10.336711669921876,0.967591232702136,0.4639940605551004,0.8909317713916302
1772480046584709600,10.346709716796875,0.9340729939818382,0.07727846999168396,1.2399664505973458
1772480046594707700,10.356707763671874,0.8716843423470855,-0.25168285073935986,1.4446981650695203
1772480046604705500,10.36670556640625,0.6338695657014847,-0.5155284329593182,1.500414207072556
1772480046614703600,10.37670361328125,0.3252928613513708,-0.73479369969666,1.6046926199316978
1772480046624701700,10.38670166015625,0.09161270029246807,-0.92198449678123,1.7197352956503629
1772480046634698800,10.39669873046875,-0.09648089085072278,-1.0799550446003674,1.8190891115888952
1772480046644696800,10.40669677734375,-0.36008448100835083,-1.0811597442150116,1.8473343783423304
1772480046654694700,10.416694580078126,-0.7580828053474425,-1.0224076955169439,1.7860183243751524
1772480046664692700,10.426692626953125,-1.2783005651667714,-0.966300608369708,1.7568737706944346
1772480046674690800,10.43669091796875,-1.7029074949681757,-0.7660790647983551,1.8016636372745036
1772480046684688600,10.446688720703126,-1.9465490780711172,-0.6208651226997375,1.8700035985291004
1772480046694685700,10.456685791015625,-2.016649326996505,-0.508324200668931,1.9855235363706945
1772480046704683800,10.466683837890624,-1.9267843471541999,-0.36218963659405706,2.0574477858528493
1772480046714681600,10.476681640625,-1.7016168706357477,-0.14540683432221413,2.0617717865318057
1772480046724679700,10.4866796875,-1.2864292188256978,-0.04660802191793918,1.930808780364692
1772480046734677500,10.496677490234376,-0.6467267091870308,-0.058061728346347805,1.6869418640732765
1772480046744675600,10.506675537109375,-0.06028758770227432,-0.09577800327837467,1.4083970176324248
1772480046754673700,10.516673583984375,0.35096360144168137,-0.17747428971230983,1.0861442546293139
1772480046764670700,10.526670654296876,0.6621236002832651,-0.37954409149885177,0.8471586806386708
1772480046774668800,10.536668701171875,0.870036282879114,-0.5283727169632911,0.6196735748276114
1772480046784667000,10.5466669921875,1.0114286208629608,-0.5721025530964136,0.4524018224388361
1772480046794664700,10.556664794921875,0.9846873289316892,-0.689218527957797,0.4030982778266072
1772480046804662800,10.566662841796875,0.9213117120862007,-0.7010451593518257,0.45325288631021976
1772480046814660600,10.57666064453125,0.7512520825445651,-0.5914022968500853,0.5216475003615021
1772480046824657700,10.58665771484375,0.4196440466970205,-0.5111807591438293,0.5215346876367927
1772480046834655700,10.59665576171875,0.09918518137335777,-0.4856465049147606,0.4603896063223481
1772480046844653600,10.606653564453126,-0.12598024931848048,-0.5352858573526144,0.2521475456416607
1772480046854651600,10.616651611328125,-0.2549547120168805,-0.5756202058285474,0.021551322072744367
1772480046864649700,10.626649658203124,-0.3822594879373908,-0.613581395432353,-0.1764142592653632
1772480046874647600,10.6366474609375,-0.49964755773842334,-0.6252537130475044,-0.2640253227010369
1772480046884644900,10.646644775390625,-0.6646206777960062,-0.6002741700917482,-0.3311228826791048
1772480046894642700,10.656642578125,-0.7388280697792768,-0.3952724065065384,-0.39496991642862556
1772480046904640800,10.666640869140625,-0.7178571779429912,-0.4542331295192241,-0.15824994928240776
1772480046914638800,10.676638916015625,-0.7182610825687646,-0.3873620717734098,0.009200666804611683
1772480046924636700,10.68663671875,-0.7624372011646628,-0.6354331617563963,0.2975046907156706
1772480046934634800,10.696634765625,-0.5717839886665343,-0.2261702238202095,0.6959864146575331
1772480046944631600,10.706631591796874,-0.2175298212468624,0.10859306118786334,0.8363368423730134
1772480046954629600,10.716629638671876,0.017946575579047202,-0.2524859838157892,0.5657859172955155
1772480046964627700,10.726627685546875,0.45407121695578095,-0.2878384522259235,0.28745851299762726
1772480046974625500,10.73662548828125,0.8147782137766479,-0.3530687570273876,0.022618951304256913
1772480046984623600,10.74662353515625,0.7491366978257894,-0.3164519677698612,-0.3120557786375284
1772480046994621700,10.75662158203125,0.686169369520247,-0.2733919937223196,-0.8212471175298094
1772480047004619500,10.76661962890625,0.7018944696575403,-0.3044879737317562,-1.2660863957598805
1772480047014616800,10.776616943359375,0.5277601380228996,-0.3240191881537437,-1.270473086411506
1772480047024614700,10.78661474609375,0.2533838094383478,-0.34383448021411894,-1.0950919695861636
1772480047034612700,10.79661279296875,0.12553718172609804,-0.22981939397752282,-0.8739033335708081
1772480047044610800,10.80661083984375,-0.09295651611685753,-0.11185527785420417,-0.554939090719074
