time,seconds_elapsed,z,y,x
1772480036306914000,0.0689140625,-0.0257546529173851,-0.4067762792110443,0.34513455629348755
1772480036316911900,0.078911865234375,0.016697732731699944,-0.4593193829059601,0.4273516833782196
1772480036326910000,0.088909912109375,0.0829022005200386,-0.5369580984115601,0.45422711968421936
1772480036336908000,0.098907958984375,0.14612510800361633,-0.6092573404312134,0.4331101179122925
1772480036346905900,0.10890576171875,0.18789945542812347,-0.7007341980934143,0.4316257834434509
1772480036356904000,0.118904052734375,0.22478529810905457,-0.7849414944648743,0.4477272629737854
1772480036366902000,0.128902099609375,0.2465880811214447,-0.8539280295372009,0.4478359520435333
1772480036376899800,0.13889990234375,0.25516051054000854,-0.9034774303436279,0.42622414231300354
1772480036386897200,0.148897216796875,0.26146554946899414,-0.9859094619750977,0.38750341534614563
1772480036396895000,0.15889501953125,0.26063013076782227,-1.067983865737915,0.3540610373020172
1772480036406893000,0.16889306640625,0.2810797095298767,-1.1165804862976074,0.32774168252944946
1772480036416891100,0.17889111328125,0.3045589327812195,-1.1309714317321777,0.3177335262298584
1772480036426889000,0.188888916015625,0.32949596643447876,-1.1837366819381714,0.3093954622745514
1772480036436887000,0.198886962890625,0.3445974290370941,-1.2785383462905884,0.2923610806465149
1772480036446885000,0.208885009765625,0.3696773052215576,-1.347625732421875,0.29208531975746155
1772480036456882000,0.2188818359375,0.41273102164268494,-1.3497037887573242,0.2929614782333374
1772480036466880000,0.2288798828125,0.465643972158432,-1.360274314880371,0.2771845757961273
1772480036476877800,0.2388779296875,0.5014914274215698,-1.4013304710388184,0.28262725472450256
1772480036486876000,0.2488759765625,0.5320375561714172,-1.4171040058135986,0.2932899594306946
1772480036496874000,0.2588740234375,0.5775403380393982,-1.4235161542892456,0.31323355436325073
1772480036506872000,0.2688720703125,0.6055150032043457,-1.4538027048110962,0.3637395203113556
1772480036516870100,0.2788701171875,0.6225659251213074,-1.501209020614624,0.4284104108810425
1772480036526868200,0.2888681640625,0.6297308206558228,-1.5441855192184448,0.47957971692085266
1772480036536866000,0.298865966796875,0.6099555492401123,-1.5676780939102173,0.526607096195221
1772480036546863000,0.308863037109375,0.6121351718902588,-1.6547785997390747,0.5713472962379456
1772480036556861000,0.31886083984375,0.6345877647399902,-1.7168856859207153,0.6153059601783752
1772480036566859000,0.32885888671875,0.5782209038734436,-1.7142646312713623,0.5358368158340454
1772480036576857000,0.338857177734375,0.5803154706954956,-1.7189030647277832,0.4452206790447235
1772480036586855000,0.34885498046875,0.5613698959350586,-1.78958261013031,0.3620437681674957
1772480036596853000,0.35885302734375,0.5454788208007812,-1.8319889307022095,0.2884262800216675
1772480036606851000,0.36885107421875,0.5384809374809265,-1.8394731283187866,0.24476586282253265
1772480036616849000,0.378848876953125,0.5166224837303162,-1.8603986501693726,0.24618373811244965
1772480036626846000,0.388845947265625,0.48703059554100037,-1.9121630191802979,0.27629899978637695
1772480036636844000,0.398843994140625,0.4677692651748657,-1.9807218313217163,0.32208698987960815
1772480036646842000,0.408842041015625,0.45540276169776917,-2.086618185043335,0.3652920424938202
1772480036656840200,0.418840087890625,0.4443639814853668,-2.2188923358917236,0.3958587646484375
1772480036666838000,0.428838134765625,0.42985549569129944,-2.356731653213501,0.412384569644928
1772480036676836000,0.438836181640625,0.4059416651725769,-2.4818615913391113,0.4264713525772095
1772480036686834200,0.448834228515625,0.38555535674095154,-2.5764973163604736,0.4428194761276245
1772480036696831000,0.4588310546875,0.3677172362804413,-2.640115976333618,0.46553704142570496
1772480036706829000,0.4688291015625,0.3642447888851166,-2.6593284606933594,0.47845327854156494
1772480036716827000,0.478826904296875,0.36367568373680115,-2.64414119720459,0.48158010840415955
1772480036726825000,0.488824951171875,0.36379939317703247,-2.5543084144592285,0.4629251956939697
1772480036736823000,0.498822998046875,0.40435799956321716,-2.3224289417266846,0.41732150316238403
1772480036746820900,0.50882080078125,0.4597446322441101,-2.0523369312286377,0.3780807852745056
1772480036756819000,0.51881884765625,0.4911603629589081,-1.9033474922180176,0.36608457565307617
1772480036766817000,0.528817138671875,0.5040132403373718,-1.8446329832077026,0.3620213270187378
1772480036776814000,0.53881396484375,0.5277047753334045,-1.7795906066894531,0.36715003848075867
1772480036786812200,0.548812255859375,0.5643700361251831,-1.7625298500061035,0.3765319585800171
1772480036796810000,0.55881005859375,0.6001040935516357,-1.7574983835220337,0.4022671580314636
1772480036806808000,0.56880810546875,0.6211498379707336,-1.6662758588790894,0.4115395247936249
1772480036816806100,0.57880615234375,0.687838613986969,-1.6701570749282837,0.40370798110961914
1772480036826804000,0.588803955078125,0.6594574451446533,-1.7942291498184204,0.46366819739341736
1772480036836802000,0.598802001953125,0.6669885516166687,-1.906630039215088,0.5420583486557007
1772480036846800100,0.608800048828125,0.6761088967323303,-1.9298735857009888,0.6297590732574463
1772480036856797000,0.618796875,0.6812546253204346,-1.9465924501419067,0.7128294706344604
1772480036866795000,0.628794921875,0.6621146202087402,-1.950610637664795,0.77671217918396
1772480036876792800,0.638792724609375,0.6452469825744629,-2.0148894786834717,0.8143844604492188
1772480036886791000,0.648791015625,0.6467170119285583,-2.1017651557922363,0.8709568977355957
1772480036896789000,0.6587890625,0.6471185684204102,-2.1189677715301514,0.9060794711112976
1772480036906786800,0.668786865234375,0.6618372201919556,-2.1246097087860107,0.9375604391098022
1772480036916785000,0.678784912109375,0.6810322403907776,-2.1231272220611572,0.9313456416130066
1772480036926783000,0.688782958984375,0.6976104378700256,-2.1038661003112793,0.883543074131012
1772480036936780000,0.698780029296875,0.7092700004577637,-2.063283681869507,0.8233508467674255
1772480036946778000,0.708778076171875,0.703606903553009,-2.0285537242889404,0.8009921312332153
1772480036956776000,0.71877587890625,0.7183097004890442,-1.9707543849945068,0.7817683815956116
1772480036966774000,0.72877392578125,0.7388297915458679,-1.8971173763275146,0.7862508893013
1772480036976772000,0.738772216796875,0.7651639580726624,-1.8595126867294312,0.8257538676261902
1772480036986770000,0.74877001953125,0.7789261341094971,-1.8744035959243774,0.8561070561408997
1772480036996768000,0.75876806640625,0.8176809549331665,-1.8923133611679077,0.8255345225334167
1772480037006766000,0.76876611328125,0.8652498126029968,-1.898935079574585,0.7533084154129028
1772480037016763000,0.778762939453125,0.9030922651290894,-1.9016501903533936,0.6907529234886169
1772480037026761000,0.788760986328125,0.9495836496353149,-1.903465986251831,0.6712377667427063
1772480037036758800,0.7987587890625,0.9850239753723145,-1.8821966648101807,0.699052095413208
1772480037046756900,0.8087568359375,0.9880205392837524,-1.7954457998275757,0.7679229378700256
1772480037056755000,0.8187548828125,0.9798923134803772,-1.7435137033462524,0.7851887345314026
1772480037066753000,0.8287529296875,0.982361912727356,-1.7485299110412598,0.6616778373718262
1772480037076751000,0.838751220703125,0.973389208316803,-1.7642945051193237,0.48034533858299255
1772480037086749200,0.848749267578125,0.9307934641838074,-1.8573908805847168,0.31018975377082825
1772480037096746000,0.85874609375,0.8775911927223206,-1.9309351444244385,0.18507152795791626
1772480037106744000,0.868744140625,0.8275452852249146,-1.955401062965393,0.12347772717475891
1772480037116742000,0.878741943359375,0.7346891164779663,-1.9810960292816162,0.15046779811382294
1772480037126739700,0.88873974609375,0.6247944235801697,-1.9645495414733887,0.21443426609039307
1772480037136737800,0.89873779296875,0.5643758177757263,-1.9089350700378418,0.26326093077659607
1772480037146735900,0.90873583984375,0.5137842893600464,-1.8715503215789795,0.3222084641456604
1772480037156733700,0.918733642578125,0.4775892496109009,-1.8428846597671509,0.39999860525131226
1772480037166731800,0.928731689453125,0.4576084315776825,-1.8029038906097412,0.48306959867477417
1772480037176728800,0.938728759765625,0.43474945425987244,-1.7699522972106934,0.5405669808387756
1772480037186727000,0.948726806640625,0.43394261598587036,-1.7188912630081177,0.5825892090797424
1772480037196725000,0.95872509765625,0.44224876165390015,-1.6810948848724365,0.5928179025650024
1772480037206722800,0.968722900390625,0.44161996245384216,-1.669601321220398,0.5960591435432434
1772480037216721000,0.978720947265625,0.4660283625125885,-1.595850944519043,0.5587442517280579
1772480037226719000,0.988718994140625,0.5256482362747192,-1.5025180578231812,0.4646994173526764
1772480037236716800,0.998716796875,0.5922802686691284,-1.460814118385315,0.36126890778541565
1772480037246715000,1.00871484375,0.6347361207008362,-1.4530034065246582,0.27178236842155457
1772480037256711700,1.018711669921875,0.657618522644043,-1.4508966207504272,0.1924412101507187
1772480037266709800,1.028709716796875,0.6717961430549622,-1.4178228378295898,0.13332436978816986
1772480037276707800,1.038707763671875,0.6882475018501282,-1.394815444946289,0.11508677154779434
1772480037286705700,1.04870556640625,0.693600058555603,-1.4098812341690063,0.12548771500587463
1772480037296703700,1.058703857421875,0.6896990537643433,-1.4404330253601074,0.15269696712493896
1772480037306701800,1.068701904296875,0.6805967688560486,-1.4438000917434692,0.18310999870300293
1772480037316699600,1.07869970703125,0.6653216481208801,-1.4306942224502563,0.22140279412269592
1772480037326697700,1.08869775390625,0.6459617018699646,-1.4196263551712036,0.2637230455875397
1772480037336694800,1.09869482421875,0.6249927878379822,-1.432755708694458,0.28778254985809326
1772480037346692900,1.10869287109375,0.6086521744728088,-1.480944275856018,0.30305761098861694
1772480037356691000,1.11869091796875,0.5966359972953796,-1.5350368022918701,0.31470948457717896
1772480037366688800,1.128688720703125,0.5853843092918396,-1.5654083490371704,0.3271915018558502
1772480037376686800,1.138686767578125,0.5596848130226135,-1.5725120306015015,0.35018977522850037
1772480037386685000,1.148684814453125,0.5092308521270752,-1.5746351480484009,0.34433698654174805
1772480037396682800,1.158682861328125,0.47279858589172363,-1.5943180322647095,0.2837042510509491
1772480037406679800,1.1686796875,0.43635356426239014,-1.627549648284912,0.22831250727176666
1772480037416677600,1.178677734375,0.3955478072166443,-1.6342071294784546,0.20322126150131226
1772480037426675700,1.18867578125,0.359718382358551,-1.6141761541366577,0.194809228181839
1772480037436673800,1.198673828125,0.3398485481739044,-1.6123462915420532,0.19613762199878693
1772480037446671600,1.208671630859375,0.30609366297721863,-1.6053520441055298,0.2544892132282257
1772480037456669700,1.218669677734375,0.2871021330356598,-1.4917420148849487,0.3538972735404968
1772480037466667800,1.228667724609375,0.2705886960029602,-1.2510766983032227,0.46379855275154114
1772480037476665900,1.238665771484375,0.234596848487854,-0.9670153856277466,0.5932691693305969
1772480037486663000,1.248662841796875,0.19167080521583557,-0.7991677522659302,0.6899794340133667
1772480037496660700,1.25866064453125,0.15806303918361664,-0.8096158504486084,0.7034691572189331
1772480037506658800,1.268658935546875,0.12900768220424652,-0.9449806213378906,0.6206521391868591
1772480037516657000,1.278656982421875,0.10265357792377472,-1.1410359144210815,0.442143976688385
1772480037526654700,1.28865478515625,0.10442324727773666,-1.2532457113265991,0.20010022819042206
1772480037536652800,1.29865283203125,0.10730158537626266,-1.2648289203643799,-0.014017915353178978
1772480037546651000,1.30865087890625,0.12907031178474426,-1.2219910621643066,-0.11293720453977585
1772480037556648700,1.318648681640625,0.1763629913330078,-1.1335312128067017,-0.09460879862308502
1772480037566645800,1.328645751953125,0.21229572594165802,-1.0259255170822144,0.0017071515321731567
1772480037576643600,1.3386435546875,0.2391129583120346,-0.9422783255577087,0.126535102725029
1772480037586641700,1.3486416015625,0.2539154589176178,-0.9062265157699585,0.221781924366951
1772480037596639700,1.3586396484375,0.26666346192359924,-0.9094651937484741,0.275490939617157
1772480037606637800,1.368637939453125,0.2794885039329529,-0.9313501119613647,0.3046357333660126
1772480037616636000,1.378635986328125,0.28824418783187866,-0.9329168200492859,0.3299221694469452
1772480037626634000,1.388634033203125,0.30284205079078674,-0.9260584115982056,0.32501548528671265
1772480037636631800,1.3986318359375,0.3071606159210205,-0.9307165145874023,0.2886161804199219
1772480037646628900,1.40862890625,0.31208446621894836,-0.9320957660675049,0.23637016117572784
1772480037656626700,1.418626708984375,0.3025719225406647,-0.9360380172729492,0.17887011170387268
1772480037666624800,1.428624755859375,0.3003227114677429,-0.9352984428405762,0.12751391530036926
1772480037676622800,1.438622802734375,0.288921982049942,-0.9275265336036682,0.08971966058015823
1772480037686620700,1.44862060546875,0.275298535823822,-0.9197112917900085,0.06240704655647278
1772480037696618800,1.45861865234375,0.2666059732437134,-0.9417654275894165,0.03895658627152443
1772480037706616800,1.468616943359375,0.2561401426792145,-0.976700484752655,0.008255265653133392
1772480037716614700,1.47861474609375,0.2407505363225937,-0.9800605773925781,-0.0032314802519977093
1772480037726612000,1.488612060546875,0.22560301423072815,-0.9452256560325623,0.02997683733701706
1772480037736609800,1.49860986328125,0.2338939607143402,-0.9183370471000671,0.0913643017411232
1772480037746607900,1.50860791015625,0.24812883138656616,-0.9154408574104309,0.16019318997859955
1772480037756606000,1.51860595703125,0.2500164806842804,-0.948008120059967,0.21500398218631744
1772480037766603800,1.528603759765625,0.2620849907398224,-0.98154217004776,0.22750332951545715
1772480037776601900,1.538601806640625,0.27059194445610046,-1.0395770072937012,0.20283100008964539
1772480037786600000,1.548599853515625,0.28999409079551697,-1.120619773864746,0.14817053079605103
1772480037796597800,1.55859765625,0.3078697621822357,-1.176828145980835,0.05620118975639343
1772480037806594800,1.5685947265625,0.3354320824146271,-1.2489629983901978,0.03593149781227112
1772480037816592600,1.578592529296875,0.3245354890823364,-1.1437865495681763,0.0035599786788225174
1772480037826590700,1.5885908203125,0.3117457330226898,-0.9697945713996887,0.012041214853525162
1772480037836588800,1.5985888671875,0.28890031576156616,-0.9100324511528015,0.03254542499780655
1772480037846586600,1.608586669921875,0.250372052192688,-0.8599393963813782,-0.008923289366066456
1772480037856584700,1.618584716796875,0.23007050156593323,-0.7891006469726562,-0.07450789213180542
1772480037866582800,1.628582763671875,0.22253599762916565,-0.7548624277114868,-0.12080042064189911
1772480037876579800,1.638579833984375,0.23129487037658691,-0.7425631284713745,-0.13534633815288544
1772480037886578000,1.648577880859375,0.24498294293880463,-0.7204057574272156,-0.15109361708164215
1772480037896575700,1.65857568359375,0.24507614970207214,-0.7030361294746399,-0.17821365594863892
1772480037906573800,1.66857373046875,0.23658105731010437,-0.6923878788948059,-0.16625528037548065
1772480037916572000,1.678572021484375,0.21870937943458557,-0.6636073589324951,-0.12206172943115234
1772480037926569700,1.68856982421875,0.19577990472316742,-0.646481990814209,-0.09264381974935532
1772480037936567800,1.69856787109375,0.17261892557144165,-0.6436137557029724,-0.06368540227413177
1772480037946566000,1.70856591796875,0.1479545533657074,-0.6426625847816467,-0.024294089525938034
1772480037956562700,1.718562744140625,0.12274320423603058,-0.6527450680732727,0.010010088793933392
1772480037966560800,1.728560791015625,0.11365646123886108,-0.6777650713920593,0.048373155295848846
1772480037976558600,1.73855859375,0.10281446576118469,-0.6881228685379028,0.1112503930926323
1772480037986556700,1.748556640625,0.10250607877969742,-0.669212818145752,0.15424466133117676
1772480037996554800,1.7585546875,0.11101914197206497,-0.6730589270591736,0.15554961562156677
1772480038006552600,1.768552490234375,0.107292540371418,-0.7002723217010498,0.13960020244121552
1772480038016550700,1.778550537109375,0.088773712515831,-0.7096245288848877,0.14044655859470367
1772480038026548700,1.788548828125,0.06871234625577927,-0.6862236857414246,0.14264889061450958
1772480038036545800,1.7985458984375,0.04905875399708748,-0.6608996987342834,0.14163103699684143
1772480038046544000,1.8085439453125,0.02266777865588665,-0.661945104598999,0.1402517855167389
1772480038056541700,1.818541748046875,-0.01210777834057808,-0.6787970662117004,0.1250094473361969
1772480038066539800,1.828539794921875,-0.037051208317279816,-0.7001023292541504,0.12061150372028351
1772480038076537900,1.838537841796875,-0.05953920632600784,-0.7158157825469971,0.12536923587322235
1772480038086535700,1.84853564453125,-0.06871148198843002,-0.7409898042678833,0.12244248390197754
1772480038096533800,1.85853369140625,-0.07007662206888199,-0.7534105181694031,0.10292099416255951
1772480038106530800,1.86853076171875,-0.051484934985637665,-0.7121803760528564,0.050888512283563614
1772480038116528600,1.878528564453125,-0.041911400854587555,-0.5971685647964478,-0.03664533048868179
1772480038126526700,1.888526611328125,-0.049493540078401566,-0.4444701373577118,-0.09417806565761566
1772480038136524800,1.89852490234375,-0.06434758007526398,-0.27623477578163147,-0.07586829364299774
1772480038146523000,1.90852294921875,-0.07987053692340851,-0.09967230260372162,-0.020873624831438065
1772480038156521000,1.91852099609375,-0.06265240907669067,0.04599035158753395,0.03957134485244751
1772480038166518800,1.928518798828125,-0.03274080902338028,0.14337320625782013,0.12520641088485718
1772480038176516900,1.938516845703125,-0.004216489382088184,0.16582553088665009,0.21556933224201202
1772480038186513700,1.948513671875,0.040079452097415924,0.08280953764915466,0.31491023302078247
1772480038196511700,1.95851171875,0.06659681349992752,-0.12618708610534668,0.4039333164691925
1772480038206509800,1.968509765625,0.08895035833120346,-0.4649919271469116,0.43913349509239197
1772480038216507600,1.978507568359375,0.08464854955673218,-0.740441083908081,0.4399694502353668
1772480038226505700,1.988505615234375,0.06702481955289841,-0.9069752097129822,0.3867826759815216
1772480038236503800,1.99850390625,0.020204849541187286,-0.9586127996444702,0.29448044300079346
1772480038246501600,2.008501708984375,-0.06219099462032318,-0.921238899230957,0.1960727423429489
1772480038256498700,2.018498779296875,-0.16480685770511627,-0.8572617769241333,0.09132981300354004
1772480038266496800,2.028496826171875,-0.24352918565273285,-0.7608217597007751,0.015491139143705368
1772480038276494800,2.038494873046875,-0.2869828939437866,-0.6386364698410034,-0.016777051612734795
1772480038286493000,2.048492919921875,-0.2796705365180969,-0.5271433591842651,-0.014235762879252434
1772480038296490800,2.05849072265625,-0.21927374601364136,-0.4331901967525482,-0.011435981839895248
1772480038306488800,2.06848876953125,-0.15126928687095642,-0.35565805435180664,-0.0019746352918446064
1772480038316487000,2.07848681640625,-0.06929265707731247,-0.3020968437194824,0.028923889622092247
1772480038326484700,2.088484619140625,0.014591666869819164,-0.2882699966430664,0.06995324790477753
1772480038336481800,2.098481689453125,0.08227057754993439,-0.315873384475708,0.10588967800140381
1772480038346479600,2.108479736328125,0.1473928838968277,-0.331930547952652,0.15949112176895142
1772480038356477700,2.118477783203125,0.22066630423069,-0.3333081901073456,0.22041359543800354
1772480038366475800,2.128475830078125,0.27815768122673035,-0.32528775930404663,0.28256916999816895
1772480038376473600,2.1384736328125,0.33949053287506104,-0.3293176591396332,0.35313311219215393
1772480038386471700,2.1484716796875,0.3837757110595703,-0.3401431441307068,0.39979273080825806
1772480038396469800,2.1584697265625,0.4170580506324768,-0.37233006954193115,0.455837607383728
1772480038406466800,2.168466796875,0.4373461604118347,-0.4345325529575348,0.514123797416687
1772480038416465000,2.17846484375,0.4421968460083008,-0.5157626867294312,0.568135142326355
1772480038426462700,2.188462646484375,0.43592584133148193,-0.5958805084228516,0.5795493721961975
1772480038436460800,2.198460693359375,0.4332512319087982,-0.6612321138381958,0.5502508878707886
1772480038446459000,2.208458984375,0.42904797196388245,-0.7081900238990784,0.500769853591919
1772480038456456700,2.218456787109375,0.4322623908519745,-0.7446897029876709,0.451387882232666
1772480038466454800,2.228454833984375,0.4435431659221649,-0.7586327791213989,0.4111803472042084
1772480038476452900,2.238452880859375,0.4594603478908539,-0.7403837442398071,0.39384475350379944
1772480038486449700,2.24844970703125,0.47149285674095154,-0.6985721588134766,0.37823665142059326
1772480038496447700,2.25844775390625,0.4770705997943878,-0.6307870149612427,0.36725884675979614
1772480038506445600,2.268445556640625,0.4697047770023346,-0.5571605563163757,0.3494235873222351
1772480038516443600,2.278443603515625,0.47180309891700745,-0.48241254687309265,0.3061133921146393
1772480038526441700,2.288441650390625,0.47730734944343567,-0.3993609547615051,0.23531095683574677
1772480038536439600,2.298439453125,0.4732028841972351,-0.32919198274612427,0.16760966181755066
1772480038546437600,2.308437744140625,0.4616667628288269,-0.2719060182571411,0.11833646148443222
1772480038556435700,2.318435791015625,0.455605685710907,-0.24203521013259888,0.0787765383720398
1772480038566432800,2.328432861328125,0.4486512541770935,-0.23616604506969452,0.034464530646800995
1772480038576430800,2.338430908203125,0.43137025833129883,-0.24587087333202362,0.006899217143654823
1772480038586428700,2.3484287109375,0.41390880942344666,-0.2601615786552429,0.006633633282035589
1772480038596426800,2.3584267578125,0.389412522315979,-0.2787834703922272,0.05036220699548721
1772480038606424800,2.3684248046875,0.36092856526374817,-0.3084232211112976,0.10536763072013855
1772480038616422700,2.378422607421875,0.33208680152893066,-0.35582640767097473,0.1567184329032898
1772480038626420700,2.388420654296875,0.2962162494659424,-0.41164788603782654,0.19473819434642792
1772480038636417800,2.398417724609375,0.24582895636558533,-0.4861500859260559,0.21122902631759644
1772480038646415600,2.40841552734375,0.2109474539756775,-0.5299736261367798,0.18422546982765198
1772480038656413700,2.41841357421875,0.17664407193660736,-0.5238901376724243,0.14400480687618256
1772480038666411500,2.42841162109375,0.13837988674640656,-0.5082006454467773,0.10741770267486572
1772480038676409600,2.43840966796875,0.10783582180738449,-0.47263917326927185,0.06029599532485008
1772480038686407700,2.44840771484375,0.08629986643791199,-0.40585437417030334,0.013256514444947243
1772480038696405800,2.45840576171875,0.07961586117744446,-0.3664470613002777,-0.03607854247093201
1772480038706403800,2.46840380859375,0.067848801612854,-0.3906697630882263,-0.08362052589654922
1772480038716401000,2.47840087890625,0.05181843787431717,-0.4032662510871887,-0.10183708369731903
1772480038726398700,2.488398681640625,0.02759489044547081,-0.38917988538742065,-0.11100075393915176
1772480038736396800,2.498396728515625,0.003926846198737621,-0.40875890851020813,-0.12236420065164566
1772480038746394600,2.50839453125,-0.032751765102148056,-0.4485274851322174,-0.12616492807865143
1772480038756392700,2.518392822265625,-0.07316630333662033,-0.48764026165008545,-0.15268628299236298
1772480038766390800,2.528390869140625,-0.13493946194648743,-0.5387998223304749,-0.19493217766284943
1772480038776388600,2.538388671875,-0.21436184644699097,-0.6216356158256531,-0.24145200848579407
1772480038786385700,2.5483857421875,-0.260503888130188,-0.6695387363433838,-0.31262704730033875
1772480038796383700,2.5583837890625,-0.2720012664794922,-0.6846018433570862,-0.402492493391037
1772480038806381800,2.5683818359375,-0.3033527135848999,-0.6199692487716675,-0.43672144412994385
1772480038816380000,2.5783798828125,-0.32718372344970703,-0.4635908305644989,-0.4056466221809387
1772480038826377700,2.588377685546875,-0.33437496423721313,-0.26114124059677124,-0.29988279938697815
1772480038836375800,2.598375732421875,-0.3139970004558563,-0.06360793113708496,-0.13170979917049408
1772480038846374000,2.608373779296875,-0.31056979298591614,0.0691811591386795,0.027842015027999878
1772480038856371700,2.618371826171875,-0.27876606583595276,0.18105283379554749,0.15511128306388855
1772480038866368800,2.62836865234375,-0.26003599166870117,0.3182431161403656,0.26070907711982727
1772480038876366800,2.638366943359375,-0.25972890853881836,0.41403064131736755,0.3318791389465332
1772480038886364700,2.64836474609375,-0.2755962908267975,0.4326711595058441,0.3687479496002197
1772480038896362800,2.65836279296875,-0.30399730801582336,0.3267364799976349,0.3548979163169861
1772480038906360800,2.66836083984375,-0.3681640028953552,0.14227205514907837,0.30076688528060913
1772480038916358700,2.678358642578125,-0.4480212330818176,-0.058231744915246964,0.23690588772296906
1772480038926356700,2.688356689453125,-0.5103797316551208,-0.1769947111606598,0.21698810160160065
1772480038936353800,2.698353759765625,-0.5155830383300781,-0.24903109669685364,0.23596206307411194
1772480038946351900,2.708351806640625,-0.5086939930915833,-0.26599690318107605,0.2669755816459656
1772480038956350000,2.718349853515625,-0.4466191530227661,-0.2665942311286926,0.3079320788383484
1772480038966347800,2.72834765625,-0.3676550090312958,-0.23163136839866638,0.329069584608078
1772480038976345900,2.738345947265625,-0.26277732849121094,-0.15474164485931396,0.3095256984233856
1772480038986344000,2.748343994140625,-0.16507020592689514,-0.04213201254606247,0.2876265048980713
1772480038996341800,2.758341796875,-0.08113908022642136,0.06141222268342972,0.28389912843704224
1772480039006339800,2.76833984375,-0.014183827675879002,0.12225616723299026,0.27498114109039307
1772480039016336600,2.778336669921875,0.03856354206800461,0.14677509665489197,0.2564604580402374
1772480039026334700,2.788334716796875,0.06874305009841919,0.15866407752037048,0.20973847806453705
1772480039036332800,2.798332763671875,0.10848993062973022,0.14695975184440613,0.1293584257364273
1772480039046330600,2.80833056640625,0.13329651951789856,0.08395826816558838,0.04464040696620941
1772480039056328700,2.81832861328125,0.15064728260040283,0.012456389144062996,-0.013423430733382702
1772480039066326800,2.828326904296875,0.1518123596906662,-0.05103374272584915,-0.06668531894683838
1772480039076324600,2.83832470703125,0.14348119497299194,-0.10715746879577637,-0.10180096328258514
1772480039086322000,2.848322021484375,0.12280970811843872,-0.13049939274787903,-0.07917217910289764
1772480039096319700,2.85831982421875,0.11940086632966995,-0.1461406648159027,-0.005305950064212084
1772480039106317800,2.86831787109375,0.1268465667963028,-0.22329366207122803,0.0795251876115799
1772480039116316000,2.87831591796875,0.12926338613033295,-0.32243168354034424,0.1353658139705658
1772480039126313700,2.888313720703125,0.15054531395435333,-0.40278542041778564,0.15067856013774872
1772480039136311800,2.898311767578125,0.1705789566040039,-0.4604242146015167,0.11631232500076294
1772480039146309600,2.9083095703125,0.18539346754550934,-0.5394842624664307,0.0613868273794651
1772480039156307700,2.9183076171875,0.19585809111595154,-0.6091823577880859,0.023899372667074203
1772480039166304500,2.928304443359375,0.2264537811279297,-0.6346523761749268,0.011636415496468544
1772480039176302600,2.938302490234375,0.23715409636497498,-0.6384716629981995,0.01925492100417614
1772480039186300700,2.94830078125,0.20868326723575592,-0.5564549565315247,0.01591608114540577
1772480039196298500,2.958298583984375,0.20836980640888214,-0.5028558969497681,0.03840381279587746
1772480039206296600,2.968296630859375,0.18597082793712616,-0.4996987581253052,0.0635300725698471
1772480039216294700,2.978294677734375,0.1810636967420578,-0.504047155380249,0.0564146414399147
1772480039226292700,2.988292724609375,0.1997012197971344,-0.4580228626728058,0.06469430774450302
1772480039236289800,2.998289794921875,0.21936307847499847,-0.3933389484882355,0.10496822744607925
1772480039246287600,3.00828759765625,0.2353067696094513,-0.3305174708366394,0.13468876481056213
1772480039256285700,3.01828564453125,0.2711142897605896,-0.2955682873725891,0.15212927758693695
1772480039266283800,3.02828369140625,0.30598780512809753,-0.2489517331123352,0.21123304963111877
1772480039276281600,3.038281494140625,0.3487411141395569,-0.23493897914886475,0.30766984820365906
1772480039286279700,3.04827978515625,0.3372674882411957,-0.24280387163162231,0.37140682339668274
1772480039296277800,3.05827783203125,0.30239927768707275,-0.31505516171455383,0.4067528247833252
1772480039306274600,3.068274658203125,0.2744751274585724,-0.38763585686683655,0.4433527886867523
1772480039316272600,3.078272705078125,0.2227751910686493,-0.4306163489818573,0.43954604864120483
1772480039326270500,3.0882705078125,0.14743568003177643,-0.4755558669567108,0.39821377396583557
1772480039336268500,3.0982685546875,0.06251654028892517,-0.5087540149688721,0.3509029746055603
1772480039346266600,3.1082666015625,0.004118323791772127,-0.5059110522270203,0.29212722182273865
1772480039356264700,3.1182646484375,-0.027216428890824318,-0.46841317415237427,0.2127210944890976
1772480039366262800,3.1282626953125,-0.08041645586490631,-0.3955419063568115,0.12323591113090515
1772480039376260900,3.1382607421875,-0.11214029788970947,-0.3169429898262024,0.03772314265370369
1772480039386257700,3.148257568359375,-0.1328488439321518,-0.278053879737854,-0.00992523692548275
1772480039396255700,3.158255859375,-0.1596492975950241,-0.27695345878601074,-0.04158676043152809
1772480039406253600,3.168253662109375,-0.17948152124881744,-0.2923569679260254,-0.07430972158908844
1772480039416251600,3.178251708984375,-0.20099107921123505,-0.34855204820632935,-0.10592783242464066
1772480039426249700,3.188249755859375,-0.2288101464509964,-0.4312364459037781,-0.12417274713516235
1772480039436247600,3.19824755859375,-0.24500085413455963,-0.5126098394393921,-0.13954132795333862
1772480039446245600,3.20824560546875,-0.25030288100242615,-0.5683198571205139,-0.15482988953590393
1772480039456242700,3.21824267578125,-0.2421400249004364,-0.5282512903213501,-0.18158161640167236
1772480039466240800,3.22824072265625,-0.21132364869117737,-0.34489643573760986,-0.2532811164855957
1772480039476238800,3.23823876953125,-0.16486267745494843,-0.09282799065113068,-0.34808725118637085
1772480039486236700,3.248236572265625,-0.1383150964975357,0.10222413390874863,-0.3988572657108307
1772480039496234800,3.25823486328125,-0.11978642642498016,0.19077983498573303,-0.39189550280570984
1772480039506232800,3.26823291015625,-0.09896906465291977,0.20259030163288116,-0.32016924023628235
1772480039516230700,3.278230712890625,-0.07690104097127914,0.17183585464954376,-0.17170090973377228
1772480039526228700,3.288228759765625,-0.011574197560548782,0.13058893382549286,-0.004903579596430063
1772480039536225500,3.2982255859375,0.062129050493240356,0.04398266226053238,0.13656513392925262
1772480039546223600,3.3082236328125,0.10499867796897888,-0.0747159868478775,0.2562652826309204
1772480039556221700,3.3182216796875,0.12142505496740341,-0.1971268504858017,0.3485789895057678
1772480039566219500,3.328219482421875,0.11051686108112335,-0.3087899386882782,0.4161536991596222
1772480039576217600,3.338217529296875,0.08227323740720749,-0.4276342988014221,0.444931298494339
1772480039586215700,3.348215576171875,0.028513796627521515,-0.5689234137535095,0.44592562317848206
1772480039596213500,3.358213623046875,-0.05841018259525299,-0.6485825777053833,0.4167219400405884
1772480039606210800,3.3682109375,-0.13381534814834595,-0.6689096093177795,0.37334880232810974
1772480039616208600,3.378208740234375,-0.17341922223567963,-0.6613065600395203,0.30446135997772217
1772480039626206700,3.388206787109375,-0.1833917200565338,-0.6362549066543579,0.22300061583518982
1772480039636204800,3.398204833984375,-0.17079097032546997,-0.5736607313156128,0.14934584498405457
1772480039646202600,3.40820263671875,-0.14394110441207886,-0.4660608470439911,0.09310377389192581
1772480039656200700,3.41820068359375,-0.09565427154302597,-0.3134792745113373,0.047939497977495193
1772480039666198800,3.42819873046875,-0.02467941865324974,-0.18661482632160187,0.017363009974360466
1772480039676195600,3.438195556640625,0.0463406927883625,-0.09409873187541962,0.008070975542068481
1772480039686193700,3.448193603515625,0.12736622989177704,-0.002228967845439911,-0.0028711208142340183
1772480039696191500,3.45819140625,0.2179163545370102,0.10104522109031677,-0.0011619036085903645
1772480039706189600,3.468189453125,0.3084479868412018,0.21828033030033112,0.04084736108779907
1772480039716187600,3.478187744140625,0.3699936270713806,0.29060402512550354,0.13073623180389404
1772480039726185500,3.488185546875,0.4181625247001648,0.28199470043182373,0.268147736787796
1772480039736183600,3.49818359375,0.449861079454422,0.22504326701164246,0.40650826692581177
1772480039746181600,3.508181640625,0.456748902797699,0.11948457360267639,0.511366069316864
1772480039756178700,3.5181787109375,0.44719693064689636,-0.04539252445101738,0.5871689915657043
1772480039766176800,3.5281767578125,0.4379463493824005,-0.23100709915161133,0.6136793494224548
1772480039776174800,3.5381748046875,0.4291355609893799,-0.3835199475288391,0.5719814300537109
1772480039786172700,3.548172607421875,0.4135444760322571,-0.4896320700645447,0.4995571970939636
1772480039796170800,3.558170654296875,0.39443230628967285,-0.547661542892456,0.44460928440093994
1772480039806168600,3.56816845703125,0.3767523765563965,-0.5583518743515015,0.4099825918674469
1772480039816166700,3.578166748046875,0.3423778712749481,-0.5492808818817139,0.3685121238231659
1772480039826163700,3.588163818359375,0.30977001786231995,-0.522205650806427,0.32323354482650757
1772480039836161500,3.59816162109375,0.2926490604877472,-0.4673844873905182,0.273881196975708
1772480039846159600,3.60815966796875,0.2744481563568115,-0.38724756240844727,0.21628743410110474
1772480039856157700,3.61815771484375,0.27773743867874146,-0.30774953961372375,0.15831148624420166
1772480039866155500,3.628155517578125,0.2833748459815979,-0.253115713596344,0.09453216940164566
1772480039876153600,3.638153564453125,0.3038167655467987,-0.22118759155273438,0.02495654672384262
1772480039886151700,3.648151611328125,0.3422890901565552,-0.23440730571746826,-0.03901461139321327
1772480039896148700,3.658148681640625,0.3083186149597168,-0.1343454271554947,-0.1055598109960556
1772480039906146800,3.668146728515625,0.3090679347515106,-0.05562165379524231,-0.12968109548091888
1772480039916144600,3.67814453125,0.32272249460220337,-0.048139505088329315,-0.10325641930103302
1772480039926142700,3.688142822265625,0.28892427682876587,-0.010334707796573639,-0.08225419372320175
1772480039936140800,3.698140869140625,0.25805771350860596,0.04386088624596596,-0.05294664204120636
1772480039946138600,3.708138671875,0.2361426204442978,0.02246660552918911,0.019136710092425346
1772480039956136700,3.71813671875,0.22216342389583588,-0.05285824090242386,0.09592123329639435
1772480039966134500,3.728134521484375,0.2072145938873291,-0.1358310431241989,0.14016196131706238
1772480039976131600,3.738131591796875,0.1873822957277298,-0.1836148053407669,0.15612494945526123
1772480039986129700,3.748129638671875,0.1652688980102539,-0.19745029509067535,0.164377823472023
1772480039996127500,3.75812744140625,0.12424343824386597,-0.17681825160980225,0.17143386602401733
1772480040006125600,3.76812548828125,0.09328442066907883,-0.14531686902046204,0.15815219283103943
1772480040016123600,3.77812353515625,0.07078204303979874,-0.11021587997674942,0.11960399895906448
1772480040026121700,3.788121826171875,0.051998768001794815,-0.06756535917520523,0.07948130369186401
1772480040036119800,3.798119873046875,0.03702807426452637,-0.02627570927143097,0.051518917083740234
1772480040046116600,3.80811669921875,0.02153201773762703,-0.0004547964781522751,0.04592864215373993
1772480040056114700,3.81811474609375,0.016385724768042564,0.010530475527048111,0.05827346071600914
1772480040066112800,3.82811279296875,0.013683184050023556,0.004523558542132378,0.07478239387273788
1772480040076110600,3.838110595703125,0.021059075370430946,-0.030942291021347046,0.07415708154439926
1772480040086108700,3.848108642578125,0.023379258811473846,-0.08906354010105133,0.05303402245044708
1772480040096106800,3.858106689453125,0.014212657697498798,-0.16066154837608337,0.016035791486501694
1772480040106104600,3.8681044921875,0.009741061367094517,-0.24748770892620087,-0.02813856117427349
1772480040116101600,3.8781015625,0.007803878281265497,-0.3347613513469696,-0.07369033247232437
1772480040126099700,3.888099609375,0.008199007250368595,-0.41261860728263855,-0.10917828977108002
1772480040136097800,3.898097900390625,0.008177701383829117,-0.49311211705207825,-0.1440071016550064
1772480040146095900,3.908095947265625,0.008164464496076107,-0.5696240067481995,-0.17181487381458282
1772480040156094000,3.918093994140625,0.017446644604206085,-0.621888279914856,-0.19878895580768585
1772480040166092000,3.928092041015625,0.03219519928097725,-0.6590501070022583,-0.22276273369789124
1772480040176089900,3.93808984375,0.04271388426423073,-0.7159005999565125,-0.25941795110702515
1772480040186087000,3.9480869140625,0.05887269228696823,-0.7339254021644592,-0.30612993240356445
1772480040196085000,3.9580849609375,0.0913321003317833,-0.6565203666687012,-0.3452214002609253
1772480040206082800,3.968082763671875,0.08823134005069733,-0.48764917254447937,-0.3485719859600067
1772480040216081000,3.978080810546875,0.06149427220225334,-0.29521048069000244,-0.3249686658382416
1772480040226079000,3.988078857421875,0.04817971959710121,-0.09716342389583588,-0.2845343351364136
1772480040236075000,3.998074951171875,0.04107440635561943,0.06383824348449707,-0.20073451101779938
1772480040246071800,4.00807177734375,0.0072477348148822784,0.13164179027080536,-0.06355584412813187
1772480040256070000,4.01806982421875,-0.024377301335334778,0.10719317197799683,0.05702969431877136
1772480040266068000,4.02806787109375,-0.05506909638643265,-0.0247728880494833,0.1356433779001236
1772480040276065800,4.038065673828125,-0.07218949496746063,-0.23199798166751862,0.17750853300094604
1772480040286063900,4.04806396484375,-0.11214745044708252,-0.47224700450897217,0.24015668034553528
1772480040296062000,4.05806201171875,-0.141570582985878,-0.688951313495636,0.3358229994773865
1772480040306059800,4.068059814453125,-0.1621229648590088,-0.8572148084640503,0.43130508065223694
1772480040316057000,4.07805712890625,-0.20002800226211548,-0.9583309888839722,0.49241209030151367
1772480040326055000,4.088054931640625,-0.23551762104034424,-0.9785484075546265,0.5411881804466248
1772480040336053000,4.098052978515625,-0.22322234511375427,-0.9350674748420715,0.6090494990348816
1772480040346051000,4.108051025390625,-0.14549098908901215,-0.8376738429069519,0.6545917987823486
1772480040356049000,4.118048828125,-0.04235447943210602,-0.7148715257644653,0.6648327112197876
1772480040366047000,4.128046875,0.07698119431734085,-0.6007298231124878,0.6489729285240173
1772480040376045000,4.138045166015625,0.21574680507183075,-0.5060134530067444,0.5757298469543457
1772480040386041900,4.148041748046875,0.35021698474884033,-0.46209102869033813,0.4590775668621063
1772480040396040000,4.1580400390625,0.4471840262413025,-0.44169867038726807,0.3338213562965393
1772480040406037800,4.168037841796875,0.5367214679718018,-0.41401341557502747,0.2101319581270218
1772480040416035800,4.178035888671875,0.607307493686676,-0.41111910343170166,0.10429607331752777
1772480040426034000,4.188033935546875,0.6408683657646179,-0.4805948734283447,0.04774325340986252
1772480040436031700,4.19803173828125,0.6520355343818665,-0.624934732913971,0.030827919021248817
1772480040446029800,4.20802978515625,0.6177167296409607,-0.89272540807724,0.006065049674361944
1772480040456028000,4.21802783203125,0.6070259213447571,-0.9840189218521118,0.04296517372131348
1772480040466025000,4.22802490234375,0.5944864749908447,-1.0473483800888062,0.0823613852262497
1772480040476023000,4.23802294921875,0.574744701385498,-1.155218482017517,0.0998849868774414
1772480040486020900,4.248020751953125,0.5573708415031433,-1.2913823127746582,0.12408682703971863
1772480040496019000,4.25801904296875,0.547309398651123,-1.3992291688919067,0.17399899661540985
1772480040506017000,4.26801708984375,0.554979145526886,-1.4502532482147217,0.2508676052093506
1772480040516014800,4.278014892578125,0.5516811013221741,-1.4687755107879639,0.3409106731414795
1772480040526013000,4.288012939453125,0.545453667640686,-1.4894368648529053,0.42535704374313354
1772480040536009700,4.298009765625,0.5358783006668091,-1.5147573947906494,0.4638807475566864
1772480040546007800,4.3080078125,0.5321707129478455,-1.5104730129241943,0.4595617651939392
1772480040556006000,4.318005859375,0.5499704480171204,-1.4968700408935547,0.4095417261123657
1772480040566003700,4.328003662109375,0.5733545422554016,-1.5013543367385864,0.35052305459976196
1772480040576001800,4.338001708984375,0.589167058467865,-1.5408036708831787,0.29793840646743774
1772480040586000000,4.347999755859375,0.6034157276153564,-1.5747954845428467,0.24831300973892212
1772480040595997700,4.357997802734375,0.6391425728797913,-1.6412924528121948,0.1802961379289627
1772480040605995000,4.3679951171875,0.681207001209259,-1.714505672454834,0.09206138551235199
1772480040615992800,4.377992919921875,0.7401542067527771,-1.7507538795471191,0.015530388802289963
1772480040625991000,4.387990966796875,0.7997199296951294,-1.7517932653427124,-0.012446350418031216
1772480040635990000,4.397989990234375,0.8474067449569702,-1.7724732160568237,0.00553318252786994
1772480040645988000,4.407988037109375,0.8838719129562378,-1.795272946357727,0.06285080313682556
1772480040655985000,4.41798486328125,0.9258827567100525,-1.810739517211914,0.13261522352695465
1772480040665983000,4.42798291015625,0.9563208222389221,-1.8221675157546997,0.20793651044368744
1772480040675980800,4.437980712890625,0.9854675531387329,-1.8488577604293823,0.28178173303604126
1772480040685979000,4.447978759765625,0.9862817525863647,-1.863993525505066,0.37514379620552063
1772480040695977000,4.45797705078125,0.9947724342346191,-1.8835288286209106,0.4598464369773865
1772480040705974800,4.467974853515625,1.0102952718734741,-1.9128626585006714,0.5091807842254639
1772480040715972900,4.477972900390625,1.038710355758667,-1.9774893522262573,0.5187870264053345
1772480040725969700,4.4879697265625,1.0594418048858643,-2.0711710453033447,0.5096018314361572
1772480040735968000,4.497968017578125,1.1019439697265625,-2.1401543617248535,0.4923725128173828
1772480040745966000,4.507966064453125,1.143333077430725,-2.1862294673919678,0.49103444814682007
1772480040755964000,4.5179638671875,1.1587204933166504,-2.208033323287964,0.5237279534339905
1772480040765962000,4.5279619140625,1.1663252115249634,-2.2689714431762695,0.5732026100158691
1772480040775960000,4.5379599609375,1.1594321727752686,-2.365814208984375,0.6254620552062988
1772480040785958000,4.5479580078125,1.1443650722503662,-2.4670164585113525,0.669460117816925
1772480040795955000,4.557954833984375,1.1143238544464111,-2.595067024230957,0.7120421528816223
1772480040805952800,4.567952880859375,1.058956265449524,-2.708038568496704,0.7701376080513
1772480040815950800,4.577950927734375,1.030556321144104,-2.743994951248169,0.8035029768943787
1772480040825949000,4.587948974609375,1.0290913581848145,-2.756080150604248,0.7961934208869934
1772480040835946800,4.59794677734375,1.0191758871078491,-2.769702434539795,0.7823399305343628
1772480040845944800,4.60794482421875,1.017589807510376,-2.785698175430298,0.7812530994415283
1772480040855943000,4.61794287109375,1.0184675455093384,-2.7459845542907715,0.7780125737190247
1772480040865940700,4.627940673828125,1.0304234027862549,-2.630103826522827,0.7590479254722595
1772480040875938000,4.63793798828125,1.0512914657592773,-2.5146350860595703,0.7597709894180298
1772480040885935900,4.647935791015625,1.0677415132522583,-2.414185047149658,0.7860152721405029
1772480040895934000,4.657933837890625,1.094430685043335,-2.2973105907440186,0.8241363167762756
1772480040905932000,4.66793212890625,1.1046192646026611,-2.1567776203155518,0.8466785550117493
1772480040915929900,4.677929931640625,1.0872902870178223,-2.0413658618927,0.8770732283592224
1772480040925928000,4.687927978515625,1.0812194347381592,-1.9238245487213135,0.8907986879348755
1772480040935926000,4.697926025390625,1.0635874271392822,-1.7941371202468872,0.9018886089324951
1772480040945922800,4.7079228515625,1.0449237823486328,-1.7415540218353271,0.88066166639328
1772480040955921000,4.7179208984375,1.0154998302459717,-1.7761240005493164,0.8363789319992065
1772480040965918700,4.727918701171875,0.9812959432601929,-1.8319112062454224,0.7846954464912415
1772480040975916800,4.737916748046875,0.9741954207420349,-1.8907111883163452,0.738935649394989
1772480040985915000,4.747914794921875,0.9668991565704346,-1.9526197910308838,0.7130119800567627
1772480040995912700,4.75791259765625,0.9510117769241333,-2.031141996383667,0.713150680065155
1772480041005910800,4.767910888671875,0.9355902671813965,-2.0870509147644043,0.7443702816963196
1772480041015907800,4.777907958984375,0.9383274912834167,-2.0952882766723633,0.788949191570282
1772480041025906000,4.787906005859375,0.9589738249778748,-2.05167293548584,0.8314610123634338
1772480041035904000,4.797904052734375,0.9815806150436401,-2.008082151412964,0.846383810043335
1772480041045901800,4.80790185546875,1.0017601251602173,-1.9903441667556763,0.8066731095314026
1772480041055900000,4.81789990234375,1.034057855606079,-1.975117564201355,0.7262200713157654
1772480041065898000,4.82789794921875,1.0736563205718994,-1.9451326131820679,0.6118301749229431
1772480041075895800,4.837895751953125,1.1220203638076782,-1.9093890190124512,0.49098843336105347
1772480041085892900,4.847892822265625,1.1631262302398682,-1.8803614377975464,0.38852331042289734
1772480041095890700,4.857890625,1.1893773078918457,-1.8435927629470825,0.2967257499694824
1772480041105888800,4.867888671875,1.2068105936050415,-1.8310413360595703,0.25963881611824036
1772480041115886800,4.877886962890625,1.211759328842163,-1.823077917098999,0.25923454761505127
1772480041125884700,4.887884765625,1.2105904817581177,-1.8154515027999878,0.2737133204936981
1772480041135882800,4.8978828125,1.208005428314209,-1.8336771726608276,0.28877270221710205
1772480041145879800,4.9078798828125,1.1986855268478394,-1.9155371189117432,0.319000244140625
1772480041155878000,4.9178779296875,1.176214575767517,-2.0227370262145996,0.37967848777770996
1772480041165875700,4.927875732421875,1.152369499206543,-2.115090847015381,0.45749184489250183
1772480041175873800,4.937873779296875,1.1368573904037476,-2.185065269470215,0.5287346243858337
1772480041185872000,4.947871826171875,1.1273499727249146,-2.226092576980591,0.5544912219047546
1772480041195869700,4.95786962890625,1.1052262783050537,-2.2344183921813965,0.5190301537513733
1772480041205867800,4.96786767578125,1.063464879989624,-2.1994521617889404,0.4507203698158264
1772480041215865900,4.977865966796875,1.0221898555755615,-2.1269781589508057,0.37635427713394165
1772480041225862700,4.987862548828125,0.97261643409729,-2.012603998184204,0.30157676339149475
1772480041235860700,4.99786083984375,0.9193763732910156,-1.8915408849716187,0.2339330017566681
1772480041245858600,5.007858642578125,0.8709976673126221,-1.7875103950500488,0.20220708847045898
1772480041255856600,5.017856689453125,0.8486396670341492,-1.6848084926605225,0.17478904128074646
1772480041265854700,5.027854736328125,0.8551963567733765,-1.6513928174972534,0.15212224423885345
1772480041275852800,5.037852783203125,0.8679291605949402,-1.7010294198989868,0.14231543242931366
1772480041285851000,5.047850830078125,0.863304853439331,-1.7633777856826782,0.13681860268115997
1772480041295847700,5.05784765625,0.8500548005104065,-1.7754954099655151,0.14511620998382568
1772480041305845800,5.067845703125,0.8172887563705444,-1.745772123336792,0.18406334519386292
1772480041315843800,5.07784375,0.7818053364753723,-1.7098658084869385,0.23733162879943848
1772480041325841700,5.087841552734375,0.7369470596313477,-1.7041033506393433,0.26633381843566895
1772480041335839700,5.09783984375,0.6881217360496521,-1.6862354278564453,0.2746434211730957
1772480041345837800,5.107837890625,0.665184497833252,-1.645705223083496,0.2755950391292572
1772480041355835600,5.117835693359375,0.655985414981842,-1.6073925495147705,0.30619820952415466
1772480041365832700,5.127832763671875,0.6505159139633179,-1.5692479610443115,0.3296777904033661
1772480041375830500,5.13783056640625,0.647222638130188,-1.5407942533493042,0.3267722725868225
1772480041385828600,5.14782861328125,0.6547967195510864,-1.5078846216201782,0.29702454805374146
1772480041395827000,5.157826904296875,0.654129147529602,-1.4835041761398315,0.2487880438566208
1772480041405824800,5.16782470703125,0.6462254524230957,-1.4515893459320068,0.20494325459003448
1772480041415822800,5.17782275390625,0.6379011869430542,-1.4196546077728271,0.16437478363513947
1772480041425821000,5.187821044921875,0.6120507717132568,-1.4054343700408936,0.13284094631671906
1772480041435817700,5.197817626953125,0.5798677802085876,-1.424941062927246,0.10006594657897949
1772480041445815800,5.20781591796875,0.5503098964691162,-1.4668000936508179,0.07106571644544601
1772480041455813600,5.217813720703125,0.5246689915657043,-1.539260745048523,0.02741384692490101
1772480041465811700,5.227811767578125,0.49026429653167725,-1.6226502656936646,-0.025325527414679527
1772480041475809800,5.237809814453125,0.46043527126312256,-1.6586381196975708,-0.062436413019895554
1772480041485807600,5.2478076171875,0.4158133268356323,-1.6287771463394165,-0.08256438374519348
1772480041495805700,5.2578056640625,0.3732408285140991,-1.556510090827942,-0.09940701723098755
1772480041505802800,5.267802734375,0.34048378467559814,-1.4823346138000488,-0.09569090604782104
1772480041515800800,5.27780078125,0.29583510756492615,-1.4435267448425293,-0.08028478920459747
1772480041525799000,5.287798828125,0.22574123740196228,-1.4749515056610107,-0.05457698926329613
1772480041535796700,5.297796630859375,0.14870557188987732,-1.5398497581481934,-0.021555393934249878
1772480041545794800,5.307794921875,0.0614800751209259,-1.5856847763061523,-0.0024203816428780556
1772480041555793000,5.31779296875,0.004510798957198858,-1.6022124290466309,-0.03524650260806084
1772480041565790700,5.327790771484375,-0.013307694345712662,-1.5929086208343506,-0.11069218814373016
1772480041575787800,5.337787841796875,-0.022720636799931526,-1.5418987274169922,-0.16739489138126373
1772480041585785900,5.347785888671875,-0.030638210475444794,-1.502985954284668,-0.16661827266216278
1772480041595783700,5.35778369140625,-0.046171363443136215,-1.511276125907898,-0.103902168571949
1772480041605781800,5.36778173828125,-0.06258229166269302,-1.4998286962509155,-0.00020586233586072922
1772480041615779600,5.377779541015625,-0.07356356829404831,-1.476081371307373,0.11554230749607086
1772480041625777700,5.387777587890625,-0.10551576316356659,-1.4668920040130615,0.20646879076957703
1772480041635775700,5.397775634765625,-0.15400633215904236,-1.4481089115142822,0.2640995681285858
1772480041645772800,5.407772705078125,-0.17124511301517487,-1.3687413930892944,0.2893540561199188
1772480041655771000,5.41777099609375,-0.13611508905887604,-1.3229824304580688,0.32842206954956055
1772480041665769000,5.42776904296875,-0.07124388962984085,-1.2199052572250366,0.24335284531116486
1772480041675766800,5.437766845703125,-0.01296939980238676,-1.1464285850524902,0.12218060344457626
1772480041685764900,5.447764892578125,0.030549895018339157,-1.0258458852767944,-0.09270277619361877
1772480041695762700,5.4577626953125,0.05413484945893288,-0.9082884192466736,-0.2821179926395416
1772480041705760800,5.4677607421875,0.05356062948703766,-0.7690275311470032,-0.39122408628463745
1772480041715757800,5.4777578125,0.07890220731496811,-0.6146600842475891,-0.4199396073818207
1772480041725755600,5.487755615234375,0.10309950262308121,-0.45621296763420105,-0.3590121269226074
1772480041735753700,5.497753662109375,0.11525363475084305,-0.4126574993133545,-0.24161304533481598
1772480041745751800,5.507751708984375,0.11832418292760849,-0.4977816939353943,-0.11732702702283859
1772480041755749600,5.51774951171875,0.15080329775810242,-0.596805989742279,0.005872669164091349
1772480041765747700,5.527747802734375,0.18282487988471985,-0.6681067943572998,0.1354363113641739
1772480041775745500,5.53774560546875,0.19527782499790192,-0.759402871131897,0.22151820361614227
1772480041785742800,5.547742919921875,0.19051510095596313,-0.8624444007873535,0.27954337000846863
1772480041795741000,5.557740966796875,0.18300817906856537,-0.9321909546852112,0.34027940034866333
1772480041805738800,5.56773876953125,0.1662205308675766,-0.9959467053413391,0.4005673825740814
1772480041815736800,5.57773681640625,0.12093906849622726,-1.0685641765594482,0.45600587129592896
1772480041825735000,5.58773486328125,0.0914774164557457,-0.9464720487594604,0.39951854944229126
1772480041835732700,5.597732666015625,0.07973926514387131,-0.8787190914154053,0.31532296538352966
1772480041845730800,5.607730712890625,0.0613526850938797,-0.8860889077186584,0.22012454271316528
1772480041855727600,5.6177275390625,0.06189730018377304,-0.9111913442611694,0.11348359286785126
1772480041865725700,5.6277255859375,0.07582876086235046,-0.9059981107711792,-0.0018710368312895298
1772480041875723800,5.637723876953125,0.08156681060791016,-0.8912221193313599,-0.0742403045296669
1772480041885721600,5.6477216796875,0.08296854048967361,-0.8587610721588135,-0.12712225317955017
1772480041895719700,5.6577197265625,0.07933864742517471,-0.8081623315811157,-0.1738753765821457
1772480041905717800,5.6677177734375,0.06341885775327682,-0.722190260887146,-0.20438650250434875
1772480041915715600,5.677715576171875,0.040206216275691986,-0.5926341414451599,-0.19544093310832977
1772480041925713000,5.687712890625,0.02351023629307747,-0.45372286438941956,-0.1838095784187317
1772480041935710700,5.697710693359375,0.010048755444586277,-0.34231752157211304,-0.16196899116039276
1772480041945708800,5.707708740234375,0.004253685474395752,-0.24286532402038574,-0.11486223340034485
1772480041955707000,5.717706787109375,0.023517396301031113,-0.1499982327222824,-0.05445988103747368
1772480041965704700,5.72770458984375,0.06966929137706757,-0.05887410417199135,-0.01708434335887432
1772480041975702800,5.737702880859375,0.12360256165266037,0.0036310828290879726,0.03718288987874985
1772480041985700900,5.747700927734375,0.1878363937139511,0.022746706381440163,0.12564292550086975
1772480041995697700,5.75769775390625,0.2390926629304886,-0.010232813656330109,0.24713419377803802
1772480042005695700,5.76769580078125,0.2849089801311493,-0.07937063276767731,0.36202025413513184
1772480042015693600,5.777693603515625,0.3230164051055908,-0.1456761360168457,0.4224364459514618
1772480042025691600,5.787691650390625,0.34445565938949585,-0.19515341520309448,0.41278332471847534
1772480042035689700,5.797689697265625,0.3272910416126251,-0.24090145528316498,0.34963685274124146
1772480042045687600,5.8076875,0.28494933247566223,-0.277804970741272,0.2505319118499756
1772480042055685600,5.817685546875,0.2648129165172577,-0.29711103439331055,0.13142575323581696
1772480042065682700,5.8276826171875,0.23386675119400024,-0.28893980383872986,0.028352944180369377
1772480042075680800,5.8376806640625,0.17866314947605133,-0.31878477334976196,-0.01464965008199215
1772480042085678800,5.847678955078125,0.1338096261024475,-0.3468833565711975,-0.03398396819829941
1772480042095676700,5.8576767578125,0.1170402318239212,-0.32746678590774536,-0.06232026591897011
1772480042105674800,5.8676748046875,0.11437026411294937,-0.3113154470920563,-0.08321253210306168
1772480042115672800,5.8776728515625,0.10070984810590744,-0.33375710248947144,-0.0770941898226738
1772480042125669600,5.887669677734375,0.07836397737264633,-0.35087984800338745,-0.05961313098669052
1772480042135667700,5.897667724609375,0.038189128041267395,-0.32772234082221985,-0.02698754146695137
1772480042145665800,5.907665771484375,-0.013405135832726955,-0.2991848289966583,-0.0051889000460505486
1772480042155663600,5.91766357421875,-0.08234292268753052,-0.2627975344657898,0.0003528716042637825
1772480042165661700,5.92766162109375,-0.13561344146728516,-0.272926390171051,-0.002135956659913063
1772480042175659800,5.93765966796875,-0.15907375514507294,-0.34784960746765137,-0.005808189511299133
1772480042185657900,5.947657958984375,-0.26121559739112854,-0.33349576592445374,-0.015499860048294067
1772480042195655000,5.957655029296875,-0.3427432179450989,-0.21137596666812897,-0.03386075794696808
1772480042205652700,5.96765283203125,-0.3517403304576874,-0.02803163044154644,-0.09953434020280838
1772480042215650800,5.97765087890625,-0.3140595257282257,0.19339263439178467,-0.2205430567264557
1772480042225649000,5.98764892578125,-0.2326149344444275,0.2914538085460663,-0.3475751578807831
1772480042235646700,5.997646728515625,-0.1981549710035324,0.31048768758773804,-0.4464721977710724
1772480042245644800,6.007644775390625,-0.1832161545753479,0.3374934494495392,-0.4524771571159363
1772480042255643000,6.017642822265625,-0.14094007015228271,0.3608142137527466,-0.3714768588542938
1772480042265639700,6.0276396484375,-0.06809549033641815,0.3422839939594269,-0.2555186450481415
1772480042275637800,6.0376376953125,-0.004735160619020462,0.28043100237846375,-0.12894313037395477
1772480042285635600,6.047635498046875,0.01547785010188818,0.17375853657722473,0.01934516802430153
1772480042295634000,6.057634033203125,0.002879234030842781,0.023482222110033035,0.15349525213241577
1772480042305632000,6.067632080078125,-0.013508307747542858,-0.14266186952590942,0.22528459131717682
1772480042315629800,6.0776298828125,-0.04652245342731476,-0.2725314497947693,0.26637983322143555
1772480042325628000,6.0876279296875,-0.08652597665786743,-0.3523251414299011,0.27509868144989014
1772480042335624700,6.097624755859375,-0.1574193239212036,-0.3771130442619324,0.24861328303813934
1772480042345622800,6.107622802734375,-0.22451356053352356,-0.36607626080513,0.1817537546157837
1772480042355620900,6.117620849609375,-0.30606967210769653,-0.28976231813430786,0.1162053644657135
1772480042365618700,6.12761865234375,-0.36331939697265625,-0.1564834862947464,0.0663093775510788
1772480042375616800,6.13761669921875,-0.372298002243042,-0.05061350762844086,0.03571179136633873
1772480042385614800,6.14761474609375,-0.3398735821247101,0.0092715909704566,-0.0002525351010262966
1772480042395612700,6.15761279296875,-0.2807588577270508,0.0745810866355896,-0.03472662344574928
1772480042405609700,6.167609619140625,-0.18177062273025513,0.1566159576177597,-0.07201330363750458
1772480042415607800,6.17760791015625,-0.04207424819469452,0.2242695689201355,-0.1083766371011734
1772480042425606000,6.18760595703125,0.11143689602613449,0.2561323344707489,-0.10719815641641617
1772480042435604000,6.19760400390625,0.2632189691066742,0.26008206605911255,-0.05275275930762291
1772480042445601800,6.207601806640625,0.3663976192474365,0.19277703762054443,0.061791591346263885
1772480042455599900,6.217599853515625,0.4280862808227539,0.07797110080718994,0.20175322890281677
1772480042465598000,6.227597900390625,0.46463707089424133,-0.024473093450069427,0.3482595384120941
1772480042475594800,6.2375947265625,0.4590175449848175,-0.09064305573701859,0.4953738749027252
1772480042485592800,6.2475927734375,0.43047961592674255,-0.16875901818275452,0.5963081121444702
1772480042495590700,6.257590576171875,0.39659222960472107,-0.24092695116996765,0.6382148265838623
1772480042505588700,6.267588623046875,0.34364765882492065,-0.29009127616882324,0.6647250652313232
1772480042515586800,6.2775869140625,0.296357661485672,-0.32707324624061584,0.679169237613678
1772480042525584600,6.287584716796875,0.2703811824321747,-0.3517668843269348,0.6816034317016602
1772480042535582700,6.297582763671875,0.2640133202075958,-0.3540540039539337,0.6816175580024719
1772480042545579800,6.307579833984375,0.2872062921524048,-0.35012462735176086,0.6736231446266174
1772480042555577900,6.317577880859375,0.31834903359413147,-0.32369914650917053,0.6537714004516602
1772480042565576000,6.327575927734375,0.36176764965057373,-0.2660706639289856,0.6369724869728088
1772480042575573800,6.33757373046875,0.43945446610450745,-0.2382158488035202,0.6088537573814392
1772480042585571800,6.34757177734375,0.5344398021697998,-0.243718221783638,0.5692498087882996
1772480042595570000,6.35756982421875,0.6178947687149048,-0.26119521260261536,0.5101191401481628
1772480042605566700,6.367566650390625,0.6903854608535767,-0.24242457747459412,0.41659143567085266
1772480042615564800,6.377564697265625,0.714874267578125,-0.22158294916152954,0.3071054220199585
1772480042625563000,6.38756298828125,0.697015643119812,-0.22712071239948273,0.19641710817813873
1772480042635560700,6.397560791015625,0.6469394564628601,-0.23968257009983063,0.09180016070604324
1772480042645558800,6.407558837890625,0.5736962556838989,-0.21627303957939148,0.003925931174308062
1772480042655556600,6.417556640625,0.5152073502540588,-0.19272750616073608,-0.04875458776950836
1772480042665554700,6.4275546875,0.4597170352935791,-0.18716782331466675,-0.0638372004032135
1772480042675552000,6.437552001953125,0.41791340708732605,-0.18081378936767578,-0.048050783574581146
1772480042685549800,6.4475498046875,0.3759629428386688,-0.16879303753376007,0.0020017996430397034
1772480042695548000,6.4575478515625,0.3346591889858246,-0.12543757259845734,0.06062516197562218
1772480042705546000,6.4675458984375,0.30312490463256836,-0.0976603776216507,0.08610226213932037
1772480042715543800,6.477543701171875,0.2599252462387085,-0.10343997180461884,0.08239620178937912
1772480042725542000,6.4875419921875,0.21248075366020203,-0.09387257695198059,0.0731256753206253
1772480042735539700,6.497539794921875,0.15292848646640778,-0.05757955089211464,0.06175105273723602
1772480042745536800,6.507536865234375,0.09266085177659988,-0.025431573390960693,0.04522663354873657
1772480042755534800,6.517534912109375,0.026410460472106934,-0.014631124213337898,0.03412870690226555
1772480042765532700,6.52753271484375,-0.05331498757004738,-0.01456320472061634,0.014695155434310436
1772480042775530800,6.53753076171875,-0.11412693560123444,-0.028986085206270218,-0.02465837448835373
1772480042785528800,6.54752880859375,-0.14549560844898224,-0.057195328176021576,-0.05958623066544533
1772480042795526700,6.557526611328125,-0.16709384322166443,-0.09558665752410889,-0.08595258742570877
1772480042805524700,6.567524658203125,-0.17761002480983734,-0.18155315518379211,-0.11911913007497787
1772480042815521800,6.577521728515625,-0.21074719727039337,-0.2786850333213806,-0.16349618136882782
1772480042825519900,6.587519775390625,-0.247715562582016,-0.34593692421913147,-0.21847973763942719
1772480042835518000,6.59751806640625,-0.2614521384239197,-0.44473594427108765,-0.2688382565975189
1772480042845515800,6.607515869140625,-0.28128600120544434,-0.5674495100975037,-0.3534640669822693
1772480042855513900,6.617513916015625,-0.30871284008026123,-0.6501478552818298,-0.44019362330436707
1772480042865512000,6.627511962890625,-0.3173639476299286,-0.603121817111969,-0.4969887137413025
1772480042875509800,6.637509765625,-0.299174040555954,-0.3765523135662079,-0.5483762621879578
1772480042885506800,6.6475068359375,-0.3131098449230194,-0.14499367773532867,-0.5750830173492432
1772480042895504600,6.657504638671875,-0.362790584564209,0.03949388116598129,-0.5803206562995911
1772480042905502700,6.667502685546875,-0.3964381515979767,0.18308600783348083,-0.5568214654922485
1772480042915500800,6.677500732421875,-0.40707483887672424,0.3358510732650757,-0.4665376543998718
1772480042925498600,6.68749853515625,-0.39427849650382996,0.44849395751953125,-0.290022075176239
1772480042935496700,6.69749658203125,-0.375701367855072,0.39828166365623474,-0.05763836205005646
1772480042945493800,6.70749365234375,-0.3855578899383545,0.2809601426124573,0.0826701819896698
1772480042955491800,6.717491943359375,-0.3862835764884949,0.18272759020328522,0.13856513798236847
1772480042965490000,6.727489990234375,-0.41287875175476074,0.13239480555057526,0.19438523054122925
1772480042975487700,6.73748779296875,-0.4646623432636261,0.08011748641729355,0.2699792981147766
1772480042985485800,6.74748583984375,-0.5093467235565186,0.010689038783311844,0.3513452410697937
1772480042995484000,6.75748388671875,-0.5621880888938904,-0.04342959076166153,0.4318193197250366
1772480043005481700,6.767481689453125,-0.6197889447212219,-0.06348992884159088,0.5218757390975952
1772480043015478800,6.777478759765625,-0.6408641338348389,-0.05373317003250122,0.6125023365020752
1772480043025476600,6.7874765625,-0.6442297101020813,-0.031448304653167725,0.6914414763450623
1772480043035474700,6.797474609375,-0.6234427094459534,-0.004578342195600271,0.7308448553085327
1772480043045472800,6.80747265625,-0.5374839901924133,0.029113804921507835,0.7130012512207031
1772480043055470600,6.817470703125,-0.42269086837768555,0.07701395452022552,0.6417651772499084
1772480043065468700,6.82746875,-0.33074089884757996,0.12540273368358612,0.5218508839607239
1772480043075466800,6.837466796875,-0.2679009735584259,0.13801519572734833,0.3721620440483093
1772480043085463800,6.8474638671875,-0.23058129847049713,0.12553474307060242,0.181245356798172
1772480043095462000,6.8574619140625,-0.21070267260074615,0.12024116516113281,-0.0338435173034668
1772480043105459700,6.867459716796875,-0.190724179148674,0.1485937088727951,-0.23065140843391418
1772480043115457800,6.877457763671875,-0.17555586993694305,0.212093323469162,-0.4042551517486572
1772480043125456000,6.887455810546875,-0.14971187710762024,0.2857418954372406,-0.5247858166694641
1772480043135453200,6.897453125,-0.13919878005981445,0.26799246668815613,-0.6142674684524536
1772480043145451300,6.907451171875,-0.14936617016792297,0.1623487025499344,-0.6447457075119019
1772480043155448300,6.9174482421875,-0.15366850793361664,0.04327185079455376,-0.57636559009552
1772480043165446400,6.9274462890625,-0.12372082471847534,-0.05756428837776184,-0.4361588656902313
1772480043175444500,6.937444580078125,-0.06757047772407532,-0.18725784122943878,-0.2662979066371918
1772480043185442300,6.9474423828125,-0.027579959481954575,-0.3653903901576996,-0.12116746604442596
1772480043195440400,6.9574404296875,-0.0014202622696757317,-0.4961486756801605,0.013033744879066944
1772480043205438500,6.9674384765625,0.011194076389074326,-0.567119836807251,0.12179650366306305
1772480043215435300,6.977435302734375,0.03005964308977127,-0.6049188375473022,0.19883164763450623
1772480043225433300,6.987433349609375,0.04462089017033577,-0.6353543400764465,0.23980224132537842
1772480043235431200,6.99743115234375,0.042012058198451996,-0.6189665794372559,0.25122639536857605
1772480043245429200,7.00742919921875,0.032226767390966415,-0.576715886592865,0.24799910187721252
1772480043255427300,7.01742724609375,0.01655006967484951,-0.5627278685569763,0.21417883038520813
1772480043265425200,7.027425048828125,0.03999003767967224,-0.5792153477668762,0.12438669800758362
1772480043275423200,7.03742333984375,0.11060002446174622,-0.5571502447128296,0.01428576186299324
1772480043285420300,7.047420166015625,0.19433040916919708,-0.4240817427635193,-0.0740187019109726
1772480043295418400,7.05741845703125,0.2873240113258362,-0.27918127179145813,-0.14459991455078125
1772480043305416400,7.06741650390625,0.35161763429641724,-0.21592684090137482,-0.1972341388463974
1772480043315414300,7.077414306640625,0.390672892332077,-0.20572000741958618,-0.2279433161020279
1772480043325412400,7.087412353515625,0.39774832129478455,-0.20352834463119507,-0.20969969034194946
1772480043335410400,7.097410400390625,0.3744230270385742,-0.213339701294899,-0.14110811054706573
1772480043345408300,7.107408203125,0.34341350197792053,-0.253288596868515,-0.038895901292562485
1772480043355405300,7.1174052734375,0.3090723156929016,-0.3032476305961609,0.043175000697374344
1772480043365403100,7.127403076171875,0.28154048323631287,-0.3592396378517151,0.09281942248344421
1772480043375401200,7.137401123046875,0.24842433631420135,-0.42788875102996826,0.14499340951442719
1772480043385399300,7.1473994140625,0.20241788029670715,-0.49371248483657837,0.19928574562072754
1772480043395397000,7.157397216796875,0.14643476903438568,-0.5211779475212097,0.24018444120883942
1772480043405395200,7.167395263671875,0.08810002356767654,-0.5195158123970032,0.28465935587882996
1772480043415393300,7.177393310546875,0.05398093909025192,-0.525584876537323,0.3199808597564697
1772480043425390300,7.187390380859375,0.05772606283426285,-0.5540497899055481,0.3238483965396881
1772480043435388400,7.197388427734375,0.09585640579462051,-0.6229735016822815,0.284964382648468
1772480043445386200,7.20738623046875,0.14726893603801727,-0.7179997563362122,0.22869013249874115
1772480043455384300,7.21738427734375,0.1982911080121994,-0.7951078414916992,0.17625515162944794
1772480043465382400,7.22738232421875,0.2451431006193161,-0.8349392414093018,0.1304832398891449
1772480043475380200,7.237380126953125,0.26924657821655273,-0.8376405239105225,0.1116349846124649
1772480043485377300,7.247377197265625,0.26916518807411194,-0.8130348920822144,0.12092912197113037
1772480043495375400,7.257375244140625,0.24002595245838165,-0.7921775579452515,0.16933207213878632
1772480043505373200,7.267373291015625,0.21066917479038239,-0.8326820135116577,0.22448097169399261
1772480043515371300,7.277371337890625,0.17572957277297974,-0.9238731861114502,0.2503916621208191
1772480043525369300,7.287369384765625,0.18419697880744934,-0.931050181388855,0.2419707179069519
1772480043535367200,7.2973671875,0.24063920974731445,-0.8521867990493774,0.16505490243434906
1772480043545365200,7.307365234375,0.2871204912662506,-0.7538242936134338,-0.011355949565768242
1772480043555362300,7.3173623046875,0.3472115099430084,-0.7146132588386536,-0.22011661529541016
1772480043565360400,7.3273603515625,0.40775755047798157,-0.63390052318573,-0.40106403827667236
1772480043575358500,7.3373583984375,0.4453733563423157,-0.5547249913215637,-0.48656511306762695
1772480043585356300,7.347356201171875,0.48997533321380615,-0.565302312374115,-0.4635806977748871
1772480043595354400,7.357354248046875,0.46539008617401123,-0.6051037907600403,-0.3321813941001892
1772480043605352400,7.3673525390625,0.40429607033729553,-0.7058050036430359,-0.15015734732151031
1772480043615350300,7.377350341796875,0.34867727756500244,-0.8987683057785034,0.0009829099290072918
1772480043625347300,7.387347412109375,0.2585645318031311,-1.1234208345413208,0.03525722026824951
1772480043635345200,7.39734521484375,0.16588518023490906,-1.260794997215271,-0.016662700101733208
1772480043645343200,7.40734326171875,0.08456520736217499,-1.2423903942108154,-0.09329912066459656
1772480043655341300,7.41734130859375,0.016851145774126053,-1.1767634153366089,-0.13116873800754547
1772480043665339100,7.427339111328125,-0.0416693240404129,-1.11220121383667,-0.11680586636066437
1772480043675337200,7.437337158203125,-0.08735211938619614,-1.0375615358352661,-0.06429845094680786
1772480043685334300,7.447334228515625,-0.10277752578258514,-0.9301195740699768,0.03333762288093567
1772480043695332400,7.457332275390625,-0.08130951970815659,-0.8254605531692505,0.16012805700302124
1772480043705330400,7.467330322265625,-0.04542073234915733,-0.7432145476341248,0.2881430387496948
1772480043715328300,7.477328369140625,-0.0010292986407876015,-0.663030743598938,0.39533981680870056
1772480043725326300,7.487326416015625,0.10957545042037964,-0.5334628820419312,0.49497202038764954
1772480043735324400,7.497324462890625,0.23275116086006165,-0.41880154609680176,0.5754953622817993
1772480043745322200,7.507322265625,0.34285902976989746,-0.3517912030220032,0.6212813854217529
1772480043755319300,7.5173193359375,0.45715147256851196,-0.3172430992126465,0.6353104114532471
1772480043765317000,7.527317138671875,0.5467676520347595,-0.3061313033103943,0.6616197824478149
1772480043775315200,7.537315185546875,0.6339582204818726,-0.3051254451274872,0.7099934220314026
1772480043785313300,7.547313232421875,0.7321909666061401,-0.3555428981781006,0.7880880236625671
1772480043795311000,7.55731103515625,0.8194590210914612,-0.4571603238582611,0.8965969085693359
1772480043805309200,7.56730908203125,0.8618656992912292,-0.5890816450119019,1.023852825164795
1772480043815307300,7.577307373046875,0.8392304182052612,-0.746795117855072,1.1506896018981934
1772480043825304300,7.58730419921875,0.8121016025543213,-0.87723708152771,1.235803246498108
1772480043835302400,7.597302490234375,0.7668233513832092,-0.9862040877342224,1.2626681327819824
1772480043845300200,7.60730029296875,0.7030345797538757,-1.0837262868881226,1.223586916923523
1772480043855298300,7.61729833984375,0.6350193023681641,-1.154072880744934,1.136399269104004
1772480043865296400,7.62729638671875,0.583582878112793,-1.1992206573486328,1.0371664762496948
1772480043875294200,7.637294189453125,0.5686212182044983,-1.2386744022369385,0.9236441254615784
1772480043885291300,7.647291259765625,0.5876177549362183,-1.2589662075042725,0.781907856464386
1772480043895289000,7.6572890625,0.659216582775116,-1.2447624206542969,0.6301042437553406
1772480043905287200,7.667287109375,0.7494882941246033,-1.1736938953399658,0.4810927212238312
1772480043915285200,7.67728515625,0.8072061538696289,-1.1108357906341553,0.3746693432331085
1772480043925283000,7.687282958984375,0.8391345739364624,-1.071144461631775,0.3190295100212097
1772480043935281200,7.69728125,0.864941418170929,-1.0303875207901,0.300409734249115
1772480043945279200,7.707279296875,0.8782104253768921,-0.9869411587715149,0.27615252137184143
1772480043955276300,7.7172763671875,0.8647321462631226,-0.9569100737571716,0.25226157903671265
1772480043965274400,7.7272744140625,0.8357040286064148,-0.9460925459861755,0.22301004827022552
1772480043975272200,7.737272216796875,0.8033252954483032,-0.9736381769180298,0.18993039429187775
1772480043985270300,7.747270263671875,0.7697190046310425,-1.0200567245483398,0.15914052724838257
1772480043995268400,7.757268310546875,0.7520060539245605,-1.0882289409637451,0.14026804268360138
1772480044005266200,7.76726611328125,0.7375161051750183,-1.1720222234725952,0.1551245152950287
1772480044015263200,7.77726318359375,0.7155770063400269,-1.246093511581421,0.1805289387702942
1772480044025261300,7.78726123046875,0.6811861991882324,-1.3127061128616333,0.2102438509464264
1772480044035259100,7.797259033203125,0.6246368885040283,-1.3206058740615845,0.23320509493350983
1772480044045257200,7.80725732421875,0.5576838254928589,-1.2904132604599,0.24919332563877106
1772480044055255300,7.81725537109375,0.4927162528038025,-1.2701213359832764,0.2600374221801758
1772480044065253400,7.82725341796875,0.4192974865436554,-1.2816954851150513,0.2598327696323395
1772480044075251500,7.83725146484375,0.347856342792511,-1.2874222993850708,0.2529735565185547
1772480044085248300,7.847248291015625,0.29159465432167053,-1.2576417922973633,0.22602717578411102
1772480044095246300,7.857246337890625,0.25740525126457214,-1.223018765449524,0.19253046810626984
1772480044105244400,7.867244384765625,0.2440873086452484,-1.217536211013794,0.16144712269306183
1772480044115242200,7.8772421875,0.246752068400383,-1.2111562490463257,0.1405964344739914
1772480044125240300,7.887240234375,0.24638861417770386,-1.2133315801620483,0.1295718550682068
1772480044135239000,7.897239013671875,0.24685627222061157,-1.2234792709350586,0.1265835165977478
1772480044145236700,7.90723681640625,0.2710440158843994,-1.2306365966796875,0.10430321097373962
1772480044155233800,7.91723388671875,0.27590879797935486,-1.2381048202514648,0.055186524987220764
1772480044165231600,7.927231689453125,0.2776282727718353,-1.2562229633331299,-0.023190366104245186
1772480044175229700,7.937229736328125,0.2790954113006592,-1.2770533561706543,-0.10846211761236191
1772480044185227800,7.947227783203125,0.2806696891784668,-1.3020331859588623,-0.1497577279806137
1772480044195225600,7.9572255859375,0.2654678225517273,-1.3254618644714355,-0.1530560553073883
1772480044205223700,7.9672236328125,0.2491742968559265,-1.3463032245635986,-0.14011229574680328
1772480044215220700,7.977220703125,0.2425355613231659,-1.3265694379806519,-0.12824445962905884
1772480044225218800,7.98721875,0.2628040313720703,-1.2357605695724487,-0.0971652939915657
1772480044235216000,7.9972158203125,0.30007684230804443,-1.073678731918335,-0.05012614652514458
1772480044245213700,8.007213623046875,0.3348512053489685,-0.8725080490112305,0.01909000612795353
1772480044255211800,8.017211669921876,0.3750801086425781,-0.6657657623291016,0.07436817139387131
1772480044265209600,8.027209716796875,0.39637449383735657,-0.5049084424972534,0.14329853653907776
1772480044275207700,8.037207763671875,0.38960394263267517,-0.4755218029022217,0.27593594789505005
1772480044285205800,8.047205810546876,0.3444005250930786,-0.6545274257659912,0.4561898708343506
1772480044295202800,8.057202880859375,0.2480396330356598,-1.0471090078353882,0.5386722683906555
1772480044305201000,8.067200927734374,0.20574314892292023,-1.2688319683074951,0.5593329668045044
1772480044315199000,8.077198974609376,0.1654047816991806,-1.3702003955841064,0.5945330262184143
1772480044325196800,8.08719677734375,0.10893336683511734,-1.4949079751968384,0.6515344977378845
1772480044335195000,8.09719482421875,0.043621212244033813,-1.6778043508529663,0.7048134207725525
1772480044345193000,8.10719287109375,0.011725971475243568,-1.7883336544036865,0.7443845272064209
1772480044355190800,8.117190673828125,0.06042772904038429,-1.791218876838684,0.7767456769943237
1772480044365187800,8.127187744140626,0.17499566078186035,-1.6639776229858398,0.7911926507949829
1772480044375185700,8.137185546875,0.3289239704608917,-1.5034891366958618,0.7585710883140564
1772480044385183700,8.147183837890625,0.4960691034793854,-1.413291096687317,0.6833387017250061
1772480044395181800,8.157181884765626,0.6382400393486023,-1.4110463857650757,0.5937579274177551
1772480044405179600,8.1671796875,0.7474339604377747,-1.4693506956100464,0.48371782898902893
1772480044415177700,8.177177734375,0.8439258933067322,-1.5752073526382446,0.3348998725414276
1772480044425174800,8.1871748046875,0.8938729166984558,-1.6788636445999146,0.16431824862957
1772480044435172900,8.1971728515625,0.8980812430381775,-1.783934473991394,-0.015440605580806732
1772480044445171000,8.2071708984375,0.8578442335128784,-1.8952038288116455,-0.16575203835964203
1772480044455168800,8.217168701171875,0.7783384919166565,-2.01497483253479,-0.2574231028556824
1772480044465166800,8.227166748046875,0.6640989780426025,-2.1324641704559326,-0.2682935893535614
1772480044475165000,8.2371650390625,0.5619840621948242,-2.21409010887146,-0.20306771993637085
1772480044485162800,8.247162841796875,0.5194652080535889,-2.2372055053710938,-0.08228763937950134
1772480044495159800,8.257159912109374,0.4931185245513916,-2.250040054321289,0.06944169849157333
1772480044505157600,8.26715771484375,0.48274242877960205,-2.299855947494507,0.22908800840377808
1772480044515155700,8.27715576171875,0.4985125958919525,-2.361598491668701,0.35645821690559387
1772480044525153800,8.28715380859375,0.521211564540863,-2.391359567642212,0.4499863386154175
1772480044535151600,8.297151611328125,0.5318878889083862,-2.3590214252471924,0.5122327208518982
1772480044545149700,8.307149658203125,0.5400464534759521,-2.3066933155059814,0.5652223825454712
1772480044555147800,8.317147705078124,0.5588228106498718,-2.2384023666381836,0.6029295325279236
1772480044565144800,8.327144775390625,0.5829309821128845,-2.14228892326355,0.6324823498725891
1772480044575143000,8.337142822265625,0.6046996712684631,-2.055310010910034,0.6476958990097046
1772480044585140700,8.347140625,0.6082823872566223,-2.0060510635375977,0.6574788093566895
1772480044595138800,8.357138916015625,0.6085795760154724,-2.0169103145599365,0.6496626734733582
1772480044605137000,8.367136962890624,0.608778715133667,-2.044753074645996,0.643650233745575
1772480044615134700,8.377134765625,0.6202673316001892,-2.0796549320220947,0.6549119353294373
1772480044625131800,8.3871318359375,0.6519407033920288,-2.121060371398926,0.681196928024292
1772480044635131000,8.397130859375,0.6509963274002075,-2.1201298236846924,0.7137298583984375
1772480044645128700,8.407128662109375,0.6653242111206055,-2.0855636596679688,0.7306122183799744
1772480044655126800,8.417126708984375,0.6778532862663269,-2.035592794418335,0.7252515554428101
1772480044665124900,8.427124755859374,0.673753023147583,-1.997829556465149,0.6981828808784485
1772480044675121700,8.43712158203125,0.647676944732666,-1.9773768186569214,0.6646603345870972
1772480044685119700,8.44711962890625,0.6272838711738586,-1.9577099084854126,0.6205855011940002
1772480044695117800,8.457117919921876,0.6059058904647827,-1.9268087148666382,0.5754910111427307
1772480044705116000,8.467115966796875,0.5845887064933777,-1.9308398962020874,0.5344191193580627
1772480044715114000,8.477114013671875,0.5813803672790527,-1.945239782333374,0.5117164254188538
1772480044725111800,8.48711181640625,0.5906533598899841,-1.9634578227996826,0.5080690383911133
1772480044735108900,8.49710888671875,0.6152446866035461,-1.9807958602905273,0.5306065678596497
1772480044745106700,8.507106689453124,0.6209693551063538,-1.9740798473358154,0.5843929052352905
1772480044755104800,8.517104736328125,0.6357141733169556,-1.9386200904846191,0.6475766897201538
1772480044765102800,8.527102783203125,0.679494321346283,-1.9076433181762695,0.7006683945655823
1772480044775100700,8.5371005859375,0.7119672894477844,-1.8780544996261597,0.7455964684486389
1772480044785098800,8.5470986328125,0.7456650137901306,-1.8385471105575562,0.766477108001709
1772480044795096800,8.557096923828125,0.7903299331665039,-1.8205246925354004,0.7406790852546692
1772480044805094000,8.567093994140626,0.8209788799285889,-1.8086363077163696,0.6951966881752014
1772480044815092000,8.577092041015625,0.8394084572792053,-1.7914735078811646,0.6497560143470764
1772480044825089800,8.58708984375,0.860550582408905,-1.7621995210647583,0.6054840683937073
1772480044835088000,8.597087890625,0.8707166910171509,-1.72964608669281,0.5699819922447205
1772480044845086000,8.6070859375,0.8728707432746887,-1.7233484983444214,0.5335876941680908
1772480044855083800,8.617083740234374,0.8584135174751282,-1.6843727827072144,0.49159976840019226
1772480044865080800,8.627080810546875,0.8354887962341309,-1.6313247680664062,0.4702950716018677
1772480044875078700,8.63707861328125,0.8128687143325806,-1.5912750959396362,0.45056262612342834
1772480044885076700,8.64707666015625,0.7933269739151001,-1.5594364404678345,0.40957996249198914
1772480044895074800,8.65707470703125,0.7083532810211182,-1.5473244190216064,0.3810199499130249
1772480044905072600,8.66707275390625,0.6256353855133057,-1.5482137203216553,0.39371684193611145
1772480044915070700,8.67707080078125,0.5641824007034302,-1.5251007080078125,0.4211868345737457
1772480044925067800,8.68706787109375,0.5098029375076294,-1.504970908164978,0.4332190752029419
1772480044935065900,8.69706591796875,0.4534941613674164,-1.452301263809204,0.44102081656455994
1772480044945064000,8.70706396484375,0.38170644640922546,-1.3457047939300537,0.40660780668258667
1772480044955061800,8.717061767578125,0.2580776810646057,-1.424673080444336,0.5395890474319458
1772480044965059800,8.727059814453124,0.15092985332012177,-1.4807381629943848,0.6151363849639893
1772480044975058000,8.737057861328125,0.07211653143167496,-1.4488532543182373,0.6065548658370972
1772480044985055700,8.7470556640625,0.050233952701091766,-1.379798412322998,0.5919300317764282
1772480044995052800,8.757052734375,0.03751682862639427,-1.304704189300537,0.6180058121681213
1772480045005051000,8.76705078125,0.019808556884527206,-1.2297834157943726,0.6790851950645447
1772480045015048700,8.777048583984374,0.014508066698908806,-1.1338105201721191,0.7225980162620544
1772480045025046800,8.787046875,0.044165827333927155,-0.9248130917549133,0.7289968132972717
1772480045035044900,8.797044921875,0.07414209842681885,-0.7413905262947083,0.6876317858695984
1772480045045042700,8.807042724609374,0.10166958719491959,-0.6312538981437683,0.6681342124938965
1772480045055040000,8.8170400390625,0.11338083446025848,-0.5452345609664917,0.7050751447677612
1772480045065037800,8.827037841796875,0.13470587134361267,-0.5053408741950989,0.7398303747177124
1772480045075036000,8.837035888671876,0.1704481542110443,-0.49461230635643005,0.7419369220733643
1772480045085034000,8.847033935546875,0.2103939950466156,-0.532038152217865,0.731795608997345
1772480045095031800,8.85703173828125,0.25781771540641785,-0.5701037645339966,0.6991668343544006
1772480045105030000,8.86702978515625,0.2984682321548462,-0.6192879676818848,0.6402604579925537
1772480045115028000,8.877028076171875,0.3509865701198578,-0.7015008330345154,0.5553277134895325
1772480045125024800,8.887024658203124,0.3983837962150574,-0.834871232509613,0.45542454719543457
1772480045135022300,8.897022216796875,0.4266234040260315,-0.9919447302818298,0.3669721782207489
1772480045145020200,8.907020263671875,0.4230166971683502,-1.114273190498352,0.30994942784309387
1772480045155018200,8.917018310546876,0.4102977216243744,-1.1698088645935059,0.2716904580593109
1772480045165016000,8.92701611328125,0.38453859090805054,-1.1916178464889526,0.2663191854953766
1772480045175014100,8.93701416015625,0.32721349596977234,-1.2037807703018188,0.29125410318374634
1772480045185011500,8.947011474609376,0.2708289623260498,-1.247323751449585,0.3603363037109375
1772480045195009300,8.95700927734375,0.23061524331569672,-1.2923465967178345,0.45934998989105225
1772480045205007400,8.96700732421875,0.21071800589561462,-1.3050564527511597,0.5436127185821533
1772480045215005400,8.97700537109375,0.20827294886112213,-1.2955055236816406,0.5965627431869507
1772480045225003300,8.987003173828125,0.22053509950637817,-1.2205843925476074,0.6396830677986145
1772480045235001300,8.99700146484375,0.2601677477359772,-1.1522639989852905,0.6880815029144287
1772480045244999400,9.00699951171875,0.3202495276927948,-1.1156196594238281,0.7253614664077759
1772480045254996200,9.016996337890625,0.402197927236557,-1.0810550451278687,0.7465482354164124
1772480045264994300,9.026994384765626,0.5077903270721436,-1.0549155473709106,0.7469739317893982
1772480045274992000,9.0369921875,0.6387432813644409,-1.0053341388702393,0.758641242980957
1772480045284990200,9.046990234375,0.7576380372047424,-1.0302234888076782,0.7643488049507141
1772480045294988300,9.05698828125,0.8524156808853149,-1.0842252969741821,0.7606451511383057
1772480045304986000,9.066986083984375,0.9524732232093811,-1.1436165571212769,0.7497533559799194
1772480045314983400,9.0769833984375,1.0239672660827637,-1.1759705543518066,0.7396408319473267
1772480045324981200,9.086981201171875,1.0507558584213257,-1.171521544456482,0.7781373262405396
1772480045334979300,9.096979248046875,1.071426510810852,-1.2082183361053467,0.8050879836082458
1772480045344977400,9.106977294921874,1.0639246702194214,-1.1999564170837402,0.8028343915939331
1772480045354975200,9.116975341796875,1.0402774810791016,-1.1476941108703613,0.7896541357040405
1772480045364973300,9.126973388671875,1.0056883096694946,-1.160344123840332,0.7849141955375671
1772480045374970000,9.13697021484375,0.9444899559020996,-1.1989027261734009,0.7373525500297546
1772480045384968200,9.14696826171875,0.9241815209388733,-1.2058793306350708,0.6768713593482971
1772480045394966300,9.15696630859375,0.9163662195205688,-1.1833583116531372,0.6406912803649902
1772480045404964000,9.166964111328125,0.9149200916290283,-1.1807610988616943,0.6282479763031006
1772480045414962200,9.176962158203125,0.9058398008346558,-1.1664295196533203,0.6193830966949463
1772480045424960300,9.186960205078124,0.8943131566047668,-1.138721227645874,0.6088643074035645
1772480045434958300,9.196958251953125,0.8841918110847473,-1.0907758474349976,0.5908437371253967
1772480045444955400,9.206955322265625,0.8689958453178406,-1.1047483682632446,0.5302595496177673
1772480045454953200,9.216953125,0.8489760756492615,-1.0748761892318726,0.44735586643218994
1772480045464951300,9.226951416015625,0.8285872340202332,-1.003183364868164,0.3754807710647583
1772480045474949400,9.236949462890625,0.8006059527397156,-0.9031420946121216,0.32553529739379883
1772480045484947200,9.246947265625,0.7785223722457886,-0.8598412871360779,0.29625627398490906
1772480045494945300,9.2569453125,0.7366880774497986,-0.8052030801773071,0.2594071924686432
1772480045504942000,9.266942138671874,0.7070173621177673,-0.7484036087989807,0.21888327598571777
1772480045514940200,9.276940185546875,0.683205246925354,-0.6941331624984741,0.18159370124340057
1772480045524938200,9.286938232421875,0.679631233215332,-0.6500968337059021,0.14956802129745483
1772480045534936000,9.29693603515625,0.6824043393135071,-0.5996259450912476,0.13229236006736755
1772480045544934400,9.306934326171875,0.6787434220314026,-0.5650610327720642,0.12724025547504425
1772480045554932500,9.316932373046875,0.6503801941871643,-0.5475369095802307,0.13163819909095764
1772480045564929300,9.32692919921875,0.6160624623298645,-0.5152382254600525,0.16284917294979095
1772480045574927400,9.33692724609375,0.5705775618553162,-0.4678717255592346,0.20028869807720184
1772480045584925200,9.34692529296875,0.5393834114074707,-0.4127745032310486,0.22243042290210724
1772480045594923300,9.35692333984375,0.49888601899147034,-0.35810673236846924,0.22704941034317017
1772480045604921300,9.36692138671875,0.4618733525276184,-0.3374554514884949,0.22361864149570465
1772480045614919200,9.376919189453124,0.4204787611961365,-0.33214402198791504,0.20958033204078674
1772480045624917200,9.386917236328125,0.38698968291282654,-0.33246874809265137,0.18353921175003052
1772480045634914300,9.396914306640625,0.35075923800468445,-0.3289880156517029,0.15063665807247162
1772480045644912000,9.406912109375,0.3041328489780426,-0.3471398651599884,0.12516051530838013
1772480045654910200,9.41691015625,0.2553432285785675,-0.3754945397377014,0.08891808986663818
1772480045664908300,9.426908203125,0.19571837782859802,-0.4122108221054077,0.035223737359046936
1772480045674906400,9.43690625,0.12145242094993591,-0.44432535767555237,-0.03131720423698425
1772480045684904400,9.446904541015625,0.0462648943066597,-0.49619126319885254,-0.07852107286453247
1772480045694901200,9.4569013671875,-0.03388773277401924,-0.5731281042098999,-0.10040133446455002
1772480045704899300,9.4668994140625,-0.12461696565151215,-0.6497862339019775,-0.12737976014614105
1772480045714897400,9.4768974609375,-0.21067409217357635,-0.7064763903617859,-0.18542015552520752
1772480045724895200,9.486895263671874,-0.2984895408153534,-0.7648910284042358,-0.2706524133682251
1772480045734893300,9.496893310546875,-0.3622107207775116,-0.7942284345626831,-0.3881604075431824
1772480045744891400,9.506891357421875,-0.3665596544742584,-0.6854830384254456,-0.5477975010871887
1772480045754888200,9.51688818359375,-0.3370656669139862,-0.41704705357551575,-0.7002924680709839
1772480045764886300,9.52688623046875,-0.32186657190322876,-0.13856427371501923,-0.7845542430877686
1772480045774884000,9.536884033203124,-0.33170509338378906,0.055212125182151794,-0.8214437961578369
1772480045784882400,9.54688232421875,-0.3606668710708618,0.22081899642944336,-0.8177506327629089
1772480045794880500,9.556880615234375,-0.3783177435398102,0.3874489963054657,-0.7358051538467407
1772480045804878300,9.56687841796875,-0.43486475944519043,0.47005921602249146,-0.5735394358634949
1772480045814876400,9.57687646484375,-0.5250380635261536,0.3559582233428955,-0.33700013160705566
1772480045824873200,9.586873291015625,-0.5853064656257629,0.17724891006946564,-0.10154153406620026
1772480045834871300,9.596871337890626,-0.5830483436584473,0.038816213607788086,0.07279857993125916
1772480045844869400,9.606869384765625,-0.5468005537986755,-0.07927488535642624,0.22580206394195557
1772480045854867200,9.6168671875,-0.5106252431869507,-0.2170327603816986,0.3745340406894684
1772480045864865300,9.626865234375,-0.49495425820350647,-0.3367636203765869,0.5139531493186951
1772480045874863400,9.63686328125,-0.47409772872924805,-0.3966232240200043,0.6396098732948303
1772480045884860200,9.646860107421874,-0.459200382232666,-0.3813716173171997,0.7312265634536743
1772480045894858200,9.656858154296875,-0.43757978081703186,-0.3180461823940277,0.7838703393936157
1772480045904856300,9.666856201171875,-0.4085577130317688,-0.17673301696777344,0.7982569932937622
1772480045914854400,9.6768544921875,-0.35125184059143066,-0.006328259594738483,0.7831821441650391
1772480045924852500,9.6868525390625,-0.28369489312171936,0.1295434683561325,0.7592300176620483
1772480045934850300,9.696850341796875,-0.2136537730693817,0.22460687160491943,0.7201939225196838
1772480045944847400,9.706847412109376,-0.14549075067043304,0.293456107378006,0.6739874482154846
1772480045954845200,9.71684521484375,-0.085173599421978,0.30178967118263245,0.5899940133094788
1772480045964843300,9.72684326171875,-0.03651932254433632,0.28535908460617065,0.4681318998336792
1772480045974841300,9.73684130859375,0.0048094759695231915,0.24149896204471588,0.31383153796195984
1772480045984839200,9.746839111328125,0.03188153728842735,0.1900918334722519,0.14307063817977905
1772480045994837200,9.756837158203124,0.05310852825641632,0.15857146680355072,-0.018966730684041977
1772480046004835300,9.76683544921875,0.05029803514480591,0.13141827285289764,-0.14035829901695251
1772480046014832400,9.776832275390625,0.04959389567375183,0.08594027161598206,-0.20856717228889465
1772480046024830500,9.78683056640625,0.04734266549348831,0.04883210361003876,-0.22973568737506866
1772480046034828300,9.796828369140625,0.03948473930358887,-0.005636997055262327,-0.20224973559379578
1772480046044826400,9.806826416015625,0.02301942929625511,-0.08226053416728973,-0.1415923684835434
1772480046054824400,9.816824462890626,-0.002935473807156086,-0.1626240760087967,-0.07190597057342529
1772480046064822300,9.826822265625,-0.021394286304712296,-0.24289071559906006,-0.0167652927339077
1772480046074819300,9.8368193359375,-0.03859058395028114,-0.3149758279323578,0.03022991120815277
1772480046084817200,9.846817138671875,-0.06697513908147812,-0.37963855266571045,0.03856734186410904
1772480046094815200,9.856815185546875,-0.09060856699943542,-0.44089311361312866,0.022485842928290367
1772480046104813300,9.866813232421874,-0.1135609820485115,-0.4854498505592346,-0.015870001167058945
1772480046114811100,9.87681103515625,-0.12250867486000061,-0.512779176235199,-0.07129357755184174
1772480046124809200,9.886809326171875,-0.11346060782670975,-0.5425366759300232,-0.12284815311431885
1772480046134806500,9.896806640625,-0.09110230207443237,-0.5034955143928528,-0.14375315606594086
1772480046144804600,9.9068046875,-0.057677362114191055,-0.39391717314720154,-0.1403171420097351
1772480046154802700,9.916802734375,0.0013862233608961105,-0.33058908581733704,-0.1454397439956665
1772480046164800800,9.92680078125,0.05860917270183563,-0.31413722038269043,-0.17178665101528168
1772480046174798800,9.936798828125,0.09801170229911804,-0.31483709812164307,-0.19899271428585052
1772480046184796700,9.946796630859374,0.1285484880208969,-0.2701280117034912,-0.21883445978164673
1772480046194794800,9.956794677734376,0.14706732332706451,-0.2104489654302597,-0.2012336254119873
1772480046204791800,9.966791748046875,0.13723748922348022,-0.1571204662322998,-0.15417498350143433
1772480046214789600,9.97678955078125,0.12302979826927185,-0.14482438564300537,-0.07651880383491516
1772480046224787700,9.98678759765625,0.1183459609746933,-0.1500379741191864,-0.007415632717311382
1772480046234785500,9.99678564453125,0.1185920387506485,-0.16001789271831512,0.03980487585067749
1772480046244783600,10.00678369140625,0.12024378776550293,-0.18460611999034882,0.060088150203228
1772480046254781700,10.01678173828125,0.1278148889541626,-0.200678288936615,0.04752921313047409
1772480046264778500,10.026778564453124,0.10581593960523605,-0.22747664153575897,0.012592229060828686
1772480046274776600,10.036776611328126,0.06409060209989548,-0.26394838094711304,-0.02479136362671852
1772480046284774700,10.046774658203125,0.04375200346112251,-0.34870755672454834,-0.06063065305352211
1772480046294772700,10.056772705078124,0.05136598274111748,-0.4033747911453247,-0.07045931369066238
1772480046304770800,10.066770751953126,0.08697051554918289,-0.4614279568195343,-0.056054648011922836
1772480046314768600,10.0767685546875,0.1153065487742424,-0.48994213342666626,-0.030933581292629242
1772480046324765700,10.086765625,0.11898709088563919,-0.49524933099746704,-0.003013461362570524
1772480046334763800,10.096763671875,0.09232299029827118,-0.5314563512802124,0.012942868284881115
1772480046344761600,10.10676171875,0.0511641763150692,-0.533932626247406,0.046086572110652924
1772480046354759700,10.116759765625,0.0053380983881652355,-0.6171726584434509,0.045377906411886215
1772480046364757800,10.1267578125,-0.06417115032672882,-0.6494483351707458,0.023238619789481163
1772480046374755600,10.136755615234375,-0.076955646276474,-0.6889120936393738,0.02774122543632984
1772480046384752600,10.146752685546875,-0.07626562565565109,-0.7245335578918457,0.008818726986646652
1772480046394750700,10.156750732421875,-0.06505744904279709,-0.6200383305549622,-0.05204302817583084
1772480046404748800,10.166748779296874,-0.02844838798046112,-0.39787155389785767,-0.16196519136428833
1772480046414747000,10.176746826171875,0.012926748022437096,-0.14384618401527405,-0.2539513111114502
1772480046424744700,10.18674462890625,0.009810947813093662,0.05080670863389969,-0.3037831485271454
1772480046434742800,10.19674267578125,0.013804091140627861,0.20783548057079315,-0.3076745569705963
1772480046444740900,10.206740966796875,0.018791962414979935,0.33763620257377625,-0.2987355887889862
1772480046454737700,10.216737548828124,0.02604561299085617,0.4224908947944641,-0.25361791253089905
1772480046464735700,10.22673583984375,0.0077299438416957855,0.3787587583065033,-0.15408608317375183
1772480046474733600,10.236733642578125,-0.01624942570924759,0.2737106382846832,-0.015134600922465324
1772480046484731600,10.246731689453124,-0.036965906620025635,0.13494358956813812,0.09980928897857666
1772480046494729700,10.256729736328126,-0.05906747654080391,-0.01895330101251602,0.15791574120521545
1772480046504727600,10.2667275390625,-0.08804621547460556,-0.14783720672130585,0.1719197928905487
1772480046514724600,10.276724609375,-0.12242016941308975,-0.26162317395210266,0.16615591943264008
1772480046524722700,10.28672265625,-0.1524372696876526,-0.3329545557498932,0.14681431651115417
1772480046534720800,10.296720703125,-0.17977619171142578,-0.3555746376514435,0.13175652921199799
1772480046544718800,10.30671875,-0.2038319706916809,-0.33001139760017395,0.12027861922979355
1772480046554716700,10.316716552734375,-0.21166539192199707,-0.3158476650714874,0.10634708404541016
1772480046564714800,10.32671484375,-0.208731010556221,-0.3319583535194397,0.08959896862506866
1772480046574711600,10.336711669921876,-0.19412782788276672,-0.33190056681632996,0.08343561738729477
1772480046584709600,10.346709716796875,-0.1605803370475769,-0.3216492235660553,0.08086472749710083
1772480046594707700,10.356707763671874,-0.12807777523994446,-0.2793334722518921,0.08815566450357437
1772480046604705500,10.36670556640625,-0.08224545419216156,-0.213773712515831,0.11575689911842346
1772480046614703600,10.37670361328125,-0.029366791248321533,-0.13848428428173065,0.14392249286174774
1772480046624701700,10.38670166015625,0.0341089628636837,-0.07250048220157623,0.15782898664474487
1772480046634698800,10.39669873046875,0.10953260958194733,0.012086570262908936,0.12945273518562317
1772480046644696800,10.40669677734375,0.18759427964687347,0.10584209859371185,0.06949912756681442
1772480046654694700,10.416694580078126,0.25443217158317566,0.18501867353916168,0.03356269747018814
1772480046664692700,10.426692626953125,0.31686994433403015,0.2391813099384308,0.04265761747956276
1772480046674690800,10.43669091796875,0.3591875731945038,0.2500408887863159,0.10437824577093124
1772480046684688600,10.446688720703126,0.3677084743976593,0.20676325261592865,0.19380152225494385
1772480046694685700,10.456685791015625,0.37728679180145264,0.16025327146053314,0.27650919556617737
1772480046704683800,10.466683837890624,0.3890818655490875,0.11557701230049133,0.3611842393875122
1772480046714681600,10.476681640625,0.39864686131477356,0.03410239890217781,0.44205671548843384
1772480046724679700,10.4866796875,0.40171968936920166,-0.04541385918855667,0.5091663599014282
1772480046734677500,10.496677490234376,0.39226120710372925,-0.10092505067586899,0.5246188640594482
1772480046744675600,10.506675537109375,0.3709065318107605,-0.13061486184597015,0.49740296602249146
1772480046754673700,10.516673583984375,0.34546536207199097,-0.13760165870189667,0.4451432228088379
1772480046764670700,10.526670654296876,0.32632699608802795,-0.09895648807287216,0.38312098383903503
1772480046774668800,10.536668701171875,0.29954278469085693,-0.05717548355460167,0.308631032705307
1772480046784667000,10.5466669921875,0.2783202528953552,-0.0019241729751229286,0.2401634305715561
1772480046794664700,10.556664794921875,0.25600242614746094,0.050061799585819244,0.1901002675294876
1772480046804662800,10.566662841796875,0.24961034953594208,0.06115476414561272,0.11959657818078995
1772480046814660600,10.57666064453125,0.24967744946479797,0.060352619737386703,0.0474022775888443
1772480046824657700,10.58665771484375,0.2670285403728485,0.06890815496444702,0.010370917618274689
1772480046834655700,10.59665576171875,0.27639061212539673,0.08022738993167877,0.015148364007472992
1772480046844653600,10.606653564453126,0.27359047532081604,0.09316399693489075,0.029057588428258896
1772480046854651600,10.616651611328125,0.25129956007003784,0.11818785220384598,0.03082938864827156
1772480046864649700,10.626649658203124,0.21994417905807495,0.13706327974796295,0.030279722064733505
1772480046874647600,10.6366474609375,0.1894453912973404,0.17445166409015656,0.037737637758255005
1772480046884644900,10.646644775390625,0.15691551566123962,0.1915334314107895,0.04365670680999756
1772480046894642700,10.656642578125,0.11656569689512253,0.17477361857891083,0.07301699370145798
1772480046904640800,10.666640869140625,0.10651335120201111,0.13406802713871002,0.11240630596876144
1772480046914638800,10.676638916015625,0.06013786792755127,0.08779213577508926,0.2796991765499115
1772480046924636700,10.68663671875,0.05811372026801109,0.15148873627185822,0.3841669261455536
1772480046934634800,10.696634765625,0.10991965979337692,0.1311994343996048,0.38831427693367004
1772480046944631600,10.706631591796874,0.17369942367076874,0.03404828533530235,0.344723641872406
1772480046954629600,10.716629638671876,0.2160487323999405,0.10723168402910233,0.3104221224784851
1772480046964627700,10.726627685546875,0.2348196804523468,0.07101033627986908,0.1918657422065735
1772480046974625500,10.73662548828125,0.23532861471176147,0.047502610832452774,0.07916396856307983
1772480046984623600,10.74662353515625,0.21902689337730408,0.06823647767305374,0.023832006379961967
1772480046994621700,10.75662158203125,0.15642796456813812,0.10088976472616196,-0.026433827355504036
1772480047004619500,10.76661962890625,0.06856758892536163,0.12667278945446014,-0.0949183851480484
1772480047014616800,10.776616943359375,-0.007593759335577488,0.18749698996543884,-0.15163305401802063
1772480047024614700,10.78661474609375,-0.06364378333091736,0.22176551818847656,-0.1935417503118515
1772480047034612700,10.79661279296875,-0.09743955731391907,0.21082818508148193,-0.20025531947612762
1772480047044610800,10.80661083984375,-0.10755500197410583,0.1686183512210846,-0.1727229654788971
