time,seconds_elapsed,z,y,x
1772566919375050000,0.078050048828125,0.21766718389093875,-0.006477598516270518,0.020312574058026073
1772566919385078800,0.088078857421875,0.20579262170195578,0.00455408310778439,0.021688246325403452
1772566919395108000,0.098108154296875,0.18903204103708265,0.02439947804547846,0.01870367755666375
1772566919405137200,0.10813720703125,0.11303542754948138,0.032525209094956514,0.04273088822364807
1772566919415166000,0.118166015625,0.03132569711208343,0.030639833739772436,0.044658787546306845
1772566919425196000,0.128196044921875,0.038483752173185344,0.03947356692813336,0.0034415187560021877
1772566919435224000,0.13822412109375,0.011535539492964745,0.03084697368443012,-0.011250000549852847
1772566919445254000,0.14825390625,0.030096447578072547,-0.019677344894409178,-0.01956044051647186
1772566919455283000,0.158282958984375,0.09103402362167835,-0.016586539272218943,-0.012304624169319867
1772566919465312000,0.16831201171875,0.07008183648586273,-0.01745009729899466,0.008286766830086707
1772566919475341000,0.178341064453125,0.06675239980220794,-0.019323782216385005,0.01807780074328184
1772566919485369900,0.188369873046875,0.052098436027765274,0.028787776132300495,0.0029207097522914406
1772566919495399000,0.19839892578125,0.025521979269385337,0.021269436391443013,-0.02945230445563793
1772566919505428000,0.208427978515625,0.06619184330999851,0.002256692885607481,-0.04644201770126819
1772566919515457000,0.21845703125,0.09057517393827438,0.008131430137902497,-0.022350509626418352
1772566919525486300,0.228486328125,0.13307868314683435,-0.010545870868489146,-0.007240472647547722
1772566919535515400,0.238515380859375,0.1431108323395252,0.004975158064067364,-0.002143587899953127
1772566919545544200,0.248544189453125,0.12872633315622806,0.057593964704126116,-0.018163433200120926
1772566919555573200,0.2585732421875,0.12585223902463913,0.07403839209191501,-0.006095978787541389
1772566919565602300,0.268602294921875,0.12459317887425422,0.06945683645531535,-0.012689531833678483
1772566919575631000,0.278631103515625,0.10610416698157786,0.032468145145475864,0.002695961085706949
1772566919585660200,0.28866015625,0.11861644255220889,0.008148819664120673,0.0020274141743779183
1772566919595689200,0.298689208984375,0.13735329172611235,0.0060404492080211635,-0.017350363251566886
1772566919605718000,0.308718017578125,0.13980945270657538,0.029578049727156757,-0.03112827484384179
1772566919615747300,0.318747314453125,0.1295651220679283,0.04062171404995024,-0.030555881783366202
1772566919625776400,0.3287763671875,0.12414601962864398,0.04587568905539811,-0.05028144973367452
1772566919635805200,0.33880517578125,0.09245441181361674,0.0465865407384932,-0.01746989797800779
1772566919645834200,0.348834228515625,0.08943535625338554,0.0071772712182253595,0.0027143735252320765
1772566919655863300,0.35886328125,0.08980009791254996,-0.01729381075873971,0.015616379065811634
1772566919665892000,0.36889208984375,0.0603144757091999,-0.036079832836613056,0.0083110244885087
1772566919675921200,0.378921142578125,0.04734101236760616,-0.03952617389820516,-0.005836597198992967
1772566919685950200,0.3889501953125,0.019597849917411803,-0.02811360319778323,-0.0033700609549880025
1772566919695979000,0.39897900390625,0.031251462832093235,-0.0431739558160305,-0.012880816622078418
1772566919706008300,0.40900830078125,0.052878188228607174,-0.03329524361938238,0.0012770341984927654
1772566919716037400,0.419037353515625,0.09031330813169479,-0.023864567451179024,0.020136632969230413
1772566919726066200,0.429066162109375,0.11670856310427188,-0.02582337336875498,0.03713409112989902
1772566919736095200,0.43909521484375,0.1459007553189993,-0.018268135683611034,0.04233092912063002
1772566919746124300,0.449124267578125,0.16826748542785644,-0.02101071239002049,0.03329641266316175
1772566919756153000,0.459153076171875,0.15619009414315224,-0.015117489632964134,0.030501375117152927
1772566919766182100,0.46918212890625,0.14138707728683947,0.008017375304177402,0.016913433139026164
1772566919776211200,0.479211181640625,0.09407938266694545,0.017971856150776146,0.02566138774007559
1772566919786240000,0.489239990234375,0.05172726462781429,0.0057792409885674715,0.01692819231674075
1772566919796269000,0.49926904296875,0.03175064452588558,0.00074658058360219,0.0064719724930822845
1772566919806298400,0.50929833984375,0.060226212903857226,-0.013815394058451056,-0.0001493453428149223
1772566919816327400,0.519327392578125,0.08393617431521415,-0.012923194459080696,0.005636106190830469
1772566919826356200,0.529356201171875,0.14681377851068972,-0.0074538231372833245,0.01535772812962532
1772566919836385300,0.53938525390625,0.16898469378650188,0.007571238971874118,0.030852965033799407
1772566919846414300,0.549414306640625,0.16206687722206115,0.028655528054758905,0.025865239749103784
1772566919856443100,0.559443115234375,0.11613222452104091,0.03899498963095248,0.03993365872055292
1772566919866472200,0.56947216796875,0.0643225423067808,0.03621091187037527,0.040991204949468375
1772566919876501200,0.579501220703125,0.023902853634953498,0.0014507102649658917,0.02947451628744602
1772566919886530000,0.589530029296875,0.008285013264417648,-0.029655206616595386,0.008663491187989711
1772566919896559400,0.599559326171875,0.02835340330302715,-0.03987367216162383,0.019701748683303592
1772566919906588400,0.60958837890625,0.06512158372998238,-0.046939445829391475,0.04570288977175951
1772566919916617200,0.6196171875,0.13221592883765695,-0.02731901875399053,0.06895385536924004
1772566919926646300,0.629646240234375,0.1661725589752197,0.002138619463890791,0.08617898480594158
1772566919936675300,0.63967529296875,0.13988602507412431,0.02140336496941745,0.09132511552274226
1772566919946704100,0.6497041015625,0.1492985810637474,0.008116159503534436,0.08613134627193211
1772566919956733200,0.659733154296875,0.0971931307733059,0.005338657614216208,0.08199614616334437
1772566919966762200,0.66976220703125,0.09268237535059451,-0.024300401585176587,0.048072833773493764
1772566919976791000,0.679791015625,0.1078933884859085,-0.030618133364617824,0.0357986047424376
1772566919986820000,0.689820068359375,0.1336176123291254,-0.025427652049437165,0.031841245418787
1772566919996849400,0.699849365234375,0.16247195089161395,-0.031627602668106554,0.059956163790822026
1772566920006878200,0.709878173828125,0.14805588752627372,-0.023177535035088657,0.0847520207427442
1772566920016907300,0.7199072265625,0.13767302519977093,-0.004374415691941976,0.09332038099318742
1772566920026936300,0.729936279296875,0.08457973291575908,0.010895561088994145,0.11525339585989713
1772566920036965000,0.739965087890625,0.021353169152140618,0.03212561531811953,0.11379238339662551
1772566920046994200,0.749994140625,-0.008336451190710067,0.018225027194246648,0.07775412467941642
1772566920057023200,0.760023193359375,-0.033864860200881954,-0.007422697346657514,0.031912703219801185
1772566920067052000,0.770052001953125,0.018950784185528754,-0.022139424159005282,0.015359043303877114
1772566920077081000,0.7800810546875,0.07818973961770534,-0.0034838965930044648,0.032184213637560605
1772566920087110400,0.7901103515625,0.13039455862939356,0.01931253017000854,0.06011179274395108
1772566920097139200,0.80013916015625,0.16789280689656733,0.04823723055496812,0.0678248513393104
1772566920107168300,0.810168212890625,0.17913842353224754,0.028581220709532496,0.06328647725731135
1772566920117197300,0.820197265625,0.18456044858098028,0.030756811182945966,0.06145195530653
1772566920127226000,0.83022607421875,0.16740239303112028,0.04516498350277543,0.053613224504888056
1772566920137255200,0.840255126953125,0.1461737270414829,0.04549903776273131,0.0544729100741446
1772566920147284200,0.8502841796875,0.12016893269121647,0.010883797585964201,0.024644758043438193
1772566920157313000,0.86031298828125,0.08529460318684577,-0.015412892382964491,0.016406944921612737
1772566920167342000,0.870342041015625,0.09114332921504974,-0.030566987699270246,-0.001490676949173212
1772566920177371100,0.88037109375,0.09346446563899516,-0.021989713490009305,0.007197218027710914
1772566920187400200,0.890400146484375,0.11995616672337055,-0.012662351565808057,0.020749504170566795
1772566920197429200,0.90042919921875,0.1262099664211273,0.0006456044271588325,0.01677986988723278
1772566920207458300,0.910458251953125,0.10900748720765113,0.0036546500500291585,0.06273644215911627
1772566920217487400,0.9204873046875,0.10244038377702236,0.014986264468729495,0.06355316536948084
1772566920227516200,0.93051611328125,0.07280687753558159,0.006649521017074584,0.033184915112704036
1772566920237545200,0.940545166015625,0.059731707385182374,-0.007845452803373336,0.00048486090749502177
1772566920247574300,0.95057421875,0.050207507714629174,-0.008841039711982012,-0.012577888152748346
1772566920257603000,0.96060302734375,0.030392800176143646,0.004578194635733962,0.010917115333676338
1772566920267632000,0.970632080078125,0.0025870938837528226,0.019721476297080515,0.024115473472326992
1772566920277661400,0.980661376953125,-0.011775193467736244,0.004203735300153493,0.017134820804744957
1772566920287690200,0.990690185546875,-0.016061492484807968,-0.02736797246225178,0.024237492416799067
1772566920297719300,1.00071923828125,-0.024185177707672117,-0.02359327622912824,0.03582446983605623
1772566920307748400,1.010748291015625,0.011503975310921668,-0.03523943648971617,0.04808057868853211
1772566920317777200,1.020777099609375,0.08255085743665695,-0.0418062476594001,0.024557664281874895
1772566920327806200,1.03080615234375,0.17917758649885654,-0.015992007445171475,-0.0015000292994081974
1772566920337835300,1.040835205078125,0.2712047128111124,0.011327084374055265,-0.03300955854579806
1772566920347864000,1.050864013671875,0.31271102767586706,0.028248043232411143,-0.02807970092818141
1772566920357893000,1.06089306640625,0.31446693143248555,0.06041742462702095,-0.0047479251794517036
1772566920367922400,1.07092236328125,0.2832815195739269,0.09440401151143014,0.016937983058393
1772566920377951200,1.080951171875,0.19055822769105432,0.09927665904909372,0.03913140242695808
1772566920387980300,1.090980224609375,0.0762479579001665,0.07233699500150978,0.04716200253888964
1772566920398009300,1.10100927734375,-0.004038461735844612,0.02253792195729911,0.008897153813391923
1772566920408038100,1.1110380859375,-0.019431261178851127,-0.015429916583001612,-0.04594035178944468
1772566920418067200,1.121067138671875,0.008793547308444977,-0.03501395717076957,-0.04353066029921174
1772566920428096300,1.13109619140625,0.0025724808365106583,-0.03077500442676246,0.002074906577914953
1772566920438125000,1.141125,0.05888415064513683,-0.006986717082187533,0.01702478455901146
1772566920448154000,1.151154052734375,0.0926566563874483,0.010587518053129314,0.023079846814274788
1772566920458183200,1.16118310546875,0.13302782974243163,-0.013003712349385022,0.05913754088431596
1772566920468212200,1.171212158203125,0.1673977168560028,-0.014916121841967105,0.04494871040359139
1772566920478241300,1.1812412109375,0.1620113476425409,-0.0037732349283993243,0.01867445146217942
1772566920488270300,1.191270263671875,0.12670564098358153,0.0003319353681057691,-0.0010053776502609252
1772566920498299100,1.201299072265625,0.06340484293997288,-0.006173647133633494,0.016895020699501037
1772566920508328200,1.211328125,0.04136778317689895,-0.016730550852790474,0.012568681932985782
1772566920518357200,1.221357177734375,0.059872577160596845,-0.01652238799482584,0.012584756284952163
1772566920528390100,1.23139013671875,0.0980512089073658,-0.020858298307284712,0.025499475176632404
1772566920538419200,1.241419189453125,0.12668693628311156,-0.00438895567394793,0.04078457646146416
1772566920548448300,1.2514482421875,0.1145551844626665,0.015520371345430611,0.03737798288837075
1772566920558477000,1.26147705078125,0.130789110904932,0.042436362256482243,0.0186851189866662
1772566920568506400,1.27150634765625,0.07495674904584884,0.043649172112345695,0.04043532463237643
1772566920578535400,1.281535400390625,0.042512861558794975,0.01754873536787927,0.03429579896405339
1772566920588564200,1.291564208984375,0.04613455918729305,0.029353008799627423,-0.00025222119539976116
1772566920598594300,1.30159423828125,0.054041386789083476,0.006541968989372253,-0.008146919967979192
1772566920608622300,1.311622314453125,0.09536766891181468,0.011532616883516311,-0.003609861060231924
1772566920618651100,1.321651123046875,0.15952596056759358,0.07000621396638453,-0.0060718672595918175
1772566920628681200,1.33168115234375,0.2002712279319763,0.12007928164638579,0.005143646498769521
1772566920638709200,1.341709228515625,0.22615035007596015,0.1393322636488825,0.020609218917042017
1772566920648739300,1.3517392578125,0.19401275205910204,0.0892055660855025,0.03759644794464111
1772566920658768100,1.36176806640625,0.14931377863287926,0.029302520721405743,0.03136091455593705
1772566920668797200,1.371797119140625,0.12180676302611827,-0.008162263667583465,0.0370360375829041
1772566920678826200,1.381826171875,0.06086684889495372,-0.07629260075949132,0.06651844491586088
1772566920688855300,1.391855224609375,0.021740707165002822,-0.10087196541652083,0.09206468184366821
1772566920698884400,1.40188427734375,0.02047989344894886,-0.05738251391053199,0.08404942543134093
1772566920708913400,1.411913330078125,0.04351882373094559,-0.02063113848790526,0.06226034907996654
1772566920718942200,1.421942138671875,0.06230827987492084,-0.005698503902554512,0.024969898344576358
1772566920728971300,1.43197119140625,0.08723930751383305,-0.00804557848535478,0.0021725217334926127
1772566920739000300,1.442000244140625,0.11134499024450778,-0.0295695741597563,0.009014204321801661
1772566920749029000,1.452029052734375,0.1279103405982256,-0.03360876654796302,0.01599880251213908
1772566920759058200,1.46205810546875,0.14483049573898316,-0.013014818265289068,0.02919058477953076
1772566920769087200,1.472087158203125,0.14016308844983577,-0.022212270199507472,0.04751519989073276
1772566920779116000,1.482115966796875,0.16392682587504387,0.006261617678031325,0.04665916758328676
1772566920789145300,1.492145263671875,0.11823767236769199,0.052660746085643764,0.04449702111333608
1772566920799174400,1.50217431640625,0.09172375945150851,0.03404628118239343,0.005987988368421793
1772566920809203200,1.512203125,0.053933834761381146,0.012549173514917493,-0.0038958383947610854
1772566920819232300,1.522232177734375,0.06488017618954181,-0.018031112057343125,-0.015603519584238529
1772566920829261300,1.53226123046875,0.08141746949255466,-0.057559112586453555,0.015760755972564218
1772566920839290000,1.5422900390625,0.12488485529720783,-0.07638955832794309,0.04815832009986043
1772566920849319200,1.552319091796875,0.15860241598188876,-0.07236081426851451,0.07467880888730287
1772566920859348200,1.56234814453125,0.1682698235154152,-0.064176704095304,0.09707023504599928
1772566920869377300,1.572377197265625,0.14924422052800654,-0.050786622776836154,0.08630334183797239
1772566920879406300,1.58240625,0.08428805649280548,0.0013935001850128173,0.06424523928686976
1772566920889435400,1.592435302734375,0.021467735442519186,0.037249607268348334,0.016299831285327672
1772566920899464400,1.60246435546875,-0.007737900775671005,0.015437807628512382,-0.01875613839626312
1772566920909493200,1.6124931640625,0.0045960956186056135,-0.026967867228761315,-0.0344194253437221
1772566920919522300,1.622522216796875,0.05844751279354095,-0.04932056881226599,-0.013752484890073536
1772566920929551400,1.63255126953125,0.1278232468366623,-0.058926236221194264,0.04701353397890925
1772566920939580200,1.642580078125,0.1611971086502075,-0.05838796462602913,0.0989626246638596
1772566920949609200,1.652609130859375,0.14883213259577752,-0.04399981218092143,0.08766776205897331
1772566920959638300,1.66263818359375,0.08704407720267772,-0.022985738790035248,0.05093509133681655
1772566920969667000,1.6726669921875,0.0181079036206007,-0.02086786985322833,0.010095862078666687
1772566920979696400,1.6826962890625,-0.01687690052092075,-0.029301351677626368,0.002207008524984121
1772566920989725400,1.692725341796875,0.0034457565397024155,-0.013889701403677462,0.0029613340236246586
1772566920999754200,1.702754150390625,0.027163316735625265,-0.0017308423805981873,0.008109802827984094
1772566921009783300,1.712783203125,0.1344236680150032,0.0020266104567795993,0.011362228752672671
1772566921019812400,1.722812255859375,0.21417232751250265,0.006814940711855888,0.020846388673782346
1772566921029841200,1.732841064453125,0.27779519711732864,-0.010629530563950537,0.03335997941866517
1772566921039870200,1.7428701171875,0.29816695401668547,0.014267229479178786,0.019233838910609483
1772566921049899300,1.752899169921875,0.23282968170940874,0.02686908302940428,0.010362988582253456
1772566921059928000,1.762927978515625,0.13561141649484634,0.011245251309499145,0.0005178863942623138
1772566921069957400,1.772957275390625,0.0477922632664442,0.015408727664500474,-0.008018179021775722
1772566921079986400,1.782986328125,-0.009707155022025108,-0.009563947159051895,-0.011429302639514208
1772566921090015200,1.79301513671875,-0.07119184355437755,-0.02605930101647973,0.0064072366937994955
1772566921100044300,1.803044189453125,-0.04656885895133018,-0.041129298245906824,0.0288654444783926
1772566921110073300,1.8130732421875,0.0254103355884552,-0.038426030636578797,0.01998290371224284
1772566921120102100,1.82310205078125,0.12108546301424503,-0.02585179574564099,0.0035148762531578537
1772566921130131200,1.833131103515625,0.17978607378602027,-0.016370193107798695,0.018397680347412824
1772566921140160300,1.84316015625,0.17692776174545288,0.02695785729140043,0.030513650076836346
1772566921150189000,1.85318896484375,0.15767653330862522,0.07339673318751155,0.018721067082881928
1772566921160218000,1.863218017578125,0.14783143112063407,0.07055054997615516,-0.009954846172779797
1772566921170247400,1.873247314453125,0.12832652018368243,0.05893164304867386,0.003212532305717468
1772566921180276200,1.883276123046875,0.0972094973862171,0.06819982213154435,0.013211802142113446
1772566921190305300,1.89330517578125,0.07911737585663794,0.055331938056275246,0.00154021517932415
1772566921200334300,1.903334228515625,0.08061608998179436,0.04954502521790564,-0.0011709434755146503
1772566921210363100,1.913363037109375,0.11304068824648857,0.02182845851369202,0.009816752876341343
1772566921220392200,1.92339208984375,0.09577098901569843,-0.023043314196169375,0.006649813278019428
1772566921230421200,1.933421142578125,0.08424012569785118,-0.017435849577933548,0.021705635851621625
1772566921240450000,1.943449951171875,0.04189619096517563,0.014406711015105246,0.06100158119052648
1772566921250479000,1.95347900390625,0.02497194417119026,0.011536781601980328,0.08114084450826048
1772566921260508400,1.96350830078125,0.05993336743712425,0.01770772532187402,0.06197320270165801
1772566921270537500,1.973537353515625,0.08857143290042876,0.028363486305624245,0.03554784485176205
1772566921280566300,1.983566162109375,0.1333119073808193,0.042487434856593606,0.014708324310183525
1772566921290595300,1.99359521484375,0.16364041014909744,0.04186886456683278,0.002257131277024746
1772566921300624400,2.003624267578125,0.15982991195023058,0.03833937526643276,-0.003736848440766334
1772566921310653200,2.013653076171875,0.1452729788094759,0.023163068118318916,0.005775806922465563
1772566921320682200,2.02368212890625,0.10290507867932319,0.0040245793409645556,0.034006899020075795
1772566921330711300,2.033711181640625,0.06609890432953834,0.0058898617561906575,0.044346798987686634
1772566921340740000,2.043739990234375,0.05696048910617828,0.006658800302073359,0.04876315412521362
1772566921350769400,2.053769287109375,0.06458382359147072,-0.0025048954930156466,0.05240940167307853
1772566921360798500,2.063798583984375,0.10409282715916633,0.008092047975584864,0.02609203424230218
1772566921370827300,2.0738271484375,0.1163590190142393,-0.00748180712275207,0.02460983286052942
1772566921380856300,2.083856201171875,0.16911153503656387,-0.005226356346160173,0.0037717736236751076
1772566921390885400,2.093885498046875,0.17372984248697756,-0.021915113883838055,0.02362330604121089
1772566921400914200,2.1039140625,0.14359715455174446,-0.022788608782738445,0.05433642421290278
1772566921410943200,2.113943115234375,0.08554477855563163,-0.006196662683039904,0.08349164541810751
1772566921420972300,2.12397216796875,0.05639993261396885,0.013967515880241988,0.08524199621677399
1772566921431001000,2.1340009765625,0.03207797678411007,0.042099239256605504,0.05527531249821186
1772566921441030100,2.144030029296875,0.02627250537574291,0.014754355408996342,0.02043722335100174
1772566921451059500,2.1540595703125,0.06005144085884094,-0.006837517869845032,0.0022907412856817246
1772566921461088300,2.164088134765625,0.09536825343370436,-0.0036720395762473343,-0.009021656975895166
1772566921471117300,2.174117431640625,0.147555536788702,-0.011740925871953368,-0.01162131808027625
1772566921481146400,2.184146484375,0.13604104008376597,-0.004700359710678458,0.002578764446824789
1772566921491175200,2.194175048828125,0.13450491655766963,-0.005603299899771809,0.031949966490268704
1772566921501204200,2.204204345703125,0.0968137760668993,0.026471023622527717,0.04441635709255933
1772566921511233300,2.2142333984375,0.0648673167079687,0.015723858028277755,0.04004004170447588
1772566921521262000,2.224261962890625,0.05056932676434517,-0.03097476478256285,0.03260448487624526
1772566921531287600,2.23428759765625,0.06507540650069714,-0.05252820574715733,0.03590367255210876
1772566921541316900,2.24431689453125,0.0825011730760336,-0.04583776819780468,0.0311256444953382
1772566921551345700,2.254345703125,0.134916419968009,-0.030522198709473012,0.01536401173993945
1772566921561374700,2.264374755859375,0.15286299554705618,0.006193228616937995,0.010145546439290045
1772566921571403800,2.27440380859375,0.13617957177162168,0.00966382733695209,0.013733926320075989
1772566921581432600,2.2844326171875,0.1261316404879093,0.013750804389640688,0.00219181095585227
1772566921591461600,2.294461669921875,0.11775602633059024,0.01899681528434157,0.02198138405308127
1772566921601490700,2.30449072265625,0.128118430390954,-0.017457696083560584,0.025081542025506495
1772566921611519500,2.31451953125,0.13046937743127346,-0.01032082994095981,0.032745354651659724
1772566921621548500,2.324548583984375,0.14909458292424677,-0.004717456975951791,0.022196341978013515
1772566921631577900,2.334577880859375,0.14392916298508643,-0.004525003143772482,0.013044044359773396
1772566921641606700,2.344606689453125,0.07790566197931766,-0.005966361058503389,0.020261282262206075
1772566921651635700,2.3546357421875,0.017376082214713096,-0.024627222386747596,0.02987564443424344
1772566921661664800,2.364664794921875,-0.034246552994847294,-0.03062953154146671,0.041862580956518645
1772566921671693600,2.374693603515625,-0.054120297244191165,-0.04529029038287699,0.05142053676620126
1772566921681722600,2.38472265625,-0.001315174251794815,-0.042251434143632645,0.038832711741328234
1772566921691751700,2.394751708984375,0.10017068527936934,0.002450608022511005,0.016819325114786624
1772566921701780500,2.404780517578125,0.21791443665027618,0.021782062088698147,-0.004303104021400213
1772566921711809500,2.4148095703125,0.27424598020315166,0.039899537255242465,0.006754296565800905
1772566921721838600,2.424838623046875,0.26835107694566246,0.02339161617718637,0.007149871754646301
1772566921731867600,2.43486767578125,0.23030162453651426,0.029133959221467373,0.026457214292883873
1772566921741896700,2.444896728515625,0.13834405632913113,0.016519026993960143,0.039905455539375544
1772566921751925800,2.45492578125,0.04068973778486252,0.0017396102089434862,0.04839008302912116
1772566921761954600,2.46495458984375,-0.025272388422489165,-0.017425766575336454,0.03732245330885053
1772566921771983600,2.474983642578125,-0.04016191451847553,-0.01931435680091381,0.008467968615889549
1772566921782012700,2.4850126953125,-0.019888357296586036,-0.02195011213198304,0.0027189035698771476
1772566921792041500,2.49504150390625,-0.03173544695675373,0.005184563031047583,0.03972118501365184
1772566921802070500,2.505070556640625,0.06169745450019836,0.005104775793105363,0.018509908550232646
1772566921812099600,2.515099609375,0.11577332808077334,-0.0027469606205821036,0.028812691377848386
1772566921822128600,2.525128662109375,0.18092822955846785,-0.035993250531703234,0.05789601639062166
1772566921832157700,2.53515771484375,0.20704057593643663,-0.025535423272848128,0.07948138686344026
1772566921842186800,2.545186767578125,0.2259258936703205,0.00796564511694014,0.05223404510617256
1772566921852215600,2.555215576171875,0.22174422407150268,0.025772812225297093,0.014609540110826491
1772566921862244600,2.56524462890625,0.15901275034844875,0.017150018373876807,0.02628668003156781
1772566921872273700,2.575273681640625,0.058228317084908485,0.018524667727947235,0.05931567393019795
1772566921882302500,2.585302490234375,-0.0018348142117261886,0.031749621612578625,0.04967734636068344
1772566921892331500,2.59533154296875,-0.005301613539457321,0.028030601089447736,0.016814648939669132
1772566921902360600,2.605360595703125,0.037568390893936154,-0.01639357398338616,-0.009178016581386327
1772566921912389600,2.6153896484375,0.06204056884944439,0.0012624942164868116,0.016260522188246248
1772566921922418700,2.625418701171875,0.12017945408523081,0.025073431784287094,0.014102321241050958
1772566921932447700,2.63544775390625,0.13072715158462522,0.03945880775041878,0.029411972445249557
1772566921942476800,2.645476806640625,0.14945347936451434,0.04263802230842411,0.046130175273120404
1772566921952505600,2.655505615234375,0.1424327869474888,0.05656820185296237,0.0679261197566986
1772566921962534700,2.66553466796875,0.13885785107016563,0.03191314161121845,0.0495548890247941
1772566921972563700,2.675563720703125,0.1254921735405922,0.01228540801219642,0.032325375673919916
1772566921982592500,2.685592529296875,0.10304068775773048,-0.008011310889571905,0.010638444522768258
1772566921992621600,2.69562158203125,0.08314239358901977,-0.020332082476094363,0.013974603208154439
1772566922002650600,2.705650634765625,0.10306289958953857,-0.011221432042494416,0.024871406406164167
1772566922012679700,2.7156796875,0.11416940001547336,0.0014624737679958342,0.04988587454482913
1772566922022708700,2.725708740234375,0.10050503180027008,0.018533070230111477,0.0669938073426485
1772566922032737800,2.73573779296875,0.06836684926152228,-0.00584478050544858,0.05521539900451898
1772566922042766600,2.7457666015625,0.050907764938473696,-0.0010476093567907809,0.04159633123576641
1772566922052795600,2.755795654296875,0.03865267899930477,-0.0001242109015583992,0.026591362066566943
1772566922062824700,2.76582470703125,0.07257189973592758,-0.03416077440753579,0.03069602090641856
1772566922072853500,2.775853515625,0.08688508724868298,-0.04003120081089437,0.03372778981775045
1772566922082882600,2.785882568359375,0.110764560008049,-0.02890563035830855,0.03843333716019988
1772566922092911600,2.79591162109375,0.1184720656454563,-0.007227759296447038,0.06836158856451512
1772566922102940700,2.805940673828125,0.1259141983449459,0.010974471544101834,0.05659983910024166
1772566922112969700,2.8159697265625,0.12076105336546897,0.034308512315154076,0.040352468654513356
1772566922122998800,2.825998779296875,0.11238193207681178,0.03967003934830427,0.013614537724107503
1772566922133027600,2.836027587890625,0.1042681837260723,0.015779825999215243,-0.0025777415335178373
1772566922143056600,2.846056640625,0.09829846166670322,-0.0014420885670930147,0.0010416180074214936
1772566922153085700,2.856085693359375,0.11478431704342365,0.0020134587142616508,0.004082008616626262
1772566922163114500,2.866114501953125,0.09841478152275085,0.008264920324459671,0.020009061066806316
1772566922173143600,2.8761435546875,0.08348258532881736,0.014571692318469285,0.04099588112458587
1772566922183172600,2.886172607421875,0.08313245671689509,0.03438223513849079,0.05483633655905723
1772566922193201700,2.89620166015625,0.08123802127242088,0.02077982624359429,0.031049948910623786
1772566922203230700,2.906230712890625,0.07824702276289462,-0.02017280026115477,0.01984510267674923
1772566922213259800,2.916259765625,0.08184767760336399,-0.04477649564184248,0.024440467642992732
1772566922223288600,2.92628857421875,0.1130085395425558,-0.03418525126166642,0.027394349012523887
1772566922233317600,2.936317626953125,0.10362228703796864,-0.038572672565653915,0.017745207788050173
1772566922243346700,2.9463466796875,0.11210311513543128,-0.004804916063696146,0.00925984964594245
1772566922253375500,2.95637548828125,0.12437982838451861,0.026950404637306927,0.01598901177048683
1772566922263404500,2.966404541015625,0.10715981351435183,0.026779797310754656,0.0277151053994894
1772566922273433600,2.97643359375,0.08921849863231182,0.026941490678489208,0.021347762324661016
1772566922283462400,2.98646240234375,0.08644728035330772,0.012864669204875827,0.013222177405655382
1772566922293491700,2.99649169921875,0.10410393307507038,-0.016925781163945792,0.019773498745262623
1772566922303520800,3.006520751953125,0.12367840211689471,-0.05662760389000177,0.03240867004320025
1772566922313549600,3.016549560546875,0.12166940038204192,-0.05708119287639856,0.03319850524663925
1772566922323579600,3.02657958984375,0.093968323507905,-0.051535029991343614,0.03749517952725291
1772566922333607700,3.036607666015625,0.04054945253133774,-0.0332137028157711,0.05172244232222437
1772566922343637800,3.0466376953125,0.014176409390568733,-0.003871580736339092,0.0546045736297965
1772566922353666600,3.05666650390625,0.015744681620597837,-0.0187586956795305,0.050950581166893244
1772566922363695600,3.066695556640625,0.045773909181356424,-0.03516644431874156,0.04253390434682369
1772566922373724700,3.076724609375,0.11013970610797405,-0.036610432581976056,0.027978578641265628
1772566922383753500,3.08675341796875,0.16067746869027613,-0.02466295128725469,0.02747150590196252
1772566922393782500,3.096782470703125,0.18213176012933252,0.006499225826188922,0.034175679715722794
1772566922403811600,3.1068115234375,0.2052729817420244,0.020142916579544545,0.018841916983574628
1772566922413840600,3.116840576171875,0.16928221542835234,0.03271532483957708,0.03275792187228799
1772566922423869700,3.12686962890625,0.08250643377304076,0.04509980931207538,0.07046279862746596
1772566922433898800,3.136898681640625,0.05019873988628387,0.03979863416403532,0.04468173003047705
1772566922443927600,3.146927490234375,0.03543488599658012,-0.0034936142694205045,0.005447451750934124
1772566922453956600,3.15695654296875,0.038864860445261,-0.06045161915756762,0.01702025451436639
1772566922463985700,3.166985595703125,0.08617080149948596,-0.06899119170494378,0.02860810871645808
1772566922474014500,3.177014404296875,0.1427495978116989,-0.06074556060284376,0.02185498119443655
1772566922484043500,3.18704345703125,0.16352993551194667,-0.05808993152752518,0.01984159554541111
1772566922494072600,3.197072509765625,0.16218787325322628,-0.05188859266936779,0.04136924448162317
1772566922504101600,3.2071015625,0.1172521684616804,-0.005328209285438061,0.06739274353235959
1772566922514130700,3.217130615234375,0.07677168951332569,0.016962971369177102,0.051393210367858405
1772566922524159700,3.22715966796875,0.05316928012967109,0.007691650481149554,0.03053001668974757
1772566922534188300,3.237188232421875,0.06773147396743297,-0.013154153670743107,0.013083791848272084
1772566922544217000,3.247217041015625,0.06427694959938526,-0.026399858082458375,-0.0017959435060620308
1772566922554246100,3.25724609375,0.0709025052189827,-0.017098361251875756,-0.007180120762437582
1772566922564275200,3.267275146484375,0.11803835040330886,-0.011079174027591943,-0.013242635671794414
1772566922574304000,3.277303955078125,0.13604104008376597,-0.025819208650290963,0.021979776617884635
1772566922584333000,3.2873330078125,0.12522796964645386,-0.03260623844191432,0.04059489910826087
1772566922594362400,3.2973623046875,0.11852817974686622,-0.0018521306727081535,0.03432414827570319
1772566922604391200,3.30739111328125,0.09109773650765418,0.024424320225790143,0.024559563978016376
1772566922614420200,3.317420166015625,0.02603109783530235,0.03475574462600052,0.026751374933868644
1772566922624449300,3.32744921875,0.014353519523143768,0.043078313421830536,0.0103686876706779
1772566922634478300,3.337478271484375,0.019513678765296937,0.05795074225254356,-0.01027194929793477
1772566922644507100,3.347507080078125,0.05151800579130649,0.04376052353233099,-0.010273556733131408
1772566922654536200,3.3575361328125,0.11977321137189864,0.043913887463137506,0.007223375382274389
1772566922664565200,3.367565185546875,0.1911222913146019,0.037041809736564756,0.0009697218149900435
1772566922674594000,3.377593994140625,0.20564649122953413,0.05265855412855744,0.018181845639646053
1772566922684623400,3.387623291015625,0.191321613278985,0.061621320524066686,0.026065000104904174
1772566922694652400,3.39765234375,0.17850480180382727,0.058069619391858576,0.007981208012253046
1772566922704681200,3.40768115234375,0.13570143286585806,0.033365678507089616,-0.022493863619863986
1772566922714710300,3.417710205078125,0.11492752490639686,0.0038349750529974697,-0.04899623222872614
1772566922724739300,3.4277392578125,0.11515782653093337,-0.00809782012924552,-0.039352059440314766
1772566922734768000,3.43776806640625,0.12167524560093879,-0.02227671373784542,-0.009547872807085514
1772566922744797200,3.447797119140625,0.09679916301965713,-0.011498641548678279,0.03394391678646207
1772566922754826200,3.457826171875,0.07683423335552216,-0.012401362542062998,0.05687251856178045
1772566922764855000,3.46785498046875,0.06158639534115791,-0.015967968982458114,0.05160393050909042
1772566922774884000,3.477884033203125,0.05920739125013351,-0.015122969525679946,0.04547434171289205
1772566922784913400,3.487913330078125,0.05808510922193527,-0.0022788316521793603,0.020446137309819458
1772566922794942200,3.497942138671875,0.0682008450448513,-0.007771291588619351,-0.015359481695294379
1772566922804971300,3.50797119140625,0.10051964484751225,-0.012447466706112027,-0.024811492912471294
1772566922815000300,3.518000244140625,0.12567337532639503,-0.01614902463778853,-0.013479074776172637
1772566922825029000,3.528029052734375,0.16397183406054971,-0.005379793342202901,-0.03130012427940965
1772566922835058200,3.53805810546875,0.17213234416246412,0.02051576847992837,-0.01614595589786768
1772566922845087200,3.548087158203125,0.13329612528979778,0.03104227706082165,0.00007043488770723343
1772566922855116000,3.558115966796875,0.10134148262441157,0.04271832100301981,-0.0030769232273101803
1772566922865145000,3.56814501953125,0.044727614998817444,0.03619797932356596,-0.031644407672435045
1772566922875174400,3.57817431640625,0.03027940292954445,0.002944236758351326,-0.05669511616826057
1772566922885203200,3.588203125,0.0547246928781271,-0.024827786460146307,-0.01624021005257964
1772566922895232300,3.598232177734375,0.08247194698154926,-0.03782850313484668,0.01658113244473934
1772566922905261300,3.60826123046875,0.1530547187268734,-0.01740552750490606,0.010060498504340648
1772566922915290000,3.6182900390625,0.20343349135518074,-0.007005640978366136,-0.002232289096713066
1772566922925319200,3.628319091796875,0.21577157940268515,-0.02429075697399676,0.01610328579992056
1772566922935348200,3.63834814453125,0.1809212152957916,-0.0018373714949935674,0.013613222549855709
1772566922945377000,3.648376953125,0.13654372890889643,0.006421265219151973,-0.020912878038734196
1772566922955406000,3.658406005859375,0.07398878079652786,-0.03142053578868508,-0.027122400203347205
1772566922965435400,3.668435302734375,0.027252748584747313,-0.039673254218697544,-0.006625263358652591
1772566922975464200,3.678464111328125,-0.004088730618357658,-0.015936916257068515,0.017537410256266595
1772566922985493200,3.6884931640625,0.027259178325533866,-0.028322569773346185,0.012123568513989448
1772566922995522300,3.698522216796875,0.06685586017668246,-0.045947292986884714,0.01508884806036949
1772566923005551000,3.708551025390625,0.10838672496080398,-0.09797427121363579,0.030049247435480354
1772566923015580200,3.718580078125,0.12348901702463626,-0.09203056037835776,0.05640314748436212
1772566923025609200,3.728609130859375,0.10087328059077262,-0.03973324077762663,0.060451692222803825
1772566923035638300,3.73863818359375,0.0765881496399641,-0.0021717910811305044,0.05746376245319843
1772566923045667000,3.7486669921875,0.06599953560829162,-0.0005472586192190647,0.050077451594173907
1772566923055696100,3.758696044921875,0.09707797996103763,-0.015555881050229071,0.043552579870074985
1772566923065725400,3.768725341796875,0.12524842791259289,-0.037945992034673685,0.017163023985922336
1772566923075754200,3.778754150390625,0.15074235013127327,-0.041581279797106976,-0.00803410724326968
1772566923085783300,3.788783203125,0.1776192511409521,-0.021719664376974104,-0.0016975976981222628
1772566923095812400,3.798812255859375,0.1299748719125986,-0.014083251214399933,0.0423591323018074
1772566923105841200,3.808841064453125,0.0885655876815319,-0.0077194152709096665,0.05911284483447671
1772566923115870200,3.8188701171875,0.08026362328231335,-0.0028465485375374555,0.057051236129552124
1772566923125899300,3.828899169921875,0.08140870166420935,-0.04376636875122785,0.04809256138727069
1772566923135928000,3.838927978515625,0.08057751153707504,-0.05443725423887372,0.050165568269044156
1772566923145957000,3.84895703125,0.09853519303202629,-0.04573445395380258,0.04185717412903905
1772566923155986400,3.858986328125,0.11335808363258838,-0.02790755923166871,0.02568900639936328
1772566923166015200,3.86901513671875,0.1214133797943592,-0.027761721020191907,0.03288315568715334
1772566923176044300,3.879044189453125,0.11284428889155387,0.00046856735982000824,0.0603111147083342
1772566923186073300,3.8890732421875,0.10657587614655493,0.03755304719433188,0.07358283034414052
1772566923196102100,3.89910205078125,0.10142039307951926,0.053497196909785265,0.07218085459172725
1772566923206131200,3.909131103515625,0.08805354650616645,0.044756621897593135,0.06590747341066598
1772566923216160300,3.91916015625,0.08924655568301677,0.0072733520038425915,0.02451119479164481
1772566923226189000,3.92918896484375,0.08251695516705512,0.0207934163775295,-0.0033938802219927308
1772566923236218000,3.939218017578125,0.11575111624896525,0.024672449767962096,-0.008057780379801989
1772566923246247200,3.9492470703125,0.13138298514485358,0.027844138606637713,-0.00014919921234250069
1772566923256276200,3.959276123046875,0.09553951834738254,0.052078416153043504,0.026825170822441576
1772566923266305300,3.96930517578125,0.0713818131685257,0.07730784221664071,0.031069238132983443
1772566923276334300,3.979334228515625,0.04491816913485527,0.07845423577278852,0.042281244760006664
1772566923286363100,3.989363037109375,0.04741816925704479,0.060016734871640796,0.0581035216614604
1772566923296391200,3.99939111328125,0.0475397498100996,0.06093874508738517,0.05791311365589499
1772566923306420200,4.009420166015625,0.07295593061745166,0.023774478014931082,0.039230040495842694
1772566923316449300,4.01944921875,0.1096142209291458,0.022636852287128566,0.022176175972819328
1772566923326478300,4.029478271484375,0.16728256604373454,0.04917743401452899,0.029943741234391925
1772566923336507400,4.03950732421875,0.17749650154411792,0.04256583385504782,0.04263151950240135
1772566923346536200,4.0495361328125,0.17162673272788523,0.04759520632438361,0.03962605407610535
1772566923356565200,4.059565185546875,0.12512743188142775,0.06713358113951981,0.04517974268049001
1772566923366594300,4.06959423828125,0.0754027392476797,0.05434146571420133,0.03409486956447363
1772566923376623000,4.079623046875,0.037060441371798515,0.04824344110004604,0.010021773929148912
1772566923386652200,4.089652099609375,0.07597557069957256,0.046926805543527,-0.018166063548624514
1772566923396681200,4.09968115234375,0.05117606048583984,0.01970744777172804,-0.005089139832556247
1772566923406710300,4.109710205078125,0.06541793632805347,-0.00396188936829567,0.019871260031312704
1772566923416739300,4.1197392578125,0.0926660087376833,0.018056977150961755,0.03730199504271149
1772566923426768400,4.129768310546875,0.10712006602585315,0.015551131809875367,0.03539426172524691
1772566923436797200,4.139797119140625,0.11225216821730136,0.015159429078549145,0.05684153890162706
1772566923446826200,4.149826171875,0.11939268762171268,0.007017185285687446,0.0597264466881752
1772566923456855300,4.159855224609375,0.13526771762371062,0.030558585197106,0.04482961406856775
1772566923466884000,4.169884033203125,0.12319967868924141,0.035948096215724944,0.02473024436980486
1772566923476913200,4.1799130859375,0.07902619044184685,0.02423756548203528,0.024871260275691746
1772566923486942200,4.189942138671875,0.06610358050465584,-0.008686214476451277,0.01958586721867323
1772566923496971000,4.199970947265625,0.07283318102061748,-0.042502194034308195,0.015360212347656487
1772566923507000300,4.210000244140625,0.07659925555586815,-0.07970350518152117,0.023698563234508037
1772566923517029400,4.220029296875,0.08070785991847515,-0.09459003560282289,0.0493739794999361
1772566923527058200,4.23005810546875,0.09971826533675193,-0.06725735364966094,0.041515959475934505
1772566923537087000,4.2400869140625,0.04756722233891487,-0.011932283725589512,0.03993365872055292
1772566923547116000,4.250115966796875,-0.01443184545636177,-0.013815905515104532,0.02530935943201184
1772566923557145000,4.26014501953125,-0.043452772757411,-0.012607406508177517,-0.0020246376954019068
1772566923567174000,4.270173828125,-0.011671733093261718,-0.008006926975399255,-0.0007565174557268619
1772566923577203000,4.280202880859375,0.0503501310557127,-0.028022490848228335,0.02297726322263479
1772566923587232000,4.29023193359375,0.15385726728141308,-0.0230090466003865,0.034457711527496576
1772566923597261000,4.300260986328125,0.2422819851875305,0.0032099750224500894,0.03043956192731857
1772566923607290000,4.3102900390625,0.2977344078183174,0.01029313821643591,0.014387714053690433
1772566923617319200,4.320319091796875,0.26128537634313104,0.0105435327809304,0.01660699753835797
1772566923627348000,4.330347900390625,0.15685177292227745,0.011735738240182399,0.010752572421729565
1772566923637377000,4.340376953125,0.06424070924222469,0.008338131691142916,0.0011715279974043368
1772566923647406000,4.350406005859375,0.02604512636065483,-0.008653919642046093,0.007670242366939782
1772566923657435000,4.360434814453125,0.03537292667627334,-0.05618548614569008,0.038704409186542034
1772566923667464000,4.3704638671875,0.07458148599267006,-0.04094173978455364,0.06417831153050065
1772566923677493000,4.380492919921875,0.10698562599122524,-0.002040200590714812,0.06198971544504165
1772566923687522000,4.39052197265625,0.1376034670948982,0.015069558838009834,0.058560763909667725
1772566923697551000,4.400551025390625,0.13072598254084586,0.03346227074936032,0.05488718996345997
1772566923707580200,4.410580078125,0.10707681140601634,0.02870119382739067,0.038377076928317544
1772566923717609000,4.42060888671875,0.07930150025188923,0.0065402154237031935,0.05060118320733308
1772566923727638000,4.430637939453125,0.07786825257837772,-0.06639876405894755,0.05607143131196499
1772566923737667000,4.4406669921875,0.06449672982990741,-0.08877769606225192,0.06079100717976689
1772566923747695900,4.45069580078125,0.08742109382152558,-0.06378755864724517,0.05034560101106762
1772566923757725000,4.460724853515625,0.11417115358114242,-0.00044613633230328555,0.07587284097746014
1772566923767754000,4.47075390625,0.056338557815551756,-0.11228811631351708,0.08317498068436979
1772566923777783000,4.480782958984375,0.09681202250123024,0.01811974018886685,0.12038812839984893
1772566923787812000,4.49081201171875,0.09941606751978396,0.006297638839483261,0.05106660876199603
1772566923797841200,4.500841064453125,0.14620821383297442,-0.044756621897593135,0.08867591618821025
1772566923807870000,4.510869873046875,0.17869418689608574,-0.0038254765722900625,0.06910656171292066
1772566923817899000,4.52089892578125,0.14427578446567058,0.041429157975316044,0.031134120062738656
1772566923827928000,4.530927978515625,0.1321048696786165,0.045730070039629936,0.02045081348493695
1772566923837956900,4.540956787109375,0.09817045137286186,0.03851049404963851,0.012494301522523165
1772566923847986000,4.55098583984375,0.02935994999706745,0.017079218159988523,0.02674742941111326
1772566923858015000,4.561014892578125,0.0074859718412160865,-0.015527677869051694,0.03516936692818999
1772566923868043800,4.571043701171875,-0.005432546442747116,-0.006553659427165985,0.02810629667416215
1772566923878073000,4.581072998046875,0.006430909830331802,-0.004931611183285713,0.03672317224144935
1772566923888102100,4.59110205078125,0.04439326847791671,0.010384615892171859,0.04533434872031212
1772566923898131000,4.601130859375,0.1226946517765522,0.016701909280195833,0.019333499892801045
1772566923908160000,4.611159912109375,0.1530190628916025,-0.011844605442136525,0.024313480262458324
1772566923918189000,4.62118896484375,0.17924305295050144,-0.029177433037012812,0.045861002942919726
1772566923928218000,4.631218017578125,0.18395722199082373,-0.0193082193210721,0.06413257269263267
1772566923938247000,4.641246826171875,0.18588205257356166,-0.027600392978638408,0.05710457375198602
1772566923948276000,4.65127587890625,0.13887830933630466,-0.003207198543474078,0.04687017998546362
1772566923958305000,4.661304931640625,0.08025310188829898,0.023715222108364103,0.02918415503874421
1772566923968334000,4.671333984375,0.05741232452690601,0.039636064013466234,0.000914630626887083
1772566923978363100,4.681363037109375,0.064318450653553,0.004857011577114463,-0.025386662451922892
1772566923988392200,4.69139208984375,0.053370940181612966,-0.0420459016341716,-0.001881283701956272
1772566923998421000,4.7014208984375,0.06727846950292588,-0.040822570384293794,-0.003960574194043874
1772566924008450000,4.711449951171875,0.0934323169350624,0.004624444930255413,0.008877864591032266
1772566924018479000,4.72147900390625,0.13191256197690962,0.03430040207393467,0.026234657583385706
1772566924028508000,4.7315078125,0.1383849728614092,0.07007533367983997,0.034762685823440546
1772566924038537000,4.741536865234375,0.1478349382519722,0.1114133793056011,-0.01576426310390234
1772566924048566000,4.75156591796875,0.14377251111865041,0.13034297457262872,-0.05413140316009521
1772566924058594800,4.7615947265625,0.10427052181363106,0.11216434380337595,-0.05870981699153781
1772566924068624100,4.7716240234375,0.10182371318340301,0.06815481394603848,-0.054007338389009237
1772566924078653200,4.781653076171875,0.11774842754602431,0.032102380573004484,-0.04517126711308956
1772566924088682000,4.791681884765625,0.15562310791015624,0.00964088485278189,-0.019502718979865313
1772566924098711000,4.8017109375,0.1550152051448822,0.0009979980614036321,0.005339607462286949
1772566924108740000,4.811739990234375,0.1506447349756956,0.014901362664252519,0.01608136622905731
1772566924118769000,4.821768798828125,0.1110392852962017,0.013374080031737684,0.02326484799236059
1772566924128798000,4.8317978515625,0.01803250029683113,0.01924531015269458,0.03892112067714333
1772566924138827000,4.841826904296875,-0.015226210704445837,-0.01332483406253159,0.017242226701974867
1772566924148855800,4.851855712890625,-0.00744447078704834,-0.0473440080422908,-0.0021070552818477153
1772566924158885000,4.861885009765625,0.0418318935573101,-0.055976957961544394,0.005347644638270139
1772566924168914200,4.8719140625,0.11372983955442904,-0.040991278014704584,0.007350508893281221
1772566924178943000,4.88194287109375,0.17339315787851808,-0.009143456724658609,0.026093349416553974
1772566924188972000,4.891971923828125,0.22163959465324878,-0.005799333928525448,0.01990998460650444
1772566924199001000,4.9020009765625,0.22097791587412355,0.005478358345851302,0.02021466664150357
1772566924209030000,4.91202978515625,0.15801964765787124,-0.0001204115092754364,0.02431406478434801
1772566924219059000,4.922058837890625,0.09466332003474234,-0.0050370443191379306,0.01682341676801443
1772566924229088000,4.932087890625,0.041920156362652776,-0.01627060519084334,0.0076264032252132885
1772566924239116800,4.94211669921875,0.010156652355194092,-0.03213920545205474,0.01011135190874338
1772566924249146000,4.95214599609375,0.05053425545096397,-0.030821912308409808,-0.0025410627849400042
1772566924259175200,4.962175048828125,0.11341712034344673,-0.0265964766331017,0.00866509862318635
1772566924269204000,4.972203857421875,0.149746909353137,-0.02469151979461312,0.01618891825675964
1772566924279233000,4.98223291015625,0.15428104565143586,-0.013057999819889664,0.030571956135332583
1772566924289262000,4.992261962890625,0.1479085880100727,0.002829305141791701,0.02952317773476243
1772566924299291000,5.002290771484375,0.13771978695094583,0.010230082917585969,0.021895459335297345
1772566924309320000,5.01231982421875,0.07126315522491931,0.0008110241219401359,0.03956307184249162
1772566924319349000,5.022348876953125,0.04602992976903915,-0.017801468019932508,0.03672361063286662
1772566924329377800,5.032377685546875,0.03658054890036583,-0.03153933986276388,0.00872735020443797
1772566924339406800,5.04240673828125,0.08232757007479667,-0.049699412062019103,0.014355711480230092
1772566924349436200,5.052436279296875,0.10645195750594139,-0.06603336481265723,0.035839375144243235
1772566924359465200,5.06246533203125,0.11724047802388668,-0.02576667474545538,0.0031764380790293215
1772566924369494000,5.072493896484375,0.10686872161328792,0.035851723169162866,-0.020355974808335304
1772566924379523000,5.082523193359375,0.09023965837359428,0.04802563363090157,-0.034703649112582204
1772566924389552000,5.09255224609375,0.08566869719624519,0.05077434781715274,-0.019904870039969682
1772566924399581000,5.102580810546875,0.09215689017176627,0.02592420339472592,-0.0011031389363110064
1772566924409610000,5.11260986328125,0.11269406676590442,-0.0036006548404693603,0.021237579948455095
1772566924419639000,5.12263916015625,0.12918985901474953,-0.04211502134762704,0.020891250728815793
1772566924429667800,5.132667724609375,0.07174597030580043,-0.06318199396952986,0.004379237997531891
1772566924439697200,5.142697265625,0.03208791365623474,-0.04369491095021367,-0.020546821205317974
1772566924449726200,5.152726318359375,0.015137363377213477,-0.021679551562294362,-0.032079291958361865
1772566924459755000,5.162755126953125,0.04284253190457821,-0.010340411424264312,-0.02272065811306238
1772566924469784000,5.1727841796875,0.07639701098203659,0.00009396189376711845,-0.02122033655270934
1772566924479813000,5.182813232421875,0.1631622712433338,0.000023892332240939138,-0.028125585896521806
1772566924489842000,5.192842041015625,0.23498247582912443,-0.008605988847091793,-0.029974720894545316
1772566924499871000,5.20287109375,0.25188217270374297,-0.04561879168488085,-0.023962036476284265
1772566924509900000,5.212900146484375,0.2454588616579771,-0.04931750007234514,-0.013167816869914532
1772566924519928800,5.2229287109375,0.206249133297801,-0.05603329125866294,0.00010477554872632027
1772566924529958000,5.2329580078125,0.14352408931553362,-0.06025719256401062,0.02574161336943507
1772566924539990800,5.24299072265625,0.07622866867780685,-0.05400580401904881,0.04821384967938065
1772566924550019800,5.253019775390625,0.012922025415301323,-0.04825608138591051,0.07802022826969623
1772566924560049000,5.263048828125,-0.02303425410687923,-0.05536050656363368,0.09168708070293069
1772566924570077700,5.27307763671875,-0.031929508224129675,-0.06737900726795196,0.07327712539583445
1772566924580106800,5.283106689453125,-0.04419570007920265,-0.05423267157748341,0.0704360567510128
1772566924590135800,5.2931357421875,-0.010579261681437491,-0.03652078153714537,0.05757613678649068
1772566924600164600,5.30316455078125,0.06315700565874577,-0.018324615111202,0.08158814988434314
1772566924610193700,5.313193603515625,0.12056582305431365,0.005062617151811719,0.1049661028623581
1772566924620222700,5.32322265625,0.2175526176005602,0.029947540626674887,0.11183160471767187
1772566924630251500,5.33325146484375,0.24213117853999136,0.05146788303926587,0.11342281943187117
1772566924640280800,5.34328076171875,0.19554478393197058,0.09056538319662213,0.12463701801598072
1772566924650310000,5.353309814453125,0.11113690045177936,0.11020064251497387,0.1298532913595438
1772566924660338700,5.363338623046875,0.008898761248588561,0.11396693624593317,0.1325963064573705
1772566924670367700,5.37336767578125,-0.05919394724667072,0.08876381366737186,0.10710340715199708
1772566924680396800,5.383396728515625,-0.05113689751923084,0.058586994329467415,0.1090321832574904
1772566924690425600,5.393425537109375,0.017265023055672644,0.03458089951574802,0.10849471537992357
1772566924700454700,5.40345458984375,0.12330664619505405,0.03458440664708614,0.11390884938314556
1772566924710483700,5.413483642578125,0.18216507787704467,0.0520817771539092,0.11328165739551185
1772566924720512500,5.423512451171875,0.22137480623722075,0.06102050508670508,0.08952055031880736
1772566924730541800,5.433541748046875,0.2054828251004219,0.07240721069350839,0.08500541098192334
1772566924740571000,5.44357080078125,0.1617161640882492,0.0824499543454498,0.08130465676784515
1772566924750599700,5.453599609375,0.08843699286580085,0.06539616288766265,0.07342194069400429
1772566924760628700,5.463628662109375,0.043050037175416944,0.03010996464677155,0.06797258924692869
1772566924770657800,5.47365771484375,0.03254617881774902,-0.020618717397749422,0.08291735266149043
1772566924780686600,5.4836865234375,0.0672246934890747,-0.04618921198397875,0.09957140421196818
1772566924790715600,5.493715576171875,0.08091127353608608,-0.03940327817089855,0.10567059786990285
1772566924800744700,5.50374462890625,0.08585457515716552,-0.016105112430825828,0.07124605795964599
1772566924810773500,5.5137734375,0.04432897107005119,0.02352759058177471,0.044812955194711686
1772566924820802800,5.523802734375,0.022207155632972715,0.006314809169992804,0.03503521915450692
1772566924830831900,5.533831787109375,0.02979658784866333,-0.018292904798686505,0.01437763105109334
1772566924840860700,5.543860595703125,0.10074468577504157,-0.02249415588080883,-0.009911153161525726
1772566924850889700,5.5538896484375,0.13283376847505568,0.0034777591131627556,-0.013867051180452108
1772566924860918800,5.563918701171875,0.16345570123195646,-0.002122837372869253,-0.030688714382797477
1772566924870947600,5.573947509765625,0.20483575936853884,0.02320003912784159,-0.041674072647094725
1772566924880976600,5.5839765625,0.2064063696861267,0.03499517940506339,-0.03696574882566929
1772566924891005700,5.594005615234375,0.16257307317852973,0.03021583617404103,-0.02164484557509422
1772566924901034800,5.60403466796875,0.0971013608366251,0.00764518099091947,-0.03362710592225194
1772566924911063600,5.6140634765625,0.0412047015696764,-0.022901421507447957,-0.05592734666615724
1772566924921092900,5.6240927734375,0.05016133048534393,-0.0636088410794735,-0.058566609128564595
1772566924931122000,5.634121826171875,0.07273731943070888,-0.11416172816567122,-0.03388648751080036
1772566924941150700,5.644150634765625,0.0947790553689003,-0.11796813471131026,-0.01722483717575669
1772566924951179800,5.6541796875,0.10753098491430282,-0.08296550265215337,-0.037515491662919516
1772566924961208800,5.664208740234375,0.08665653918981552,-0.04163220626674592,-0.03564502161592245
1772566924971237600,5.674237548828125,0.02693301511108875,-0.018516849747672676,-0.01775295270308852
1772566924981266700,5.6842666015625,-0.00725099404156208,0.002007686560600996,-0.02521875853911042
1772566924991295700,5.694295654296875,0.016209376522898673,0.02403882803954184,-0.010882044020295143
1772566925001324500,5.704324462890625,0.10277473029792308,0.022667905012518166,0.03495455513373017
1772566925011353900,5.714353759765625,0.17146774277389049,0.020673224063962697,0.0737736767411232
1772566925021383700,5.7243837890625,0.2509276484578848,0.030935821011662482,0.09857844765186309
1772566925031411700,5.73441162109375,0.2991559650540352,0.03195946497097611,0.08318696338310837
1772566925041440800,5.744440673828125,0.27286183236837386,0.0440589950222522,0.04888283498212695
1772566925051470800,5.754470947265625,0.2129629517227411,0.07224763621762395,0.004755085572600365
1772566925061498600,5.76449853515625,0.11195172396600246,0.11131233008392155,0.00000716039314866066
1772566925071528700,5.77452880859375,0.009304419440031051,0.10442556624487041,-0.0076233344852924345
1772566925081557800,5.784557861328125,-0.049967269217967986,0.060344067129865286,-0.008074439253658056
1772566925091586800,5.7945869140625,-0.04922375737428665,0.03471110176667571,0.0043858138687908645
1772566925101615600,5.80461572265625,-0.027560791620612143,0.0023499971922487017,0.04305339817628264
1772566925111644700,5.814644775390625,0.01966857706606388,-0.004992328394576907,0.06141498429700732
1772566925121673700,5.824673828125,0.05246668481826782,0.001107815111428499,0.06796075267866253
1772566925131702800,5.834702880859375,0.08237491634786129,0.0008591741126030683,0.05603972099944949
1772566925141731800,5.84473193359375,0.09537234508693218,0.00005246083959937095,0.043414048182219264
1772566925151761000,5.854760986328125,0.07022972052395343,-0.013044701946899294,0.031943829010427
1772566925161789700,5.864789794921875,0.07961305041909217,-0.03509440199583769,0.031430764921754596
1772566925171818800,5.87481884765625,0.08954057019352912,-0.04831088031306863,0.04052373356819153
1772566925181847800,5.884847900390625,0.10808218905627727,-0.052413054934889076,0.050878246583044524
1772566925191876600,5.894876708984375,0.16513386357724666,-0.04887158293575048,0.023025194017589092
1772566925201905700,5.90490576171875,0.2171720938503742,-0.03837853823304176,-0.0009432721994817256
1772566925211934700,5.914934814453125,0.19811726476848124,-0.057749082200601695,0.016801935588568448
1772566925221963500,5.924963623046875,0.19392215116620062,-0.08190167281292378,0.03035071460008621
1772566925231992800,5.934992919921875,0.16904723762869833,-0.10368848414197564,0.033910306777805085
1772566925242022000,5.94502197265625,0.12673135994672774,-0.09296506474949419,0.039436230592429636
1772566925252050700,5.95505078125,0.10337386523485183,-0.06845664643682539,0.02929784454628825
1772566925262079700,5.965079833984375,0.12159165897071361,-0.04423793178573251,-0.004671937333792448
1772566925272108800,5.97510888671875,0.09202361918091774,-0.014886457356065511,-0.03640300037637353
1772566925282137600,5.9851376953125,0.05239128149449825,-0.0033950492657721042,-0.0570469983458519
1772566925292166700,5.995166748046875,0.030363574081659316,0.014838964952528476,-0.06830065215751528
1772566925302195700,6.00519580078125,0.02177519395649433,0.02762625807225704,-0.0676850044772029
1772566925312224500,6.015224609375,0.07372223881483078,0.025439123291522262,-0.06696852677091955
1772566925322253800,6.02525390625,0.14719254869520662,0.010180325491726398,-0.07067556459531188
1772566925332283000,6.035282958984375,0.19653964018821715,0.015158479230478404,-0.06752382256612181
1772566925342311700,6.045311767578125,0.1945329765409231,0.027040786334499717,-0.056021893081814045
1772566925352340700,6.0553408203125,0.16928572255969046,0.0005287000492215156,-0.02976385462284088
1772566925362369800,6.065369873046875,0.12796879278719425,-0.020770985350012778,-0.013589549413323401
1772566925372398600,6.075398681640625,0.061168462190032004,-0.052021352203562854,0.009670476273447274
1772566925382427600,6.085427734375,0.04309855249226093,-0.08189422015883029,0.034601357781887054
1772566925392456700,6.095456787109375,0.039351182657480235,-0.07831943041197956,0.04170286035016179
1772566925402485500,6.105485595703125,0.006775777745246887,-0.047031946418434376,0.05241802337095141
1772566925412514600,6.1155146484375,-0.031736031478643414,-0.04316263070441782,0.06561755055338143
1772566925422544000,6.1255439453125,-0.037486557829380034,-0.025464038537070154,0.07523951150998473
1772566925432572700,6.13557275390625,-0.008988193097710609,0.021747063840553162,0.06254603415355085
1772566925442601700,6.145601806640625,0.0395838223695755,0.06288008841350674,0.023360855712741612
1772566925452630800,6.155630859375,0.13510872766971588,0.08571889301352202,0.0006054185472428798
1772566925462659800,6.165659912109375,0.21493805118799209,0.10909830729626119,-0.021384148812294005
1772566925472688600,6.175688720703125,0.2784779186844826,0.11613850813135504,-0.019288930098712444
1772566925482717700,6.1857177734375,0.3054331456273794,0.10052570926211774,0.015689444302022456
1772566925492746800,6.195746826171875,0.2110638401031494,0.0877372470986098,-0.0038243805937469002
1772566925502775600,6.205775634765625,0.20191256539821623,0.09020502545163035,0.00038169279396533964
1772566925512804900,6.215804931640625,0.12744038499891758,0.09241744080409407,0.02165273662060499
1772566925522834000,6.225833984375,0.06423311045765877,0.08099157223068178,0.016596914535760877
1772566925532859600,6.235859619140625,0.08123802127242088,0.07620689523741603,0.04478986658006906
1772566925542888400,6.245888427734375,-0.019801263535022734,0.05766651848368346,0.03917173443734646
1772566925552917500,6.25591748046875,-0.0010404489636421203,0.04243804275691509,0.02824395157918334
1772566925562946600,6.265946533203125,0.01012450365126133,0.006911094562709331,0.058036593905091284
1772566925572975400,6.275975341796875,0.03907002762854099,-0.024926205333322286,0.05770765421167016
1772566925583004400,6.28600439453125,0.09584580781757832,-0.024749387461692092,0.04571487247049808
1772566925593033500,6.296033447265625,0.10817103638350963,-0.021093933694064617,0.03164250797629356
1772566925603062300,6.306062255859375,0.11179624114334583,-0.01837510318942368,0.027213731748610734
1772566925613091600,6.316091552734375,0.12016133390665054,0.002747618207708001,0.029822745203226805
1772566925623120600,6.32612060546875,0.2010129862099886,0.05421995822638273,0.051279374729841946
1772566925633149400,6.3361494140625,0.20922376519441604,0.07667151707448065,0.06014832536205649
1772566925643178500,6.346178466796875,0.17222762123048305,0.10630779979489743,0.03496668396294117
1772566925653207600,6.35620751953125,0.10781740064024925,0.12404190166704356,0.011804857953637837
1772566925663236400,6.366236328125,0.049240123987197876,0.09224844091273844,-0.015308628290891647
1772566925673265400,6.376265380859375,0.0023597148686647414,-0.002968932808190584,0.014322978254407643
1772566925683294500,6.38629443359375,0.01324234341084957,-0.05023717220053076,0.04316811059713364
1772566925693323300,6.3963232421875,0.03780395321547985,-0.04254048021808266,0.04687427163869142
1772566925703352600,6.4063525390625,0.048074002817273136,-0.04038279072754085,0.06284589388296008
1772566925713381600,6.416381591796875,0.021456629526615142,0.006916282194480299,0.04273541826829314
1772566925723410400,6.426410400390625,0.02744973246157169,-0.15271474618278444,0.06507905976250768
1772566925733439500,6.436439453125,0.057226446565985675,-0.023882395368814466,0.06179594643861055
1772566925743468500,6.446468505859375,0.09571545943617821,-0.008275076392292975,0.011411036330461501
1772566925753497300,6.456497314453125,0.16138590922057627,-0.05228592142388224,0.027963965594023466
1772566925763526400,6.4665263671875,0.23051731311380863,-0.0044724692389369,0.02393485620841384
1772566925773555500,6.476555419921875,0.21629180388450622,0.0005653787977993488,0.03249912480562925
1772566925783584300,6.486584228515625,0.2605915488600731,0.04750387477912008,0.03542202651500702
1772566925793613300,6.49661328125,0.1893003365844488,0.07578932741247117,0.030113398712873458
1772566925803642600,6.506642578125,0.12225742940306662,0.07042765424884856,0.0070423197269439694
1772566925813671400,6.51667138671875,0.09899112010598182,0.03513816807232797,-0.017920125963538883
1772566925823700500,6.526700439453125,0.06291209098696708,-0.004902750414982438,0.00042041736915707586
1772566925833729500,6.5367294921875,0.10366437261402606,-0.02359963290467858,0.016458236717432736
1772566925843758600,6.546758544921875,0.13548925141990184,-0.046351489873602984,0.047843262801319356
1772566925853787400,6.556787353515625,0.11443652651906012,-0.05945953938029706,0.08901932279840111
1772566925863816400,6.56681640625,0.08968903875350952,-0.0819631937418133,0.08923618041947483
1772566925873845500,6.576845458984375,0.056821957418322556,-0.08275390572808683,0.0695429073035717
1772566925883874300,6.586874267578125,-0.008333528581261634,-0.046429450480639935,0.05420198417827487
1772566925893903600,6.596903564453125,0.0021089549779891967,-0.0368484060563147,0.07648278956934809
1772566925903932700,6.6069326171875,0.0179161804407835,-0.002509279407188296,0.02906695839986205
1772566925913961500,6.61696142578125,0.05239946480095386,0.004281184450536966,0.034046208117157216
1772566925923990500,6.626990478515625,0.1340793846219778,-0.013821020081639289,0.05422711861953139
1772566925934019600,6.63701953125,0.20836919419169425,-0.008518091367930173,0.03400032314881682
1772566925944048400,6.64704833984375,0.27034721919894217,-0.02069748172238469,0.017192542341351508
1772566925954077400,6.657077392578125,0.2383487373918295,-0.018618045099824666,0.01726546144708991
1772566925964106500,6.6671064453125,0.12599895401895045,0.0003013940993696451,0.029735213050246238
1772566925974135300,6.67713525390625,0.0030307459980249405,0.007272548286244272,0.008082184168696403
1772566925984164400,6.687164306640625,-0.08840542868375778,0.028773747606948015,0.01779094662591815
1772566925994193700,6.697193603515625,-0.09614566754698753,-0.0027995675906538962,0.036880262499302624
1772566926004222500,6.707222412109375,-0.09238368466496467,-0.050868748102337116,0.01625087757706642
1772566926014251500,6.71725146484375,0.020838789889216423,-0.05557093444392085,0.01773673222064972
1772566926024280600,6.727280517578125,0.0964081178754568,-0.02313705689422786,-0.007175298456847667
1772566926034309400,6.737309326171875,0.13196867607831955,-0.015403613097965717,0.031260376790910954
1772566926044338400,6.74733837890625,0.12507131778001784,0.00900952814668417,0.05512465198114514
1772566926054367500,6.757367431640625,0.07944704620242118,0.022410642315819858,0.0389586762085557
1772566926064396300,6.767396240234375,0.10162322217524052,0.006150558518990874,0.035813656181097026
1772566926074425300,6.77742529296875,0.10526011737287044,-0.017831790092959997,0.024320202264189718
1772566926084454700,6.78745458984375,0.13711714488267898,-0.035607393019273875,-0.005432984834164381
1772566926094483500,6.7974833984375,0.18042320264577866,-0.011861994968354701,0.004926350486278533
1772566926104512500,6.807512451171875,0.1425754102885723,-0.003699804366007447,0.01815145050138235
1772566926114541600,6.81754150390625,0.14143150095045565,0.010830313833057879,0.044657618502527474
1772566926124570400,6.8275703125,0.10996025788784027,0.06584931348264217,0.07244082070216536
1772566926134599400,6.837599365234375,0.03653261810541153,0.04910137310363352,0.061742170424759386
1772566926144628500,6.84762841796875,0.06290858385562896,0.008682268953695893,0.025101123508810996
1772566926154657300,6.8576572265625,0.0738823978126049,-0.01677088286317885,-0.018878449601680038
1772566926164686300,6.867686279296875,0.13208148880302906,-0.017107202145457266,-0.04089446657672524
1772566926174715400,6.87771533203125,0.17694880453348158,0.008585749776661395,-0.006874854205548763
1772566926184744400,6.887744384765625,0.20507482882142067,0.021889760246872902,0.02840104183703661
1772566926194773500,6.8977734375,0.19757190584540366,0.03622713235281408,0.04193330810517072
1772566926204802600,6.907802490234375,0.16317337715923785,0.05529284815490246,0.04886602997779846
1772566926214831400,6.917831298828125,0.06959025357663631,0.05782755426429212,0.08122720761746167
1772566926224860400,6.9278603515625,0.0024918168157339097,0.039028818835318085,0.09425240114629269
1772566926234889500,6.937889404296875,-0.010871522626280784,0.04248948068320751,0.059741059735417365
1772566926244918500,6.94791845703125,-0.010394552764296532,0.04966784787997603,0.030476532936841248
1772566926254947300,6.957947265625,0.06229015969634056,0.03728555536456406,0.012703706489503383
1772566926264976400,6.967976318359375,0.09526128592789172,0.03285648687593639,0.023759645771980285
1772566926275005700,6.978005615234375,0.13806640843152998,0.04634944404698908,0.02340688681155443
1772566926285034500,6.988034423828125,0.1318131932556629,0.07003828960508107,0.043795740976184605
1772566926295063600,6.9980634765625,0.11551204679608344,0.03999978275932371,0.04640416990891099
1772566926305092600,7.008092529296875,0.16001988156437874,0.043584217117354274,0.03699862818196416
1772566926315121400,7.018121337890625,0.19065818093419074,0.023802608130872246,0.028986002118140456
1772566926325150500,7.028150390625,0.21856910116672515,-0.025840616764500737,0.013884294576197862
1772566926335179500,7.038179443359375,0.21679098557829857,-0.03758044665791094,0.016745529226213692
1772566926345208300,7.048208251953125,0.14279168338775633,-0.04011763698533177,0.05072583250030875
1772566926355237400,7.0582373046875,0.050742345243692394,-0.05433189416825771,0.08737111719995737
1772566926365266700,7.0682666015625,-0.015388123267889022,-0.062413347684592,0.08627075474262237
1772566926375295500,7.07829541015625,-0.052690556702017784,-0.05820515540502965,0.05970394259542226
1772566926385324500,7.088324462890625,-0.02383914074897766,-0.07195486381612717,0.03510886891260743
1772566926395353600,7.098353515625,0.07085165181457996,-0.05951185408942401,0.02521802788674831
1772566926405382400,7.10838232421875,0.11842355032861232,-0.03977934494167566,0.007825286798179149
1772566926415411500,7.118411376953125,0.17447276980876922,-0.01785151770673692,-0.0099035543769598
1772566926425440500,7.1284404296875,0.17696458662450312,-0.017385726825892924,0.0043834757812321185
1772566926435469300,7.13846923828125,0.1813660364538431,-0.016573387529700993,0.033735388602316375
1772566926445498400,7.148498291015625,0.1646393580585718,0.028318916511535643,0.04147650424838066
1772566926455527400,7.15852734375,0.14588380418419838,0.08150843571163713,0.02785173739120364
1772566926465556500,7.168556396484375,0.13012041786313056,0.10157551057599484,-0.014982757337391376
1772566926475585500,7.17858544921875,0.08403262042701244,0.08865976877100765,-0.019621961445361373
1772566926485614600,7.188614501953125,0.08868716823458671,0.053748906648531554,-0.05443360097706318
1772566926495643400,7.198643310546875,0.09210545224547385,0.03875058641582727,-0.019550942035764456
1772566926505672400,7.20867236328125,0.07007306865751743,0.006793751793354749,0.010613456211984156
1772566926515701500,7.218701416015625,0.0847054051220417,0.0012975655298680065,0.0411237452879548
1772566926525730300,7.228730224609375,0.05270400070548057,0.027305282489582895,0.043281361713260406
1772566926535759400,7.23875927734375,0.02325578790307045,0.0315887319624424,0.02446604047566652
1772566926545788400,7.248788330078125,0.011268412989377976,0.022940365278348324,0.008037906635552644
1772566926555817500,7.2588173828125,0.04576864848434925,0.021491043252870438,-0.0036903789505362506
1772566926565846500,7.268846435546875,0.09296060777008533,0.010448255712911487,-0.0009584697686135769
1772566926575875300,7.278875244140625,0.12777765412926673,-0.004680485966429114,0.024858839185535907
1772566926585904400,7.288904296875,0.15451017823219299,-0.0037039690844714638,0.04980082660987973
1772566926595933400,7.298933349609375,0.1538596053689718,-0.014418693713843822,0.07006357017681002
1772566926605962200,7.308962158203125,0.12434534159302711,-0.014331892213225363,0.05208689172044396
1772566926615991300,7.3189912109375,0.1018371571868658,-0.004686623446270823,0.02874313327297568
1772566926626020400,7.329020263671875,0.06925181540250777,-0.0018142828803509473,0.019919921478629112
1772566926636049200,7.339049072265625,0.051772272813320155,0.0037595717292279005,0.022269407214224338
1772566926646078500,7.349078369140625,0.05969780511558056,-0.009297185981646179,0.021565058337152002
1772566926656107500,7.359107421875,0.09305413127243518,-0.012091565940529108,0.0198300512380898
1772566926666136300,7.36913623046875,0.10411796160042286,-0.01145611758120358,0.004789718494564294
1772566926676165400,7.379165283203125,0.1385889710009098,-0.03850194541700184,0.008030746242403984
1772566926686194400,7.3891943359375,0.17151450452506542,-0.006596548720821738,0.022023908020555972
1772566926696223200,7.39922314453125,0.1866951225221157,0.014956599982827902,0.023459493781626223
1772566926706252300,7.409252197265625,0.14705343248546124,0.04057159129790962,0.010630261216312647
1772566926716281300,7.41928125,0.10878946054279803,0.03513509933240711,0.011835837613791226
1772566926726310100,7.42931005859375,0.036949966734647746,-0.001946530957892537,0.0018839140504598615
1772566926736339500,7.43933935546875,0.0019669161587953566,-0.008589476103708147,-0.010582038160413504
1772566926746368500,7.449368408203125,0.02153027928471565,-0.03145078479647636,0.006920154651999473
1772566926756397300,7.459397216796875,0.03567044831812381,-0.05901932133212685,0.032073154478520154
1772566926766426400,7.46942626953125,0.08855740437507628,-0.028938071323186158,0.030787352451682088
1772566926776455400,7.479455322265625,0.1391986273318529,-0.011710238472744822,0.02864507972598076
1772566926786484200,7.489484130859375,0.14455635497272012,0.00784939832612872,0.05186287370622158
1772566926796513300,7.49951318359375,0.11846271329522132,0.025859248399734497,0.06015051731914282
1772566926806542300,7.509542236328125,0.09355740461945533,0.029939065059274433,0.037981063348054886
1772566926816571100,7.519571044921875,0.05430559068322181,-0.0014464724812656641,0.026617519421130418
1772566926826600200,7.52960009765625,0.052368485140800475,-0.019788915510103106,0.026802958990633487
1772566926836629500,7.53962939453125,0.0884872617483139,0.007110781853273511,0.0436269602805376
1772566926846658300,7.549658203125,0.16321838534474373,0.007159881692007183,0.05686024360209703
1772566926856687400,7.559687255859375,0.19130173953473567,-0.00421849447786808,0.04910699912682175
1772566926866716400,7.56971630859375,0.21064239982068536,-0.004561024305224418,0.02232712875083089
1772566926876745200,7.5797451171875,0.19514146382808684,0.0646356999091804,0.06787643539607524
1772566926886774300,7.589774169921875,0.056466568109393114,0.006439677658677101,0.06067687928080558
1772566926896803300,7.59980322265625,0.05780395419299602,-0.005732698433101177,0.05031082195863128
1772566926906832400,7.609832275390625,0.02446341012716293,0.0017499124072492122,0.02301978719010949
1772566926916861200,7.619861083984375,0.07499065131545066,-0.03649513563923538,0.026846505871415138
1772566926926890500,7.629890380859375,0.08890461037755013,-0.03997384460046887,0.03684314535930752
1772566926936919600,7.63991943359375,0.1569540642529726,0.0010074234768748284,0.03554039219766855
1772566926946948400,7.6499482421875,0.17718436685502528,0.03738200147636234,0.044032764602452514
1772566926956977400,7.659977294921875,0.1609878498136997,0.03768646431565285,0.04664382388368249
1772566926967006500,7.67000634765625,0.13978840991854666,0.040887013922631735,0.03274213978126645
1772566926977035300,7.68003515625,0.08726385743319988,0.01336567752957344,0.01664426080882549
1772566926987064300,7.690064208984375,0.057552025258541105,-0.04518244609422981,0.017897914131730794
1772566926997093400,7.70009326171875,0.07508008316457271,-0.05350019258446991,0.055961248935759066
1772566927007122200,7.7101220703125,0.06772972040176391,-0.0537012681145221,0.06442658720314502
1772566927017151200,7.720151123046875,0.0657914458155632,-0.04414345843531191,0.07505597163662314
1772566927027180500,7.7301806640625,0.059116205835342404,-0.0019487959802150724,0.05470072748064995
1772566927037209300,7.740209228515625,0.07692424972653389,0.02292122218646109,0.04224295857623219
1772566927047238400,7.75023828125,0.08992226298749446,0.0195782684341073,0.03850333365648985
1772566927057267500,7.760267333984375,0.09502338551878929,0.030086510705947873,0.026278788986057042
1772566927067296300,7.770296142578125,0.14155658863484857,0.030015564361587165,-0.019070611172914503
1772566927077325300,7.7803251953125,0.14368950901031494,0.003478855091705918,-0.021433540911972523
1772566927087354400,7.790354248046875,0.13509586818814276,-0.03377696272172034,-0.0061671443276107305
1772566927097383200,7.800383056640625,0.10775018062293529,-0.04655621866546571,0.03871551510244608
1772566927107412200,7.810412109375,0.132764210370183,-0.039708617793023586,0.03751008483543992
1772566927117441500,7.820441650390625,0.12326865227222442,-0.0022985592659562825,0.02778407898247242
1772566927127470300,7.83047021484375,0.07858662998080253,0.04122011833451688,0.047614276351034636
1772566927137499400,7.84049951171875,0.04128127393722534,0.04429558025710285,0.0270649709276855
1772566927147528400,7.850528564453125,0.016718495088815687,0.04109532291106879,0.0017585341051220894
1772566927157557200,7.86055712890625,0.05012041395306587,-0.007666296844184398,0.007554068641364574
1772566927167586300,7.87058642578125,0.08646832314133644,-0.029681071710214016,-0.0019258534960448742
1772566927177615400,7.880615478515625,0.11876315754652023,-0.027638971423357722,-0.004520838425308466
1772566927187644200,7.89064404296875,0.13747253419160843,0.001353095109388232,0.010220365241169928
1772566927197673200,7.900673095703125,0.12968962523043154,0.0037667321223765608,0.0311060630120337
1772566927207702300,7.910702392578125,0.09964929175376891,-0.003118278151005506,0.04536547451093793
1772566927217731300,7.9207314453125,0.060680386412143704,0.030542072453722355,0.0316353475831449
1772566927227760400,7.930760498046875,0.05966624093353748,0.030271073492616412,0.0042583880968391895
1772566927237789400,7.94078955078125,0.07794540946781635,0.012458572622016072,-0.012367606402933598
1772566927247818200,7.950818359375,0.12732757227420807,0.02055909616500139,-0.0302770648419857
1772566927257847300,7.960847412109375,0.16448212167024612,0.00813332983404398,-0.02059869752302766
1772566927267876400,7.97087646484375,0.19231003979444503,0.010321341397613286,-0.003443418452143669
1772566927277905200,7.9809052734375,0.19981296277046204,0.034066227991878986,0.006996142497658729
1772566927287934200,7.990934326171875,0.1713186896920204,0.04741546584330499,0.03637158232480287
1772566927297963300,8.00096337890625,0.12846505187153814,0.04346029847674072,0.03850508722215891
1772566927307992600,8.01099267578125,0.08477671679258346,0.02799026907905936,0.02575754159092903
1772566927318021400,8.021021484375,0.02441021863520145,-0.018786460469290615,0.018321400240808725
1772566927328050400,8.031050537109374,0.006500467935204505,-0.07521729967817664,0.009037877458333968
1772566927338079500,8.04107958984375,-0.03660860595107078,-0.07582739440053701,0.04121624587699771
1772566927348108300,8.0511083984375,-0.016987375158071517,-0.028902415487915275,0.0409704544223845
1772566927358137300,8.061137451171875,0.012760697373747824,0.006303337927907705,0.04031272116601467
1772566927368166400,8.07116650390625,0.09463409394025803,-0.005085121244564652,0.014749094711989163
1772566927378195200,8.0811953125,0.15439502741992472,0.019365648596733807,-0.002975216418504715
1772566927388224300,8.091224365234375,0.22151626053452492,0.049960181890055536,-0.001132218900322914
1772566927398253600,8.101253662109375,0.24814473974108694,0.047522652544826266,0.0031276305012404916
1772566927408282400,8.111282470703125,0.23271569994091987,0.03911160174794495,0.04225888679772615
1772566927418311400,8.1213115234375,0.20700550462305545,0.019684066896140575,0.042244858272373675
1772566927428340500,8.131340576171874,0.1834668081253767,-0.0045031566381454466,0.016255992143601176
1772566927438369300,8.141369384765625,0.13016425700485706,-0.029771599537879227,0.014500672908872365
1772566927448398300,8.1513984375,0.054853287693858145,-0.049038098609074945,0.02623158884346485
1772566927458427400,8.161427490234376,-0.008513561323285103,-0.04208601444885134,0.041799306461960076
1772566927468456200,8.171456298828126,-0.05170797540545463,-0.02564494806192815,0.027665859430283306
1772566927478485200,8.1814853515625,-0.07166939793825149,-0.03972703023254871,0.0358357218824327
1772566927488514300,8.191514404296875,-0.03158990100622177,-0.09737192140631377,0.03920768253356218
1772566927498543400,8.20154345703125,0.0513520015746355,-0.08763619787693024,0.057383682954311364
1772566927508572400,8.211572509765626,0.16536065807044506,-0.05825016359053552,0.06891191592365503
1772566927518601500,8.2216015625,0.22534604795575142,-0.017285627452284097,0.055742637749016284
1772566927528630300,8.23163037109375,0.24268355172574518,0.020616013984009623,0.03602656827941537
1772566927538659000,8.2416591796875,0.1737064616113901,0.038817587237432595,0.03437967785522342
1772566927548688100,8.251688232421875,0.07147416762709617,0.062029097607359286,0.03962576181516051
1772566927558717000,8.261717041015626,-0.005632452929019927,0.04938019004501402,0.04408522544205189
1772566927568746000,8.27174609375,-0.00611468348801136,0.033379049445316195,0.021288433352857825
1772566927578775000,8.281775146484375,0.048400166031718254,0.007383315184339881,0.015391338138282298
1772566927588804000,8.29180419921875,0.11239303799271583,-0.02020034585520625,0.010668985791504382
1772566927598833200,8.301833251953125,0.19396131413280962,0.0007487725406885147,0.01291121176034212
1772566927608862200,8.3118623046875,0.1999889038592577,0.023376418608054516,0.012484803041815757
1772566927618892300,8.321892333984374,0.18733575851321219,0.05306479684188962,0.024179478619247675
1772566927628920000,8.331920166015625,0.12439677951931953,0.05518237351775169,0.034869068807363506
1772566927638950100,8.3419501953125,0.08217325629591941,0.035745120989531275,0.0365391939766705
1772566927648979200,8.351979248046876,0.06312836408615112,0.015318345967307686,0.0380095587901771
1772566927659008000,8.362008056640626,0.060084174084663385,-0.024396482370793816,0.027829233298450707
1772566927669037000,8.372037109375,0.0697609339684248,-0.020984408904984594,0.024685820706188678
1772566927679066000,8.382066162109375,0.08731354179382324,0.0062114949259907005,0.0334216464780271
1772566927689095000,8.392094970703125,0.10911503923535347,0.03264547447375953,0.03283785524070263
1772566927699124200,8.402124267578126,0.12296645445525646,0.04296184743531048,0.00853197376281023
1772566927709153300,8.4121533203125,0.1349105747491121,0.013180676351487636,0.05052154209986329
1772566927719182000,8.42218212890625,0.07351824067533015,0.009677928927540779,0.034382162073254584
1772566927729211100,8.432211181640625,0.08927402821183204,0.020798165617883203,-0.00333075185790658
1772566927739240200,8.442240234375,0.10178981091380118,0.017607772078737614,0.007135989359766244
1772566927749269000,8.45226904296875,0.12470832968652247,-0.0014321516949683426,0.010394552764296532
1772566927759298000,8.462298095703124,0.1498907017379999,-0.000547550880163908,0.009180208538472652
1772566927769327000,8.4723271484375,0.1291471889168024,0.018968100646510718,0.009875789587199688
1772566927779356000,8.48235595703125,0.10890694944262504,0.03258884891569614,0.013689502656459808
1772566927789385000,8.492385009765625,0.12492694087326527,0.0376030968811363,0.06343465355634689
1772566927799414300,8.502414306640626,0.07464110722541809,0.031648280129954215,0.03986965357363224
1772566927809443000,8.512443115234374,0.1042640920728445,0.009597995559126138,0.02158157108053565
1772566927819472100,8.52247216796875,0.0784744017779827,0.003298457023501396,0.017897037348896264
1772566927829501200,8.532501220703125,0.052308279386162754,-0.02667107623927295,0.004224485827237367
1772566927839530000,8.542530029296875,0.05232873765230178,-0.02947721970118582,0.021187749457359312
1772566927849559000,8.55255908203125,0.05767009868025779,-0.04882883977256715,0.02456891632825136
1772566927859588000,8.562588134765624,0.0664624769449234,-0.04567388287298381,0.036163784793019293
1772566927869617000,8.572616943359375,0.1137754322618246,-0.029320860095694658,0.027167116127908227
1772566927879646000,8.58264599609375,0.12220073077976704,-0.02263108013346791,0.022801906655728815
1772566927889675300,8.59267529296875,0.11753215444684027,-0.022271891432255504,0.023233137679845094
1772566927899704000,8.6027041015625,0.12383271589577197,-0.01096709195524454,0.010270487993210554
1772566927909733000,8.612733154296874,0.1507452727407217,0.0013274492114782332,0.03680471304506063
1772566927919762200,8.62276220703125,0.16626140630245206,-0.005137874345108867,0.04097279250994324
1772566927929791000,8.632791015625,0.11934651039242744,-0.010991861070320009,0.03832271639257669
1772566927939820000,8.642820068359375,0.09732932437360287,-0.022221403354033827,0.017938684533536434
1772566927949849000,8.65284912109375,0.025404490369558334,-0.013208002749830484,0.017916911093145606
1772566927959878100,8.662878173828124,-0.028435236367583272,-0.04044036613367498,0.01477189106568694
1772566927969907000,8.672906982421875,-0.007927285867929458,-0.05466163757927715,0.025426848331838843
1772566927979936000,8.68293603515625,0.01430500420629978,-0.061042570788040755,0.03596796995997429
1772566927989965300,8.69296533203125,0.10379939717054366,-0.02812697413600981,0.0304883695051074
1772566927999994000,8.702994140625,0.179758601257205,0.04571311890482902,0.03274199365079403
1772566928010023200,8.713023193359374,0.22867373107373712,0.07422777718417346,0.04533668680787086
1772566928020053200,8.72305322265625,0.21332418625056743,0.08720043680816889,0.046484687799215316
1772566928030081000,8.7330810546875,0.13955693925023077,0.07325294080264866,0.02701660174131393
1772566928040110000,8.743110107421876,0.057259179791808126,0.013566679994389414,-0.006963993793725967
1772566928050139100,8.75313916015625,0.0159597856760025,-0.015959274219349024,0.021778408826887606
1772566928060168000,8.76316796875,0.0036310499787330624,-0.022755875556915998,0.03455196568220854
1772566928070198000,8.773197998046875,0.08097498642206191,-0.008127923006564378,0.04880041739568114
1772566928080227000,8.78322705078125,0.13365619077384472,-0.0009609539866447448,0.04396057614907622
1772566928090256000,8.793255859375,0.1852443391919136,0.019227043843641874,0.04896729839518666
1772566928100285000,8.803284912109374,0.1584872651696205,0.07390892049334943,0.050650136915594335
1772566928110314200,8.813314208984375,0.1441436825186014,0.08324497718065976,0.016472557503730056
1772566928120343300,8.82334326171875,0.08580021462142468,0.04287679950036108,-0.01161868773177266
1772566928130372000,8.8333720703125,0.06022796646952629,-0.019309534495323896,-0.015285247415304183
1772566928140401200,8.843401123046876,0.056179567861557006,-0.008145385598018764,0.007635609444975853
1772566928150430200,8.85343017578125,0.10013210683465003,-0.0003928717751055956,0.0354030295535922
1772566928160459000,8.863458984375,0.10255845719873904,-0.009348477777466177,0.054795127765834326
1772566928170488000,8.873488037109375,0.1167600010305643,-0.01675144751034677,0.04513751097396016
1772566928180517000,8.88351708984375,0.1055056165665388,0.012181216985359787,0.03248670371547341
1772566928190546000,8.8935458984375,0.09737667064666747,0.0252550719615072,0.02702902283146977
1772566928200575200,8.9035751953125,0.0620399843275547,0.007584975236281752,0.006081511870771646
1772566928210604300,8.913604248046875,0.09550503155589103,-0.0044662586938589805,-0.0022311200529336927
1772566928220633000,8.923633056640625,0.11621347306370734,-0.024827713394910095,0.013552432273328304
1772566928230662100,8.933662109375,0.13440554783642292,-0.0581555441096425,0.0462989559687674
1772566928240691200,8.943691162109374,0.1606920817375183,-0.043135085110366345,0.08370616495162247
1772566928250720000,8.953719970703125,0.12242460266351698,0.004307049544155598,0.08547156718894838
1772566928260749000,8.9637490234375,0.09647124623954295,0.03419270391575992,0.0657185267098248
1772566928270778000,8.973778076171875,0.021260814693570135,0.07182042378149926,0.050357291448861356
1772566928280807000,8.983806884765626,-0.007663081973791122,0.07101677924841641,0.00715600923448801
1772566928290836000,8.9938359375,0.007433949393033981,0.04013926429525017,-0.007128098314255475
1772566928300865300,9.003865234375,0.044991818892955775,-0.016637319611385464,0.013553162925690412
1772566928310894000,9.01389404296875,0.12601941228508948,-0.017642112739756702,0.010276333212107419
1772566928320923100,9.023923095703125,0.2119733561635017,0.0012345102310180663,0.02238499641790986
1772566928330952200,9.0339521484375,0.24625322690606116,0.022740385726839302,0.02561024207472801
1772566928340981000,9.04398095703125,0.2584948688417673,0.0428309875972569,0.0374161229416728
1772566928351010000,9.054010009765625,0.18055472007095813,0.08339687980674207,0.0422632707118988
1772566928361039000,9.0640390625,0.0836421598047018,0.09058196900524199,0.02006181416735053
1772566928371068000,9.07406787109375,0.015685644909739494,0.05041486685499549,-0.01837444560229778
1772566928381097000,9.084096923828126,-0.0050695583492517465,-0.0017201017908751964,-0.0066829848952591414
1772566928391126300,9.094126220703124,0.020166005194187164,-0.04439509510882199,0.01827843788191676
1772566928401155000,9.104155029296875,0.08096738763749599,-0.043407837637141344,0.0443101202391088
1772566928411184000,9.11418408203125,0.14306582415401936,-0.020749358040094375,0.046440410266071555
1772566928421213200,9.124213134765625,0.1652928535312414,-0.02571845168955624,0.05403364187404513
1772566928431242000,9.134241943359376,0.12578501900732517,-0.025900091866776345,0.04739537290334701
1772566928441271000,9.14427099609375,0.06871639335155487,-0.013434212721139191,0.030709464909881353
1772566928451300000,9.154300048828125,0.01866904463469982,0.01140014961026609,0.03422463342398405
1772566928461329000,9.164328857421875,-0.007303016489744186,-0.01811886340603232,0.016090718579292295
1772566928471358000,9.17435791015625,0.04858195233941078,-0.019964125946536657,0.023143413569778202
1772566928481387300,9.18438720703125,0.13487784152328966,-0.031737711979076266,0.03414309262037277
1772566928491416000,9.194416015625,0.20869535740613937,0.0009385960243642329,0.048888534070551395
1772566928501445000,9.204445068359375,0.22774083413779733,0.0502212439790368,0.05244578816071152
1772566928511474200,9.21447412109375,0.19880173990130423,0.09036774173267186,0.03332724619284272
1772566928521503200,9.224503173828126,0.11092764161527156,0.11400946021340787,0.01353971892222762
1772566928531532000,9.234531982421874,0.03483224392831325,0.0788874395582825,0.016746113748103378
1772566928541561900,9.244561767578125,-0.005516717594861984,0.013240005323290824,0.01645502184703946
1772566928551590700,9.254590576171875,-0.007495324191451072,-0.03813018949516117,0.012433803506940603
1772566928561619700,9.26461962890625,0.050913610157370566,-0.06358231839872897,0.0025369711317121983
1772566928571648800,9.274648681640626,0.1223632278650999,-0.046276744136959314,0.003168693163990974
1772566928581677600,9.284677490234374,0.1819371143400669,-0.046345863850414754,0.006964139924198388
1772566928591707000,9.294706787109375,0.18519699291884897,-0.029956162324547765,0.014176555521041153
1772566928601736000,9.30473583984375,0.16804069093465804,-0.010084317771345377,0.02411371990665793
1772566928611764700,9.3147646484375,0.10588614031672478,-0.006749547325447201,0.041261254062503576
1772566928621793800,9.324793701171876,0.05556172822415829,-0.03151815094426274,0.06498685143440962
1772566928631822800,9.33482275390625,0.0395838223695755,-0.0570254441011697,0.046431496307253836
1772566928641851600,9.3448515625,0.0564104540079832,-0.060571007753536105,0.038365532620996234
1772566928651880700,9.354880615234375,0.08132219242453574,-0.0767211283698678,0.022254794166982172
1772566928661909800,9.36490966796875,0.12051847678124904,-0.06933722866363823,0.02463715925887227
1772566928671938600,9.3749384765625,0.11498714613914489,-0.04065254757963121,0.00936813232600689
1772566928681967600,9.384967529296874,0.10693418806493282,-0.006027881987392902,0.009436813648045063
1772566928691997000,9.394996826171875,0.08226853336393833,0.01834412352927029,0.020810294447094202
1772566928702025700,9.405025634765625,0.047725043249130246,0.010991422678902744,0.024734336023032665
1772566928712054800,9.4150546875,0.06661386811435223,0.022816081311553715,-0.0013788871377706526
1772566928722083800,9.425083740234374,0.09921908364295959,0.027003523064032194,-0.000006283610314130783
1772566928732112600,9.435112548828124,0.15762392633855343,0.019704232901334762,0.012393909887969493
1772566928742141700,9.4451416015625,0.17093290524482727,0.03798354756608605,0.007173252630233764
1772566928752171800,9.455171875,0.16593407404422758,0.04691007360443473,0.014582067582011223
1772566928762199600,9.465199462890626,0.11907704580128192,0.003265431536734104,0.0011501929484307766
1772566928772229600,9.475229736328124,0.0832674812734127,-0.021914237101003528,0.01247267421260476
1772566928782258700,9.4852587890625,0.04912263508737087,-0.02247654715888202,0.028442542891204355
1772566928792287700,9.495287841796875,0.04794716156721115,-0.03083177611529827,0.04657967260628938
1772566928802316500,9.505316650390625,0.0721399380594492,-0.03745082892887294,0.061367930284887545
1772566928812345900,9.515345947265626,0.12453472668528556,-0.024703210232406854,0.0315678353048861
1772566928822375000,9.525375,0.17234861726164816,0.005739055108651518,0.024378508322685954
1772566928832403700,9.53540380859375,0.16744740121662616,-0.004031520538404583,0.028334114080667494
1772566928842432800,9.545432861328125,0.13154431318640708,-0.0035555735897272824,0.022226006463915107
1772566928852461800,9.5554619140625,0.0636000732511282,-0.014388298575580119,0.017622604321688412
1772566928862490600,9.56549072265625,-0.0006026420682668685,-0.027830913798883555,0.02148746305629611
1772566928872519700,9.575519775390624,-0.010575170028209686,-0.047636122856661675,0.026671733826398848
1772566928882548700,9.585548828125,0.022862404671311377,-0.06581438829973339,0.01725757040157914
1772566928892577500,9.59557763671875,0.0917810425966978,-0.057357890925928946,0.019779928486049175
1772566928902606800,9.60560693359375,0.13616086707115171,-0.035770766887441276,0.01902677203118801
1772566928912636000,9.615635986328124,0.17172551692724228,-0.03579195580594242,0.04179959872290492
1772566928922664700,9.625664794921875,0.16662497891783715,-0.03570011280402541,0.07343933022022246
1772566928932693800,9.63569384765625,0.14352876549065113,-0.015560922551527618,0.0801587016031146
1772566928942722800,9.645722900390625,0.12286299408078193,0.0012217238146811722,0.08071955035626888
1772566928952751900,9.655751953125,0.11924421906173228,0.005834259111434221,0.06759922588989138
1772566928962780700,9.66578076171875,0.09444178623855114,-0.0299192643802613,0.05054273101836443
1772566928972809700,9.675809814453125,0.0768581987529993,-0.04344349347241223,0.04865662501081824
1772566928982838800,9.6858388671875,0.08373509878516197,-0.02974989916272461,0.026697160528600213
1772566928992867600,9.69586767578125,0.06456161175966263,-0.036541312868520616,0.044509588333964345
1772566929002897000,9.70589697265625,0.06192015734016895,-0.03255392373278737,0.06618921296149492
1772566929012926000,9.715926025390624,0.05745908627808094,-0.0038979572866111993,0.07015840885341167
1772566929022954800,9.725954833984375,0.060092357391119,0.021113295981660483,0.03422930959910154
1772566929032983800,9.73598388671875,0.08575345287024974,0.02674896378107369,0.0045760757438838475
1772566929043012900,9.746012939453125,0.12835633080005646,0.05170052275136113,-0.024660832395404574
1772566929053041700,9.756041748046876,0.1676326946556568,0.05433145577684045,-0.011874854449927806
1772566929063070700,9.76607080078125,0.16758827099204063,0.03900646087303757,0.026752836238592863
1772566929073099800,9.776099853515625,0.1633417194634676,0.026198417226225137,0.03364975614547729
1772566929083128600,9.786128662109375,0.14444412676990032,0.023320085310935972,0.040070875234156846
1772566929093158000,9.796157958984375,0.12009820554256438,0.025166005438566206,0.01633680229485035
1772566929103187000,9.80618701171875,0.08727847048044204,0.03235723211690783,-0.026927900544553993
1772566929113215700,9.8162158203125,0.15385434467196463,0.03255202403664589,-0.04484028159305453
1772566929123244800,9.826244873046875,0.1614934612482786,0.029986192136630414,0.007323036364465951
1772566929133273900,9.83627392578125,0.19677870964109898,0.010179156447947025,0.04196034224256873
1772566929143302700,9.846302734375,0.1392243462949991,0.023156126920878886,0.031032267123460768
1772566929153331700,9.856331787109376,0.06731821699142455,-0.01585223364830017,0.022892215287685393
1772566929163360800,9.86636083984375,0.025710779839754103,-0.054689402369037264,0.02644552385509014
1772566929173389600,9.8763896484375,-0.0025280571728944776,-0.05893734213709831,0.041040012527257204
1772566929183418600,9.886418701171875,0.01952653824687004,-0.014202201418951153,0.02464855743572116
1772566929193448000,9.896447998046876,0.05505845487713813,0.020930632891133425,0.002933861494809389
1772566929203476700,9.906476806640624,0.09131342508494854,0.039349356026574966,-0.024051029933989047
1772566929213505800,9.916505859375,0.13929215083420277,0.06851707138717174,-0.021211860985308886
1772566929223534800,9.926534912109375,0.15088088181912898,0.05245192564055323,0.007321575059741735
1772566929233563600,9.936563720703125,0.1424795486986637,0.037145562371984124,0.02005655347034335
1772566929243592700,9.9465927734375,0.1177268002361059,0.07059175876937807,-0.0074526540935039515
1772566929253621800,9.956621826171874,0.12184651051461697,0.06752564919702708,-0.03004530191272497
1772566929263650600,9.966650634765625,0.09848726223707198,0.032214389580115674,-0.0015552666179835795
1772566929273679600,9.9766796875,0.11240122129917145,0.028759280690178274,0.0205618726439774
1772566929283709000,9.986708984375,0.10710837558805941,0.05022131704427302,0.008199234677106142
1772566929293738800,9.99673876953125,0.07834931409358978,0.031103213467821477,0.01826148674711585
1772566929303767800,10.006767822265624,0.039653380474448205,0.031418051570653915,0.012810966256260872
1772566929313796900,10.016796875,0.072222355645895,0.0020181348893791437,-0.003379413305222988
1772566929323826000,10.026825927734375,0.08574936121702194,-0.010856836513802409,0.01800838876888156
1772566929333854700,10.036854736328126,0.09836977333724498,-0.040294527922198176,0.027083529497683046
1772566929343883800,10.0468837890625,0.12479191631674766,-0.023511150903627275,0.029653964507579803
1772566929353912800,10.056912841796875,0.14125029916465281,0.002180705039948225,0.0223299052298069
1772566929363941600,10.066941650390625,0.1636421637147665,0.03921513518765569,0.005133855757117271
1772566929373970700,10.076970703125,0.16303776808083056,0.026422216044738888,-0.0005589490570127964
