time,seconds_elapsed,z,y,x
1772566919375050000,0.078050048828125,0.01470736414194107,0.03276374563574791,-0.015134057030081749
1772566919385078800,0.088078857421875,0.012199198827147484,0.03991459682583809,-0.023367218673229218
1772566919395108000,0.098108154296875,0.007691051810979843,0.044162213802337646,-0.023498931899666786
1772566919405137200,0.10813720703125,0.010916139930486679,0.04278695583343506,-0.024201741442084312
1772566919415166000,0.118166015625,0.014720752835273743,0.03852451592683792,-0.014970540069043636
1772566919425196000,0.128196044921875,0.010862099006772041,0.042577050626277924,0.0008020317181944847
1772566919435224000,0.13822412109375,0.011902553029358387,0.03292319178581238,-0.000035836827009916306
1772566919445254000,0.14825390625,0.010752334259450436,0.026166755706071854,-0.00011333497241139412
1772566919455283000,0.158282958984375,0.0033871978521347046,0.019698671996593475,-0.003329005092382431
1772566919465312000,0.16831201171875,0.0023214006796479225,0.008546952158212662,-0.0067173452116549015
1772566919475341000,0.178341064453125,0.0027596447616815567,0.008855964988470078,0.0033644111827015877
1772566919485369900,0.188369873046875,-0.0023951693437993526,0.001559702679514885,0.007538383826613426
1772566919495399000,0.19839892578125,-0.0052864691242575645,-0.004062456078827381,0.008201129734516144
1772566919505428000,0.208427978515625,-0.013467700220644474,-0.007454257924109697,0.004905467852950096
1772566919515457000,0.21845703125,-0.013671750202775002,-0.006547860335558653,0.010082005523145199
1772566919525486300,0.228486328125,-0.01017288863658905,-0.0045302496291697025,0.010427684523165226
1772566919535515400,0.238515380859375,-0.003436262719333172,-0.008040571585297585,0.0086591187864542
1772566919545544200,0.248544189453125,-0.004584617912769318,-0.012959696352481842,-0.00016313418745994568
1772566919555573200,0.2585732421875,0.0012613115832209587,-0.011177672073245049,-0.0037541366182267666
1772566919565602300,0.268602294921875,0.002783840522170067,-0.009724650532007217,-0.006179743446409702
1772566919575631000,0.278631103515625,0.00538751482963562,-0.011367741040885448,-0.005512888077646494
1772566919585660200,0.28866015625,0.0026023807004094124,-0.004684272222220898,-0.006492132321000099
1772566919595689200,0.298689208984375,0.0006673242896795273,-0.0021130964159965515,-0.008478550240397453
1772566919605718000,0.308718017578125,-0.006464088335633278,0.0016257157549262047,-0.00954088568687439
1772566919615747300,0.318747314453125,-0.007139233406633139,0.0042478544637560844,-0.010249650105834007
1772566919625776400,0.3287763671875,-0.011347027495503426,0.005952545441687107,-0.004409337881952524
1772566919635805200,0.33880517578125,-0.007379285525530577,0.004874031990766525,-0.0011193626560270786
1772566919645834200,0.348834228515625,-0.000702474731951952,0.004131542518734932,-0.003942313604056835
1772566919655863300,0.35886328125,0.00014047790318727493,0.00025329552590847015,-0.008215165697038174
1772566919665892000,0.36889208984375,0.002879805862903595,-0.005773970857262611,-0.00984395481646061
1772566919675921200,0.378921142578125,-0.002140415832400322,-0.014552795328199863,-0.006258843000978231
1772566919685950200,0.3889501953125,-0.0004700813442468643,-0.025136198848485947,0.0023666033521294594
1772566919695979000,0.39897900390625,0.0020409412682056427,-0.034984663128852844,0.008070558309555054
1772566919706008300,0.40900830078125,-0.0015974687412381172,-0.035229139029979706,0.007130462676286697
1772566919716037400,0.419037353515625,0.0034491270780563354,-0.03804706782102585,0.006475706584751606
1772566919726066200,0.429066162109375,0.014832808636128902,-0.0361759327352047,0.008011284284293652
1772566919736095200,0.43909521484375,0.021252509206533432,-0.030444256961345673,0.008609664626419544
1772566919746124300,0.449124267578125,0.024030450731515884,-0.025414077565073967,0.001952294260263443
1772566919756153000,0.459153076171875,0.02733035944402218,-0.02323302999138832,-0.008365100249648094
1772566919766182100,0.46918212890625,0.026454979553818703,-0.018963182345032692,-0.00888042151927948
1772566919776211200,0.479211181640625,0.026623567566275597,-0.023682329803705215,-0.007856094278395176
1772566919786240000,0.489239990234375,0.027762601152062416,-0.027457624673843384,-0.0007198881357908249
1772566919796269000,0.49926904296875,0.02602361887693405,-0.027157632634043694,0.011779318563640118
1772566919806298400,0.50929833984375,0.023702140897512436,-0.02652912586927414,0.011957217939198017
1772566919816327400,0.519327392578125,0.02195887640118599,-0.032099224627017975,0.006048504263162613
1772566919826356200,0.529356201171875,0.016277022659778595,-0.02910822629928589,0.0014124726876616478
1772566919836385300,0.53938525390625,0.012631380930542946,-0.02274797111749649,-0.007897180505096912
1772566919846414300,0.549414306640625,0.005077059380710125,-0.024404723197221756,-0.012755319476127625
1772566919856443100,0.559443115234375,0.0037658298388123512,-0.02603287808597088,-0.01935923844575882
1772566919866472200,0.56947216796875,-0.003335755318403244,-0.0297250859439373,-0.017655082046985626
1772566919876501200,0.579501220703125,-0.005360886454582214,-0.030692458152770996,-0.006495561450719833
1772566919886530000,0.589530029296875,-0.007005387917160988,-0.030038386583328247,0.007586435414850712
1772566919896559400,0.599559326171875,-0.008979403413832188,-0.02696128562092781,0.021153949201107025
1772566919906588400,0.60958837890625,-0.010579963214695454,-0.02485898695886135,0.02142186462879181
1772566919916617200,0.6196171875,-0.010684655047953129,-0.02737213857471943,0.007727126590907574
1772566919926646300,0.629646240234375,-0.011731277219951153,-0.030519461259245872,-0.004953248891979456
1772566919936675300,0.63967529296875,-0.004252783954143524,-0.02665751427412033,-0.0068211862817406654
1772566919946704100,0.6497041015625,0.004595035687088966,-0.02642502263188362,0.0009264815598726273
1772566919956733200,0.659733154296875,0.010151168331503868,-0.021797731518745422,0.00940636731684208
1772566919966762200,0.66976220703125,0.012835368514060974,-0.011270254850387573,0.009804243221879005
1772566919976791000,0.679791015625,0.011377059854567051,-0.006969500798732042,0.007187342271208763
1772566919986820000,0.689820068359375,0.005490141920745373,-0.0018218765035271645,-0.00037390459328889847
1772566919996849400,0.699849365234375,0.007226413115859032,-0.0003351457417011261,-0.010919680818915367
1772566920006878200,0.709878173828125,0.004407457076013088,0.005653770640492439,-0.016397004947066307
1772566920016907300,0.7199072265625,0.005713737569749355,0.003781301900744438,-0.016191940754652023
1772566920026936300,0.729936279296875,0.00809007603675127,-0.0014443527907133102,-0.012598804198205471
1772566920036965000,0.739965087890625,0.015797682106494904,-0.009922250173985958,-0.008114611729979515
1772566920046994200,0.749994140625,0.022654257714748383,-0.013852010481059551,-0.003585906233638525
1772566920057023200,0.760023193359375,0.020677383989095688,-0.02114345319569111,0.01438529510051012
1772566920067052000,0.770052001953125,0.016913272440433502,-0.020880065858364105,0.018882840871810913
1772566920077081000,0.7800810546875,0.010327689349651337,-0.02069096267223358,0.019403189420700073
1772566920087110400,0.7901103515625,0.013220148161053658,-0.020244617015123367,0.00803841557353735
1772566920097139200,0.80013916015625,0.01420542225241661,-0.014351188205182552,0.004367928020656109
1772566920107168300,0.810168212890625,0.01642569899559021,-0.004388568922877312,0.00014628469944000244
1772566920117197300,0.820197265625,0.009685780853033066,0.0068081337958574295,-0.00030424538999795914
1772566920127226000,0.83022607421875,0.010620016604661942,0.01673027314245701,-0.0028803213499486446
1772566920137255200,0.840255126953125,0.011207467876374722,0.02488257735967636,-0.008762217126786709
1772566920147284200,0.8502841796875,0.011935842223465443,0.023999206721782684,-0.012354021891951561
1772566920157313000,0.86031298828125,0.010338695719838142,0.024704961106181145,-0.009773679077625275
1772566920167342000,0.870342041015625,0.012243920937180519,0.020254554226994514,-0.006628219969570637
1772566920177371100,0.88037109375,0.015781108289957047,0.01762431114912033,-0.011576376855373383
1772566920187400200,0.890400146484375,0.01568310335278511,0.015279398299753666,-0.012256814166903496
1772566920197429200,0.90042919921875,0.017581244930624962,0.017878243699669838,-0.01281001791357994
1772566920207458300,0.910458251953125,0.01745660789310932,0.02130786143243313,-0.010116230696439743
1772566920217487400,0.9204873046875,0.018690217286348343,0.028500061482191086,-0.007715137675404549
1772566920227516200,0.93051611328125,0.016795378178358078,0.031985342502593994,-0.0020820191130042076
1772566920237545200,0.940545166015625,0.012520909309387207,0.03036849945783615,0.010099394246935844
1772566920247574300,0.95057421875,0.014975810423493385,0.018936611711978912,0.006787220947444439
1772566920257603000,0.96060302734375,0.013861771672964096,-0.0007044775411486626,0.008677080273628235
1772566920267632000,0.970632080078125,0.021312497556209564,-0.020910147577524185,0.00494652334600687
1772566920277661400,0.980661376953125,0.02948303334414959,-0.0392986461520195,0.0077433353289961815
1772566920287690200,0.990690185546875,0.03420615196228027,-0.056358855217695236,0.010659229941666126
1772566920297719300,1.00071923828125,0.04231315851211548,-0.0620395690202713,0.026053711771965027
1772566920307748400,1.010748291015625,0.04299599677324295,-0.06302733719348907,0.040561284869909286
1772566920317777200,1.020777099609375,0.041764162480831146,-0.05209503695368767,0.052405305206775665
1772566920327806200,1.03080615234375,0.02884569950401783,-0.03585987538099289,0.04719722643494606
1772566920337835300,1.040835205078125,0.01566174626350403,-0.01774180307984352,0.03041410632431507
1772566920347864000,1.050864013671875,0.008397441357374191,0.00004198681563138962,0.0063311392441391945
1772566920357893000,1.06089306640625,-0.0020579705014824867,0.018048562109470367,-0.016210051253437996
1772566920367922400,1.07092236328125,-0.0021964549086987972,0.03402193635702133,-0.026182524859905243
1772566920377951200,1.080951171875,-0.003456068690866232,0.038426388055086136,-0.023917848244309425
1772566920387980300,1.090980224609375,0.0025829151272773743,0.040039997547864914,-0.014520084485411644
1772566920398009300,1.10100927734375,0.0068015456199646,0.03239106759428978,-0.004260865971446037
1772566920408038100,1.1110380859375,0.005395396612584591,0.02438081055879593,0.008049596101045609
1772566920418067200,1.121067138671875,-0.0020829220302402973,0.0007237028330564499,0.005429008975625038
1772566920428096300,1.13109619140625,-0.0035897386260330677,-0.010701790452003479,0.005848989821970463
1772566920438125000,1.141125,-0.0021348539739847183,-0.011941226199269295,0.018588487058877945
1772566920448154000,1.151154052734375,-0.002988663502037525,-0.014128746464848518,0.01838289201259613
1772566920458183200,1.16118310546875,0.00017900019884109497,-0.00941321812570095,0.010934676043689251
1772566920468212200,1.171212158203125,0.006142349913716316,-0.0019483771175146103,0.0010442286729812622
1772566920478241300,1.1812412109375,0.007407021708786488,0.0033621229231357574,-0.005257263779640198
1772566920488270300,1.191270263671875,0.0006556417793035507,0.0027637099847197533,-0.005459131672978401
1772566920498299100,1.201299072265625,0.00477877352386713,-0.00038964394479990005,-0.0025581507943570614
1772566920508328200,1.211328125,0.01280847005546093,-0.010037211701273918,0.011569119989871979
1772566920518357200,1.221357177734375,0.016729658469557762,-0.016816966235637665,0.018360862508416176
1772566920528390100,1.23139013671875,0.022408850491046906,-0.01834455505013466,0.012154098600149155
1772566920538419200,1.241419189453125,0.022975988686084747,-0.019491303712129593,-0.0009707966819405556
1772566920548448300,1.2514482421875,0.02137436345219612,-0.014248872175812721,-0.0038078618235886097
1772566920558477000,1.26147705078125,0.017201632261276245,-0.016919376328587532,0.006803734228014946
1772566920568506400,1.27150634765625,0.021667221561074257,-0.016279950737953186,0.011119387112557888
1772566920578535400,1.281535400390625,0.020531069487333298,-0.018689356744289398,0.025500571355223656
1772566920588564200,1.291564208984375,0.014476373791694641,-0.014228029176592827,0.033143311738967896
1772566920598594300,1.30159423828125,0.0102492431178689,-0.015547086484730244,0.037316177040338516
1772566920608622300,1.311622314453125,0.0004530707374215126,-0.008862818591296673,0.03799555078148842
1772566920618651100,1.321651123046875,-0.010283040814101696,-0.001110464334487915,0.030043959617614746
1772566920628681200,1.33168115234375,-0.01696384698152542,0.010852986946702003,0.019042175263166428
1772566920638709200,1.341709228515625,-0.024536259472370148,0.012974678538739681,0.0001229662448167801
1772566920648739300,1.3517392578125,-0.020409423857927322,0.018143609166145325,-0.01931198313832283
1772566920658768100,1.36176806640625,-0.020903604105114937,0.01847706362605095,-0.023814890533685684
1772566920668797200,1.371797119140625,-0.015347983688116074,0.014007480815052986,-0.02054053172469139
1772566920678826200,1.381826171875,-0.0007687555626034737,0.007371468469500542,-0.017375603318214417
1772566920688855300,1.391855224609375,0.010271378792822361,0.0010041166096925735,-0.008512335829436779
1772566920698884400,1.40188427734375,0.016147717833518982,-0.002796389162540436,0.0065459758043289185
1772566920708913400,1.411913330078125,0.021524105221033096,-0.006979682482779026,0.01413145661354065
1772566920718942200,1.421942138671875,0.020832983776926994,-0.013223656453192234,0.007583580911159515
1772566920728971300,1.43197119140625,0.013571608811616898,-0.014141381718218327,0.002081490121781826
1772566920739000300,1.442000244140625,0.010538043454289436,-0.01380725484341383,-0.005726060830056667
1772566920749029000,1.452029052734375,0.0038417913019657135,-0.0034933649003505707,0.00129775982350111
1772566920759058200,1.46205810546875,-0.002875714562833309,-0.0009373845532536507,0.007157629355788231
1772566920769087200,1.472087158203125,-0.004900516010820866,0.0065383752807974815,-0.0005570151843130589
1772566920779116000,1.482115966796875,-0.011751323938369751,0.011964787729084492,-0.008977285586297512
1772566920789145300,1.492145263671875,-0.01769256964325905,0.014527813531458378,-0.011050290428102016
1772566920799174400,1.50217431640625,-0.023802917450666428,0.011702973395586014,-0.005507643334567547
1772566920809203200,1.512203125,-0.027348116040229797,0.016895605251193047,0.002763601951301098
1772566920819232300,1.522232177734375,-0.03641963005065918,0.013878485187888145,0.011849584057927132
1772566920829261300,1.53226123046875,-0.037879578769207,0.01612938940525055,0.007769888266921043
1772566920839290000,1.5422900390625,-0.03355352580547333,0.020964067429304123,0.004925708286464214
1772566920849319200,1.552319091796875,-0.02592996135354042,0.019717175513505936,-0.004867267794907093
1772566920859348200,1.56234814453125,-0.01427527517080307,0.02013074792921543,-0.012323014438152313
1772566920869377300,1.572377197265625,-0.004843424074351788,0.02012968622148037,-0.02380949631333351
1772566920879406300,1.58240625,-0.004949001595377922,0.012732243165373802,-0.022331207990646362
1772566920889435400,1.592435302734375,-0.006822268944233656,0.013461150228977203,-0.01006894838064909
1772566920899464400,1.60246435546875,-0.008590470999479294,0.007646598853170872,0.0036481134593486786
1772566920909493200,1.6124931640625,-0.015405233949422836,0.008221042342483997,0.01346159540116787
1772566920919522300,1.622522216796875,-0.01764090359210968,0.005715680308640003,0.016294248402118683
1772566920929551400,1.63255126953125,-0.009320390410721302,0.0061140889301896095,0.009425689466297626
1772566920939580200,1.642580078125,0.0027047842741012573,0.006244203075766563,0.00011349096894264221
1772566920949609200,1.652609130859375,0.0068752942606806755,0.0026641152799129486,-0.012242777273058891
1772566920959638300,1.66263818359375,0.010442310944199562,-0.005107469856739044,-0.012050382792949677
1772566920969667000,1.6726669921875,0.013215461745858192,-0.015117493458092213,-0.006915541831403971
1772566920979696400,1.6826962890625,0.011081245727837086,-0.02987656742334366,0.0011472152546048164
1772566920989725400,1.692725341796875,0.005305116064846516,-0.035574398934841156,0.0126267708837986
1772566920999754200,1.702754150390625,0.002212407998740673,-0.030176755040884018,0.023620452731847763
1772566921009783300,1.712783203125,0.0013641910627484322,-0.020907357335090637,0.02510809153318405
1772566921019812400,1.722812255859375,-0.001415945589542389,-0.007244923152029514,0.019369591027498245
1772566921029841200,1.732841064453125,-0.0028998591005802155,0.010902655310928822,0.0034132618457078934
1772566921039870200,1.7428701171875,-0.006286920513957739,0.028481245040893555,-0.009362832643091679
1772566921049899300,1.752899169921875,-0.006809432525187731,0.03523688763380051,-0.025818239897489548
1772566921059928000,1.762927978515625,-0.006410129833966494,0.03607209026813507,-0.025185056030750275
1772566921069957400,1.772957275390625,-0.00820483360439539,0.03029382973909378,-0.018092792481184006
1772566921079986400,1.782986328125,-0.004293263889849186,0.015419363975524902,-0.003209407441318035
1772566921090015200,1.79301513671875,-0.0008516609668731689,-0.00044375471770763397,0.010496551170945168
1772566921100044300,1.803044189453125,0.009727945551276207,-0.012017312459647655,0.023999806493520737
1772566921110073300,1.8130732421875,0.016517141833901405,-0.018666159361600876,0.028428375720977783
1772566921120102100,1.82310205078125,0.014801054261624813,-0.01896829530596733,0.01451373752206564
1772566921130131200,1.833131103515625,0.011374897323548794,-0.017607685178518295,-0.0033254469744861126
1772566921140160300,1.84316015625,0.000918019562959671,-0.008367214351892471,-0.005408569239079952
1772566921150189000,1.85318896484375,-0.006121247541159391,0.002959209494292736,0.0009654397144913673
1772566921160218000,1.863218017578125,-0.009784753434360027,0.010718206875026226,0.003508300520479679
1772566921170247400,1.873247314453125,-0.018520453944802284,0.011737397871911526,-0.0005961637943983078
1772566921180276200,1.883276123046875,-0.016182202845811844,0.012216093949973583,-0.006130057852715254
1772566921190305300,1.89330517578125,-0.015074328519403934,0.009618447162210941,-0.00263412669301033
1772566921200334300,1.903334228515625,-0.014560159295797348,0.009689914993941784,0.002021568827331066
1772566921210363100,1.913363037109375,-0.016718119382858276,0.003547600470483303,-0.004458433948457241
1772566921220392200,1.92339208984375,-0.010538540780544281,0.0014890274032950401,-0.013716267421841621
1772566921230421200,1.933421142578125,-0.015484297648072243,-0.00042285583913326263,-0.009669594466686249
1772566921240450000,1.943449951171875,-0.012887254357337952,-0.012684246525168419,0.00663333386182785
1772566921250479000,1.95347900390625,-0.00618034927174449,-0.017643317580223083,0.012555938214063644
1772566921260508400,1.96350830078125,-0.0022382778115570545,-0.022529730573296547,0.013226591050624847
1772566921270537500,1.973537353515625,-0.003403410781174898,-0.021139562129974365,0.012298213317990303
1772566921280566300,1.983566162109375,-0.006333365570753813,-0.008901014924049377,0.009896128438413143
1772566921290595300,1.99359521484375,-0.009321166202425957,-0.004816257860511541,0.0028925463557243347
1772566921300624400,2.003624267578125,-0.013067109510302544,0.0019609592854976654,-0.005288996268063784
1772566921310653200,2.013653076171875,-0.01708155870437622,0.0007132682949304581,-0.006233619526028633
1772566921320682200,2.02368212890625,-0.014598891139030457,0.0010282648727297783,-0.005068866536021233
1772566921330711300,2.033711181640625,-0.01396106369793415,-0.0011145146563649178,0.0028838645666837692
1772566921340740000,2.043739990234375,-0.01424464862793684,-0.0060236225835978985,0.00950691569596529
1772566921350769400,2.053769287109375,-0.011249391362071037,-0.006998073309659958,0.01101506408303976
1772566921360798500,2.063798583984375,-0.012732934206724167,-0.006214822642505169,0.011934082955121994
1772566921370827300,2.0738271484375,-0.011302816681563854,0.0012409631162881851,0.0049158548936247826
1772566921380856300,2.083856201171875,-0.016941387206315994,0.005296992138028145,0.00416739284992218
1772566921390885400,2.093885498046875,-0.016659891232848167,0.011873137205839157,-0.006225593388080597
1772566921400914200,2.1039140625,-0.014496192336082458,0.012713277712464333,-0.016913125291466713
1772566921410943200,2.113943115234375,-0.012795232236385345,0.006410641595721245,-0.011172948405146599
1772566921420972300,2.12397216796875,-0.008745433762669563,0.0035124970600008965,0.0003145970404148102
1772566921431001000,2.1340009765625,-0.008002678863704205,-0.0018399236723780632,0.006706449203193188
1772566921441030100,2.144030029296875,-0.003633445128798485,-0.00814428273588419,0.01401481032371521
1772566921451059500,2.1540595703125,-0.005814308300614357,-0.010551514104008675,0.01268855668604374
1772566921461088300,2.164088134765625,-0.00880466215312481,-0.004631192423403263,0.01209086924791336
1772566921471117300,2.174117431640625,-0.015147512778639793,-0.0018817447125911713,0.013897290453314781
1772566921481146400,2.184146484375,-0.019282134249806404,0.002368018962442875,0.008065580390393734
1772566921491175200,2.194175048828125,-0.02287846803665161,-0.002041909843683243,0.0007384251803159714
1772566921501204200,2.204204345703125,-0.022781657055020332,-0.0026281438767910004,0.0017157243564724922
1772566921511233300,2.2142333984375,-0.020279351621866226,-0.008137690834701061,0.005606601946055889
1772566921521262000,2.224261962890625,-0.015152562409639359,-0.010389771312475204,0.012954607605934143
1772566921531287600,2.23428759765625,-0.013159984722733498,-0.01048644445836544,0.020423443987965584
1772566921541316900,2.24431689453125,-0.0073942095041275024,-0.009370125830173492,0.020284920930862427
1772566921551345700,2.254345703125,-0.010529815219342709,-0.0043162452057003975,0.013573488220572472
1772566921561374700,2.264374755859375,-0.015643587335944176,-0.002257963642477989,0.0021194592118263245
1772566921571403800,2.27440380859375,-0.018174655735492706,-0.002618289552628994,-0.005753910169005394
1772566921581432600,2.2844326171875,-0.022740686312317848,0.004767289385199547,-0.0022247261367738247
1772566921591461600,2.294461669921875,-0.02576950006186962,0.010359128937125206,0.0015766695141792297
1772566921601490700,2.30449072265625,-0.02304401993751526,0.020055167376995087,0.007419378496706486
1772566921611519500,2.31451953125,-0.023262400180101395,0.020233064889907837,0.0035804323852062225
1772566921621548500,2.324548583984375,-0.018351620063185692,0.024503551423549652,-0.009832082316279411
1772566921631577900,2.334577880859375,-0.017032822594046593,0.020261403173208237,-0.019654620438814163
1772566921641606700,2.344606689453125,-0.014161156490445137,0.005303008481860161,-0.02169688418507576
1772566921651635700,2.3546357421875,-0.0068744816817343235,-0.00634592492133379,-0.01597161963582039
1772566921661664800,2.364664794921875,-0.004265362396836281,-0.020418383181095123,0.0024940920993685722
1772566921671693600,2.374693603515625,0.0023962687700986862,-0.028773784637451172,0.020669899880886078
1772566921681722600,2.38472265625,0.004590568132698536,-0.025998421013355255,0.038695771247148514
1772566921691751700,2.394751708984375,0.0021042414009571075,-0.017832636833190918,0.03729308396577835
1772566921701780500,2.404780517578125,-0.008175122551620007,-0.006954909767955542,0.021927280351519585
1772566921711809500,2.4148095703125,-0.016757693141698837,0.005621869117021561,-0.007176808547228575
1772566921721838600,2.424838623046875,-0.020822327584028244,0.0213609766215086,-0.02494487538933754
1772566921731867600,2.43486767578125,-0.02945815958082676,0.037582024931907654,-0.02676008641719818
1772566921741896700,2.444896728515625,-0.029581323266029358,0.03700575977563858,-0.024697579443454742
1772566921751925800,2.45492578125,-0.025533586740493774,0.029275931417942047,-0.01723274029791355
1772566921761954600,2.46495458984375,-0.021215684711933136,0.01865416392683983,0.0031966697424650192
1772566921771983600,2.474983642578125,-0.02064656838774681,0.01081142295151949,0.02270006388425827
1772566921782012700,2.4850126953125,-0.020180484279990196,-0.013825023546814919,0.023012414574623108
1772566921792041500,2.49504150390625,-0.016203053295612335,-0.02652909979224205,0.016747593879699707
1772566921802070500,2.505070556640625,-0.00991851557046175,-0.023961838334798813,0.02237679436802864
1772566921812099600,2.515099609375,-0.0015860171988606453,-0.017245344817638397,0.028475165367126465
1772566921822128600,2.525128662109375,0.0028656702488660812,-0.007849588058888912,0.02287921868264675
1772566921832157700,2.53515771484375,0.004398586228489876,0.0028411392122507095,0.006989201530814171
1772566921842186800,2.545186767578125,0.006014848127961159,0.018343159928917885,-0.004047546535730362
1772566921852215600,2.555215576171875,0.0024989433586597443,0.028208039700984955,-0.011966455727815628
1772566921862244600,2.56524462890625,-0.0019258777610957623,0.01921955496072769,-0.019505180418491364
1772566921872273700,2.575273681640625,0.0028600888326764107,0.012183482758700848,-0.017879586666822433
1772566921882302500,2.585302490234375,0.005767574533820152,0.008357313461601734,-0.00011572940275073051
1772566921892331500,2.59533154296875,0.006332430988550186,0.0011108526960015297,0.009696953929960728
1772566921902360600,2.605360595703125,0.00018863938748836517,-0.007715313695371151,0.007693721912801266
1772566921912389600,2.6153896484375,-0.004503849893808365,-0.007777631748467684,0.0009370157495141029
1772566921922418700,2.625418701171875,-0.010741217993199825,-0.003786936402320862,0.0068310098722577095
1772566921932447700,2.63544775390625,-0.01557911653071642,0.003006787970662117,0.012204470112919807
1772566921942476800,2.645476806640625,-0.021637041121721268,0.0053232815116643906,0.008820696733891964
1772566921952505600,2.655505615234375,-0.020908666774630547,0.007272183895111084,0.0011188341304659843
1772566921962534700,2.66553466796875,-0.021252255886793137,0.01459944061934948,-0.0020253309048712254
1772566921972563700,2.675563720703125,-0.019369401037693024,0.01556883193552494,0.0032860776409506798
1772566921982592500,2.685592529296875,-0.021056335419416428,0.016167882829904556,0.002238617278635502
1772566921992621600,2.69562158203125,-0.022472871467471123,0.019281649962067604,0.0027664564549922943
1772566922002650600,2.705650634765625,-0.022165656089782715,0.020258240401744843,0.0017104735597968102
1772566922012679700,2.7156796875,-0.023870080709457397,0.016343925148248672,0.002931267023086548
1772566922022708700,2.725708740234375,-0.019167140126228333,0.014697141945362091,-0.003667323850095272
1772566922032737800,2.73573779296875,-0.015315145254135132,0.011175643652677536,0.0010249000042676926
1772566922042766600,2.7457666015625,-0.013654758222401142,0.0066255927085876465,0.007513273507356644
1772566922052795600,2.755795654296875,-0.011608119122684002,0.002627922222018242,0.012119743041694164
1772566922062824700,2.76582470703125,-0.008744730614125729,0.0005164053291082382,0.010013945400714874
1772566922072853500,2.775853515625,-0.003952904604375362,-0.003105226904153824,0.013518400490283966
1772566922082882600,2.785882568359375,-0.0032175639644265175,-0.0024997275322675705,0.011423592455685139
1772566922092911600,2.79591162109375,-0.0040055932477116585,-0.0012975772842764854,0.006662127561867237
1772566922102940700,2.805940673828125,-0.003554707858711481,0.0007614502683281898,0.012460560537874699
1772566922112969700,2.8159697265625,-0.005921725183725357,0.006131181493401527,0.012815826572477818
1772566922122998800,2.825998779296875,-0.014621315523982048,0.008782187476754189,0.011651678010821342
1772566922133027600,2.836027587890625,-0.015248756855726242,0.012377455830574036,0.006500858813524246
1772566922143056600,2.846056640625,-0.018816079944372177,0.013876868411898613,0.006217612884938717
1772566922153085700,2.856085693359375,-0.01986083947122097,0.014537066221237183,0.0065206801518797874
1772566922163114500,2.866114501953125,-0.020401958376169205,0.005723133683204651,0.005371600389480591
1772566922173143600,2.8761435546875,-0.019915398210287094,0.0028266794979572296,0.00551940593868494
1772566922183172600,2.886172607421875,-0.018214784562587738,0.003155776299536228,0.000385550782084465
1772566922193201700,2.89620166015625,-0.012804307043552399,0.0029805395752191544,0.004562187008559704
1772566922203230700,2.906230712890625,-0.014425477012991905,0.0019962210208177567,0.004587259143590927
1772566922213259800,2.916259765625,-0.013270197436213493,0.0012060608714818954,0.005154245533049107
1772566922223288600,2.92628857421875,-0.010105893015861511,0.0025388607755303383,0.005024362355470657
1772566922233317600,2.936317626953125,-0.009137834422290325,0.0011276518926024437,0.004625952802598476
1772566922243346700,2.9463466796875,-0.008812371641397476,0.003187708556652069,0.01172168180346489
1772566922253375500,2.95637548828125,-0.007265874184668064,0.0022936854511499405,0.00901271402835846
1772566922263404500,2.966404541015625,-0.012188870459794998,0.002279643900692463,0.006135163828730583
1772566922273433600,2.97643359375,-0.010643438436090946,0.0014849565923213959,-0.0007400522008538246
1772566922283462400,2.98646240234375,-0.011202891357243061,0.003528864122927189,-0.0008503412827849388
1772566922293491700,2.99649169921875,-0.010480908676981926,0.00996785331517458,-0.0011805733665823936
1772566922303520800,3.006520751953125,-0.008046843111515045,0.009875069372355938,-0.0049363477155566216
1772566922313549600,3.016549560546875,-0.005117366090416908,0.00983192678540945,-0.011446977965533733
1772566922323579600,3.02657958984375,-0.004301450215280056,0.0014520855620503426,-0.012253355234861374
1772566922333607700,3.036607666015625,-0.0020731831900775433,-0.007076954003423452,-0.003599412739276886
1772566922343637800,3.0466376953125,0.002669014036655426,-0.015518143773078918,0.0012543154880404472
1772566922353666600,3.05666650390625,0.009882718324661255,-0.02094699814915657,0.013543205335736275
1772566922363695600,3.066695556640625,0.010137176141142845,-0.02376279979944229,0.022368766367435455
1772566922373724700,3.076724609375,0.007811704650521278,-0.016199421137571335,0.019722647964954376
1772566922383753500,3.08675341796875,0.009383306838572025,-0.007357369177043438,0.010984819382429123
1772566922393782500,3.096782470703125,0.0012441547587513924,0.0054247379302978516,0.004565002396702766
1772566922403811600,3.1068115234375,-0.0049156369641423225,0.019951622933149338,-0.00006904825568199158
1772566922413840600,3.116840576171875,-0.011786060407757759,0.01635901629924774,-0.014085531234741211
1772566922423869700,3.12686962890625,-0.009676936082541943,0.014300521463155746,-0.008597671054303646
1772566922433898800,3.136898681640625,-0.008085964247584343,0.010786214843392372,-0.0018359050154685974
1772566922443927600,3.146927490234375,-0.0058000413700938225,0.004279374144971371,0.011968400329351425
1772566922453956600,3.15695654296875,-0.002945665270090103,0.0007916977629065514,0.009884476661682129
1772566922463985700,3.166985595703125,-0.0011013629846274853,-0.001978674903512001,-0.0027733384631574154
1772566922474014500,3.177014404296875,0.00041211117058992386,0.006067267619073391,-0.0025517637841403484
1772566922484043500,3.18704345703125,0.0009703608229756355,0.012359926477074623,-0.003473901655524969
1772566922494072600,3.197072509765625,-0.0008078315295279026,0.011656852439045906,-0.008984248153865337
1772566922504101600,3.2071015625,0.0006859153509140015,0.014579720795154572,-0.009250716306269169
1772566922514130700,3.217130615234375,0.0064612459391355515,0.013390086591243744,0.005642212927341461
1772566922524159700,3.22715966796875,0.011113900691270828,0.013712326064705849,0.016615277156233788
1772566922534188300,3.237188232421875,0.007835550233721733,0.007624341174960136,0.013409629464149475
1772566922544217000,3.247217041015625,0.007540727965533733,0.00120588019490242,0.0046288445591926575
1772566922554246100,3.25724609375,0.008718377910554409,0.0032847439870238304,0.003225359134376049
1772566922564275200,3.267275146484375,0.0033405646681785583,0.006771041080355644,0.008883621543645859
1772566922574304000,3.277303955078125,0.0025397520512342453,0.005935873836278915,0.006104880012571812
1772566922584333000,3.2873330078125,0.006318531930446625,0.005104385316371918,-0.0033007198944687843
1772566922594362400,3.2973623046875,0.009209392592310905,0.004119813442230225,-0.0057215336710214615
1772566922604391200,3.30739111328125,0.0083621796220541,-0.0007424354553222656,-0.006583789363503456
1772566922614420200,3.317420166015625,0.011651983484625816,-0.009342048317193985,0.00039369240403175354
1772566922624449300,3.32744921875,0.01234506070613861,-0.014200217090547085,0.009493031539022923
1772566922634478300,3.337478271484375,0.008981486782431602,-0.015253497287631035,0.023369431495666504
1772566922644507100,3.347507080078125,0.005337156355381012,-0.014825647696852684,0.02618473395705223
1772566922654536200,3.3575361328125,-0.002052316442131996,-0.009114498272538185,0.0235372856259346
1772566922664565200,3.367565185546875,-0.014567188918590546,0.001597088761627674,0.015368039719760418
1772566922674594000,3.377593994140625,-0.02006368711590767,0.0036895349621772766,0.008080833591520786
1772566922684623400,3.387623291015625,-0.021495360881090164,0.013731947168707848,-0.0006692120805382729
1772566922694652400,3.39765234375,-0.021322254091501236,0.016006551682949066,-0.004735859110951424
1772566922704681200,3.40768115234375,-0.017563235014677048,0.022625114768743515,-0.003412762191146612
1772566922714710300,3.417710205078125,-0.02300167642533779,0.022257335484027863,-0.002381053753197193
1772566922724739300,3.4277392578125,-0.01580207608640194,0.03053520992398262,-0.0038073663599789143
1772566922734768000,3.43776806640625,-0.01219668798148632,0.025581732392311096,-0.009590953588485718
1772566922744797200,3.447797119140625,-0.0050776321440935135,0.018654579296708107,-0.007598333992063999
1772566922754826200,3.457826171875,0.004725463688373566,0.016548018902540207,-0.005411346442997456
1772566922764855000,3.46785498046875,0.01327453088015318,0.00727502629160881,-0.0017459262162446976
1772566922774884000,3.477884033203125,0.017380859702825546,-0.00422183983027935,-0.0009166179224848747
1772566922784913400,3.487913330078125,0.020203370600938797,-0.005922498647123575,0.0027847932651638985
1772566922794942200,3.497942138671875,0.02065291255712509,-0.0072306436486542225,0.008442679420113564
1772566922804971300,3.50797119140625,0.01708652637898922,-0.004236887209117413,0.006316415965557098
1772566922815000300,3.518000244140625,0.013440392911434174,0.0017650788649916649,0.004325437359511852
1772566922825029000,3.528029052734375,0.013752248138189316,0.010707175359129906,0.0023762695491313934
1772566922835058200,3.53805810546875,0.01106511801481247,0.013586051762104034,-0.0050901686772704124
1772566922845087200,3.548087158203125,0.009930890053510666,0.006500684656202793,-0.014452436938881874
1772566922855116000,3.558115966796875,0.0124257393181324,-0.0010395227000117302,-0.013441766612231731
1772566922865145000,3.56814501953125,0.011073380708694458,-0.010659229010343552,-0.004313213750720024
1772566922875174400,3.57817431640625,0.010503197088837624,-0.017167994752526283,0.003425932489335537
1772566922885203200,3.588203125,0.007552962750196457,-0.021192755550146103,0.009553374722599983
1772566922895232300,3.598232177734375,0.009107716381549835,-0.013086092658340931,0.010593071579933167
1772566922905261300,3.60826123046875,0.007295211777091026,0.0007081795483827591,0.008424228057265282
1772566922915290000,3.6182900390625,0.002653321251273155,0.010505416430532932,-0.002163967117667198
1772566922925319200,3.628319091796875,0.004343848675489426,0.011314488016068935,-0.016345566138625145
1772566922935348200,3.63834814453125,-0.000032257288694381714,0.01666344702243805,-0.022923307493329048
1772566922945377000,3.648376953125,-0.0035612075589597225,0.019349079579114914,-0.01929531805217266
1772566922955406000,3.658406005859375,-0.007484043948352337,0.015006260946393013,-0.01144139003008604
1772566922965435400,3.668435302734375,-0.010505655780434608,0.009208268485963345,-0.005677170120179653
1772566922975464200,3.678464111328125,-0.00801133830100298,0.007018617354333401,0.005377345718443394
1772566922985493200,3.6884931640625,-0.003938555251806974,0.0046875253319740295,0.017080150544643402
1772566922995522300,3.698522216796875,-0.001053818967193365,0.0041578225791454315,0.017880430445075035
1772566923005551000,3.708551025390625,0.0024990085512399673,-0.005451954435557127,0.004577528685331345
1772566923015580200,3.718580078125,0.010074636898934841,-0.012881641276180744,-0.009004859253764153
1772566923025609200,3.728609130859375,0.010930661112070084,-0.0172710083425045,-0.005905136466026306
1772566923035638300,3.73863818359375,0.014965083450078964,-0.021191183477640152,-0.0004805438220500946
1772566923045667000,3.7486669921875,0.016872920095920563,-0.01878994330763817,0.007650510407984257
1772566923055696100,3.758696044921875,0.017795972526073456,-0.012467066757380962,0.005914395675063133
1772566923065725400,3.768725341796875,0.01700698211789131,-0.003329225815832615,0.0008394317701458931
1772566923075754200,3.778754150390625,0.010560800321400166,0.008661389350891113,0.003203253261744976
1772566923085783300,3.788783203125,-0.00024287588894367218,0.01503734290599823,0.0017755720764398575
1772566923095812400,3.798812255859375,0.0012407703325152397,0.013552630320191383,-0.004620275925844908
1772566923105841200,3.808841064453125,0.006820986978709698,0.012934012338519096,-0.00014175474643707275
1772566923115870200,3.8188701171875,0.01562193501740694,0.010755281895399094,0.00448175985366106
1772566923125899300,3.828899169921875,0.02327226847410202,0.009219112806022167,0.00953103881329298
1772566923135928000,3.838927978515625,0.026955418288707733,0.0066507598385214806,0.004651062190532684
1772566923145957000,3.84895703125,0.029755383729934692,0.010511741042137146,0.001482888124883175
1772566923155986400,3.858986328125,0.03082384541630745,0.011094441637396812,-0.00048279110342264175
1772566923166015200,3.86901513671875,0.033472463488578796,0.010734232142567635,-0.0051519181579351425
1772566923176044300,3.879044189453125,0.03627810627222061,0.00914725475013256,-0.00477481447160244
1772566923186073300,3.8890732421875,0.0447087436914444,0.011424990370869637,0.0002797860652208328
1772566923196102100,3.89910205078125,0.044217124581336975,0.01054002158343792,0.0027671782299876213
1772566923206131200,3.909131103515625,0.050820525735616684,0.01263597421348095,0.005525834858417511
1772566923216160300,3.91916015625,0.05014781281352043,0.012629315257072449,0.006993768736720085
1772566923226189000,3.92918896484375,0.04408397898077965,0.011223896406590939,0.007357745431363583
1772566923236218000,3.939218017578125,0.038838617503643036,0.017658360302448273,0.00418458878993988
1772566923246247200,3.9492470703125,0.03515571355819702,0.011323015205562115,-0.00484581058844924
1772566923256276200,3.959276123046875,0.02828448824584484,0.006774070672690868,-0.013876323588192463
1772566923266305300,3.96930517578125,0.026258684694767,0.004036989063024521,-0.009274190291762352
1772566923276334300,3.979334228515625,0.024125758558511734,0.0012681009247899055,0.00193106010556221
1772566923286363100,3.989363037109375,0.028386475518345833,0.003258722834289074,0.012238558381795883
1772566923296391200,3.99939111328125,0.030315596610307693,-0.003079421818256378,0.014043384231626987
1772566923306420200,4.009420166015625,0.027973614633083344,0.004547605291008949,0.012028968892991543
1772566923316449300,4.01944921875,0.024213315919041634,0.005796424113214016,0.006823628209531307
1772566923326478300,4.029478271484375,0.022061746567487717,0.007849986664950848,-0.010746310465037823
1772566923336507400,4.03950732421875,0.014015239663422108,0.013999036513268948,-0.01466804277151823
1772566923346536200,4.0495361328125,0.009410367347300053,0.019012968987226486,-0.01442116778343916
1772566923356565200,4.059565185546875,0.005079174414277077,0.022304870188236237,-0.008541056886315346
1772566923366594300,4.06959423828125,-0.0012804539874196053,0.01715165190398693,0.000586395151913166
1772566923376623000,4.079623046875,-0.009464976377785206,0.009060942567884922,0.006643609143793583
1772566923386652200,4.089652099609375,-0.011879931204020977,0.0037356847897171974,0.008116337470710278
1772566923396681200,4.09968115234375,-0.009400272741913795,-0.002144548110663891,0.007743950933218002
1772566923406710300,4.109710205078125,-0.006535776890814304,-0.0023346971720457077,0.008102412335574627
1772566923416739300,4.1197392578125,-0.00209544925019145,-0.002752230502665043,0.006351185031235218
1772566923426768400,4.129768310546875,0.0017424318939447403,-0.008781894110143185,-0.0011024707928299904
1772566923436797200,4.139797119140625,0.0057068029418587685,-0.004222005605697632,-0.001039163675159216
1772566923446826200,4.149826171875,0.0030412450432777405,0.0016353512182831764,-0.004219244234263897
1772566923456855300,4.159855224609375,-0.006516538094729185,0.003900934010744095,-0.0027529788203537464
1772566923466884000,4.169884033203125,-0.010519535280764103,0.009416872635483742,-0.003952200524508953
1772566923476913200,4.1799130859375,-0.007767627481371164,0.007615352980792522,-0.0018803402781486511
1772566923486942200,4.189942138671875,-0.008504523895680904,0.002710343338549137,0.0019061416387557983
1772566923496971000,4.199970947265625,0.00047832168638706207,-0.004183365032076836,-0.0007558371871709824
1772566923507000300,4.210000244140625,0.008247561752796173,-0.009793314151465893,-0.00007007317617535591
1772566923517029400,4.220029296875,0.005938703194260597,-0.017824482172727585,-0.0021911715157330036
1772566923527058200,4.23005810546875,0.008673237636685371,-0.03225455433130264,-0.006888721138238907
1772566923537087000,4.2400869140625,0.012267129495739937,-0.04715084284543991,-0.002436485607177019
1772566923547116000,4.250115966796875,0.013221606612205505,-0.05726393312215805,0.015548373572528362
1772566923557145000,4.26014501953125,0.014123866334557533,-0.06684646755456924,0.03047976642847061
1772566923567174000,4.270173828125,0.015220554545521736,-0.060047686100006104,0.03605722635984421
1772566923577203000,4.280202880859375,0.020238034427165985,-0.0457344613969326,0.03485701233148575
1772566923587232000,4.29023193359375,0.02447565644979477,-0.032393354922533035,0.017878562211990356
1772566923597261000,4.300260986328125,0.02519896999001503,-0.017120925709605217,-0.005378290079534054
1772566923607290000,4.3102900390625,0.02465488761663437,-0.014830874279141426,-0.024360768496990204
1772566923617319200,4.320319091796875,0.022696517407894135,-0.005974706262350082,-0.024645991623401642
1772566923627348000,4.330347900390625,0.020192613825201988,-0.009114306420087814,-0.005502123851329088
1772566923637377000,4.340376953125,0.021309340372681618,-0.01049584336578846,0.010866118595004082
1772566923647406000,4.350406005859375,0.019068822264671326,-0.014361156150698662,0.020818084478378296
1772566923657435000,4.360434814453125,0.012727866880595684,-0.017704032361507416,0.013493021950125694
1772566923667464000,4.3704638671875,0.006593009456992149,-0.012657874263823032,0.006757354363799095
1772566923677493000,4.380492919921875,0.0030250558629631996,-0.006207147613167763,0.0031580589711666107
1772566923687522000,4.39052197265625,-0.00834477785974741,-0.001081095077097416,-0.0005791550502181053
1772566923697551000,4.400551025390625,-0.011539090424776077,-0.002768035978078842,0.004528782330453396
1772566923707580200,4.410580078125,-0.01263578049838543,-0.003313184715807438,0.005324268713593483
1772566923717609000,4.42060888671875,-0.012955809943377972,-0.002237998880445957,0.01160621177405119
1772566923727638000,4.430637939453125,-0.01646745391190052,-0.006225017365068197,0.016196701675653458
1772566923737667000,4.4406669921875,-0.013479971326887608,0.005793685093522072,0.024395927786827087
1772566923747695900,4.45069580078125,-0.007330732420086861,0.004190728068351746,0.022754356265068054
1772566923757725000,4.460724853515625,-0.0019171526655554771,-0.01428498886525631,0.02270600013434887
1772566923767754000,4.47075390625,-0.003846346400678158,-0.007532278075814247,0.01958157867193222
1772566923777783000,4.480782958984375,0.0019609425216913223,-0.0023167431354522705,0.01482304371893406
1772566923787812000,4.49081201171875,0.0028893202543258667,0.01155166793614626,0.014370305463671684
1772566923797841200,4.500841064453125,0.006971308030188084,0.018878551200032234,0.008979842998087406
1772566923807870000,4.510869873046875,0.000984787940979004,0.016615664586424828,-0.01061249990016222
1772566923817899000,4.52089892578125,-0.0016015679575502872,0.016024447977542877,-0.017293080687522888
1772566923827928000,4.530927978515625,-0.0025366037152707577,0.013996982015669346,-0.02037009783089161
1772566923837956900,4.540956787109375,-0.003875364549458027,0.00803227536380291,-0.011787187308073044
1772566923847986000,4.55098583984375,0.00038755685091018677,-0.0009002331644296646,-0.000057027675211429596
1772566923858015000,4.561014892578125,-0.0005651400424540043,-0.012592367827892303,0.006535820662975311
1772566923868043800,4.571043701171875,0.00023141130805015564,-0.02244073897600174,0.008594177663326263
1772566923878073000,4.581072998046875,0.002756151370704174,-0.02192131243646145,0.01151319034397602
1772566923888102100,4.59110205078125,0.004802524112164974,-0.0197652168571949,0.013086585327982903
1772566923898131000,4.601130859375,0.00836581364274025,-0.021270383149385452,0.008146004751324654
1772566923908160000,4.611159912109375,0.013712907209992409,-0.011208160780370235,0.004023431800305843
1772566923918189000,4.62118896484375,0.020572692155838013,-0.00557571230456233,-0.0008851131424307823
1772566923928218000,4.631218017578125,0.02892915904521942,-0.0007628481835126877,-0.004891572520136833
1772566923938247000,4.641246826171875,0.030261006206274033,0.00403936393558979,-0.010341465473175049
1772566923948276000,4.65127587890625,0.03341037034988403,0.003696031868457794,-0.007288841065019369
1772566923958305000,4.661304931640625,0.036974743008613586,0.0013042474165558815,0.0036919042468070984
1772566923968334000,4.671333984375,0.03661772608757019,-0.006016673054546118,0.0044191377237439156
1772566923978363100,4.681363037109375,0.036276042461395264,-0.012845284305512905,0.0023669060319662094
1772566923988392200,4.69139208984375,0.0366397388279438,-0.014537882059812546,0.00697200745344162
1772566923998421000,4.7014208984375,0.03546448424458504,-0.017411699518561363,0.012572902254760265
1772566924008450000,4.711449951171875,0.03353840485215187,-0.017032800242304802,0.008772493340075016
1772566924018479000,4.72147900390625,0.02684774622321129,-0.0163614172488451,-0.003003472927957773
1772566924028508000,4.7315078125,0.019163066521286964,-0.01048564538359642,-0.005733325146138668
1772566924038537000,4.741536865234375,0.006420640274882317,-0.004221624694764614,-0.002029400784522295
1772566924048566000,4.75156591796875,-0.00481169018894434,0.004657415673136711,0.002257031388580799
1772566924058594800,4.7615947265625,-0.01254870556294918,0.010115563869476318,0.0025475816801190376
1772566924068624100,4.7716240234375,-0.020014721900224686,0.0178210511803627,0.005421478301286697
1772566924078653200,4.781653076171875,-0.02575543336570263,0.020626425743103027,0.004919739440083504
1772566924088682000,4.791681884765625,-0.027972597628831863,0.019296903163194656,-0.007478154730051756
1772566924098711000,4.8017109375,-0.02277570404112339,0.0167999230325222,-0.020740963518619537
1772566924108740000,4.811739990234375,-0.026572858914732933,0.005195515230298042,-0.025862906128168106
1772566924118769000,4.821768798828125,-0.024435406550765038,-0.005434225779026747,-0.015691496431827545
1772566924128798000,4.8317978515625,-0.021102983504533768,-0.011937689036130905,0.004193871282041073
1772566924138827000,4.841826904296875,-0.018194811418652534,-0.017400365322828293,0.014067808166146278
1772566924148855800,4.851855712890625,-0.018012478947639465,-0.017462724819779396,0.02122916281223297
1772566924158885000,4.861885009765625,-0.015771694481372833,-0.0164635069668293,0.01834149658679962
1772566924168914200,4.8719140625,-0.01180536299943924,-0.009229382500052452,0.008648437447845936
1772566924178943000,4.88194287109375,-0.01318887434899807,-0.0009954208508133888,-0.006878325249999762
1772566924188972000,4.891971923828125,-0.008512800559401512,0.0026017380878329277,-0.018596887588500977
1772566924199001000,4.9020009765625,-0.01032987516373396,0.006964528933167458,-0.01645171083509922
1772566924209030000,4.91202978515625,-0.01280234381556511,0.009115004912018776,-0.004035712219774723
1772566924219059000,4.922058837890625,-0.014517951756715775,0.005865415558218956,-0.002154721412807703
1772566924229088000,4.932087890625,-0.017197661101818085,0.0017705177888274193,0.004756256937980652
1772566924239116800,4.94211669921875,-0.015871141105890274,0.0013622548431158066,0.01133719552308321
1772566924249146000,4.95214599609375,-0.014196649193763733,0.0024160481989383698,0.005222080275416374
1772566924259175200,4.962175048828125,-0.019628431648015976,0.0022626500576734543,-0.00647718645632267
1772566924269204000,4.972203857421875,-0.01672922819852829,0.008065318688750267,-0.016619792208075523
1772566924279233000,4.98223291015625,-0.01793191209435463,0.01356474682688713,-0.011198661290109158
1772566924289262000,4.992261962890625,-0.01646507903933525,0.015678998082876205,-0.008592687547206879
1772566924299291000,5.002290771484375,-0.021545588970184326,0.01323741301894188,-0.011277686804533005
1772566924309320000,5.01231982421875,-0.014577863737940788,0.013245808891952038,-0.0028412085957825184
1772566924319349000,5.022348876953125,-0.012179153971374035,0.009686226956546307,0.014321798458695412
1772566924329377800,5.032377685546875,-0.014408945105969906,0.006185055710375309,0.01755806989967823
1772566924339406800,5.04240673828125,-0.008075415156781673,-0.004273444414138794,0.003621748648583889
1772566924349436200,5.052436279296875,-0.010214508511126041,-0.006397480145096779,-0.005071379244327545
1772566924359465200,5.06246533203125,-0.012999376282095909,-0.0026823701336979866,-0.007218952290713787
1772566924369494000,5.072493896484375,-0.01924968883395195,-0.00318174809217453,-0.0008102082647383213
1772566924379523000,5.082523193359375,-0.02267637848854065,0.0006151199340820312,0.0007727751508355141
1772566924389552000,5.09255224609375,-0.020529750734567642,-0.00038028042763471603,0.007298054173588753
1772566924399581000,5.102580810546875,-0.012957052327692509,-0.0006418032571673393,0.0036495234817266464
1772566924409610000,5.11260986328125,-0.0058743334375321865,-0.01010971050709486,-0.011565345339477062
1772566924419639000,5.12263916015625,0.00043922290205955505,-0.025403711944818497,-0.017810991033911705
1772566924429667800,5.132667724609375,0.00266961008310318,-0.031794473528862,-0.009321974590420723
1772566924439697200,5.142697265625,-0.0018255398608744144,-0.03526803478598595,0.009784609079360962
1772566924449726200,5.152726318359375,-0.005821498576551676,-0.037272073328495026,0.019345393404364586
1772566924459755000,5.162755126953125,-0.008920086547732353,-0.03392714262008667,0.02226075530052185
1772566924469784000,5.1727841796875,-0.01688278652727604,-0.018651774153113365,0.01753920130431652
1772566924479813000,5.182813232421875,-0.018138732761144638,-0.00045386236160993576,0.007957680150866508
1772566924489842000,5.192842041015625,-0.01982957497239113,0.01504600141197443,-0.004117624834179878
1772566924499871000,5.20287109375,-0.019488688558340073,0.03005717322230339,-0.012863978743553162
1772566924509900000,5.212900146484375,-0.020457668229937553,0.04017417132854462,-0.016657916828989983
1772566924519928800,5.2229287109375,-0.017643772065639496,0.04584324359893799,-0.013570514507591724
1772566924529958000,5.2329580078125,-0.006886099930852652,0.040575381368398666,-0.011647331528365612
1772566924539990800,5.24299072265625,0.0025156578049063683,0.027020689100027084,-0.0023225396871566772
1772566924550019800,5.253019775390625,0.0203922837972641,0.011418981477618217,0.004993504844605923
1772566924560049000,5.263048828125,0.036113191395998,-0.00750757148489356,0.01295049861073494
1772566924570077700,5.27307763671875,0.04852205514907837,-0.021288037300109863,0.02572176232933998
1772566924580106800,5.283106689453125,0.05622418224811554,-0.027063634246587753,0.031453683972358704
1772566924590135800,5.2931357421875,0.06477413326501846,-0.03694777563214302,0.03270377218723297
1772566924600164600,5.30316455078125,0.07241874188184738,-0.018624428659677505,0.03536240756511688
1772566924610193700,5.313193603515625,0.07816551625728607,-0.015503467991948128,0.017461217939853668
1772566924620222700,5.32322265625,0.08158181607723236,-0.007756332866847515,-0.006672879680991173
1772566924630251500,5.33325146484375,0.08583683520555496,-0.008188880980014801,-0.020331595093011856
1772566924640280800,5.34328076171875,0.0892331600189209,-0.010876542888581753,-0.024466153234243393
1772566924650310000,5.353309814453125,0.09298662096261978,-0.02280430868268013,-0.015186101198196411
1772566924660338700,5.363338623046875,0.08689331263303757,-0.029706155881285667,0.0029598791152238846
1772566924670367700,5.37336767578125,0.08273342996835709,-0.03875552862882614,0.015684574842453003
1772566924680396800,5.383396728515625,0.07067117094993591,-0.038245800882577896,0.0198148712515831
1772566924690425600,5.393425537109375,0.05808466672897339,-0.03256545960903168,0.01073056273162365
1772566924700454700,5.40345458984375,0.04317868500947952,-0.01675746776163578,0.0018917983397841454
1772566924710483700,5.413483642578125,0.02756516821682453,-0.005731601268053055,-0.01358683779835701
1772566924720512500,5.423512451171875,0.010569674894213676,0.007211894728243351,-0.02061918005347252
1772566924730541800,5.433541748046875,-0.001455381978303194,0.014343244954943657,-0.026060093194246292
1772566924740571000,5.44357080078125,-0.011145027354359627,0.015214897692203522,-0.014701711013913155
1772566924750599700,5.453599609375,-0.0254660714417696,0.013490778394043446,0.002069772221148014
1772566924760628700,5.463628662109375,-0.02619471214711666,0.009955433197319508,0.007894105277955532
1772566924770657800,5.47365771484375,-0.029343530535697937,0.0133326081559062,0.008444811217486858
1772566924780686600,5.4836865234375,-0.03298567235469818,0.011001809500157833,0.00715983659029007
1772566924790715600,5.493715576171875,-0.03164740279316902,0.01870664581656456,0.012945401482284069
1772566924800744700,5.50374462890625,-0.03506423905491829,0.01612071692943573,0.02723752334713936
1772566924810773500,5.5137734375,-0.033037565648555756,0.006452883593738079,0.039908118546009064
1772566924820802800,5.523802734375,-0.03127321973443031,0.0021763797849416733,0.04766777157783508
1772566924830831900,5.533831787109375,-0.034446630626916885,0.0053148893639445305,0.059001460671424866
1772566924840860700,5.543860595703125,-0.03970744088292122,0.0061149029061198235,0.055625900626182556
1772566924850889700,5.5538896484375,-0.03773654252290726,0.007671939209103584,0.03292093425989151
1772566924860918800,5.563918701171875,-0.04202849417924881,0.015242772176861763,0.007073357701301575
1772566924870947600,5.573947509765625,-0.050191570073366165,0.01860075816512108,-0.0180429108440876
1772566924880976600,5.5839765625,-0.05268801748752594,0.015870749950408936,-0.031046593561768532
1772566924891005700,5.594005615234375,-0.05306336283683777,0.017804086208343506,-0.0294177308678627
1772566924901034800,5.60403466796875,-0.057380616664886475,0.01358563732355833,-0.011383337900042534
1772566924911063600,5.6140634765625,-0.059189848601818085,0.015846488997340202,0.0031431447714567184
1772566924921092900,5.6240927734375,-0.05988280475139618,0.014681356027722359,0.003791891038417816
1772566924931122000,5.634121826171875,-0.05767912417650223,0.014408478513360023,0.002727915532886982
1772566924941150700,5.644150634765625,-0.05955638363957405,0.00860598310828209,-0.0023739016614854336
1772566924951179800,5.6541796875,-0.057882681488990784,-0.0008615925908088684,-0.001261651050299406
1772566924961208800,5.664208740234375,-0.047845497727394104,-0.013951028697192669,0.008425863459706306
1772566924971237600,5.674237548828125,-0.03443396836519241,-0.025187868624925613,0.02320428565144539
1772566924981266700,5.6842666015625,-0.019089631736278534,-0.029761582612991333,0.03475947305560112
1772566924991295700,5.694295654296875,-0.0011317762546241283,-0.02759549394249916,0.031156819313764572
1772566925001324500,5.704324462890625,0.019995614886283875,-0.022080354392528534,0.0171176977455616
1772566925011353900,5.714353759765625,0.03886209428310394,-0.0012733535841107368,-0.0026892581954598427
1772566925021383700,5.7243837890625,0.054764095693826675,0.010824855417013168,-0.01954653486609459
1772566925031411700,5.73441162109375,0.06313859671354294,0.02151082456111908,-0.035888515412807465
1772566925041440800,5.744440673828125,0.06314019858837128,0.02704354003071785,-0.04950978234410286
1772566925051470800,5.754470947265625,0.05351974070072174,0.021135319024324417,-0.04955940693616867
1772566925061498600,5.76449853515625,0.048128172755241394,0.010639001615345478,-0.043387267738580704
1772566925071528700,5.77452880859375,0.037081971764564514,-0.0006281854584813118,-0.03276639059185982
1772566925081557800,5.784557861328125,0.01931496150791645,-0.008056274615228176,-0.020529698580503464
1772566925091586800,5.7945869140625,0.006681171245872974,-0.01460014283657074,-0.008773592300713062
1772566925101615600,5.80461572265625,-0.009103651158511639,-0.019799165427684784,-0.0019340617582201958
1772566925111644700,5.814644775390625,-0.02742825821042061,-0.025237515568733215,0.002414081245660782
1772566925121673700,5.824673828125,-0.040160562843084335,-0.027474304661154747,0.00021564122289419174
1772566925131702800,5.834702880859375,-0.05527501553297043,-0.028660865500569344,-0.0006258012726902962
1772566925141731800,5.84473193359375,-0.06561926752328873,-0.025119926780462265,0.0016394834965467453
1772566925151761000,5.854760986328125,-0.07087597995996475,-0.017556682229042053,0.015947163105010986
1772566925161789700,5.864789794921875,-0.0784236416220665,-0.009757615625858307,0.018304860219359398
1772566925171818800,5.87481884765625,-0.07780621200799942,-0.002015550620853901,0.016255594789981842
1772566925181847800,5.884847900390625,-0.07558779418468475,0.005949964746832848,0.006574471481144428
1772566925191876600,5.894876708984375,-0.07024192810058594,0.015795517712831497,-0.003276369534432888
1772566925201905700,5.90490576171875,-0.06249132752418518,0.024611912667751312,-0.011185691691935062
1772566925211934700,5.914934814453125,-0.04090113192796707,0.03407159075140953,-0.008741820231080055
1772566925221963500,5.924963623046875,-0.021359920501708984,0.04075000062584877,-0.0014141323044896126
1772566925231992800,5.934992919921875,-0.003656208049505949,0.04102889075875282,0.003642483614385128
1772566925242022000,5.94502197265625,0.012344330549240112,0.03492971882224083,-0.0025855847634375095
1772566925252050700,5.95505078125,0.02607329934835434,0.02762574702501297,-0.018232759088277817
1772566925262079700,5.965079833984375,0.03767216205596924,0.015195442363619804,-0.025094661861658096
1772566925272108800,5.97510888671875,0.04028064385056496,0.0024513546377420425,-0.022872595116496086
1772566925282137600,5.9851376953125,0.040272921323776245,-0.0013263393193483353,-0.010334432125091553
1772566925292166700,5.995166748046875,0.039263252168893814,0.00000859145075082779,0.0028584133833646774
1772566925302195700,6.00519580078125,0.03191106393933296,0.004637164995074272,0.00690641812980175
1772566925312224500,6.015224609375,0.020109936594963074,0.012328695505857468,-0.000747346319258213
1772566925322253800,6.02525390625,0.006004771217703819,0.01685580238699913,-0.017088236287236214
1772566925332283000,6.035282958984375,-0.0023956806398928165,0.023448705673217773,-0.03080991841852665
1772566925342311700,6.045311767578125,-0.0028990181162953377,0.027198702096939087,-0.032234709709882736
1772566925352340700,6.0553408203125,0.0006643328815698624,0.031386956572532654,-0.022928521037101746
1772566925362369800,6.065369873046875,0.007495607249438763,0.026704587042331696,-0.014887372963130474
1772566925372398600,6.075398681640625,0.017152411863207817,0.01761675253510475,-0.009893488138914108
1772566925382427600,6.085427734375,0.026051366701722145,-0.0009012734517455101,-0.008471360430121422
1772566925392456700,6.095456787109375,0.03560251742601395,-0.01951860822737217,-0.010481590405106544
1772566925402485500,6.105485595703125,0.046599775552749634,-0.03912639617919922,0.0019862642511725426
1772566925412514600,6.1155146484375,0.05207341909408569,-0.051264286041259766,0.01918558031320572
1772566925422544000,6.1255439453125,0.05625991150736809,-0.057634301483631134,0.029980704188346863
1772566925432572700,6.13557275390625,0.05668368563055992,-0.05776975303888321,0.027872730046510696
1772566925442601700,6.145601806640625,0.051103029400110245,-0.04942314326763153,0.01736576110124588
1772566925452630800,6.155630859375,0.042034756392240524,-0.02960042841732502,0.005756198428571224
1772566925462659800,6.165659912109375,0.021626155823469162,-0.011737542226910591,-0.018215980380773544
1772566925472688600,6.175688720703125,0.010852787643671036,0.011138408444821835,-0.03350206837058067
1772566925482717700,6.1857177734375,-0.002408688422292471,0.019112445414066315,-0.03946355730295181
1772566925492746800,6.195746826171875,-0.011074102483689785,0.02696535736322403,-0.037143561989068985
1772566925502775600,6.205775634765625,-0.022849002853035927,0.03064744547009468,-0.03893746808171272
1772566925512804900,6.215804931640625,-0.03189899027347565,0.038149114698171616,-0.028870414942502975
1772566925522834000,6.225833984375,-0.036759257316589355,0.023868180811405182,-0.027306606993079185
1772566925532859600,6.235859619140625,-0.03461047634482384,0.014581120572984219,-0.012497564777731895
1772566925542888400,6.245888427734375,-0.03595830127596855,0.00520706083625555,0.0020715249702334404
1772566925552917500,6.25591748046875,-0.03417244553565979,-0.006184196099638939,0.009214196354150772
1772566925562946600,6.265946533203125,-0.027514275163412094,-0.004884839989244938,0.0028196806088089943
1772566925572975400,6.275975341796875,-0.024896515533328056,-0.009347197599709034,-0.0005775610916316509
1772566925583004400,6.28600439453125,-0.02149778977036476,-0.002921522594988346,0.003823312930762768
1772566925593033500,6.296033447265625,-0.01878199353814125,0.0013472288846969604,0.009596631862223148
1772566925603062300,6.306062255859375,-0.021792694926261902,0.011414777487516403,0.009583315812051296
1772566925613091600,6.316091552734375,-0.02816762402653694,0.028135869652032852,0.007993403822183609
1772566925623120600,6.32612060546875,-0.030369259417057037,0.03473571315407753,-0.008645494468510151
1772566925633149400,6.3361494140625,-0.03833433613181114,0.038164231926202774,-0.02360808104276657
1772566925643178500,6.346178466796875,-0.046477217227220535,0.039620447903871536,-0.01932491920888424
1772566925653207600,6.35620751953125,-0.054056938737630844,0.0372447706758976,-0.007581029087305069
1772566925663236400,6.366236328125,-0.04700035974383354,0.033083315938711166,-0.0011955676600337029
1772566925673265400,6.376265380859375,-0.0491989329457283,0.01917208731174469,0.001908690668642521
1772566925683294500,6.38629443359375,-0.04541165381669998,0.008922379463911057,0.005382518284022808
1772566925693323300,6.3963232421875,-0.03952866047620773,-0.0008342890068888664,0.01468973234295845
1772566925703352600,6.4063525390625,-0.027652557939291,-0.017814338207244873,0.02382650412619114
1772566925713381600,6.416381591796875,-0.009564857929944992,-0.02419217675924301,0.02123129367828369
1772566925723410400,6.426410400390625,-0.01177874393761158,-0.030965127050876617,0.020537540316581726
1772566925733439500,6.436439453125,-0.014808643609285355,-0.02923322468996048,0.01999836415052414
1772566925743468500,6.446468505859375,-0.01526644080877304,-0.005406987387686968,0.018637754023075104
1772566925753497300,6.456497314453125,-0.01758505031466484,0.0021275142207741737,0.009935951791703701
1772566925763526400,6.4665263671875,-0.020564861595630646,0.013666192069649696,-0.0061974781565368176
1772566925773555500,6.476555419921875,-0.02762918546795845,0.020750518888235092,-0.023226682096719742
1772566925783584300,6.486584228515625,-0.027480579912662506,0.025112509727478027,-0.029518399387598038
1772566925793613300,6.49661328125,-0.03065979853272438,0.03486485034227371,-0.022644590586423874
1772566925803642600,6.506642578125,-0.03827377408742905,0.036271534860134125,-0.01065051183104515
1772566925813671400,6.51667138671875,-0.039552345871925354,0.04111792892217636,-0.01313383411616087
1772566925823700500,6.526700439453125,-0.04415908455848694,0.043486010283231735,-0.008081817999482155
1772566925833729500,6.5367294921875,-0.040900420397520065,0.04702210798859596,-0.010529110208153725
1772566925843758600,6.546758544921875,-0.029301023110747337,0.037343915551900864,-0.018366793170571327
1772566925853787400,6.556787353515625,-0.02154666557908058,0.03308677673339844,-0.020850230008363724
1772566925863816400,6.56681640625,-0.015221924521028996,0.02478650212287903,-0.019091743975877762
1772566925873845500,6.576845458984375,-0.011820223182439804,0.005118798464536667,-0.01455743983387947
1772566925883874300,6.586874267578125,-0.002999567426741123,-0.002740456722676754,-0.002881077118217945
1772566925893903600,6.596903564453125,-0.001079727429896593,-0.0035201506689190865,0.00648876279592514
1772566925903932700,6.6069326171875,0.0011701108887791634,0.0015470460057258606,0.017156055197119713
1772566925913961500,6.61696142578125,0.004943979904055595,0.007483476772904396,0.01388741284608841
1772566925923990500,6.626990478515625,0.005766630172729492,0.01917901448905468,-0.005516910459846258
1772566925934019600,6.63701953125,0.004872188903391361,0.02624477446079254,-0.024602394551038742
1772566925944048400,6.64704833984375,-0.0037101134657859802,0.030436325818300247,-0.03777758404612541
1772566925954077400,6.657077392578125,-0.00495772622525692,0.018190767616033554,-0.04349569231271744
1772566925964106500,6.6671064453125,-0.002529722638428211,0.011374938301742077,-0.03308646380901337
1772566925974135300,6.67713525390625,-0.0039461515843868256,-0.002789873629808426,-0.007772358134388924
1772566925984164400,6.687164306640625,0.004625498317182064,-0.01827855221927166,0.01021463144570589
1772566925994193700,6.697193603515625,0.009884018450975418,-0.03417670354247093,0.02138652093708515
1772566926004222500,6.707222412109375,0.00863073393702507,-0.04314383491873741,0.01981925033032894
1772566926014251500,6.71725146484375,0.00617769081145525,-0.051299065351486206,0.0014788946136832237
1772566926024280600,6.727280517578125,0.007480243220925331,-0.05679503083229065,-0.008546574972569942
1772566926034309400,6.737309326171875,0.013556409627199173,-0.051777392625808716,-0.0038101072423160076
1772566926044338400,6.74733837890625,0.021081170067191124,-0.0495014525949955,0.013311089016497135
1772566926054367500,6.757367431640625,0.024983888491988182,-0.04422442615032196,0.01697145402431488
1772566926064396300,6.767396240234375,0.032585613429546356,-0.04390484839677811,0.008226432837545872
1772566926074425300,6.77742529296875,0.033736396580934525,-0.03438293933868408,0.006953023374080658
1772566926084454700,6.78745458984375,0.03052062913775444,-0.0281149223446846,-0.002428760752081871
1772566926094483500,6.7974833984375,0.03364294022321701,-0.032777633517980576,-0.011165374889969826
1772566926104512500,6.807512451171875,0.036254171282052994,-0.030492376536130905,-0.007862256839871407
1772566926114541600,6.81754150390625,0.04055331274867058,-0.03289572522044182,-0.004548901226371527
1772566926124570400,6.8275703125,0.055143970996141434,-0.029038935899734497,0.00675674993544817
1772566926134599400,6.837599365234375,0.06393857300281525,-0.030070926994085312,0.013525170274078846
1772566926144628500,6.84762841796875,0.06188422068953514,-0.022561080753803253,0.023122668266296387
1772566926154657300,6.8576572265625,0.05546732246875763,-0.015654943883419037,0.023417938500642776
1772566926164686300,6.867686279296875,0.048996370285749435,-0.00951129850000143,0.017327822744846344
1772566926174715400,6.87771533203125,0.04878145456314087,-0.003949286416172981,-0.0017904792912304401
1772566926184744400,6.887744384765625,0.04481733962893486,-0.005695255007594824,-0.020635006949305534
1772566926194773500,6.8977734375,0.0433635413646698,-0.006167484447360039,-0.02882886864244938
1772566926204802600,6.907802490234375,0.040308628231287,-0.011716180481016636,-0.026386750862002373
1772566926214831400,6.917831298828125,0.04088921099901199,-0.00966743566095829,-0.01243224274367094
1772566926224860400,6.9278603515625,0.03297429531812668,-0.01399906724691391,0.006061280146241188
1772566926234889500,6.937889404296875,0.02393423393368721,-0.016860201954841614,0.00800542626529932
1772566926244918500,6.94791845703125,0.010486071929335594,-0.02496793121099472,0.004023467190563679
1772566926254947300,6.957947265625,0.0025296546518802643,-0.028986362740397453,-0.005976695101708174
1772566926264976400,6.967976318359375,-0.006741873919963837,-0.029105937108397484,-0.006320509128272533
1772566926275005700,6.978005615234375,-0.008081827312707901,-0.02073359303176403,-0.0043713487684726715
1772566926285034500,6.988034423828125,-0.011717841029167175,-0.014301792718470097,0.007619000971317291
1772566926295063600,6.9980634765625,-0.011892258189618587,-0.0017192065715789795,0.013552144169807434
1772566926305092600,7.008092529296875,-0.011824080720543861,0.014180398546159267,0.006727526895701885
1772566926315121400,7.018121337890625,-0.016614360734820366,0.025086436420679092,-0.01473659835755825
1772566926325150500,7.028150390625,-0.01681702770292759,0.030219677835702896,-0.02881060540676117
1772566926335179500,7.038179443359375,-0.012766307219862938,0.024018380790948868,-0.035065993666648865
1772566926345208300,7.048208251953125,0.0007138149812817574,0.018116548657417297,-0.022348865866661072
1772566926355237400,7.0582373046875,0.013615265488624573,0.009415925480425358,0.003262183628976345
1772566926365266700,7.0682666015625,0.023664435371756554,-0.003919852897524834,0.018626224249601364
1772566926375295500,7.07829541015625,0.03112516552209854,-0.011979361064732075,0.027744587510824203
1772566926385324500,7.088324462890625,0.03489913046360016,-0.01853792741894722,0.016006972640752792
1772566926395353600,7.098353515625,0.036328233778476715,-0.016907669603824615,0.007419987581670284
1772566926405382400,7.10838232421875,0.03192629665136337,-0.009138430468738079,-0.0011729677207767963
1772566926415411500,7.118411376953125,0.02864382043480873,-0.0005300892516970634,-0.0009994064457714558
1772566926425440500,7.1284404296875,0.030181266367435455,0.011182492598891258,0.0005510859191417694
1772566926435469300,7.13846923828125,0.02891271747648716,0.014825897291302681,0.0012623406946659088
1772566926445498400,7.148498291015625,0.02735636569559574,0.021214287728071213,0.0013089459389448166
1772566926455527400,7.15852734375,0.019204461947083473,0.022668298333883286,0.0014697620645165443
1772566926465556500,7.168556396484375,0.011979039758443832,0.022133801132440567,-0.0022232430055737495
1772566926475585500,7.17858544921875,0.00736652035266161,0.02890055812895298,0.000014844350516796112
1772566926485614600,7.188614501953125,-0.004183609038591385,0.023640284314751625,-0.003162040375173092
1772566926495643400,7.198643310546875,-0.004492142237722874,0.01927238516509533,-0.00868772342801094
1772566926505672400,7.20867236328125,-0.0032306029461324215,0.006960593163967133,-0.01241295412182808
1772566926515701500,7.218701416015625,0.0009964089840650558,-0.0013088900595903397,-0.005192287731915712
1772566926525730300,7.228730224609375,0.003674750216305256,-0.012908287346363068,0.0020736148580908775
1772566926535759400,7.23875927734375,0.0041776057332754135,-0.023562122136354446,0.007883414626121521
1772566926545788400,7.248788330078125,-0.0002530952915549278,-0.025368809700012207,0.01335221529006958
1772566926555817500,7.2588173828125,-0.0003115544095635414,-0.027366384863853455,0.005546036176383495
1772566926565846500,7.268846435546875,0.0005241455510258675,-0.021876811981201172,-0.0005787019617855549
1772566926575875300,7.278875244140625,0.0017235483974218369,-0.01676732674241066,-0.004599881358444691
1772566926585904400,7.288904296875,0.0037683239206671715,-0.014191516675055027,-0.010990669019520283
1772566926595933400,7.298933349609375,0.007699105888605118,-0.016236718744039536,-0.011464745737612247
1772566926605962200,7.308962158203125,0.011521276086568832,-0.015977058559656143,-0.009956863708794117
1772566926615991300,7.3189912109375,0.00663410872220993,-0.01837523654103279,-0.005291804671287537
1772566926626020400,7.329020263671875,0.004005036316812038,-0.02679162472486496,-0.0010027838870882988
1772566926636049200,7.339049072265625,0.00821665395051241,-0.025614479556679726,0.007621476426720619
1772566926646078500,7.349078369140625,0.007359117269515991,-0.020839165896177292,0.014741172082722187
1772566926656107500,7.359107421875,0.008191663771867752,-0.019860824570059776,0.01974502019584179
1772566926666136300,7.36913623046875,0.0036669522523880005,-0.008975153788924217,0.019537827000021935
1772566926676165400,7.379165283203125,0.003579930402338505,-0.0039061186835169792,0.010653153993189335
1772566926686194400,7.3891943359375,0.00019425339996814728,0.0004497477784752846,-0.007838504388928413
1772566926696223200,7.39922314453125,-0.009299477562308311,0.0041071707382798195,-0.014721304178237915
1772566926706252300,7.409252197265625,-0.006887186784297228,-0.00027186423540115356,-0.012873336672782898
1772566926716281300,7.41928125,-0.0034169815480709076,-0.006162500940263271,-0.0037922640331089497
1772566926726310100,7.42931005859375,-0.006766439415514469,-0.015472379513084888,0.004567931406199932
1772566926736339500,7.43933935546875,-0.008144145831465721,-0.023537367582321167,0.010396945290267467
1772566926746368500,7.449368408203125,-0.011326889507472515,-0.028580330312252045,0.010526108555495739
1772566926756397300,7.459397216796875,-0.013553569093346596,-0.029433317482471466,0.008531590923666954
1772566926766426400,7.46942626953125,-0.016011133790016174,-0.02566760592162609,0.0012614279985427856
1772566926776455400,7.479455322265625,-0.015596140176057816,-0.0318140909075737,-0.0108386455103755
1772566926786484200,7.489484130859375,-0.011413379572331905,-0.028883816674351692,-0.01541715208441019
1772566926796513300,7.49951318359375,-0.007774509023874998,-0.030727878212928772,-0.012492201291024685
1772566926806542300,7.509542236328125,-0.0037624570541083813,-0.02885967120528221,0.004531256854534149
1772566926816571100,7.519571044921875,-0.004658876918256283,-0.025021523237228394,0.018952274695038795
1772566926826600200,7.52960009765625,0.00039340555667877197,-0.020280297845602036,0.024420544505119324
1772566926836629500,7.53962939453125,0.005137422122061253,-0.017331570386886597,0.016788804903626442
1772566926846658300,7.549658203125,0.0055227819830179214,-0.014356818981468678,-0.006183889228850603
1772566926856687400,7.559687255859375,0.005256252363324165,0.0014728764072060585,-0.00654996233060956
1772566926866716400,7.56971630859375,0.004120946861803532,-0.003188454546034336,-0.017810605466365814
1772566926876745200,7.5797451171875,0.010399381630122662,-0.0017629433423280716,-0.015248153358697891
1772566926886774300,7.589774169921875,0.006416624411940575,-0.0030292756855487823,-0.004102556966245174
1772566926896803300,7.59980322265625,0.004405489191412926,-0.00032663997262716293,0.005667055957019329
1772566926906832400,7.609832275390625,0.0033266423270106316,-0.00265317689627409,0.0010573901236057281
1772566926916861200,7.619861083984375,0.001503816805779934,-0.001392844133079052,-0.002073490060865879
1772566926926890500,7.629890380859375,-0.002041383646428585,0.006523135118186474,-0.0034854980185627937
1772566926936919600,7.63991943359375,-0.005239701829850674,0.014743441715836525,-0.010889168828725815
1772566926946948400,7.6499482421875,-0.006436526775360107,0.019128071144223213,-0.009559985250234604
1772566926956977400,7.659977294921875,-0.008994963020086288,0.02474532090127468,-0.007007688283920288
1772566926967006500,7.67000634765625,-0.009288176894187927,0.026407400146126747,-0.004792470950633287
1772566926977035300,7.68003515625,-0.00795480515807867,0.014774891547858715,-0.003079258371144533
1772566926987064300,7.690064208984375,-0.006277013570070267,0.015846814960241318,-0.004125348292291164
1772566926997093400,7.70009326171875,-0.004037509206682444,0.010170957073569298,-0.007828094065189362
1772566927007122200,7.7101220703125,-0.00102254468947649,0.006050780415534973,-0.0029672919772565365
1772566927017151200,7.720151123046875,0.003975038416683674,0.008368786424398422,0.009378629736602306
1772566927027180500,7.7301806640625,0.006171613000333309,0.005381518974900246,0.013527835719287395
1772566927037209300,7.740209228515625,0.0034078164026141167,0.0009640557691454887,0.00690025370568037
1772566927047238400,7.75023828125,0.003084508702158928,0.0005659135058522224,-0.002720682416111231
1772566927057267500,7.760267333984375,0.001149231567978859,0.008767280727624893,-0.008418478071689606
1772566927067296300,7.770296142578125,-0.0037706922739744186,0.014807863160967827,-0.006560657173395157
1772566927077325300,7.7803251953125,-0.0034556607715785503,0.014041722752153873,-0.010977927595376968
1772566927087354400,7.790354248046875,-0.0015754690393805504,0.019674841314554214,-0.008238866925239563
1772566927097383200,7.800383056640625,0.00181574746966362,0.02285744994878769,-0.004732927307486534
1772566927107412200,7.810412109375,-0.002246905118227005,0.01846775971353054,-0.007287431508302689
1772566927117441500,7.820441650390625,0.0046229856088757515,0.008066784590482712,-0.01292028371244669
1772566927127470300,7.83047021484375,0.006706376560032368,0.006830545142292976,-0.007265860214829445
1772566927137499400,7.84049951171875,0.0013293791562318802,0.005048277787864208,0.008945871144533157
1772566927147528400,7.850528564453125,0.001948830671608448,0.00010172184556722641,0.013931576162576675
1772566927157557200,7.86055712890625,-0.0005957926623523235,-0.00005878228694200516,0.004906916059553623
1772566927167586300,7.87058642578125,-0.0040341997519135475,-0.0009746439754962921,-0.0013853348791599274
1772566927177615400,7.880615478515625,-0.008152860216796398,0.002222944051027298,-0.0070464941672980785
1772566927187644200,7.89064404296875,-0.007446323987096548,0.0025939224287867546,-0.002930312417447567
1772566927197673200,7.900673095703125,-0.005124591290950775,-0.0009800149127840996,0.002204718068242073
1772566927207702300,7.910702392578125,-0.0036649126559495926,-0.0012788213789463043,0.009334000758826733
1772566927217731300,7.9207314453125,0.0022109653800725937,-0.004107973538339138,0.01604650169610977
1772566927227760400,7.930760498046875,-0.00024553481489419937,-0.007920023053884506,0.01791178062558174
1772566927237789400,7.94078955078125,-0.004271303303539753,-0.005962814204394817,0.009720501489937305
1772566927247818200,7.950818359375,-0.010369941592216492,0.001960090361535549,0.0011065071448683739
1772566927257847300,7.960847412109375,-0.016114860773086548,0.009161420166492462,-0.007644259370863438
1772566927267876400,7.97087646484375,-0.021053694188594818,0.021458299830555916,-0.016921913251280785
1772566927277905200,7.9809052734375,-0.022521283477544785,0.02329340949654579,-0.023561477661132812
1772566927287934200,7.990934326171875,-0.015282012522220612,0.027042604982852936,-0.02421235293149948
1772566927297963300,8.00096337890625,-0.012187644839286804,0.024811573326587677,-0.018267609179019928
1772566927307992600,8.01099267578125,-0.007617116440087557,0.01723405346274376,-0.013742821291089058
1772566927318021400,8.021021484375,-0.005489517003297806,0.002090255729854107,-0.005582363344728947
1772566927328050400,8.031050537109374,-0.004148286301642656,-0.011616481468081474,0.00412118062376976
1772566927338079500,8.04107958984375,-0.0031021968461573124,-0.02325822412967682,0.018582943826913834
1772566927348108300,8.0511083984375,-0.0002542119473218918,-0.033296115696430206,0.02174052596092224
1772566927358137300,8.061137451171875,-0.007005324587225914,-0.030581291764974594,0.02084384113550186
1772566927368166400,8.07116650390625,-0.0170315932482481,-0.02009189873933792,0.0123744560405612
1772566927378195200,8.0811953125,-0.027526844292879105,-0.0052844565361738205,0.006890740245580673
1772566927388224300,8.091224365234375,-0.03443077951669693,0.012682841159403324,-0.0017456146888434887
1772566927398253600,8.101253662109375,-0.03707236796617508,0.02850707620382309,-0.012072021141648293
1772566927408282400,8.111282470703125,-0.03636885806918144,0.04113936424255371,-0.023211615160107613
1772566927418311400,8.1213115234375,-0.03551238775253296,0.04702761024236679,-0.02807987481355667
1772566927428340500,8.131340576171874,-0.033231474459171295,0.04695111885666847,-0.02849673107266426
1772566927438369300,8.141369384765625,-0.026174362748861313,0.03816055506467819,-0.028954794630408287
1772566927448398300,8.1513984375,-0.020431242883205414,0.024870704859495163,-0.015652114525437355
1772566927458427400,8.161427490234376,-0.009730926714837551,0.009474171325564384,0.005616688169538975
1772566927468456200,8.171456298828126,-0.002076963894069195,-0.005046166013926268,0.026202045381069183
1772566927478485200,8.1814853515625,0.0006011109799146652,-0.01602318324148655,0.032527051866054535
1772566927488514300,8.191514404296875,0.010653562843799591,-0.02272496558725834,0.029814429581165314
1772566927498543400,8.20154345703125,0.014722341671586037,-0.01785271242260933,0.01842356100678444
1772566927508572400,8.211572509765626,0.017279956489801407,-0.011477434076368809,0.002120411954820156
1772566927518601500,8.2216015625,0.015700701624155045,-0.0021435869857668877,-0.013417001813650131
1772566927528630300,8.23163037109375,0.009234416298568249,-0.00001897849142551422,-0.020563937723636627
1772566927538659000,8.2416591796875,0.006015719845890999,0.00026784371584653854,-0.010799725539982319
1772566927548688100,8.251688232421875,0.004101951606571674,-0.0025713033974170685,0.0075045619159936905
1772566927558717000,8.261717041015626,0.005201037973165512,-0.0030994080007076263,0.021857403218746185
1772566927568746000,8.27174609375,0.003393571823835373,-0.008409800007939339,0.01973501406610012
1772566927578775000,8.281775146484375,0.005531024187803268,-0.006517091300338507,0.007641599513590336
1772566927588804000,8.29180419921875,-0.0016170460730791092,-0.004232277162373066,-0.007512583397328854
1772566927598833200,8.301833251953125,-0.0019904212094843388,0.0022578462958335876,-0.01877748966217041
1772566927608862200,8.3118623046875,-0.0047593265771865845,0.007318852469325066,-0.023770418018102646
1772566927618892300,8.321892333984374,-0.0011994792148470879,0.008193699643015862,-0.022507015615701675
1772566927628920000,8.331920166015625,0.002243492752313614,0.006887165829539299,-0.01720607280731201
1772566927638950100,8.3419501953125,0.007715756073594093,0.006198739632964134,-0.0065837884321808815
1772566927648979200,8.351979248046876,0.005547593347728252,0.010239762254059315,0.00431699026376009
1772566927659008000,8.362008056640626,0.005844801664352417,0.011522606946527958,0.008851554244756699
1772566927669037000,8.372037109375,0.0034231748431921005,0.009023154154419899,0.004120939411222935
1772566927679066000,8.382066162109375,0.0003533484414219856,0.0120378527790308,0.002570447511970997
1772566927689095000,8.392094970703125,0.0002035750076174736,0.0036262385547161102,-0.005554020404815674
1772566927699124200,8.402124267578126,0.0055344244465231895,-0.004157382063567638,-0.00998205877840519
1772566927709153300,8.4121533203125,0.007600719109177589,-0.004133552312850952,-0.01568533107638359
1772566927719182000,8.42218212890625,0.004948742687702179,-0.004313581623136997,-0.005030290223658085
1772566927729211100,8.432211181640625,0.001679999753832817,-0.003820415586233139,-0.004508691374212503
1772566927739240200,8.442240234375,-0.0000036507844924926758,0.005909442901611328,-0.011117592453956604
1772566927749269000,8.45226904296875,-0.007354270666837692,0.01083945482969284,-0.015679694712162018
1772566927759298000,8.462298095703124,-0.005647184327244759,0.011995533481240273,-0.015467440709471703
1772566927769327000,8.4723271484375,-0.010704189538955688,0.01298109907656908,-0.0104847876355052
1772566927779356000,8.48235595703125,-0.005542983300983906,0.014765418134629726,-0.006916950922459364
1772566927789385000,8.492385009765625,-0.004507291130721569,0.0159778855741024,-0.00679839076474309
1772566927799414300,8.502414306640626,-0.008591515012085438,0.010479522868990898,-0.009299631230533123
1772566927809443000,8.512443115234374,-0.01365758292376995,0.0066266730427742004,-0.011761393398046494
1772566927819472100,8.52247216796875,-0.011049550026655197,0.004712926223874092,-0.0049596792086958885
1772566927829501200,8.532501220703125,-0.007967375218868256,0.000024304725229740143,0.004018486477434635
1772566927839530000,8.542530029296875,-0.005758815445005894,-0.003298521973192692,0.0070342496037483215
1772566927849559000,8.55255908203125,-0.007267506327480078,-0.004679610952734947,0.010349277406930923
1772566927859588000,8.562588134765624,-0.0043923575431108475,-0.004068415611982346,0.008234461769461632
1772566927869617000,8.572616943359375,-0.007569300476461649,-0.003956004045903683,0.005227142013609409
1772566927879646000,8.58264599609375,-0.011495864950120449,0.002728796564042568,0.006560053676366806
1772566927889675300,8.59267529296875,-0.015822691842913628,0.00722179189324379,0.0059025948867201805
1772566927899704000,8.6027041015625,-0.01451108418405056,0.008947253227233887,0.010364187881350517
1772566927909733000,8.612733154296874,-0.013181101530790329,0.012625878676772118,0.0016061170026659966
1772566927919762200,8.62276220703125,-0.00977310910820961,0.017938122153282166,-0.009059294126927853
1772566927929791000,8.632791015625,-0.007326462771743536,0.006764565594494343,-0.02098705992102623
1772566927939820000,8.642820068359375,0.0016204388812184334,0.006153430789709091,-0.015524439513683319
1772566927949849000,8.65284912109375,0.006258334033191204,-0.005745573900640011,-0.0042326366528868675
1772566927959878100,8.662878173828124,0.008764530532062054,-0.013657839968800545,0.01179084274917841
1772566927969907000,8.672906982421875,0.012085226364433765,-0.02482154592871666,0.021110575646162033
1772566927979936000,8.68293603515625,0.01022685132920742,-0.027313414961099625,0.02612515538930893
1772566927989965300,8.69296533203125,0.010087832808494568,-0.018225643783807755,0.024699300527572632
1772566927999994000,8.702994140625,0.003904099576175213,-0.009507289156317711,0.013931719586253166
1772566928010023200,8.713023193359374,0.0037648165598511696,0.0017661387100815773,-0.004574053920805454
1772566928020053200,8.72305322265625,0.004500739276409149,0.00004738103598356247,-0.01429763063788414
1772566928030081000,8.7330810546875,0.005972668528556824,0.0027137380093336105,-0.02013794332742691
1772566928040110000,8.743110107421876,0.0036632660776376724,-0.0065304734744131565,-0.008835986256599426
1772566928050139100,8.75313916015625,0.006604993715882301,-0.012476779520511627,0.0029184073209762573
1772566928060168000,8.76316796875,0.009176943451166153,-0.019042592495679855,0.01301171351224184
1772566928070198000,8.773197998046875,0.010512251406908035,-0.015682216733694077,0.013899345882236958
1772566928080227000,8.78322705078125,0.0064690206199884415,-0.01480012945830822,0.00943706650286913
1772566928090256000,8.793255859375,0.0024508433416485786,-0.01221233606338501,-0.0015966761857271194
1772566928100285000,8.803284912109374,0.0004643294960260391,-0.0005731089040637016,-0.0044107637368142605
1772566928110314200,8.813314208984375,-0.0060897096991539,0.009508552961051464,-0.0010360060259699821
1772566928120343300,8.82334326171875,-0.014535464346408844,0.009178396314382553,0.0006917081773281097
1772566928130372000,8.8333720703125,-0.024279169738292694,0.007768517360091209,0.0016826698556542397
1772566928140401200,8.843401123046876,-0.027363881468772888,0.006349613890051842,0.004690284840762615
1772566928150430200,8.85343017578125,-0.019413545727729797,0.002385498024523258,0.002042037434875965
1772566928160459000,8.863458984375,-0.017051516100764275,-0.0010442957282066345,0.0022319210693240166
1772566928170488000,8.873488037109375,-0.014005659148097038,0.0003232378512620926,0.0007932810112833977
1772566928180517000,8.88351708984375,-0.013710263185203075,-0.002219671383500099,-0.0018007876351475716
1772566928190546000,8.8935458984375,-0.012909983284771442,-0.0012904945760965347,0.0008882060647010803
1772566928200575200,8.9035751953125,-0.013776268810033798,-0.0018325448036193848,0.001912764273583889
1772566928210604300,8.913604248046875,-0.01565832458436489,0.007050694897770882,0.00904790498316288
1772566928220633000,8.923633056640625,-0.012833069078624249,0.009320992976427078,0.009464001283049583
1772566928230662100,8.933662109375,-0.005052643828094006,0.01119239628314972,0.004347802139818668
1772566928240691200,8.943691162109374,0.0033142603933811188,0.012055937200784683,0.0006330749019980431
1772566928250720000,8.953719970703125,0.014195935800671577,0.011396272107958794,-0.006842418108135462
1772566928260749000,8.9637490234375,0.017415832728147507,0.0033508194610476494,-0.0075223916210234165
1772566928270778000,8.973778076171875,0.022206060588359833,-0.006524980533868074,-0.0005270661786198616
1772566928280807000,8.983806884765626,0.023370997980237007,-0.008073418401181698,0.01677243784070015
1772566928290836000,8.9938359375,0.02025802806019783,-0.017482100054621696,0.0242985300719738
1772566928300865300,9.003865234375,0.017751920968294144,-0.014102206565439701,0.02863641269505024
1772566928310894000,9.01389404296875,0.01445785816758871,-0.009021161124110222,0.02279982715845108
1772566928320923100,9.023923095703125,0.00686260499060154,-0.0015476327389478683,0.00721416249871254
1772566928330952200,9.0339521484375,0.003628728911280632,0.009260274469852448,-0.013190710917115211
1772566928340981000,9.04398095703125,-0.0008341353386640549,0.014202420599758625,-0.031694695353507996
1772566928351010000,9.054010009765625,-0.006805474869906902,0.016890615224838257,-0.042630165815353394
1772566928361039000,9.0640390625,-0.008852441795170307,0.01817360706627369,-0.03126931190490723
1772566928371068000,9.07406787109375,-0.014396610669791698,0.01931343972682953,-0.008919799700379372
1772566928381097000,9.084096923828126,-0.018149495124816895,0.020921623334288597,0.017219165340065956
1772566928391126300,9.094126220703124,-0.0238497257232666,0.020203901454806328,0.02272418513894081
1772566928401155000,9.104155029296875,-0.01935046911239624,0.023155219852924347,0.017362486571073532
1772566928411184000,9.11418408203125,-0.02132866531610489,0.021403126418590546,0.002909245900809765
1772566928421213200,9.124213134765625,-0.019710425287485123,0.011778850108385086,-0.009680475108325481
1772566928431242000,9.134241943359376,-0.018058467656373978,0.010143669322133064,-0.0198215264827013
1772566928441271000,9.14427099609375,-0.022812742739915848,0.0039651356637477875,-0.014647536911070347
1772566928451300000,9.154300048828125,-0.017747677862644196,-0.0003435937687754631,0.0035088304430246353
1772566928461329000,9.164328857421875,-0.009486286900937557,-0.009385376237332821,0.02215641550719738
1772566928471358000,9.17435791015625,-0.00407394440844655,-0.008921986445784569,0.027045980095863342
1772566928481387300,9.18438720703125,0.0015876814723014832,-0.007814583368599415,0.020608264952898026
1772566928491416000,9.194416015625,0.004777615889906883,0.0002460060641169548,0.002547238953411579
1772566928501445000,9.204445068359375,0.005379357375204563,0.009580070152878761,-0.00996143277734518
1772566928511474200,9.21447412109375,-0.0008684182539582253,0.016873404383659363,-0.015117045491933823
1772566928521503200,9.224503173828126,-0.005712944082915783,0.011528635397553444,-0.011169478297233582
1772566928531532000,9.234531982421874,-0.011673098430037498,0.005614019930362701,-0.0072498382069170475
1772566928541561900,9.244561767578125,-0.017957832664251328,0.00002177618443965912,0.0033374885097146034
1772566928551590700,9.254590576171875,-0.017474200576543808,-0.007078477647155523,0.003952146507799625
1772566928561619700,9.26461962890625,-0.02165514975786209,-0.00949225202202797,0.004388785921037197
1772566928571648800,9.274648681640626,-0.02109508588910103,-0.004507879726588726,-0.0008105039596557617
1772566928581677600,9.284677490234374,-0.020935121923685074,-0.004414721392095089,-0.009154079481959343
1772566928591707000,9.294706787109375,-0.0188131146132946,0.003606719896197319,-0.01888873055577278
1772566928601736000,9.30473583984375,-0.015268130227923393,0.004483046010136604,-0.016823068261146545
1772566928611764700,9.3147646484375,-0.011137833818793297,0.00584658607840538,-0.00777391204610467
1772566928621793800,9.324793701171876,-0.0018700631335377693,0.0029049282893538475,-0.004957583732903004
1772566928631822800,9.33482275390625,0.0032495977357029915,0.001537129282951355,0.008065539412200451
1772566928641851600,9.3448515625,0.0038117356598377228,-0.002103895880281925,0.012251250445842743
1772566928651880700,9.354880615234375,0.006135077215731144,-0.0032248198986053467,0.011701840907335281
1772566928661909800,9.36490966796875,0.008334451355040073,-0.00470843818038702,0.0043121641501784325
1772566928671938600,9.3749384765625,0.008488914929330349,-0.009037140756845474,-0.00430689100176096
1772566928681967600,9.384967529296874,0.005412503145635128,-0.015474343672394753,-0.012618741020560265
1772566928691997000,9.394996826171875,0.006522509269416332,-0.0227450393140316,-0.011180100962519646
1772566928702025700,9.405025634765625,0.0054164063185453415,-0.02057364210486412,-0.004802126903086901
1772566928712054800,9.4150546875,0.001255217008292675,-0.010788388550281525,0.006267834454774857
1772566928722083800,9.425083740234374,-0.006388751789927483,-0.0060651530511677265,0.007371022365987301
1772566928732112600,9.435112548828124,-0.011912946589291096,0.0010747816413640976,0.0024540284648537636
1772566928742141700,9.4451416015625,-0.01661667414009571,0.012647046707570553,-0.003953523933887482
1772566928752171800,9.455171875,-0.017368217930197716,0.010931969620287418,-0.011847399175167084
1772566928762199600,9.465199462890626,-0.015605367720127106,0.0024488503113389015,-0.016187982633709908
1772566928772229600,9.475229736328124,-0.01159890927374363,-0.00540108373388648,-0.017362970858812332
1772566928782258700,9.4852587890625,-0.010995866730809212,-0.014978849329054356,-0.014215146191418171
1772566928792287700,9.495287841796875,-0.003974176477640867,-0.02195313572883606,-0.005713803227990866
1772566928802316500,9.505316650390625,0.00374575424939394,-0.016258137300610542,-0.0028541418723762035
1772566928812345900,9.515345947265626,0.0010964414104819298,-0.010430875234305859,-0.0012943283654749393
1772566928822375000,9.525375,0.0008271867409348488,-0.005897351540625095,-0.01008123904466629
1772566928832403700,9.53540380859375,-0.0017211921513080597,-0.0019484162330627441,-0.02554834634065628
1772566928842432800,9.545432861328125,-0.0034243292175233364,0.003997918218374252,-0.03166553005576134
1772566928852461800,9.5554619140625,-0.00713065080344677,0.0036722123622894287,-0.014913447201251984
1772566928862490600,9.56549072265625,-0.008777638897299767,-0.0029034633189439774,0.008035115897655487
1772566928872519700,9.575519775390624,-0.004347204230725765,-0.009712633676826954,0.01678280159831047
1772566928882548700,9.585548828125,-0.0021354397758841515,-0.017436888068914413,0.015913888812065125
1772566928892577500,9.59557763671875,0.0008688727393746376,-0.0238598994910717,0.006907610222697258
1772566928902606800,9.60560693359375,0.004112511873245239,-0.02129027433693409,-0.001403743401169777
1772566928912636000,9.615635986328124,0.004639019258320332,-0.015256084501743317,-0.007936744019389153
1772566928922664700,9.625664794921875,0.007999938912689686,-0.011606245301663876,-0.011384129524230957
1772566928932693800,9.63569384765625,0.010116086341440678,0.00040221400558948517,-0.008431216701865196
1772566928942722800,9.645722900390625,0.0242710430175066,0.0046249451115727425,-0.0011930875480175018
1772566928952751900,9.655751953125,0.028871120885014534,0.007898236624896526,-0.002453827764838934
1772566928962780700,9.66578076171875,0.031070124357938766,0.0008437195792794228,-0.006601470522582531
1772566928972809700,9.675809814453125,0.03736690431833267,0.0004876554012298584,-0.010241212323307991
1772566928982838800,9.6858388671875,0.038826510310173035,-0.003325561061501503,-0.010697416961193085
1772566928992867600,9.69586767578125,0.04023825377225876,-0.010904384776949883,-0.004815027117729187
1772566929002897000,9.70589697265625,0.04560227319598198,-0.01500600017607212,0.0002557216212153435
1772566929012926000,9.715926025390624,0.04992005601525307,-0.020874276757240295,0.005340760573744774
1772566929022954800,9.725954833984375,0.04626081511378288,-0.02092766761779785,0.011858117766678333
1772566929032983800,9.73598388671875,0.04238298535346985,-0.0208046305924654,0.010262618772685528
1772566929043012900,9.746012939453125,0.03232941776514053,-0.016857851296663284,0.0044350288808345795
1772566929053041700,9.756041748046876,0.0284007228910923,-0.013524905778467655,-0.004270311910659075
1772566929063070700,9.76607080078125,0.019235046580433846,-0.002124662511050701,-0.00757824070751667
1772566929073099800,9.776099853515625,0.020190322771668434,0.005375864915549755,-0.011466722004115582
1772566929083128600,9.786128662109375,0.020449507981538773,0.012957745231688023,-0.007889900356531143
1772566929093158000,9.796157958984375,0.018404999747872353,0.016024909913539886,-0.003656273242086172
1772566929103187000,9.80618701171875,0.011241486296057701,0.019285473972558975,0.0009464556351304054
1772566929113215700,9.8162158203125,0.003704208880662918,0.02612340822815895,0.006780375726521015
1772566929123244800,9.826244873046875,0.0063495878130197525,0.030383259057998657,-0.002262459136545658
1772566929133273900,9.83627392578125,0.011460194364190102,0.03188687935471535,-0.020489666610956192
1772566929143302700,9.846302734375,0.0186882596462965,0.02966798096895218,-0.03511589765548706
1772566929153331700,9.856331787109376,0.02746870182454586,0.023066271096467972,-0.034255433827638626
1772566929163360800,9.86636083984375,0.029440362006425858,0.011284437961876392,-0.017134111374616623
1772566929173389600,9.8763896484375,0.03391340747475624,0.005941337905824184,-0.0023716771975159645
1772566929183418600,9.886418701171875,0.03048940747976303,-0.0020447513088583946,0.00425183679908514
1772566929193448000,9.896447998046876,0.026132479310035706,-0.007175064645707607,0.0012717600911855698
1772566929203476700,9.906476806640624,0.0206459891051054,-0.006657096557319164,0.006506419740617275
1772566929213505800,9.916505859375,0.013579558581113815,-0.0074195596389472485,0.00620574876666069
1772566929223534800,9.926534912109375,0.01187022402882576,-0.00813548918813467,0.00018709804862737656
1772566929233563600,9.936563720703125,0.011163154616951942,-0.009779192507266998,-0.011154506355524063
1772566929243592700,9.9465927734375,0.00934696476906538,-0.002619674429297447,-0.010805690661072731
1772566929253621800,9.956621826171874,0.0017953058704733849,0.0013814587146043777,-0.00255601666867733
1772566929263650600,9.966650634765625,-0.0002903076820075512,0.0005041602998971939,-0.0012810523621737957
1772566929273679600,9.9766796875,-0.00759109714999795,0.003894099034368992,-0.0083626639097929
1772566929283709000,9.986708984375,-0.013336723670363426,0.0002200305461883545,-0.008705263957381248
1772566929293738800,9.99673876953125,-0.016650494188070297,-0.0042737871408462524,-0.01574399694800377
1772566929303767800,10.006767822265624,-0.01608041487634182,-0.006307502742856741,-0.011280915699899197
1772566929313796900,10.016796875,-0.013506470248103142,-0.006217487622052431,-0.00576471071690321
1772566929323826000,10.026825927734375,-0.011734478175640106,-0.009838225319981575,-0.00795982126146555
1772566929333854700,10.036854736328126,-0.00540600810199976,-0.00564108369871974,-0.00970579031854868
1772566929343883800,10.0468837890625,-0.005258458666503429,-0.00576041592285037,-0.010500932112336159
1772566929353912800,10.056912841796875,0.0011243391782045364,0.00032410863786935806,-0.005725085735321045
1772566929363941600,10.066941650390625,-0.0026104971766471863,0.0036363257095217705,-0.01008483488112688
1772566929373970700,10.076970703125,-0.005563676357269287,0.00916771125048399,-0.01257409155368805
