time,seconds_elapsed,z,y,x
1772623553603915500,0.07591552734375,1.1680173589348792,0.7466200388297438,-0.2583491767607629
1772623553613944600,0.085944580078125,1.3269161275148391,0.799707193633914,-0.15734989517014472
1772623553623974700,0.095974609375,1.4975088410198687,0.7609849565297365,0.006751593152061104
1772623553634004500,0.10600439453125,1.6136936725109814,0.699718586923182,0.14522450002525
1772623553644033500,0.116033447265625,1.6147925736635922,0.588925969864428,0.2609451298044063
1772623553654063400,0.1260634765625,1.6686083350032568,0.45813159826248884,0.28390734158838166
1772623553664093400,0.136093505859375,1.6535902140915393,0.37790304629355664,0.12501091109598056
1772623553674122500,0.14612255859375,1.5437953758984804,0.26244652907699345,-0.052416762995626774
1772623553684152300,0.15615234375,1.4435902038276194,0.05832037928253412,-0.05008674914548173
1772623553694182400,0.166182373046875,1.3004139050364494,-0.20196137297600505,-0.10230276540461927
1772623553704211500,0.17621142578125,1.160149109777808,-0.34480917046517134,-0.24134841239815577
1772623553714241500,0.186241455078125,0.9809773684978484,-0.40446722809225316,-0.44405039287470277
1772623553724271600,0.196271728515625,0.7073422136694193,-0.5055673031762242,-0.6533265458434819
1772623553734301400,0.206301513671875,0.4903215109884739,-0.6366261709332466,-0.7698659629259258
1772623553744330500,0.21633056640625,0.3257762609541416,-0.7013923653542995,-0.8158448931600898
1772623553754360300,0.2263603515625,0.16777181086540222,-0.7050035415887832,-0.8562925658173859
1772623553764390400,0.236390380859375,0.008447510349750519,-0.6768991446107625,-0.8831552921712398
1772623553774419500,0.24641943359375,-0.05382920534312725,-0.6553413927972316,-0.8644280876085162
1772623553784449300,0.25644921875,0.00991407577097416,-0.6135080379351974,-0.8056080151755363
1772623553794479400,0.266479248046875,0.15736965931653976,-0.5265399485781789,-0.7831430123239755
1772623553804508400,0.27650830078125,0.28711481412649154,-0.4524135128766298,-0.7779838029298931
1772623553814538500,0.28653857421875,0.41855917406976223,-0.4630731463178992,-0.741501234511286
1772623553824568600,0.296568603515625,0.5644418092101812,-0.5288824200510979,-0.6402331093840301
1772623553834598700,0.3065986328125,0.601656564360857,-0.6499652527168392,-0.503673890645057
1772623553844627500,0.31662744140625,0.5860942535698414,-0.8066305631563067,-0.4345254260191694
1772623553854657500,0.326657470703125,0.48343642764985556,-0.9422720825284719,-0.4681881877766922
1772623553864687400,0.336687255859375,0.3333142552435398,-1.0238333444058894,-0.49332021788042035
1772623553874716400,0.34671630859375,0.11081424436867236,-1.046565108434856,-0.3964208458893001
1772623553884746500,0.35674658203125,-0.19035890572667122,-1.0609481463134287,-0.29084417338054624
1772623553894776300,0.3667763671875,-0.467435725441575,-1.0574793011590837,-0.38440877492576836
1772623553904805400,0.376805419921875,-0.8041355314701795,-0.97082889944911,-0.5506172089319676
1772623553914835500,0.38683544921875,-1.119361756837368,-0.8492892629265785,-0.6348427946478128
1772623553924865500,0.396865478515625,-1.2827391321361064,-0.6953147990062832,-0.6016279227882624
1772623553934894600,0.40689453125,-1.3441723827421665,-0.5498606184110045,-0.4760210368268192
1772623553944924400,0.41692431640625,-1.2310615518689154,-0.4603060196921229,-0.32590810717288404
1772623553954954500,0.42695458984375,-1.0075772061318158,-0.4131239972785115,-0.12712021313384175
1772623553964984300,0.436984375,-0.7620166376650332,-0.3421247536867857,0.015852270180918275
1772623553975013400,0.447013427734375,-0.5436830988198519,-0.24510084200054405,0.13238587857708334
1772623553985043500,0.45704345703125,-0.4170043458431959,-0.14562573776990173,0.17394005117155611
1772623553995073500,0.467073486328125,-0.39978666906058785,-0.07409019534438849,0.22905469321534036
1772623554005102300,0.477102294921875,-0.39267537575066086,-0.13459668649435041,0.4526327816504985
1772623554015132400,0.48713232421875,-0.3941244055151939,-0.27977468049675225,0.6313013226486742
1772623554025162500,0.49716259765625,-0.4042851495236158,-0.4009133350029587,0.7468428878001868
1772623554035191600,0.507191650390625,-0.4814858781039715,-0.5242947999998927,0.7770701952163129
1772623554045221600,0.5172216796875,-0.6292243702441453,-0.5962468142718076,0.7140808012094348
1772623554055251500,0.52725146484375,-0.9103770610958337,-0.48950697973519564,0.551715635160543
1772623554065281300,0.53728125,-1.311479488930106,-0.2652268074452877,0.2792624931909144
1772623554075310600,0.547310546875,-1.6780682372659443,-0.037009003445506096,-0.04210420769266784
1772623554085340400,0.55734033203125,-1.946015994107723,0.1331970488294959,-0.20220362076666204
1772623554095370500,0.56737060546875,-2.043781956332922,0.21776275321990252,-0.17774802861977368
1772623554105399300,0.5773994140625,-1.8801473914027214,0.28523557625114915,-0.0243686810484156
1772623554115429400,0.587429443359375,-1.3165589841514824,0.4928437229424715,0.22169161710143087
1772623554125459500,0.59745947265625,-0.7228121700018644,0.7712336710825562,0.41733445458039636
1772623554135488500,0.607488525390625,-0.23019816416203975,0.9703501760214567,0.6253037627343088
1772623554145518600,0.6175185546875,0.21291151379644868,1.021763844655454,0.7828543315757066
1772623554155548400,0.62754833984375,0.5417968466818333,1.0019424151152372,0.8504840256690979
1772623554165577500,0.637577392578125,0.7814473143219948,0.9378311774715781,0.8620822551347315
1772623554175607600,0.647607666015625,1.0127864652127028,0.801948835080862,0.8275750784423201
1772623554185637400,0.657637451171875,1.1954098082512616,0.669320818310976,0.7036974274262785
1772623554195667500,0.66766748046875,1.1991273674696683,0.6303562968835235,0.4462461128206923
1772623554205696300,0.6776962890625,1.1769301487088202,0.6242676246196032,0.25112309796474874
1772623554215726300,0.687726318359375,1.0513777694135904,0.5836962525174021,0.0816719374439679
1772623554225756400,0.69775634765625,0.8229793481498956,0.46357495836019513,-0.109858277084399
1772623554235785500,0.707785400390625,0.5778332057029009,0.3489432015299797,-0.23031952551938592
1772623554245815600,0.717815673828125,0.17431377985477448,0.3043836365744471,-0.15028119889292865
1772623554255845600,0.727845703125,-0.1244026247382164,0.26431729138493537,0.0225050973999314
1772623554265874400,0.73787451171875,-0.03428513143956661,0.309070625346899,0.07672675439305603
1772623554275904500,0.747904541015625,0.08153262030482292,0.5216323027923703,0.14042565750931388
1772623554285934300,0.757934326171875,0.052634442600607866,0.7117582765460014,0.2713749365451745
1772623554295964400,0.76796435546875,0.1556599327892065,0.7420005623355508,0.2674628594016656
1772623554305993500,0.777993408203125,0.4032522993445396,0.7347899003043771,0.2659238315324299
1772623554316023300,0.788023193359375,0.7586281642705202,0.8106719475015998,0.3040218540573493
1772623554326053400,0.798053466796875,1.0845172379493713,0.8975319003090262,0.2347964882703498
1772623554336082400,0.80808251953125,1.319441261589527,0.879245717512071,0.17642109086494892
1772623554346112500,0.818112548828125,1.5021575436085461,0.7659417021542787,0.1694225554808043
1772623554356142600,0.828142578125,1.6268880851268768,0.6063970368862152,0.2646520945635624
1772623554366171400,0.83817138671875,1.6702157701998948,0.43227819508165116,0.3044318413640372
1772623554376201500,0.848201416015625,1.5011977586656808,0.24459318473935127,0.296272774300538
1772623554386231300,0.858231201171875,1.3126988015919923,0.04833206923156976,0.3273898336306214
1772623554396261400,0.868261474609375,1.1185247214913367,-0.14243512503504752,0.4150623814625665
1772623554406290400,0.87829052734375,1.0115104539275168,-0.25982611744552847,0.46005325050745155
1772623554416320500,0.888320556640625,1.0023813910543917,-0.2335907292097807,0.38174218606501814
1772623554426350300,0.898350341796875,0.9695686702549458,-0.1377478440016508,0.22542574386214836
1772623554436379400,0.90837939453125,0.9234399562865495,-0.04376899909973144,0.13147013370534405
1772623554446409500,0.918409423828125,0.9096908323973417,-0.04311345780044794,0.1041807063720189
1772623554456439600,0.928439453125,0.9864210208564996,-0.10537409914135933,0.1318384190284647
1772623554466468400,0.93846826171875,0.9955910002619027,-0.12237725639045238,0.19589966178424656
1772623554476498400,0.94849853515625,0.9437801490038633,-0.14113777870088814,0.2717816541825421
1772623554486528500,0.958528564453125,0.9486381104290484,-0.21371932304799557,0.3487082237303257
1772623554496558300,0.968558349609375,0.988430607113242,-0.2934367106243968,0.4093795500531792
1772623554506587400,0.97858740234375,0.9562678746551274,-0.362085299436748,0.4257145987823605
1772623554516613600,0.988613525390625,0.8809101435929536,-0.46438042952418324,0.44899727469235656
1772623554526643700,0.998643798828125,0.8740373352140187,-0.585716360168159,0.4303419663220644
1772623554536672800,1.0086728515625,0.7941554047256708,-0.6399316422194242,0.37162911712322383
1772623554546702800,1.018702880859375,0.6382610786587,-0.7369304194644093,0.3416103378912434
1772623554556733000,1.02873291015625,0.3727759125381708,-0.9418214161515235,0.38789537493251264
1772623554566761700,1.03876171875,-0.024236615633964537,-1.202106675541401,0.4042333462711423
1772623554576791800,1.048791748046875,-0.2597305481165647,-1.3265271281972526,0.2531611796636134
1772623554586822000,1.05882177734375,-0.5427063627421855,-1.2132128837063907,0.1357369973695837
1772623554596851700,1.068851806640625,-0.7187170096427202,-1.100959838706255,0.0022038301872089505
1772623554606881000,1.078881103515625,-0.8443757719218731,-1.0175929887115955,-0.163221253155265
1772623554616910800,1.088910888671875,-1.0864584351450204,-0.9165621794715523,-0.2980112154657021
1772623554626940700,1.098940673828125,-1.3493126682400702,-0.8319625728115438,-0.37883524910975247
1772623554636969700,1.1089697265625,-1.5033154814720153,-0.7152642388403415,-0.4225044410968199
1772623554646999800,1.118999755859375,-1.5876257497966288,-0.6224173205778002,-0.31350882699005306
1772623554657030000,1.12902978515625,-1.5947113241434097,-0.6321162922933697,-0.12089399556275457
1772623554667059000,1.139058837890625,-1.5413590886622666,-0.6720946669384836,0.03937237157598138
1772623554677088800,1.1490888671875,-1.4918851559191941,-0.6167798992127179,0.0042811113853007555
1772623554687118800,1.159118896484375,-1.3852636870652437,-0.4341384359955787,-0.13890711530568078
1772623554697148700,1.169148681640625,-1.4016671248555184,-0.33151685043275353,-0.33608949211053546
1772623554707178000,1.179177978515625,-1.4503548756569624,-0.3661325290009379,-0.4892164723560214
1772623554717207800,1.189207763671875,-1.451713304528594,-0.49205111126005646,-0.48540400139577683
1772623554727238000,1.19923779296875,-1.507933788922429,-0.623544278781116,-0.44824729657527057
1772623554737266700,1.2092666015625,-1.6882272277086972,-0.7229243982046842,-0.4708373505786061
1772623554747296800,1.219296875,-1.9367934077322482,-0.733549837115407,-0.546047489863634
1772623554757326800,1.229326904296875,-2.206091410139203,-0.5984308803126216,-0.647413668537885
1772623554767356000,1.23935595703125,-2.334448325461149,-0.3826856043949723,-0.7108994677595794
1772623554777385700,1.2493857421875,-2.271169154727459,-0.14902502481937407,-0.6582823416199535
1772623554787415800,1.259415771484375,-1.9445371537268161,-0.015595628538727759,-0.488708961225301
1772623554797446000,1.26944580078125,-1.4343261163979768,0.13069938679486512,-0.14901260372921823
1772623554807475000,1.279474853515625,-0.849903595432639,0.39059681591093537,0.2182413670497015
1772623554817504800,1.2895048828125,-0.17061024916172027,0.7535346405237913,0.4628470824770629
1772623554827534800,1.299534912109375,0.41598552418947216,1.146687862919271,0.5381674406709149
1772623554837563600,1.309563720703125,0.8833294796943664,1.3948849173694848,0.5972402822885662
1772623554847593700,1.31959375,1.1878437569111584,1.4824977343708277,0.5647096663661301
1772623554857623800,1.329623779296875,1.359656367599964,1.4906436314254998,0.5296333480162546
1772623554867652900,1.33965283203125,1.4066694631874561,1.4059323810845612,0.4218104309506714
1772623554877683000,1.349682861328125,1.4344126256376504,1.316119715951383,0.2866370040142909
1772623554887712800,1.359712646484375,1.4405956981867551,1.3611477752014993,0.08367849149340763
1772623554897742800,1.369742919921875,1.3633522995084524,1.4756903924435376,-0.2589131855853833
1772623554907772000,1.37977197265625,1.1367588818401098,1.4658172332048416,-0.47683392411228265
1772623554917802000,1.389802001953125,0.8276222055196761,1.2687529846206307,-0.6533771069869398
1772623554927831800,1.399831787109375,0.49871466080248356,1.070151735727489,-0.8313065931208431
1772623554937860600,1.409860595703125,0.18464520425498485,0.983900562468171,-0.9173206696886569
1772623554947890700,1.419890625,0.013401917886734008,0.9435293891131877,-0.8845222696755081
1772623554957920800,1.429920654296875,-0.004226677784323692,0.9250158273011445,-0.7785755582779645
1772623554967949800,1.43994970703125,0.05888473516702652,0.9503466679126024,-0.6205833831489086
1772623554977980000,1.44997998046875,0.21361586267352103,1.0113765984147787,-0.4352916611513123
1772623554988010000,1.460010009765625,0.4650058679461479,1.1049909939184783,-0.33557949676178395
1772623554998039800,1.470039794921875,0.7612713722556829,1.2499392708182333,-0.26795575748514383
1772623555008068900,1.48006884765625,0.9811334358423948,1.3568354649603367,-0.15747359461504964
1772623555018099000,1.490098876953125,1.24990829115808,1.3497177419096231,-0.041003036951157264
1772623555028128800,1.500128662109375,1.4957950228393078,1.2445660533472895,0.13749417976783587
1772623555038157800,1.51015771484375,1.5866981135576963,1.1060799581989644,0.2677706284428947
1772623555048187600,1.520187744140625,1.625858157557249,0.9381929965212941,0.30257644102200865
1772623555058217700,1.5302177734375,1.7546452809900044,0.7762310409784317,0.27662998926285653
1772623555068246800,1.540246826171875,1.864799015623331,0.678334438110888,0.199056043455936
1772623555078276900,1.55027685546875,1.7878572302401066,0.5550608174026012,0.13851583269946277
1772623555088307000,1.560306884765625,1.65910926977396,0.3257198545917868,0.12208466665204613
1772623555098337000,1.5703369140625,1.5518115090936422,0.04449731337428093,0.05786437914334237
1772623555108365800,1.58036572265625,1.363365743511915,-0.16559972752332686,-0.08648246126454323
1772623555118396000,1.59039599609375,1.1467150431871413,-0.28945640881657597,-0.23941866817828267
1772623555128425700,1.60042578125,0.9739455701649189,-0.4070090215295553,-0.2481316975964233
1772623555138455000,1.610455078125,0.7981751617610454,-0.521276621222496,-0.24519297726340591
1772623555148484900,1.62048486328125,0.6599333967626094,-0.5833586911261082,-0.3037596229245886
1772623555158514700,1.6305146484375,0.5458189418047666,-0.5758350176230073,-0.40079244856964796
1772623555168543700,1.640543701171875,0.45056876179277894,-0.5921694818302988,-0.422392541687563
1772623555178573800,1.65057373046875,0.4291816903710365,-0.6204729085117578,-0.42135578251834954
1772623555188604000,1.66060400390625,0.4176169247835874,-0.584474251152575,-0.36257856284640727
1772623555198634000,1.670634033203125,0.41220132947564125,-0.5528627228364348,-0.2506120797026902
1772623555208662800,1.680662841796875,0.37975218129158017,-0.5582555217906833,-0.17080949806086718
1772623555218692900,1.69069287109375,0.3281529269576072,-0.568349338042736,-0.1748375662668608
1772623555228722700,1.70072265625,0.24829729995429514,-0.5811021443709731,-0.23274359259484334
1772623555238752000,1.710751953125,0.12188684252500534,-0.6728095372095704,-0.2618811868118122
1772623555248781800,1.72078173828125,-0.01718728164434433,-0.7853931293383241,-0.25857745082499456
1772623555258811600,1.730811767578125,-0.1796843669772148,-0.8332058508709073,-0.3252605665169656
1772623555268841700,1.740841796875,-0.34197686964869495,-0.8444275021091103,-0.4228695115495473
1772623555278870800,1.750870849609375,-0.5898252567917108,-0.9437821948304772,-0.4657470051696524
1772623555288900900,1.76090087890625,-0.7989911543190479,-1.086507534983754,-0.5089008315131068
1772623555298931000,1.770930908203125,-0.9925760363548993,-1.1344479745492337,-0.5747955185074359
1772623555308959700,1.780959716796875,-1.1503425860345362,-1.1311574085712433,-0.6189085087392479
1772623555318989800,1.79098974609375,-1.27018067933619,-1.1511994951248168,-0.609944500234723
1772623555329020000,1.80102001953125,-1.356485920870304,-1.2281851196497677,-0.5644562761269509
1772623555339049000,1.811049072265625,-1.3852116646170616,-1.2803227186441422,-0.46523489092905074
1772623555349078800,1.821078857421875,-1.364988376277685,-1.2674869102075694,-0.28836390087213365
1772623555359108900,1.83110888671875,-1.2789134363681076,-1.2266805603057145,-0.08292096939068287
1772623555369138700,1.841138671875,-1.1533259857594966,-1.1751014719769357,0.07900343062076717
1772623555379167700,1.851167724609375,-0.9825269360274076,-1.169250700122118,0.1718762505095452
1772623555389197800,1.86119775390625,-0.8682739493817091,-1.1703458018824457,0.24667433839496225
1772623555399228000,1.871227783203125,-0.9023872313857078,-1.1579176974639296,0.3134538453998044
1772623555409257000,1.881257080078125,-0.9478390690058469,-1.2090531336784363,0.3718186483459547
1772623555419286800,1.891286865234375,-1.0459095671355725,-1.2798410726070404,0.4068449170090258
1772623555429316900,1.90131689453125,-1.1306722554028033,-1.392038588027656,0.5312393949734047
1772623555439346700,1.9113466796875,-1.2158821029156446,-1.5711694127753375,0.7410458919592201
1772623555449375700,1.921375732421875,-1.3135913665175438,-1.6815049337163566,0.9336731810092925
1772623555459405800,1.93140576171875,-1.4435907883495092,-1.6440055164054035,1.0370752494253217
1772623555469436000,1.941435791015625,-1.663824023336172,-1.4336892797991632,0.9823505565471946
1772623555479464700,1.951464599609375,-1.9280793554008007,-1.0864265787020324,0.7785268237654119
1772623555489494800,1.961494873046875,-2.1442244442909955,-0.6492588580131531,0.4487842529961839
1772623555499524900,1.97152490234375,-2.2269109108060596,-0.21921090620160102,0.2263456899849698
1772623555509554000,1.981553955078125,-1.9785890609323977,0.14525515089184046,0.20707460607020184
1772623555519584300,1.991584228515625,-1.5346920319885013,0.4739198267638683,0.10278758977949619
1772623555529614300,2.0016142578125,-1.0207020606428385,0.7650400771394371,0.05294855461765546
1772623555539643400,2.011643310546875,-0.4110913224071264,0.9899021409705281,0.07489056107499636
1772623555549673200,2.021673095703125,-0.035626609176397324,1.1395564036041497,0.3642161009203642
1772623555559703300,2.031703369140625,0.4503407982558012,1.2539897152528166,0.6624192222289741
1772623555569733000,2.041733154296875,1.034196332988143,1.3788801235079764,0.7298864923022687
1772623555579762200,2.05176220703125,1.4179028048634528,1.5608827042996882,0.6904175284840166
1772623555589792300,2.061792236328125,1.7645312997102736,1.7697621861010788,0.6217471662312746
1772623555599822300,2.071822265625,1.971480690231919,1.8871289208531379,0.6055653353024274
1772623555609851400,2.081851318359375,2.0567706172436475,1.8779940127611159,0.600933291587606
1772623555619881200,2.091881103515625,2.0069126536190507,1.8414996808394788,0.5828726246422157
1772623555629911300,2.101911376953125,1.892818656927347,1.8533838876396416,0.5406212270312011
1772623555639941000,2.111941162109375,1.6595073291808367,1.8880837373599408,0.47591311947293574
1772623555649970200,2.12197021484375,1.2653005060791969,1.8850930311113594,0.36310302511192855
1772623555660000300,2.132000244140625,0.834084679532051,1.7901102698639033,0.15472867982108146
1772623555670030300,2.1420302734375,0.4399737180203199,1.6450915580764411,-0.1432143475129269
1772623555680059100,2.15205908203125,0.2018698953002691,1.5615344462066887,-0.3736170030048117
1772623555690089200,2.162089111328125,0.12015139703452586,1.5660776425942777,-0.48613063516989347
1772623555700119300,2.172119384765625,0.11920856322646141,1.5548773264050484,-0.5263040939956903
1772623555710148400,2.1821484375,0.2852162870287895,1.4933207416802643,-0.5442111047493293
1772623555720178200,2.19217822265625,0.6320493645370007,1.4786433970302342,-0.45633024792894716
1772623555730208300,2.202208251953125,0.8945230738818645,1.442233528521657,-0.28671385037647557
1772623555740238000,2.212238037109375,1.1935948677837849,1.3457438698425888,-0.20231458859415724
1772623555750267400,2.222267333984375,1.5178151314675807,1.262668404009938,-0.24837129677226766
1772623555760297200,2.232297119140625,1.7085574835538864,1.2156716750353573,-0.20676453547403215
1772623555770327300,2.242327392578125,1.6620996837615967,1.0506520854875445,0.03898155476064421
1772623555780356000,2.252356201171875,1.791567775195837,0.7706634699791669,0.2026695395116694
1772623555790386200,2.26238623046875,1.9604741430491208,0.572148438064754,0.22139846110744402
1772623555800416300,2.272416259765625,1.9870979460805653,0.5200935489177704,0.19725396247003227
1772623555810446300,2.2824462890625,1.8811732273191213,0.4399938840255141,0.188527890907228
1772623555820475400,2.292475341796875,1.7288135051190852,0.24852234088182448,0.15133927484480664
1772623555830505200,2.302505126953125,1.6008341909378767,0.09566431377083062,0.10675419185552745
1772623555840535000,2.31253515625,1.3744599689781665,-0.00046323359757661814,0.08479065398639067
1772623555850564400,2.322564453125,1.0651830074042081,-0.17093173620104787,0.1464783542775549
1772623555860594200,2.33259423828125,0.940268926012516,-0.3511515252292156,0.1584210315329954
1772623555870624300,2.342624267578125,0.8299842584758996,-0.3592261106133461,0.12735635997727512
1772623555880653000,2.352653076171875,0.7071171727418899,-0.3313759806573391,0.1399071591936983
1772623555890683100,2.36268310546875,0.5778022260427474,-0.4221045915916562,0.20453442006809636
1772623555900713200,2.372713134765625,0.5064408711403608,-0.5669780496895312,0.22082064295317977
1772623555910743300,2.382743408203125,0.4286766634583473,-0.6615022535145282,0.19011687713172284
1772623555920772400,2.3927724609375,0.41096389663517474,-0.712344552001357,0.18044756990205496
1772623555930802400,2.402802490234375,0.4570926106035709,-0.7950199126005172,0.17533377055227756
1772623555940832300,2.412832275390625,0.421243298587203,-0.9217074334055185,0.26821287405136973
1772623555950861300,2.422861328125,0.30537936961352824,-1.0556357191190122,0.3736115961773321
1772623555960891100,2.43289111328125,0.1563964303702116,-1.2122267952784895,0.4107813066098839
1772623555970921200,2.442921142578125,0.024647534522414204,-1.348568864135444,0.3803134319035336
1772623555980951300,2.452951416015625,-0.0953711760431528,-1.4143129636779426,0.3972642013782635
1772623555990980000,2.46297998046875,-0.20821371136903763,-1.4276815638169646,0.45728594121858473
1772623556001010200,2.47301025390625,-0.3625876960009336,-1.4783786086142063,0.46210536073166875
1772623556011040300,2.483040283203125,-0.605462970906496,-1.5548960311055182,0.42293066715225575
1772623556021069300,2.4930693359375,-0.875609114575386,-1.6239011782705783,0.36522407238651067
1772623556031099400,2.503099365234375,-1.1212672981977463,-1.6545593513846397,0.28033859798982735
1772623556041129500,2.51312939453125,-1.3352110776513815,-1.5796496563509106,0.2163328665472567
1772623556051158300,2.523158203125,-1.499311506527662,-1.399490949860215,0.1044511390775442
1772623556061188000,2.53318798828125,-1.5879466523140668,-1.1896344397202134,-0.034715047289431096
1772623556071218200,2.54321826171875,-1.6095102493464946,-0.9852364872470497,-0.12105952485539018
1772623556081248300,2.553248291015625,-1.5557061784446238,-0.808976249499619,-0.15473266187645493
1772623556091277300,2.56327734375,-1.4955349105983973,-0.7142007012620568,-0.06237442218000069
1772623556101307100,2.57330712890625,-1.3788783699423073,-0.6282856280893087,0.1567615738881752
1772623556111337200,2.583337158203125,-1.1780249582082032,-0.5281894693508744,0.3560837574670091
1772623556121366300,2.5933662109375,-1.049183474239707,-0.3818082370385527,0.4541809244079515
1772623556131396400,2.603396240234375,-0.9416653488069772,-0.16972352945506572,0.40923246973268684
1772623556141426400,2.613426513671875,-0.8672779240816831,0.005870353338122368,0.2602571840728633
1772623556151455200,2.623455322265625,-0.8728560164749621,0.04002104474306106,0.05878329321970231
1772623556161485300,2.6334853515625,-0.8356967909038067,-0.023901976852118968,-0.15980782798258586
1772623556171515100,2.64351513671875,-0.887142315980792,-0.06628273646384478,-0.40503669854328034
1772623556181545200,2.653545166015625,-1.079640571823716,-0.14920242721289395,-0.6102759606787934
1772623556191574300,2.66357421875,-1.3117115441203118,-0.25654168894737955,-0.7830646863907575
1772623556201604000,2.67360400390625,-1.6255208884269,-0.37692134177982806,-0.893280453409627
1772623556211634200,2.68363427734375,-1.880498689058423,-0.44700785444080826,-0.8775751539513468
1772623556221663200,2.693663330078125,-1.936769442334771,-0.40869010648429394,-0.7570861955255269
1772623556231693300,2.703693359375,-1.7810241693496702,-0.20935469809770582,-0.5349082562118769
1772623556241723400,2.713723388671875,-1.540370077624917,0.07492869199514389,-0.27347137910146263
1772623556251753200,2.723753173828125,-1.2746563634455204,0.38904549481570716,-0.14300317071396856
1772623556261782300,2.7337822265625,-0.9287228651255368,0.6547378739461303,0.02519784361524507
1772623556271812000,2.74381201171875,-0.3850280758678913,0.9140054807260632,0.22401110955756157
1772623556281842200,2.75384228515625,0.12749240744709966,1.2299918768107891,0.12261559519097208
1772623556291871200,2.763871337890625,0.6106143623203039,1.4872820460379124,0.0006411622891260776
1772623556301901300,2.7739013671875,1.0718705223441123,1.5942431221097706,-0.06022624943647533
1772623556311931100,2.78393115234375,1.406287185871601,1.622503001910448,-0.060225116925314064
1772623556321960200,2.793960205078125,1.6306225954800844,1.5578294542089104,0.035048261299170554
1772623556331990300,2.803990234375,1.7260095536142586,1.4156407051503657,0.13995766553822905
1772623556342020400,2.814020263671875,1.841454964914918,1.305577279148996,0.1240765711216256
1772623556352050400,2.824050537109375,1.918043114554882,1.3079574522837996,0.03736165280807763
1772623556362079200,2.834079345703125,1.878672642675042,1.334040572567284,-0.07895210229232907
1772623556372109000,2.844109130859375,1.6778583939075469,1.2833408974215388,-0.22403560467800124
1772623556382139100,2.85413916015625,1.4086609292656183,1.1256234475806355,-0.34992702493555844
1772623556392168200,2.864168212890625,1.1750965035408734,0.9654904610306024,-0.41644028221964835
1772623556402198300,2.8741982421875,0.9564847322762012,0.8854360965847968,-0.36139658652022477
1772623556412228400,2.884228271484375,0.7229717444777488,0.8296794303104281,-0.30406870714006945
1772623556422258200,2.894258056640625,0.5518026923894882,0.7378612705737352,-0.24597082976810633
1772623556432287200,2.904287353515625,0.5458113430202007,0.678668200109899,-0.14736109192883595
1772623556442317300,2.9143173828125,0.6181541101753711,0.7264581252887845,-0.055111737700644876
1772623556452347400,2.924347412109375,0.7407756967157125,0.8316624208211898,0.04019957051458768
1772623556462376400,2.93437646484375,0.9070558077186346,0.8451955638721584,0.12187887841425836
1772623556472406300,2.94440625,1.1027017139375208,0.8240966617420316,0.12287553390194661
1772623556482436000,2.95443603515625,1.2715531367331743,0.7625278020575642,0.049156509957509115
1772623556492465200,2.964465087890625,1.4291256251454352,0.6339972837343811,0.0336305582546629
1772623556502495200,2.9744951171875,1.4640642520576714,0.4580810371190309,0.1226210750836879
1772623556512525300,2.984525390625,1.454844588291645,0.24138474408686159,0.16252729780804365
1772623556522555400,2.994555419921875,1.3859727121174334,0.06980974154621362,0.10248173870071768
1772623556532584400,3.00458447265625,1.2802397165358066,-0.06577215659320354,0.023423472620174288
1772623556542614500,3.014614501953125,1.2176976279050111,-0.19956074157506226,-0.015776117938477545
1772623556552644600,3.02464453125,1.124182893383503,-0.2922802340656519,-0.041499844024772754
1772623556562673700,3.034673583984375,1.0450362914323805,-0.3200508690446615,-0.11441324610817245
1772623556572703500,3.044703369140625,0.9684750297993421,-0.38367753804177046,-0.219621587628033
1772623556582733300,3.0547333984375,0.8518664199382067,-0.49642508856058115,-0.29951469709752127
1772623556592762400,3.064762451171875,0.6932891383975743,-0.6544242779523134,-0.3540842176802456
1772623556602792400,3.07479248046875,0.5684510448515415,-0.790831520999968,-0.4146680118501186
1772623556612822500,3.084822509765625,0.4667091647326946,-0.8565250593990087,-0.47931138360910114
1772623556622852600,3.0948525390625,0.3437935636818409,-0.9213058668673038,-0.4717804766476154
1772623556632881400,3.10488134765625,0.26042262203395367,-0.9985893052950501,-0.527127429609932
1772623556642911500,3.114911376953125,0.2174959189772606,-1.0656561778739093,-0.6391724944151937
1772623556652941600,3.124941650390625,0.15850012465119362,-1.1538222448438404,-0.6954361603636294
1772623556662970600,3.134970703125,0.1248556292027235,-1.2530997806757689,-0.6937542716912924
1772623556673000400,3.14500048828125,0.1119330192655325,-1.3587877680718898,-0.6337137906178831
1772623556683030300,3.1550302734375,0.13651976351141928,-1.430517371764779,-0.5434267129059881
1772623556693060400,3.165060302734375,0.12478373301029205,-1.5037041885286568,-0.4934155680136755
1772623556703089400,3.17508935546875,0.08406184652149677,-1.5888070685356854,-0.46536681021302934
1772623556713119500,3.185119384765625,-0.009704816934466362,-1.6335104258760809,-0.40785321726873514
1772623556723149600,3.195149658203125,-0.14413023851513862,-1.6343652891397475,-0.3921097412245348
1772623556733178400,3.205178466796875,-0.3930114758372307,-1.6447230170249938,-0.42348903168737884
1772623556743208400,3.21520849609375,-0.6498007098048925,-1.698962264473736,-0.49007126255445177
1772623556753238500,3.225238525390625,-0.8277671669483184,-1.690277438236773,-0.5450021455291658
1772623556763267600,3.235267578125,-0.9717945296108722,-1.564288713350892,-0.494442974832654
1772623556773297700,3.245297607421875,-1.0353788207709789,-1.3876663642928004,-0.4215072102203965
1772623556783327200,3.2553271484375,-1.1764315515369177,-1.1786910209015011,-0.4293113811653107
1772623556793357300,3.265357421875,-1.3096078498393295,-0.9764613523781299,-0.5122990225840359
1772623556803386400,3.275386474609375,-1.4018220231562852,-0.766840112298727,-0.6094610640993341
1772623556813416400,3.28541650390625,-1.4390133974313735,-0.4993599729686975,-0.6050684916961938
1772623556823446500,3.295446533203125,-1.355331490138173,-0.26108605437874793,-0.47667051371149716
1772623556833475300,3.305475341796875,-1.1022580618232487,-0.11069266381561756,-0.3501502026995644
1772623556843505400,3.31550537109375,-0.7165262216001749,-0.01278524729311466,-0.19098361349627374
1772623556853535500,3.325535400390625,-0.3987988270670175,-0.005465864190459251,-0.017647044643200934
1772623556863564500,3.335564453125,-0.15612287412583828,-0.1299775022611022,0.22677553276959805
1772623556873594600,3.3455947265625,0.11207505808472633,-0.304223477576673,0.4663722609285265
1772623556883624400,3.35562451171875,0.2906102550268173,-0.44428632052242756,0.6249957927636802
1772623556893654300,3.365654296875,0.32115503089427944,-0.572200460512936,0.6948383406009525
1772623556903683300,3.375683349609375,0.2855097170174122,-0.6461296200767159,0.7488386647272854
1772623556913713400,3.38571337890625,-0.003129530197381973,-0.5762298621594906,0.660907794752717
1772623556923743500,3.395743408203125,-0.4312070587188005,-0.41547348301410675,0.3446118943274021
1772623556933772500,3.4057724609375,-1.0544435867249966,-0.27463614856451746,-0.10740019814148545
1772623556943802400,3.41580224609375,-1.5795587631970642,-0.16925854229182005,-0.43350569104999304
1772623556953832400,3.42583251953125,-1.8927602047383785,-0.054743105317652224,-0.5376577375831082
1772623556963862500,3.435862548828125,-1.928041361477971,0.08475713530927896,-0.5430835620241239
1772623556973891600,3.4458916015625,-1.7266963668346405,0.29907617781609297,-0.4665012576030567
1772623556983921400,3.45592138671875,-1.2046008304446936,0.5654474791213869,-0.4451763281647116
1772623556993951500,3.465951416015625,-0.540139142602682,0.8874883529394865,-0.4407929985139519
1772623557003980300,3.475980224609375,0.08221183474063873,1.1971674655735491,-0.5046039380367845
1772623557014010400,3.48601025390625,0.4533201063275337,1.3402782979130745,-0.45091574859954414
1772623557024040400,3.49604052734375,0.7381979551821947,1.2258701207056641,-0.29870222993716594
1772623557034069500,3.506069580078125,0.9427870463132858,0.9893459683924913,-0.3075155779246241
1772623557044099600,3.516099609375,0.9691811322420835,0.8648483588472008,-0.5524813953686505
1772623557054129400,3.52612939453125,0.8426169455558061,0.8782225119441747,-0.8542335874609649
1772623557064159500,3.536159423828125,0.7186106266587973,0.891635243485868,-0.9668994510456919
1772623557074188500,3.5461884765625,0.5063736511230469,0.8375868424341082,-1.016771808521822
1772623557084218600,3.556218505859375,0.1994172414511442,0.7859720982700585,-1.059361315513402
1772623557094248400,3.56624853515625,-0.09279051190018653,0.7899240507662296,-1.0608327032402156
1772623557104277200,3.57627734375,-0.2597229493319988,0.822909790045023,-1.0415316443122922
1772623557114307300,3.586307373046875,-0.34791678109169005,0.927087080617249,-1.0263346597023308
1772623557124337400,3.59633740234375,-0.3685024730026722,1.0796583997413516,-0.9912596930593252
1772623557134367500,3.606367431640625,-0.31899931416511534,1.2059896544545887,-0.9616802550926804
1772623557144396500,3.616396484375,-0.13986732037365435,1.2795856365412472,-0.8234604827303439
1772623557154426400,3.62642626953125,0.15386252797842026,1.3396288940936327,-0.6613078269209712
1772623557164456400,3.63645654296875,0.585065495043993,1.336577105307579,-0.59846986061614
1772623557174485500,3.646485595703125,0.9878484233111142,1.2874109233394264,-0.4981838418614119
1772623557184515600,3.656515625,1.3451853591769933,1.1602458481505513,-0.30400057380730283
1772623557194545400,3.66654541015625,1.5746470257580278,0.9516142036303877,-0.08476197588117793
1772623557204574500,3.676574462890625,1.7565087367743253,0.732016636198759,0.08926880404744297
1772623557214604300,3.686604248046875,1.759112781792879,0.5931234215542673,0.21864943639393894
1772623557224634400,3.69663427734375,1.5496107841789721,0.46863545662015677,0.2575194114057347
1772623557234664400,3.70666455078125,1.379663967362046,0.3092734544426203,0.1506415475047659
1772623557244693500,3.716693603515625,1.2268056479901075,0.16444529679119585,0.023586974352505057
1772623557254723600,3.7267236328125,1.100797341620922,0.03077858462333679,0.011202846073033287
1772623557264753400,3.73675341796875,0.9847674084305763,-0.08870616519600152,0.07078241337011568
1772623557274782500,3.746782470703125,0.9687520931750535,-0.12312106049507855,0.06464709808602928
1772623557284812500,3.7568125,0.9108113608598709,-0.10228577773720025,-0.03966913516600616
1772623557294842400,3.76684228515625,0.8508487673282623,-0.1374041451305151,-0.1258309953072108
1772623557304872400,3.77687255859375,0.8568050453841686,-0.19453005393147468,-0.12736695443652568
1772623557314901200,3.7869013671875,0.8596154266297816,-0.27631694125831124,-0.08763853596448898
1772623557324931300,3.796931396484375,0.8319283782809972,-0.3715215285629034,-0.04212477099008392
1772623557334961400,3.80696142578125,0.8902291760802269,-0.42185938465893263,0.030616772524593397
1772623557344990500,3.816990478515625,0.9289940832823514,-0.4224038667991757,-0.012322178092319518
1772623557355020500,3.8270205078125,0.9777233351379633,-0.34769320146888494,-0.04084373646990862
1772623557365050600,3.837050537109375,1.080295236340165,-0.28743951603621243,0.007586952564236708
1772623557375079400,3.847079345703125,1.074179968330264,-0.2268473924294114,0.035402052306057884
1772623557385109500,3.857109619140625,1.0228168608397246,-0.23459289198964833,0.10002702075866982
1772623557395139300,3.867139404296875,0.914680895769596,-0.30268998439908024,0.20978008390292524
1772623557405169400,3.87716943359375,0.7610907549917697,-0.33772301159650087,0.2960775439893827
1772623557415198500,3.887198486328125,0.6050491294085979,-0.34106910715401173,0.3139682611953467
1772623557425228300,3.897228271484375,0.4865840780258178,-0.375035966424644,0.30432582370629535
1772623557435258400,3.90725830078125,0.329358211094141,-0.4360436850950122,0.2842737454816699
1772623557445287400,3.917287353515625,0.11357669481933116,-0.5508548901453614,0.23345968670863657
1772623557455317500,3.9273173828125,-0.10907996792197226,-0.6642489218741655,0.09885067045567557
1772623557465347600,3.93734765625,-0.39285833110213275,-0.7068813181594014,-0.03676596107040532
1772623557475377700,3.947377685546875,-0.657007864704728,-0.7242617842882871,-0.12340378642659634
1772623557485406500,3.957406494140625,-0.8985556903988122,-0.7283850016981362,-0.19757893837438895
1772623557495436500,3.9674365234375,-1.0986439629793165,-0.6847793764665723,-0.21035351814301684
1772623557505466400,3.97746630859375,-1.2773188606530428,-0.6716644588276743,-0.1939989061968401
1772623557515496000,3.987495849609375,-1.421332194790244,-0.6749597009807825,-0.19066439147926867
1772623557525524700,3.997524658203125,-1.5299468832880259,-0.6441843312278389,-0.24223434665352106
1772623557535554800,4.007554931640625,-1.551134632745385,-0.6162544140338897,-0.279974221656844
1772623557545585000,4.0175849609375,-1.5682026719242332,-0.6204159176275134,-0.2818151368157938
1772623557555614000,4.027614013671875,-1.588077000695467,-0.6269967573225498,-0.25829825029112397
1772623557565644000,4.03764404296875,-1.5563228490382433,-0.6108002402812243,-0.23016592412656173
1772623557575674000,4.047674072265625,-1.5122206724613905,-0.6193979727566242,-0.22950064688455313
1772623557585704000,4.057703857421875,-1.5320646060943603,-0.6773495187267661,-0.24164102040287105
1772623557595733000,4.06773291015625,-1.5521727436214685,-0.7171195113182067,-0.2759700275167823
1772623557605763000,4.07776318359375,-1.6954682848781346,-0.6854290725469588,-0.4045706519341096
1772623557615793000,4.08779296875,-1.9172925884485243,-0.6323708515763282,-0.6474284277155995
1772623557625822000,4.097822021484375,-2.049145529192686,-0.5250885807260871,-0.8306533168438821
1772623557635851800,4.107851806640625,-2.0671955651462075,-0.401528252030909,-0.8641688521504401
1772623557645881900,4.1178818359375,-1.9453420403689146,-0.33602234515845775,-0.7383822987731545
1772623557655912000,4.127911865234375,-1.6226824501305817,-0.2973988922536373,-0.5348177649168298
1772623557665941000,4.13794091796875,-1.156488249182701,-0.10551116952449083,-0.2683660005201585
1772623557675971000,4.14797119140625,-0.6956044296026229,0.2308329549342394,-0.013552834132127463
1772623557686001200,4.158001220703125,-0.350800227573514,0.5709238647058605,0.12441925621260888
1772623557696030000,4.168030029296875,-0.048916298860311506,0.8450529405310749,0.1324045741443988
1772623557706060000,4.17806005859375,0.08401333120465278,1.0147919598162174,0.01019816140087205
1772623557716089900,4.18808984375,0.09402677569687366,1.0551295231625437,-0.20736359734572468
1772623557726120000,4.198119873046875,0.08913783461153507,1.0831129241093993,-0.3880841389702633
1772623557736148700,4.208148681640625,0.08026245423853397,1.1301830105811357,-0.5484635014967992
1772623557746178800,4.2181787109375,0.07839782941043376,1.188594575278461,-0.7353120975475758
1772623557756209000,4.228208984375,0.10052841267585753,1.1944611292243004,-0.9416148607287556
1772623557766238000,4.238238037109375,0.21505203295648095,1.1395958588317037,-1.0876883422661572
1772623557776268000,4.24826806640625,0.376177245414257,1.0725684414803982,-1.1476771662175655
1772623557786298000,4.258298095703125,0.5524772306501865,0.9939558002755046,-1.1024066034484654
1772623557796327000,4.268326904296875,0.7150801144450902,0.8788917895078658,-0.9674034550450742
1772623557806357000,4.27835693359375,0.9444470884799957,0.7453466578930616,-0.8480817868329584
1772623557816386800,4.28838671875,1.0741846445053815,0.6182493872433901,-0.7461520559918134
1772623557826417000,4.2984169921875,1.2366805607944726,0.488892647229135,-0.5341205764329061
1772623557836446000,4.308446044921875,1.4210142148822544,0.3887126095995307,-0.31652382742967455
1772623557846475800,4.318475830078125,1.5362392614305018,0.3574430265888571,-0.17792992452532053
1772623557856505900,4.328505859375,1.5969184787988662,0.3899643632262945,-0.11308689287523738
1772623557866535000,4.338534912109375,1.6397703630536793,0.43338148014843464,-0.17785799180027095
1772623557876565000,4.34856494140625,1.6212088704466818,0.478728396089375,-0.284305327930022
1772623557886595000,4.358594970703125,1.5322019687384365,0.4900745504900813,-0.3362690133959055
1772623557896625200,4.368625244140625,1.4479723644345999,0.42954672429114577,-0.37692009967081247
1772623557906654000,4.378654052734375,1.4028022663652897,0.35592326967567206,-0.38286753683313723
1772623557916684000,4.38868408203125,1.3593190984696149,0.3266571354418993,-0.34453645447101444
1772623557926713900,4.3987138671875,1.3097609945744275,0.3239548907458782,-0.2984834908862598
1772623557936743000,4.408742919921875,1.244662207198143,0.29363778615444897,-0.2816324554589577
1772623557946773000,4.41877294921875,1.1942261514246464,0.253717279176414,-0.2900956383018754
1772623557956802800,4.428802734375,1.0989017371326684,0.21865005744844673,-0.28826792968437076
1772623557966831900,4.438831787109375,0.9887374811053276,0.17332330751270056,-0.31955289292726663
1772623557976862000,4.448862060546875,0.8576496795147657,0.1189446515932679,-0.39876032168753445
1772623557986892000,4.45889208984375,0.7895499567568302,0.06732903064638376,-0.43876215027347204
1772623557996922000,4.468922119140625,0.7392442493647337,0.058983811627328395,-0.44784569350443776
1772623558006951000,4.478950927734375,0.6753332104682922,0.04499123437106609,-0.4277738693997264
1772623558016981000,4.48898095703125,0.7053864034265279,0.04581044179946184,-0.4166345626827329
1772623558027010800,4.4990107421875,0.7801800708651542,0.11410656391233205,-0.4524504838861525
1772623558037039900,4.509039794921875,0.8601941033005714,0.19812690937966107,-0.5419773543478921
1772623558047070000,4.519070068359375,0.9713403561025857,0.2635600432768464,-0.6201647193454206
1772623558057100000,4.52910009765625,1.0834855568140744,0.2835311104208231,-0.7200448972456157
1772623558067129900,4.5391298828125,1.2088508891046046,0.29398528441786764,-0.808627947518602
1772623558077159000,4.549158935546875,1.3326175540268421,0.2816518725454807,-0.8600018686641007
1772623558087189000,4.55918896484375,1.4237123679250479,0.26519875039458274,-0.8682456000700592
1772623558097219000,4.569218994140625,1.492730374571681,0.2102165756240487,-0.8649709623135626
1772623558107248000,4.579248046875,1.5042156451821327,0.11390256577283144,-0.803246765936911
1772623558117278000,4.58927783203125,1.4304653493165969,0.010261866295337676,-0.6963479414463043
1772623558127307800,4.599307861328125,1.2330255454182624,-0.031549276734888554,-0.6437216090869158
1772623558137337900,4.609337890625,1.0837404083579778,0.018363339686393736,-0.722716381477192
1772623558147367000,4.619366943359375,0.8574246385872364,-0.007717734770476817,-0.703945045511797
1772623558157397000,4.62939697265625,0.6356716466873884,-0.1183762040555477,-0.6878598068252205
1772623558167427000,4.639427001953125,0.1626800406843424,-0.2757835650339722,-0.6162069946955889
1772623558177457000,4.649456787109375,-0.40412732861340045,-0.48325551812499756,-0.3007017879902385
1772623558187487000,4.659487060546875,-0.8346902442097663,-0.7418059165462851,0.012964439784921705
1772623558197516800,4.669516845703125,-1.2030787354439496,-0.9262412774428724,0.25667390049230304
1772623558207546000,4.679546142578125,-1.398620012244582,-0.9973279070571064,0.46743309509307146
1772623558217576000,4.689575927734375,-1.4808008673250674,-1.044125606328249,0.6400299149621278
1772623558227606000,4.69960595703125,-1.6092898845940828,-1.1205214482665062,0.7962293614555149
1772623558237634800,4.709634765625,-1.7570096720337867,-1.1619243027567863,0.9301962986789644
1772623558247665000,4.719664794921875,-1.852503013151884,-1.155238833643496,1.0249456164967268
1772623558257695000,4.729695068359375,-1.9596634111881255,-1.1254925146773458,1.1910201949901877
1772623558267725000,4.73972509765625,-2.0525024384051562,-1.1652616304859518,1.3691937190130352
1772623558277754000,4.749754150390625,-2.1072885060817,-1.3009227313414216,1.4864274750351905
1772623558287784000,4.759783935546875,-2.1837550751686097,-1.4647516497999429,1.6634806167259812
1772623558297814000,4.76981396484375,-2.3362638504505155,-1.586577409787476,1.8273127500548958
1772623558307843000,4.779843017578125,-2.5683956130236387,-1.5318231985539197,1.8535747340366244
1772623558317873000,4.789872802734375,-2.8455659562408924,-1.186459024554491,1.6464856427833436
1772623558327903000,4.799903076171875,-3.0440730971097945,-0.6912886122301221,1.355360570102185
1772623558337933000,4.80993310546875,-2.7972587291896343,-0.2175055635884404,1.175540301785618
1772623558347961900,4.8199619140625,-2.336533899563551,0.19525807594507932,0.9347562270056455
1772623558357992000,4.829991943359375,-1.8459107752799986,0.5221043042182922,0.713275110849738
1772623558368022000,4.84002197265625,-1.2201561269730328,0.7746531241372228,0.616365034801513
1772623558378051000,4.850051025390625,-0.6587263590604067,0.9140160021200776,0.6623450610142201
1772623558388081000,4.860080810546875,-0.1464876152962446,0.9796046188399196,0.7859496672425419
1772623558398111000,4.870111083984375,0.20288111816942692,1.0576762850359083,0.9523902295041828
1772623558408140000,4.88014013671875,0.4612725266367197,1.1305042053595185,1.1822723865196108
1772623558418169900,4.890169921875,0.6933440834552049,1.1564537623912094,1.2034487378001213
1772623558428200000,4.900199951171875,0.7784791121661663,1.1610106950432062,1.027638216581568
1772623558438230000,4.91022998046875,0.7242337272375822,1.1524445267498493,0.8106969358123839
1772623558448258800,4.9202587890625,0.6705372083634138,1.0961904323473572,0.6088850908422843
1772623558458289000,4.930288818359375,0.5793693292289972,1.063859065324068,0.4583581735599786
1772623558468319000,4.940319091796875,0.4126420589804649,1.1315870321601629,0.3729400170587003
1772623558478348000,4.95034814453125,0.27202655058801173,1.1983435236155986,0.3952895037718117
1772623558488378000,4.960378173828125,0.22536475265622138,1.1583671947970986,0.40146147040501234
1772623558498408000,4.970407958984375,0.1403700091987848,1.0841124565407634,0.3571943490574136
1772623558508437800,4.980437744140625,0.15671265671253204,1.0526920668825506,0.3217635912466794
1772623558518466600,4.990466552734375,0.24769115075469014,1.075470592662692,0.3166825616553426
1772623558528496400,5.000496337890625,0.3692436467587948,1.1054594882130622,0.2717994638338685
1772623558538526500,5.0105263671875,0.5346919831126928,1.1232888671532273,0.17901525381030514
1772623558548555300,5.02055517578125,0.7461760944545268,1.098225737567246,0.08120008214851841
1772623558558585300,5.03058544921875,0.9796943429499864,1.01438600936383,-0.038444685104698874
1772623558568615400,5.040615478515625,1.1975135025322436,0.8774860143631696,-0.089029332735762
1772623558578645500,5.0506455078125,1.3332587745398283,0.7332426708623766,-0.1220454214870464
1772623558588674600,5.060674560546875,1.5101929660260676,0.5679442643731832,-0.11781298981537111
1772623558598704400,5.070704345703125,1.6894360189765691,0.427694374422729,-0.10238145666401832
1772623558608734500,5.080734375,1.8172721252948045,0.3451405943766236,-0.0768578516931273
1772623558618763500,5.090763427734375,1.9059902731895446,0.2508218499958515,-0.05823936820188537
1772623558628793600,5.100793701171875,1.985554223769903,0.1386255036190152,0.009291267697513103
1772623558638823400,5.110823486328125,2.0081851577728984,0.03573123859465122,0.0855351704770699
1772623558648853500,5.120853515625,2.071943636456132,-0.03374064929932356,0.08939610195523127
1772623558658882300,5.13088232421875,2.1363918509691953,-0.0421019426703453,0.03319244083203375
1772623558668912400,5.140912353515625,2.176158044168353,-0.019892741210758683,-0.03625895226318389
1772623558678942500,5.1509423828125,2.133824046307802,-0.03491203116625547,-0.10818919309470802
1772623558688971500,5.160971435546875,1.9582032755076884,-0.09090279845744371,-0.12460333494208753
1772623558699001600,5.171001708984375,1.6686054123938083,-0.17834814993739126,-0.0974737560792826
1772623558709031400,5.181031494140625,1.3863152419447897,-0.2395864624932408,-0.06223369853505865
1772623558719060500,5.191060546875,1.1546095958292484,-0.23964228433370588,-0.032668837083037944
1772623558729090600,5.201090576171875,0.8493184890210628,-0.2779077175810933,0.012845215585734695
1772623558739120400,5.211120361328125,0.5208393988490104,-0.3270999107733369,-0.0028380364375188943
1772623558749150500,5.221150390625,0.3230143950253725,-0.36199995924085376,-0.0756787797100842
1772623558759179300,5.23117919921875,0.2974947538435459,-0.42403994356840846,-0.1301733901593834
1772623558769209300,5.241209228515625,0.22264672586917875,-0.5025879951044917,-0.16180683804638682
1772623558779239400,5.251239501953125,0.0795639505803585,-0.6267050808995962,-0.15544943184368312
1772623558789268500,5.2612685546875,-0.028495442122220993,-0.7794111323192715,-0.05837806428652256
1772623558799298600,5.271298583984375,-0.15337503672242164,-0.9323264425754546,0.17962646277751773
1772623558809328600,5.28132861328125,-0.3027420068472624,-1.0265180534452198,0.40880646287295963
1772623558819358500,5.2913583984375,-0.4375532128751278,-1.0606059087470172,0.4558309201046824
1772623558829387500,5.301387451171875,-0.6164689335674047,-1.0434355782374738,0.38075383261479434
1772623558839417300,5.311417236328125,-0.7816285161077976,-0.9940212667271494,0.28264260061588137
1772623558849447400,5.321447509765625,-1.0357903241813182,-0.9367296459704637,0.24931261447668074
1772623558859476500,5.3314765625,-1.3432009073615074,-0.9187699186488986,0.20827252888418732
1772623558869506300,5.34150634765625,-1.4913924039661883,-0.8769602369233965,0.1406222303941846
1772623558879536400,5.351536376953125,-1.5916881769299507,-0.8072019333034753,0.09804485223181546
1772623558889566500,5.36156640625,-1.5658891342848538,-0.7432517314404249,0.009591529285721481
1772623558899595500,5.371595458984375,-1.5092869570970535,-0.6879515767619013,-0.08418669674387201
1772623558909625600,5.38162548828125,-1.4047744432210922,-0.6325844943270087,-0.09315454117329791
1772623558919655700,5.39165576171875,-1.3140262508034706,-0.6182435420244932,0.008796816977765411
1772623558929684500,5.4016845703125,-1.1391501608908177,-0.5964385374516248,0.0672888447664678
1772623558939714300,5.41171435546875,-0.920803762564063,-0.4571554467067122,-0.018914799556694922
1772623558949744400,5.421744384765625,-0.7472767491728067,-0.3048044923350215,-0.1298554833166301
1772623558959774500,5.4317744140625,-0.6643091276288032,-0.25776392421871425,-0.1950762896373868
1772623558969803500,5.441803466796875,-0.6689923170089721,-0.3226242266640067,-0.19779069969523697
1772623558979833300,5.451833251953125,-0.7798369565159082,-0.41970249888598915,-0.14155487160179764
1772623558989863400,5.461863525390625,-0.8930553394168614,-0.45991146741658445,-0.16890388363525272
1772623558999892500,5.471892578125,-1.0754437046557663,-0.3670478902801871,-0.31095906944200397
1772623559009922600,5.481922607421875,-1.375194128471613,-0.1856514586880803,-0.4884808880904689
1772623559019952600,5.49195263671875,-1.5444289976269006,-0.09749942024350165,-0.5935504878599196
1772623559029982500,5.501982421875,-1.4900626166671513,-0.03915887495577335,-0.5960154166687279
1772623559040011500,5.512011474609375,-1.3871329880684613,0.14770488213151692,-0.4750470406955108
1772623559050041300,5.522041259765625,-1.1499258219271897,0.37056934240460393,-0.28119989099428055
1772623559060071400,5.532071533203125,-0.7090642151564359,0.6192290459305048,-0.20343159165903923
1772623559070100500,5.5421005859375,-0.18433014695644379,0.8820420702323317,-0.2508692328015342
1772623559080130300,5.55213037109375,0.2479810736119747,1.1026441385313868,-0.36319804645162074
1772623559090160400,5.562160400390625,0.5474877517998218,1.2679793698996304,-0.44376171212643384
1772623559100189400,5.572189453125,0.8311842819154263,1.326529027893394,-0.40597109331656245
1772623559110219500,5.582219482421875,0.9746136786848306,1.2912217137992381,-0.3127117583282292
1772623559120249600,5.59224951171875,1.006902083349228,1.1883546290427445,-0.26336092224186286
1772623559130279400,5.602279541015625,1.1029799463570118,1.0842672087110579,-0.34544732223823665
1772623559140308500,5.61230859375,1.1802706913083791,1.0489860519714653,-0.5010300250727683
1772623559150338300,5.62233837890625,1.1437807433009146,1.0413234083890914,-0.736717507366091
1772623559160368400,5.632368408203125,0.9275842164844273,0.9607935353860259,-0.9952476667169481
1772623559170397400,5.6423974609375,0.6811790138870477,0.7873717359349132,-1.2027614861883222
1772623559180427500,5.652427490234375,0.5208651178121566,0.6907356545224785,-1.3182922376848756
1772623559190457300,5.662457275390625,0.3362561539143324,0.6614142829701304,-1.364112616356462
1772623559200487400,5.6724873046875,0.17946458674669263,0.6111266957566142,-1.304163028436899
1772623559210516500,5.6825166015625,0.1403232474476099,0.5426818128228187,-1.113746328108385
1772623559220546600,5.692546630859375,0.10223170946240424,0.5030439221784472,-0.8252025040920823
1772623559230576600,5.70257666015625,0.12460603835582733,0.5210553796872496,-0.515609827632457
1772623559240605400,5.71260546875,0.2789946360349655,0.5883300497978925,-0.3363499696776271
1772623559250635300,5.72263525390625,0.45949148843884463,0.72917995146811,-0.295902278754022
1772623559260665300,5.732665283203125,0.6432336063742637,0.8896268262729048,-0.2063402091147378
1772623559270695400,5.7426953125,0.8786176487416029,1.002942239807546,-0.027258812999352813
1772623559280724500,5.752724365234375,1.1668816329032181,1.0494237127363681,0.029737697268277404
1772623559290754600,5.762754638671875,1.4069254837751388,1.0362284233376384,0.020600104028824714
1772623559300784400,5.772784423828125,1.5541870060533285,0.9121373487666249,-0.004610906170314411
1772623559310813400,5.7828134765625,1.6561656175374984,0.7462570507362485,-0.016272042521036926
1772623559320843500,5.792843505859375,1.7606956670701503,0.5671667041294276,-0.030824049466568974
1772623559330873600,5.80287353515625,1.7701152373224496,0.3945832551985979,-0.08148328300407155
1772623559340903400,5.8129033203125,1.7129174323290586,0.2447488136924803,-0.21260916984900832
1772623559350932500,5.822932373046875,1.5971008496284484,0.09501637125611305,-0.3181780609101057
1772623559360962300,5.83296240234375,1.4823720621645449,-0.08656696121022105,-0.3606068974472582
1772623559370992400,5.842992431640625,1.329258891248703,-0.23000483354702592,-0.42220301046483216
1772623559381021400,5.853021484375,1.1687380744248628,-0.3500869647376239,-0.4614339642761275
1772623559391051500,5.863051513671875,0.9133838416963815,-0.4651004143618047,-0.4208868498323485
1772623559401081600,5.87308154296875,0.6565835018128157,-0.5566742439486086,-0.4180001884801313
1772623559411110400,5.8831103515625,0.5229617978304624,-0.5684336553253233,-0.5286852169785649
1772623559421140500,5.893140380859375,0.3669096508532762,-0.5199320747457444,-0.6561646918788552
1772623559431170600,5.903170654296875,0.22058219455480574,-0.5073356280229986,-0.7045249642916024
1772623559441200400,5.913200439453125,0.10510288098454475,-0.5424724078558385,-0.6467647031098603
1772623559451229400,5.9232294921875,0.015487491989135741,-0.5338857812963426,-0.5789539168285206
1772623559461259300,5.93325927734375,-0.12432137619554996,-0.4842496437288821,-0.5068220159450546
1772623559471289300,5.943289306640625,-0.1454243699789047,-0.4471474090419709,-0.531376063497737
1772623559481318400,5.953318359375,-0.16897417239248752,-0.4489524126373231,-0.5959053073577583
1772623559491348500,5.963348388671875,-0.1375210495084524,-0.4634628762878477,-0.5544587233236059
1772623559501378600,5.973378662109375,-0.06637421413958072,-0.5046868670798837,-0.48135545665733515
1772623559511408600,5.98340869140625,0.01962766053378582,-0.6126984751179814,-0.43691199236214157
1772623559521436700,5.993436767578125,0.08424421735107898,-0.7740252014972269,-0.3657806468233466
1772623559531466800,6.003466796875,0.09353753087520598,-0.9656443364180624,-0.31067564939074216
1772623559541496800,6.013496826171875,0.08999065204858779,-1.1258715771228074,-0.2664860502587631
1772623559551525600,6.023525634765625,0.20433073245584962,-1.2826647517256438,-0.23757373443134128
1772623559561555700,6.0335556640625,0.26270284192562104,-1.408931855161488,-0.22088888588380068
1772623559571585500,6.04358544921875,0.18097908296287057,-1.4866443326562642,-0.16572021209783852
1772623559581615600,6.05361572265625,0.009193944802880287,-1.5804111422426999,-0.022461605318076908
1772623559591644700,6.063644775390625,-0.23789281031787393,-1.6751961889609694,0.12048219989147037
1772623559601674800,6.0736748046875,-0.46328094384968277,-1.7167793684542179,0.19385167974587528
1772623559611704600,6.08370458984375,-0.6500023698568343,-1.661880049661547,0.12089984078165143
1772623559621733600,6.093733642578125,-0.7630605937600136,-1.519261823144555,0.08783756566792726
1772623559631763700,6.103763671875,-0.8220446976482868,-1.4237073994889855,0.24955285297334193
1772623559641793800,6.113793701171875,-0.8425695992827414,-1.363919139610976,0.471534612127766
1772623559651823900,6.123823974609375,-0.8463198917269706,-1.1851090712502599,0.5414052170157432
1772623559661852700,6.133852783203125,-0.83695877366364,-0.9458798977620899,0.4386600781384855
1772623559671882800,6.1438828125,-0.934138460433483,-0.7448034909270703,0.34519751219563183
1772623559681912600,6.15391259765625,-1.0473007292330265,-0.6090269469983876,0.29660058148279783
1772623559691941600,6.163941650390625,-1.120132156687975,-0.5828942884847521,0.2870809118568897
1772623559701971700,6.1739716796875,-1.2914186976760624,-0.6390260716818272,0.3290678498454392
1772623559712001800,6.184001708984375,-1.5872779592722654,-0.6150554135076701,0.3146695413324982
1772623559722031600,6.194031494140625,-1.9678443795561789,-0.47427185507193204,0.12585720746070145
1772623559732060700,6.204060791015625,-2.4091876323640347,-0.25521745460629464,-0.11068667246624826
1772623559742090800,6.2140908203125,-2.855376571637392,-0.047356356067210434,-0.31093809971921144
1772623559752120800,6.224120849609375,-3.228931067332625,0.1410099145375192,-0.490344088146463
1772623559762150000,6.23414990234375,-3.354246715262532,0.38053763258084655,-0.6492256133306771
1772623559772179700,6.2441796875,-3.135491151612997,0.7134552897222339,-0.695514705492556
1772623559782209500,6.25420947265625,-2.700972776389122,1.089939555259049,-0.7115751019988209
1772623559792238600,6.264238525390625,-2.131397695943713,1.4306598489753901,-0.7597705392386764
1772623559802268700,6.2742685546875,-1.5421172135531902,1.6471017288550733,-0.7262889062017202
1772623559812298800,6.284298828125,-0.9722510412067175,1.7544291540212928,-0.5917133355606347
1772623559822328800,6.294328857421875,-0.25138708266317844,1.8120901926122606,-0.38631840793937444
1772623559832357600,6.304357666015625,0.427386623647809,1.7937819441139697,-0.11991276597306132
1772623559842387700,6.3143876953125,0.8831786730468273,1.6746236497700213,0.11532419607378541
1772623559852417800,6.324417724609375,1.1491852326929568,1.5834762289017439,0.20826171522922812
1772623559862447600,6.334447509765625,1.30367670622468,1.5031825027421115,0.13997976777218282
1772623559872477000,6.344476806640625,1.3393839794218538,1.4337652676448225,0.06765183285996318
1772623559882506500,6.354506591796875,1.2666437373816966,1.343919284763932,0.11559387986063957
1772623559892536600,6.36453662109375,1.1265274106830359,1.2045163670316337,0.18358385863378643
1772623559902565600,6.374565673828125,0.9525696046590805,1.0831222764596342,0.19365363642312586
1772623559912595700,6.384595703125,0.7417828279316425,1.0147186023190617,0.09981047366484999
1772623559922625800,6.394625732421875,0.5936790096104144,1.0286407446876167,-0.046672976912930604
1772623559932654600,6.404654541015625,0.5406675503909587,1.099126193538308,-0.09670739308297634
1772623559942684700,6.4146845703125,0.5426461569875478,1.1716744201377034,-0.05603365658484399
1772623559952714800,6.42471484375,0.6354986282080411,1.1774766766756772,0.007637070749700069
1772623559962744800,6.434744873046875,0.7595762587755918,1.1736118179410695,0.04951477621011436
1772623559972774000,6.44477392578125,0.9015823447436093,1.1515288732096551,0.12206366039663552
1772623559982803700,6.4548037109375,1.1199538775116205,1.1274696599692107,0.13631291582770644
1772623559992833500,6.46483349609375,1.3958534701406955,1.0969263454064726,0.13981281370744109
1772623560002862600,6.474862548828125,1.6422855607450006,1.0293263888642192,0.18904935749806462
1772623560012892700,6.484892578125,1.7731401381015777,0.8808765335842966,0.2296180261865258
1772623560022922800,6.4949228515625,1.822273294582963,0.6280588335961103,0.2275468459356576
1772623560032952800,6.504952880859375,1.837321810632944,0.38384967973828316,0.23648813115172088
1772623560042981600,6.514981689453125,1.8030834409445524,0.2021972275584936,0.218412741561234
1772623560053011700,6.52501171875,1.7421014412373304,0.06570756692439317,0.22495156874544917
1772623560063041800,6.535041748046875,1.6194553047776221,-0.07747340804189443,0.2590445386137813
1772623560073070800,6.54507080078125,1.5049100571870804,-0.20423750121444462,0.35028723655007776
1772623560083100700,6.5551005859375,1.4423662149906158,-0.2811681806817651,0.34686767389755696
1772623560093130500,6.565130615234375,1.3698539364874363,-0.2959937016308308,0.23481172237209974
1772623560103160600,6.57516064453125,1.2887865956068039,-0.2839458287015557,0.1915038014454767
1772623560113189600,6.585189697265625,1.1985212182700633,-0.2951318241044879,0.20635650266241282
1772623560123219700,6.5952197265625,1.1559592568725348,-0.3272930952578783,0.21832338277734814
1772623560133249800,6.605249755859375,1.1307394754201172,-0.3416930842712521,0.22318686062786727
1772623560143278600,6.615278564453125,1.121235734015703,-0.35304742197841404,0.2213273138336837
1772623560153308700,6.62530859375,1.1237205365687608,-0.3412725207716226,0.28932459913045167
1772623560163338800,6.6353388671875,1.072027758732438,-0.33742052151858803,0.3668850644012913
1772623560173368600,6.64536865234375,1.0295891314536332,-0.3534174243345857,0.4182187266016379
1772623560183398000,6.65539794921875,0.9951987860739231,-0.3543395076155662,0.4794233560835942
1772623560193427700,6.665427734375,0.9567501052141189,-0.35168607049733397,0.5044509759647772
1772623560203457500,6.67545751953125,0.9493208319962024,-0.3954509779438376,0.5475777681708336
1772623560213486600,6.685486572265625,0.8796522524863482,-0.5093740019828081,0.6044895227644592
1772623560223516700,6.6955166015625,0.7935124306470155,-0.6376973072960972,0.6419554761972278
1772623560233546800,6.705546630859375,0.692846070805192,-0.7273074355944991,0.7064888117104768
1772623560243575800,6.715575927734375,0.5474509269207716,-0.8445303779616952,0.7229826311979443
1772623560253605600,6.725605712890625,0.43435120196342464,-0.9711316817879676,0.6981184582501649
1772623560263635700,6.7356357421875,0.3014420301645994,-1.054018931572139,0.6212036339391023
1772623560273665800,6.745665771484375,0.12389467521607875,-1.1409838060587645,0.5826875138662755
1772623560283694800,6.75569482421875,-0.08377017009854316,-1.2368319519639015,0.5850343692533672
1772623560293724700,6.765724609375,-0.3353887234300375,-1.3155199964925646,0.563183662375249
1772623560303754800,6.775754638671875,-0.6439870550900697,-1.3455708513632416,0.49710795625820753
1772623560313783600,6.785783447265625,-0.9207780436009169,-1.2730445443347096,0.34127358021754767
1772623560323813600,6.795813720703125,-1.172596503418684,-1.1104369843646884,0.18715346074886618
1772623560333843700,6.80584375,-1.2918605962246656,-0.9302139804661274,0.08594170545134693
1772623560343873800,6.815873779296875,-1.2861392959684133,-0.7402969732880592,0.01925400263251504
1772623560353902800,6.82590283203125,-1.2058709965109824,-0.6422697297781705,0.071201013241522
1772623560363932700,6.8359326171875,-1.0965379306107759,-0.6413803797230124,0.1708443684448488
1772623560373962800,6.845962646484375,-0.9772942960709333,-0.6490516450032592,0.3211931344149634
1772623560383991800,6.85599169921875,-0.8500777829557656,-0.6050102587029338,0.4360230076331645
1772623560394021600,6.866021728515625,-0.7162649403154849,-0.49558250025659795,0.466572751936689
1772623560404051700,6.8760517578125,-0.6724474258989095,-0.4174290009960532,0.5437326735826209
1772623560414081800,6.886081787109375,-0.7146376313745975,-0.4812073534235358,0.675491542835161
1772623560424110600,6.896110595703125,-0.7788046908587217,-0.6002966741845012,0.7316418846022337
1772623560434140700,6.906140625,-0.8599795837670564,-0.6640156976401805,0.6821935977570712
1772623560444170800,6.916170654296875,-0.9312573520392179,-0.6559098403349518,0.597405519320257
1772623560454199800,6.92619970703125,-1.0766115793913602,-0.6046992930576205,0.4861416680205613
1772623560464230000,6.93622998046875,-1.201643734204769,-0.5702329598322511,0.325022593042627
1772623560474259700,6.946259765625,-1.3431091374248265,-0.5361205546110868,0.17947262392267585
1772623560484289500,6.95628955078125,-1.5234031607329845,-0.48198126040548084,0.07304423908856697
1772623560494318800,6.96631884765625,-1.6282301473855971,-0.39278438908308744,0.029815155551815405
1772623560504348700,6.9763486328125,-1.56958915784657,-0.21051526630967854,0.020303276506718246
1772623560514378800,6.986378662109375,-1.4032365661293267,0.05793927101045847,0.051628279499057676
1772623560524407600,6.996407470703125,-1.1665958016991615,0.3066752546429634,0.1627494343924336
1772623560534437600,7.006437744140625,-0.8892302281707525,0.5427937487646937,0.1958922639290802
1772623560544467700,7.0164677734375,-0.5450426967352628,0.7849490388326347,0.19507398808244614
1772623560554497800,7.026497802734375,-0.21565525954663753,0.9901597689934074,0.07898286275677383
1772623560564526800,7.03652685546875,0.10413140560388565,1.1660554112121462,-0.07314546184018254
1772623560574556700,7.046556640625,0.44465866096615786,1.2920738005839287,-0.13639938853476197
1772623560584586500,7.05658642578125,0.6752911248922348,1.3431748961374164,-0.21680559862554072
1772623560594615800,7.06661572265625,0.84874565756917,1.3495581674337387,-0.39340029249172653
1772623560604645600,7.076645751953125,0.9439315401732921,1.3402154618099331,-0.6760439160209148
1772623560614675700,7.08667578125,0.9315320773273705,1.2967384313941002,-0.8816616926126182
1772623560624704500,7.09670458984375,0.8582172502696513,1.216265549275279,-0.966297466564551
1772623560634734600,7.106734619140625,0.8506687345862388,1.1471604488670826,-0.9919069779869168
1772623560644764700,7.1167646484375,0.8702478798031806,1.0772066226750612,-1.0474689254067837
1772623560654794800,7.126794677734375,0.8624024269998073,1.0256266575634478,-1.1199427715957164
1772623560664823800,7.13682373046875,0.7334820325762033,0.9681520814552903,-1.164757772617042
1772623560674854000,7.14685400390625,0.588420650690794,0.8758210037603974,-1.1121387467812747
1772623560684883700,7.1568837890625,0.4416343447089195,0.7915195032641291,-0.9529168106615543
1772623560694912800,7.166912841796875,0.4006809875518083,0.7544163917943835,-0.7435887813750655
1772623560704942600,7.176942626953125,0.4517202699154615,0.8058972804456949,-0.5397874065555632
1772623560714972700,7.18697265625,0.5103782105892897,0.934472514693439,-0.3252948341127485
1772623560725002800,7.197002685546875,0.6256430046260356,1.0769441723465918,-0.13262534988876432
1772623560735031600,7.207031494140625,0.7579875282794236,1.1902435115292667,0.003654284723848104
1772623560745061600,7.2170615234375,0.9040823448657989,1.2852809255734086,0.10931231537312268
1772623560755091700,7.227091796875,1.0459019683510065,1.3389479260921477,0.1325591162521392
1772623560765120800,7.237120849609375,1.1657213569521903,1.294131171505153,0.07045994908325373
1772623560775150800,7.24715087890625,1.1829179909467697,1.149805994939804,-0.03557356381490826
1772623560785181000,7.257180908203125,1.189385141134262,0.971940367822349,-0.04681205659005791
1772623560795210500,7.26721044921875,1.236249183639884,0.7920695383623242,0.05130523982346057
1772623560805239600,7.277239501953125,1.3419137901604175,0.6014768238797783,0.15428718313127754
1772623560815269600,7.28726953125,1.4119324982821941,0.37939211580753324,0.11158175814244896
1772623560825299700,7.2972998046875,1.3866022421926258,0.15461509991139172,0.01701641858946532
1772623560835328800,7.307328857421875,1.3023042488276957,-0.09197422708123922,-0.0775137400522828
1772623560845358600,7.317358642578125,1.2336626742780208,-0.33460546409785746,-0.16217614628281443
1772623560855388700,7.327388671875,1.0903355688393115,-0.4814031682565808,-0.266658593814075
1772623560865418800,7.337418701171875,0.9396505018532275,-0.5981739829421043,-0.31279044958762825
1772623560875447800,7.34744775390625,0.8298603398352861,-0.7024184935316443,-0.31248817870542406
1772623560885478000,7.357477783203125,0.7133002452909946,-0.7487891995623708,-0.33605032914392646
1772623560895507700,7.3675078125,0.5496732791453599,-0.7908050713844597,-0.383288538724184
1772623560905536800,7.377536865234375,0.4609375955939293,-0.8329846093356609,-0.46646523644160476
1772623560915566600,7.387566650390625,0.3897288009047508,-0.86717636340335,-0.5337898466411978
1772623560925596700,7.3975966796875,0.318334128254652,-0.8880522704325616,-0.647973421312496
1772623560935626800,7.407626708984375,0.24094576814770696,-0.9342343220233916,-0.7012384169016033
1772623560945655600,7.417655517578125,0.18551555734872818,-1.0020651647120713,-0.6618325083822012
1772623560955685600,7.427685546875,0.17953765198290347,-1.0844044252246618,-0.587338335346803
1772623560965715700,7.4377158203125,0.227907422876358,-1.1649014188714324,-0.5168018138960003
1772623560975744800,7.447744873046875,0.3085422175586223,-1.2230325591921805,-0.4507006445441395
1772623560985774800,7.45777490234375,0.3357973042309284,-1.278117755945772,-0.4069523229062557
1772623560995804700,7.4678046875,0.3215080821156502,-1.3265401338092981,-0.37368718216419217
1772623561005834800,7.477834716796875,0.2719529008299112,-1.3836658964797854,-0.3317676103234291
1772623561015863600,7.487863525390625,0.15595102469027042,-1.4369818916037678,-0.32670492010638114
1772623561025893600,7.4978935546875,0.029725276178121565,-1.4645860839746891,-0.33656112821027634
1772623561035923700,7.507923828125,-0.15527531738579273,-1.4270448733486234,-0.27228410554565485
1772623561045952800,7.517952880859375,-0.39574470019340513,-1.357530461487174,-0.21270546983033417
1772623561055982600,7.527982666015625,-0.6455629261046648,-1.320660866512358,-0.21071232325173914
1772623561066012700,7.5380126953125,-0.8322241463571787,-1.2606503421857953,-0.15780556651577352
1772623561076042800,7.548042724609375,-1.0283359165221453,-1.1323805206254125,-0.06568798544108867
1772623561086071800,7.55807177734375,-1.1038491304069757,-0.9979632823511958,0.004177577945590019
1772623561096102000,7.568101806640625,-1.0749988834977149,-0.8999375001460314,0.10671908400952815
1772623561106131700,7.578131591796875,-1.0249673168718814,-0.8097191768214106,0.304808145596832
1772623561116160500,7.588160400390625,-0.9099982909113168,-0.725539549139142,0.48041393802352245
1772623561126190600,7.598190673828125,-0.8081289850205182,-0.6339709802493453,0.5453031743023544
1772623561136220700,7.608220703125,-0.7919681238144636,-0.5094871069684624,0.48323988216444846
1772623561146250800,7.618250732421875,-0.74277593062222,-0.3684074881955981,0.42072796947620805
1772623561156279800,7.62827978515625,-0.6821668558806181,-0.30909634431004523,0.5201689522415399
1772623561166309600,7.6383095703125,-0.6390145273745059,-0.4141124237939715,0.6779117557194083
1772623561176339700,7.648339599609375,-0.6350397785246372,-0.5762739935621619,0.7783305705409497
1772623561186368800,7.65836865234375,-0.6375409476906061,-0.7108870466694235,0.8860708873569965
1772623561196398800,7.66839892578125,-0.7169248655289411,-0.709453798995912,0.8504976158030331
1772623561206428700,7.6784287109375,-0.9227624954164028,-0.5138379956543445,0.58124316027686
1772623561216458800,7.688458740234375,-1.2274205650180579,-0.17615882319957016,0.18246544906310735
1772623561226487600,7.698487548828125,-1.4736170933008192,0.09760872583687305,-0.10891980892419814
1772623561236517600,7.708517578125,-1.5632026716798544,0.2096145180776715,-0.09219137696325778
1772623561246547700,7.718547607421875,-1.4716273807883262,0.28411212517917156,0.06981587902605534
1772623561256576800,7.72857666015625,-1.2259481543779371,0.4309261959508061,0.21666779759004712
1772623561266606800,7.73860693359375,-0.9678121819764375,0.6338736573547125,0.3005292992338538
1772623561276636700,7.74863671875,-0.7644751367330551,0.8238491167217492,0.3291428878430277
1772623561286665700,7.758665771484375,-0.5506827484488487,0.9260095145136117,0.29633338191397485
1772623561296695800,7.76869580078125,-0.4255056322067976,0.9427873385742306,0.2576625096708536
1772623561306725600,7.7787255859375,-0.46925417304038997,0.9566475216224789,0.2406915741909295
1772623561316755700,7.788755615234375,-0.6337818874180317,0.955241161955893,0.23766616195514798
1772623561326784500,7.798784423828125,-0.7858452570199966,1.0409759101256728,0.2082494402695447
1772623561336814600,7.808814697265625,-0.8286562247425318,1.2214578572213648,-0.020011618350073694
1772623561346844700,7.8188447265625,-0.9310995311290026,1.3913976597756146,-0.3420280883792788
1772623561356874800,7.828874755859375,-0.9248089065521955,1.4710484118565916,-0.5115714389618485
1772623561366903800,7.83890380859375,-0.7603881596803664,1.519442440408468,-0.5114478856474161
1772623561376934000,7.848933837890625,-0.5149725526422262,1.5672937403857707,-0.432205349041149
1772623561386963700,7.858963623046875,-0.1849777972102165,1.6416481396242975,-0.38837417142540215
1772623561396992800,7.86899267578125,0.1974175920665264,1.6834505148261785,-0.3702859223533422
1772623561407022600,7.879022705078125,0.6084340956717729,1.6770996844947337,-0.35052002239264546
1772623561417052700,7.889052734375,0.978322470074892,1.615441977483034,-0.32595205591246484
1772623561427081500,7.89908154296875,1.3334563429385422,1.4878993011534214,-0.2827962202750146
1772623561437111600,7.909111572265625,1.687190870398283,1.3072598254084586,-0.21848456468842922
1772623561447141600,7.9191416015625,2.0122586908221245,1.1379229571834206,-0.15982435899227856
1772623561457171700,7.929171630859375,2.2389310189455744,0.9767603353247046,-0.11738682769201696
1772623561467200800,7.93920068359375,2.3495821817070244,0.8422323301523923,-0.03674932959601283
1772623561477230800,7.94923095703125,2.4156723182082174,0.7296440618485212,0.008493541448563336
1772623561487261000,7.959260986328125,2.4977830306619406,0.6268240311041474,0.014235299970954655
1772623561497289700,7.969289794921875,2.494853991472721,0.4746083935499191,-0.019185835050418973
1772623561507319800,7.97931982421875,2.4499101033747195,0.3200280726909637,0.0038768414333462714
1772623561517349600,7.989349609375,2.3003835587739943,0.18720599465370177,0.039468744622543454
1772623561527378700,7.999378662109375,2.2101900776296852,0.05532616590261459,0.11991430034302174
1772623561537408800,8.00940869140625,2.1123381906867027,-0.07740531124174595,0.15850691971816122
1772623561547437800,8.019437744140625,1.9103736028403042,-0.17657997122108934,0.22809943831712007
1772623561557468000,8.029468017578125,1.6979641933470964,-0.26401538582891226,0.2927913984581828
1772623561567497700,8.039497802734376,1.5075146867275238,-0.29864217031300067,0.3127558897309005
1772623561577526800,8.04952685546875,1.3207085050463676,-0.28320085555315017,0.314675021225214
1772623561587556900,8.059556884765625,1.153360472550988,-0.25975977421104907,0.3559161092825234
1772623561597587000,8.0695869140625,1.0324719934135675,-0.27685119426548477,0.3926784444905817
1772623561607617000,8.079616943359374,0.9348679437518119,-0.3026221798598766,0.46864115570858117
1772623561617645800,8.089645751953125,0.8135054173618554,-0.3261439252227545,0.5483461221948266
1772623561627675600,8.099675537109375,0.7027735905796288,-0.35697131742388005,0.6061092329207808
1772623561637705700,8.109705810546876,0.655989627572894,-0.3978554087370634,0.6561651302702725
1772623561647734800,8.11973486328125,0.6717226187556982,-0.46625908287763596,0.673671999257803
1772623561657764900,8.129764892578125,0.6907704335749149,-0.5366869563221931,0.686807448228076
1772623561667795000,8.139794921875,0.7143547227799892,-0.6277233180314302,0.7426902251001447
1772623561677824800,8.14982470703125,0.6711211457312106,-0.7605059408411383,0.7820826896160841
1772623561687853800,8.159853759765625,0.5495955377340317,-0.9202738934710621,0.7916947137005627
1772623561697884000,8.1698837890625,0.37187224169671534,-1.0568141152486203,0.7613429761871695
1772623561707914000,8.1799140625,0.14626900410950183,-1.1511284757152198,0.7027210566747933
1772623561717942800,8.18994287109375,-0.10016542458236218,-1.1939721766635776,0.6235635680034757
1772623561727972900,8.199972900390625,-0.3856149358451366,-1.2218608850643038,0.5039050690524279
1772623561738002700,8.210002685546876,-0.7565045962452888,-1.2295476401746273,0.34793113841060547
1772623561748032800,8.22003271484375,-1.0877864688783883,-1.2081135147407651,0.1609459834333509
1772623561758061800,8.230061767578125,-1.3432044144928454,-1.09087011410743,-0.05877093606162816
1772623561768092000,8.240091796875,-1.5129571700423956,-0.8878326363325119,-0.19862009972408412
1772623561778121700,8.250121826171876,-1.574768021789193,-0.7002195221826434,-0.18985278283543883
1772623561788150800,8.26015087890625,-1.5074293465316295,-0.5792921723395585,-0.12237926568444818
1772623561798180900,8.270180908203125,-1.3787830928742886,-0.5291317186370492,-0.0522404017817229
1772623561808211000,8.2802109375,-1.2346873411506414,-0.4883715459644794,0.07343395992536098
1772623561818240800,8.29024072265625,-1.0672206507116555,-0.41778439030498266,0.1810150310590863
1772623561828269800,8.300269775390625,-0.8975012129098177,-0.3192646871030331,0.15017598495278506
1772623561838299600,8.310299560546875,-0.7815145343393087,-0.2049704916641116,0.07266293902024626
1772623561848329700,8.320329833984376,-0.7335562668561935,-0.1938368109703064,0.07009104270562529
1772623561858358800,8.33035888671875,-0.756549019908905,-0.3276239346474409,0.16293354052137582
1772623561868388900,8.340388916015625,-0.9188608118027448,-0.4844587564349174,0.2675885681405663
1772623561878419000,8.3504189453125,-1.2442840215355158,-0.4598901323676109,0.21093396664578468
1772623561888448800,8.36044873046875,-1.829149025571346,-0.29706717608124017,-0.020910174624994397
1772623561898477800,8.370477783203125,-2.5462878261119126,-0.14736819752305746,-0.22766101036723702
1772623561908508000,8.3805078125,-3.0956799502283334,-0.028050913225114344,-0.30723533621113747
1772623561918537700,8.390537841796874,-3.5164860264420508,0.1698018553882837,-0.2692106346507557
1772623561928567000,8.400567138671875,-3.5581770502239465,0.3551256895571947,-0.10207134040207602
1772623561938596600,8.4105966796875,-3.1001258237212896,0.6278920987270772,-0.06855748559595086
1772623561948626700,8.420626708984376,-2.4547633886247873,1.01096392596066,-0.10864954061545432
1772623561958656800,8.43065673828125,-1.6213140843868254,1.381647396264225,-0.09026802595155313
1772623561968685800,8.440685791015625,-0.8005342921078205,1.68977460328117,-0.06605038901269436
1772623561978716000,8.4507158203125,-0.11325111612677574,1.8808020559191703,-0.08679050430040806
1772623561988746000,8.46074609375,0.5036275672852992,1.882657182266563,-0.07144187279269099
1772623561998774800,8.47077490234375,1.0293477239131927,1.8031239190854131,-0.05094064429476857
1772623562008804900,8.480804931640625,1.3195230946540832,1.6632634668439625,-0.10578552948646247
1772623562018835000,8.4908349609375,1.4358184007823467,1.4980264351531862,-0.3096043668974191
1772623562028864800,8.50086474609375,1.5534621989101172,1.3455726049289107,-0.5203389019809663
1772623562038893800,8.510893798828125,1.573436480924487,1.1607231102734803,-0.7013337670348584
1772623562048923600,8.520923583984375,1.470851720240712,0.9611407413884997,-0.9475412551030516
1772623562058953700,8.53095361328125,1.2828987066119908,0.7510548064067959,-1.2500325020596383
1772623562068982800,8.540982666015625,1.1030378140240906,0.5557043760031461,-1.478752118101716
1772623562079012900,8.551012939453125,0.9825362883776426,0.40178485714048146,-1.5553487433090805
1772623562089043000,8.56104296875,0.9279735080629586,0.2564411511823535,-1.518029066479206
1772623562099073000,8.571072998046875,0.8994850802034139,0.13064122686684132,-1.360132899070531
1772623562109101800,8.581101806640625,0.8146803063601255,0.10145341856628656,-1.0775322744328528
1772623562119132000,8.5911318359375,0.8708867622286081,0.15014759910851716,-0.8460228084765374
1772623562129161700,8.60116162109375,0.9339309551626443,0.30655542765557764,-0.7738806784600019
1772623562139193900,8.61119384765625,0.8951537730008363,0.7645569697976112,-0.4588153062103316
1772623562149223000,8.621222900390626,1.0107172577232122,0.8446408525988459,-0.3271742911837995
1772623562159253000,8.6312529296875,1.0884551619201899,0.9135162359043956,-0.3725134256770834
1772623562169282800,8.64128271484375,1.1929542317926882,0.9388520449519157,-0.4461942365029827
1772623562179311900,8.651311767578125,1.329419050246477,0.8815741604596375,-0.5439278673611581
1772623562189341700,8.661341796875,1.420526723626256,0.7570718747392297,-0.6030940132854506
1772623562199371800,8.671371826171875,1.488955532208085,0.5501400198742747,-0.5536703494248911
1772623562209401900,8.68140185546875,1.5621557929754257,0.3191381381139159,-0.4730765808727592
1772623562219431000,8.691430908203126,1.510983239620924,0.130123340472579,-0.4675272761825472
1772623562229460700,8.701460693359374,1.391654264885187,-0.03694324473291635,-0.5550957791181281
1772623562239490800,8.71149072265625,1.3359873227208852,-0.22880144910663364,-0.6407932274848223
1772623562249519900,8.721519775390625,1.3265665834248066,-0.37050796760618687,-0.6655790014341473
1772623562259550000,8.731550048828124,1.25839379543066,-0.42239276088327166,-0.648174423777312
1772623562269579800,8.741579833984375,1.1591221048176288,-0.45528877605199813,-0.653728550773114
1772623562279609900,8.75160986328125,1.0310036744266748,-0.5424214083209633,-0.7171152735345065
1772623562289638700,8.761638671875,0.9197188899368047,-0.6750970636248588,-0.7404704301588236
1772623562299668700,8.771668701171874,0.8278501690566539,-0.7452543034344911,-0.680256857540831
1772623562309698800,8.78169873046875,0.7315811673909425,-0.7478118789628148,-0.6214590700048953
1772623562319727900,8.791727783203125,0.6269394741773605,-0.7284595282390713,-0.5352928716152906
1772623562329758000,8.801758056640624,0.5559095431864262,-0.6722533646315336,-0.4770144317783415
1772623562339787800,8.811787841796875,0.49603287437260146,-0.5620746416874229,-0.4522054961491376
1772623562349817900,8.82181787109375,0.4847539399892091,-0.4833649698488414,-0.36646135909650474
1772623562359847000,8.831846923828126,0.5560375534802675,-0.5211642468892037,-0.3476937494581565
1772623562369876700,8.841876708984374,0.5071580794990063,-0.5917290445864201,-0.3495419711407274
1772623562379906800,8.85190673828125,0.44824061110615726,-0.6977062241874635,-0.29726887266580015
1772623562389935600,8.861935546875,0.38447219555079937,-0.8374607318364083,-0.13314393040277064
1772623562399965700,8.871965576171876,0.2703226692795753,-0.9182812583491206,0.0700709132330492
1772623562409995800,8.881995849609375,0.1930301707625389,-0.9140203860342502,0.10895754711870104
1772623562420025900,8.89202587890625,0.07313479431569576,-0.85449457648471,0.10986713624428956
1772623562430055000,8.902054931640626,-0.09102876292467117,-0.8137007938034831,0.12945336878914385
1772623562440085000,8.9120849609375,-0.3066097881913185,-0.8628891876034438,0.09926189987137914
1772623562450114800,8.92211474609375,-0.537144052439928,-0.9210185743585229,0.028017449346929787
1772623562460143900,8.932143798828125,-0.7845926266103982,-0.9607613866820931,-0.06318630481846631
1772623562470174000,8.942174072265624,-0.9859621711730956,-0.9471224451690912,-0.04780662058535963
1772623562480203800,8.952203857421875,-1.0713181491583585,-0.9133777042165399,-0.05399126403704285
1772623562490233900,8.96223388671875,-1.1661036342680453,-0.8140773720309138,-0.0773186558715999
1772623562500262700,8.9722626953125,-1.2048621117293834,-0.7071732868432998,-0.05728592166826128
1772623562510292700,8.982292724609374,-1.1448404814869164,-0.6725272131368517,0.014341281096078455
1772623562520323800,8.99232373046875,-1.0074141245245933,-0.6960664941564202,0.13988693838957697
1772623562530353700,9.002353759765626,-0.8528449095815419,-0.693052991554141,0.1648749203801155
1772623562540383000,9.012383056640624,-0.7143167288571596,-0.6560203149721026,0.18036387367397547
1772623562550412800,9.022412841796875,-0.650764001879096,-0.6473214602097869,0.28950591051410884
1772623562560443000,9.03244287109375,-0.6586234832078218,-0.7232537762895226,0.41039164970517156
1772623562570471700,9.0424716796875,-0.7261632339954376,-0.8627809049233793,0.48627800775133073
1772623562580501800,9.052501708984375,-0.8933540301024914,-0.9517297928340732,0.4932796301417052
1772623562590531800,9.06253173828125,-1.2031629065960645,-0.9066095252558588,0.36608679016306994
1772623562600561000,9.072560791015626,-1.6638029805481434,-0.6971482980437577,0.07875738343782722
1772623562610591000,9.082591064453124,-2.2085966709583995,-0.3613642916858196,-0.2960647941056639
1772623562620621000,9.09262109375,-2.53741478382647,-0.016233341920375823,-0.6044103931136429
1772623562630651000,9.10265087890625,-2.538191028895974,0.28214550128132104,-0.6749059980321676
1772623562640680000,9.112679931640624,-2.2915613698929547,0.45507440264895554,-0.4731637842321768
1772623562650709800,9.122709716796875,-1.9106120877712964,0.6050161039218306,-0.3258956495501101
1772623562660739800,9.13273974609375,-1.4107201998829841,0.8639778596229851,-0.2426653584819287
1772623562670769000,9.142768798828126,-0.9498352112591266,1.0777369301594792,-0.16842417382691055
1772623562680798700,9.152798828125,-0.5386030190765857,1.1720561129316687,-0.07122823004201054
1772623562690828800,9.162828857421875,-0.1331383043795824,1.2426334778495132,0.06904423706643283
1772623562700859000,9.17285888671875,0.24267536841928958,1.177511601858586,0.17866612984538077
1772623562710888000,9.182887939453124,0.4508475787341594,1.0729578791894019,0.23312537672035394
1772623562720918000,9.19291796875,0.567153990778327,0.9888044088616966,0.20117438731677828
1772623562730948000,9.202947998046875,0.5694271964073181,0.9417840067505836,0.08644633050523698
1772623562740977000,9.212976806640626,0.4570762439906597,0.9097437316283583,-0.035391777507215734
1772623562751006700,9.2230068359375,0.3418231403917074,0.8364464402273297,-0.17235245318654924
1772623562761036800,9.233036865234375,0.14638123231232164,0.7834566083177924,-0.23870620905999093
1772623562771067000,9.24306689453125,-0.01235270109474659,0.7632242598891258,-0.2511202849531546
1772623562781096000,9.253095947265624,-0.025877953100204465,0.8150736895918845,-0.2523475982584059
1772623562791125800,9.263125732421875,0.050711365583539,0.9372408103629947,-0.2825806412955746
1772623562801155800,9.27315576171875,0.1745031649470329,1.0345347711622714,-0.29586419349964704
1772623562811186000,9.28318603515625,0.35209377451539037,1.0738421146780253,-0.27378194288797675
1772623562821215000,9.293215087890625,0.5789993268728256,1.0869950262397527,-0.24490152003616092
1772623562831245000,9.3032451171875,0.8631541221499442,1.0708587149530648,-0.20681425636727363
1772623562841275000,9.31327490234375,1.242608781799674,1.034582117435336,-0.15529508153218774
1772623562851304000,9.323303955078124,1.6188596769720316,0.9349687737777829,-0.07808028789386152
1772623562861333800,9.333333740234375,1.940208769133687,0.8207493971407414,0.019160262217745184
1772623562871363800,9.34336376953125,2.031265004587173,0.7208519758448004,0.1653611329944804
1772623562881394000,9.353393798828124,2.094305105867982,0.6401715884551405,0.2610353471048176
1772623562891423000,9.363423095703125,2.1647505149692297,0.5594032305210829,0.18555954262092708
1772623562901452800,9.373452880859375,2.106192527538538,0.4998498023122549,0.1814653321098536
1772623562911483000,9.38348291015625,1.9843039314478634,0.38094022203236816,0.18358455275353044
1772623562921512000,9.393511962890624,1.851277855271101,0.22951544259488582,0.14924984655119478
1772623562931542000,9.4035419921875,1.735988511314988,0.057309156413376326,0.14515461312681435
1772623562941571800,9.41357177734375,1.634058415147662,-0.07457593303471803,0.13014379873871804
1772623562951602000,9.423601806640624,1.556058645144105,-0.18046148882955312,0.10575546314176171
1772623562961630700,9.433630615234375,1.4611375509560107,-0.2674351311445236,0.0961893970908597
1772623562971660800,9.443660888671875,1.3267255733788013,-0.3324170141428709,0.10407357446942478
1772623562981691000,9.45369091796875,1.2336615052342415,-0.3476329957142472,0.08691887992043047
1772623562991720000,9.463719970703124,1.1492039373934269,-0.351036958938837,0.08660785947619005
1772623563001749800,9.473749755859375,1.0798697044044732,-0.36666385939866303,0.1343220160051249
1772623563011779800,9.48377978515625,1.0076742367655038,-0.3902168766826391,0.19837365068234503
1772623563021810000,9.493809814453124,0.9912895036756991,-0.4178314443171024,0.21896421969784421
1772623563031839000,9.5038388671875,0.9505810611903667,-0.4470417567104101,0.2193735859500244
1772623563041868800,9.513868896484375,0.9088204793035983,-0.5527332512378692,0.28104135769801214
1772623563051899000,9.52389892578125,0.908869579142332,-0.6782365306943655,0.3237714239377528
1772623563061927700,9.533927734375,0.8795376861959695,-0.7853264938428998,0.35578408040069043
1772623563071957800,9.543957763671875,0.8160726375013589,-0.8962471211954951,0.37558527087047694
1772623563081987800,9.55398779296875,0.6693050362199544,-0.9895406141817569,0.41349246526472266
1772623563092018000,9.564017822265624,0.4467237768024206,-1.0806608547821641,0.4019399015717208
1772623563102047000,9.574046875,0.21842589330375192,-1.1832231113731861,0.36225627208948136
1772623563112076800,9.584076904296875,0.025863340052962303,-1.276421035030484,0.3370839465079829
1772623563122107000,9.59410693359375,-0.21044307785630226,-1.3433674961000681,0.34504232163392007
1772623563132136000,9.604135986328124,-0.4384843562453985,-1.37896663274765,0.34444614583905786
1772623563142166000,9.614166015625,-0.6136825177192687,-1.3387564951732753,0.30624161246605214
1772623563152195800,9.62419580078125,-0.7612444842487573,-1.2509773816943168,0.17567896726075558
1772623563162226000,9.634225830078124,-0.908809957909584,-1.12048608469218,0.02087372420527972
1772623563172254700,9.644254638671875,-1.08354985422194,-0.9862278363719582,-0.06500115852097514
1772623563182284800,9.654284912109375,-1.2094506085634231,-0.8718786958754062,-0.06968214224432595
1772623563192315000,9.66431494140625,-1.2559966711610555,-0.7594517556130885,-0.043696445320174096
1772623563202344000,9.674343994140624,-1.24214993211627,-0.6471881892189383,0.02435400406909175
1772623563212374000,9.6843740234375,-1.1993851416230201,-0.5617340115562081,0.09541749940291047
1772623563222403800,9.69440380859375,-1.1065420227527618,-0.5068617269009351,0.17021977027310056
1772623563232434000,9.704433837890624,-1.015356023439765,-0.4854948214843869,0.19661464165318757
1772623563242463000,9.714462890625,-0.9528384847283363,-0.47850861585885285,0.17392607744513078
1772623563252492800,9.724492919921875,-0.8495984750062227,-0.4601163423389196,0.11214195844163186
1772623563262523000,9.73452294921875,-0.8381400924026966,-0.5356976530238986,0.10189778306661174
1772623563272551700,9.7445517578125,-0.8499030109107494,-0.7176379822343587,0.11982198241706937
1772623563282581800,9.754581787109375,-0.8874784160673618,-0.8103571824640036,0.043368446341669184
1772623563292611800,9.76461181640625,-1.1303034220904111,-0.7074401210859418,-0.22713145180149003
1772623563302642000,9.774641845703124,-1.590348452758789,-0.537962675346434,-0.43718383157346397
1772623563312671000,9.7846708984375,-2.015515646791458,-0.4141176844909787,-0.5311280070208013
1772623563322701000,9.794701171875,-2.277912199246883,-0.2514703770324588,-0.7045718721732497
1772623563332731000,9.80473095703125,-2.2912463125944136,-0.049415188293159,-0.8001315565258265
1772623563342760000,9.814760009765624,-2.0184651442468167,0.16485095498263835,-0.602167071166262
1772623563352789800,9.824789794921875,-1.5633073010981082,0.43500674326270816,-0.2581774186567403
1772623563362819800,9.83481982421875,-1.091349129796028,0.706671182540059,-0.07879336806666105
1772623563372850000,9.844849853515624,-0.6506511891543865,0.973811130130291,-0.02412835122020915
1772623563382878700,9.854878662109375,-0.23886954639554023,1.201326631079614,0.004240601278399117
1772623563392908800,9.86490869140625,0.08637012346386909,1.2830749399617314,0.041964803788554855
1772623563402939000,9.87493896484375,0.3753489778965711,1.2557161006540059,-0.01797916724097449
1772623563412969000,9.884968994140625,0.5930933186769485,1.2164882521152496,-0.18110402451679108
1772623563422998000,9.894998046875,0.7847212214261293,1.191471884280443,-0.3301934198092669
1772623563433028000,9.905028076171876,0.8555097448766231,1.1781658279836178,-0.37665472673289474
1772623563443057700,9.9150576171875,0.8584031282305717,1.1144333605244756,-0.33469723403453827
1772623563453087000,9.9250869140625,0.8452174834430217,1.0083771243378519,-0.3182830556545406
1772623563463116800,9.93511669921875,0.7986550542324781,0.9190802997723221,-0.3257194892656058
1772623563473147000,9.94514697265625,0.6470020189970731,0.7865268095433712,-0.40649288870096206
1772623563483175700,9.95517578125,0.4735018936127424,0.6172706053391098,-0.5178883304910734
1772623563493205800,9.965205810546875,1.333649235162139,0.752449767896533,-0.4242595411358401
1772623563503235800,9.97523583984375,2.23970434140563,1.2333251128867269,-0.014444348744908346
1772623563513266000,9.985265869140624,1.3552245226323605,1.1988447511360047,0.36090153301227834
1772623563523294700,9.995294677734375,1.271563073605299,0.8259212468206882,0.3228619078774005
1772623563533324800,10.00532470703125,0.9597019407570362,0.6158145613119006,0.0932215967938304
1772623563543354600,10.015354736328124,0.7678074960261583,0.7526824076086283,-0.04440481278523802
1772623563553383700,10.0253837890625,0.8749182097017765,1.050384374462068,-0.07666961737833916
1772623563563413500,10.03541357421875,1.1975018120944498,1.3888672645151614,-0.0931037973667495
1772623563573443600,10.045443603515626,1.4452560912132262,1.37376321888566,-0.1492884980611503
1772623563583473700,10.0554736328125,1.9959341634869574,1.4221318207353353,-0.2059952681345865
1772623563593502500,10.06550244140625,2.0783488273233175,1.0940563429281114,0.23326416413653642
