time,seconds_elapsed,z,y,x
1772565827151067100,0.076067138671875,0.10169278028011322,-0.0024784184780437496,-0.05741523800319992
1772565827161095000,0.086094970703125,0.10947452019751071,-0.018940532219572922,-0.038366327205440025
1772565827171124000,0.0961240234375,0.13236790452897548,0.005629726682393811,0.037130510933324694
1772565827181153000,0.106153076171875,0.1108212586313486,-0.0019520839158445596,0.06141859189304523
1772565827191181000,0.11618115234375,0.11111994931697845,-0.0075281715817051,-0.009383092433121056
1772565827201208800,0.126208740234375,0.10887421621680259,0.007720474716834723,-0.057327093928866084
1772565827211238000,0.13623779296875,0.09900105697810649,-0.008517433780804277,-0.024186145822051912
1772565827221266000,0.146265869140625,0.10139525863826274,-0.0017680828181793912,0.03688272845102474
1772565827231295000,0.156294921875,0.11935352465510368,0.0002264793993672356,0.04278501129737124
1772565827241323000,0.166322998046875,0.10843114862442016,-0.0015338585037738084,-0.0053293143971357496
1772565827251351800,0.176351806640625,0.10109832151830196,0.004532885056128725,-0.04310964014185592
1772565827261379800,0.1863798828125,0.10872983931005001,0.007883652222179807,-0.02411811295398511
1772565827271409200,0.1964091796875,0.10483809256851673,-0.0003426257254788652,0.032139041055273265
1772565827281437000,0.20643701171875,0.11725918272435665,-0.004230289946938865,0.035284179813740775
1772565827291466000,0.216466064453125,0.10888123047947883,0.005682205788302235,-0.0024233820888679473
1772565827301493800,0.22649365234375,0.09825696061253547,-0.0025720241787843406,-0.04466113476702012
1772565827311523000,0.236523193359375,0.0990051486313343,0.001426594170439057,-0.015931628160597757
1772565827321550800,0.24655078125,0.11906009466648101,-0.003917543336492963,0.03185774902901612
1772565827331580000,0.256579833984375,0.1040986723780632,0.0050743121561827136,0.041748014666140074
1772565827341608000,0.26660791015625,0.10933657303154468,0.002537637851992622,-0.006870826484402641
1772565827351637000,0.276636962890625,0.10574410149753093,-0.0045313872187864035,-0.03697151184617541
1772565827361665000,0.2866650390625,0.09631459437310695,-0.006732258263928815,-0.01898487825137563
1772565827371693800,0.29669384765625,0.11456687490046023,0.001962431779922917,0.02835939465239644
1772565827381721900,0.306721923828125,0.11815700834691524,-0.000836364059173502,0.034461638783942906
1772565827391751200,0.316751220703125,0.1109738188445568,0.0013660870217019692,-0.011209102283883839
1772565827401779000,0.326779052734375,0.10124854364395142,-0.0017325274476082994,-0.04765456269565038
1772565827411808000,0.33680810546875,0.10633271504044532,-0.00229834007024765,-0.018062164782732724
1772565827421835800,0.346835693359375,0.11052256794571876,-0.007584317649155855,0.027570198769774287
1772565827431865000,0.356864990234375,0.11486381202042102,-0.004730316457524896,0.030666228556353595
1772565827441892900,0.366892822265625,0.09870236629247665,0.0010447506794240325,-0.008704946576384827
1772565827451922000,0.376921875,0.09960019191503525,-0.004595876422896981,-0.025798768650460987
1772565827461950000,0.386949951171875,0.1174047286748886,-0.00429007557646837,-0.01726701408335939
1772565827471979000,0.39697900390625,0.11845160737931727,-0.006942471515084617,0.016492248584888874
1772565827482007000,0.407007080078125,0.1108212586313486,-0.0023390145739307627,0.027459797197859733
1772565827492035800,0.417035888671875,0.1072311251848936,0.0022731416969094423,-0.00014183788979426026
1772565827502063900,0.42706396484375,0.10887655430436134,-0.007447996184695512,-0.04134768110378645
1772565827512093000,0.437093017578125,0.09301379926204681,0.003375792009453289,-0.013676771039050071
1772565827522121000,0.447120849609375,0.1082768348455429,0.005223369804630056,0.027486164614977313
1772565827532150300,0.457150390625,0.10468436331152915,1.9179624505341053e-7,0.02936996906758286
1772565827542178300,0.46717822265625,0.09720423668920994,0.0009065112525131553,-0.005838770889770239
1772565827552207400,0.477207275390625,0.10603227078914641,0.002876738179824315,-0.025054270426090805
1772565827562235400,0.4872353515625,0.10902385382056236,-0.0019017054354771971,-0.01695290663288906
1772565827572264400,0.497264404296875,0.11066928294003009,-0.0035568887639790773,0.012490264668222516
1772565827582292200,0.507292236328125,0.10977204183936118,-0.0026071731239790097,0.029936452977079895
1772565827592321300,0.5173212890625,0.10228899260759353,-0.007034862506273202,-0.0022903302937280386
1772565827602349300,0.527349365234375,0.10677461358904838,0.007360792825277894,-0.025794092475343495
1772565827612377300,0.53737744140625,0.10108838464617728,0.0011162724125199019,-0.018342452161991967
1772565827622406100,0.54740625,0.10348258630633353,-0.01026419981631916,0.023585549580398945
1772565827632434400,0.557434326171875,0.10677461358904838,0.0006957226126221939,0.027065710713202133
1772565827642463500,0.56746337890625,0.09225918150246143,0.0013425828485284,-0.009885799524560571
1772565827652491300,0.5774912109375,0.09944237100481987,-0.010371975606307387,-0.01769320360617712
1772565827662520300,0.587520263671875,0.11246084253191947,-0.0016072890661656856,-0.010689170063007623
1772565827672548400,0.59754833984375,0.10737433304786681,0.003458844350138679,0.01909546248638071
1772565827682577400,0.607577392578125,0.09944529361426829,-0.004418145235814154,0.027777795372158288
1772565827692605200,0.617605224609375,0.10962123519182204,0.005967836062959395,-0.0029465565796010194
1772565827702634200,0.62763427734375,0.1135141509771347,-0.0007360911556286737,-0.027644277786137535
1772565827712662500,0.63766259765625,0.10812485915422439,-0.006811593410721979,-0.010712569204904139
1772565827722691300,0.64769140625,0.11889818210303783,-0.005882294937665574,0.015196646683244034
1772565827732719400,0.65771923828125,0.11575754598975181,0.004088342459290288,0.01419873082023114
1772565827742748200,0.667748046875,0.10947159758806228,-0.0018967689654557033,-0.0006635236763395368
1772565827752776400,0.6777763671875,0.10079378561377525,0.0024060199621133505,-0.022574692037422208
1772565827762805500,0.687805419921875,0.08882102374732494,-0.002864627616922371,-0.008607578015979379
1772565827772833300,0.697833251953125,0.10378419960141182,0.001631889217882417,0.017170138713298363
1772565827782862300,0.7078623046875,0.10857201839983463,0.004925259074312635,0.025794311671052127
1772565827792890400,0.717890380859375,0.11156418595314026,-0.003417124100262299,-0.0014861012387555092
1772565827802919400,0.72791943359375,0.0985433763384819,0.007463490581349469,-0.034294702985510225
1772565827812947200,0.737947265625,0.10393033007383345,0.010160378682240843,-0.012887465558573603
1772565827822976300,0.747976318359375,0.10408230576515197,-0.004649497173121199,0.023559145630663258
1772565827833004500,0.758004638671875,0.10423135884702205,0.002377506253682077,0.01900909024402499
1772565827843033300,0.768033447265625,0.10797288346290587,0.0012881355478195473,-0.0026954313627444207
1772565827853061400,0.778061279296875,0.10079027848243713,-0.008601796729164198,-0.01883411726960912
1772565827863090200,0.788090087890625,0.10871873339414596,-0.009421282718772999,-0.010416472335159778
1772565827873118500,0.798118408203125,0.11814765599668026,0.0008296968563692643,0.022275416829902677
1772565827883147300,0.808147216796875,0.11365852788388728,-0.008533129106857813,0.019559454135783017
1772565827893175300,0.81817529296875,0.1112614036142826,-0.0016906199680641293,-0.018184603852313012
1772565827903204400,0.828204345703125,0.1042249291062355,-0.0012579185060691087,-0.021535923574212936
1772565827913232400,0.838232421875,0.1100584575653076,0.0019444805647013707,-0.013463731076568364
1772565827923261400,0.848261474609375,0.11110475174784659,0.001609809816814959,0.015928221493959425
1772565827933289200,0.858289306640625,0.10392448485493659,-0.0008876558549934997,0.012645528295170514
1772565827943318300,0.868318359375,0.1022773021697998,-0.0027338591104140502,-0.0002973207124508917
1772565827953346300,0.87834619140625,0.10661503911316395,0.0011148750398773698,-0.016189027854613958
1772565827963375400,0.888375244140625,0.11289806490540504,-0.0017545566163258625,-0.006544599337875843
1772565827973403400,0.8984033203125,0.09823650234639644,-0.00030465463553555307,0.01916974243214354
1772565827983432200,0.90843212890625,0.10302607471048832,-0.0023355165757471693,0.019948654382769018
1772565827993460500,0.91846044921875,0.11574410198628901,0.003609326770692132,-0.0034947285142727194
1772565828003489300,0.9284892578125,0.10766133329570293,-0.007886533732432872,-0.0151716127066873
1772565828013517300,0.938517333984375,0.11050503228902817,0.001038759330054745,-0.012414970942307263
1772565828023545300,0.94854541015625,0.11993337036967276,-0.0010449424756690858,0.005967164776101708
1772565828033574400,0.958574462890625,0.0955453635662794,-0.0020741667923983185,0.013898962422367184
1772565828043602400,0.9686025390625,0.11799100413024424,-0.004652081855852156,-0.007051398082543164
1772565828053631200,0.97863134765625,0.11634323692321777,-0.006305475086066871,-0.01898242143280804
1772565828063659500,0.988659423828125,0.10437164410054683,0.0004266233476577326,-0.005097578867338598
1772565828073688300,0.998688232421875,0.11484569184184074,0.0010108438432449474,0.0066932505609467625
1772565828083716400,1.00871630859375,0.09778875857889652,0.0005814485831884667,-0.00025709829991683365
1772565828093745400,1.018745361328125,0.10302841279804706,0.003673450648621656,-0.00478023828016594
1772565828103773400,1.0287734375,0.1141021799981594,-0.011284943999070674,-0.010295257108286023
1772565828113802500,1.038802490234375,0.10617314056456088,-0.00044385761024896055,-0.010179046850092709
1772565828123830300,1.048830322265625,0.11051263107359409,0.001623765276931226,0.012638075641077011
1772565828133859300,1.058859375,0.11574760911762713,-0.002049461609404534,0.013083645717799663
1772565828143887400,1.068887451171875,0.10033552045226096,-0.0020356751126470044,0.0005936002452857792
1772565828153916400,1.07891650390625,0.10946049167215824,0.002093255085358396,-0.01612213663086295
1772565828163944200,1.088944091796875,0.11095569866597652,-0.0023311143952654675,-0.006134685096424073
1772565828173973200,1.09897314453125,0.11394786621928214,0.004677814518730156,0.0018763517985120415
1772565828184001500,1.10900146484375,0.10512392377257347,0.005755659183580428,0.0071835365622304375
1772565828194030300,1.1190302734375,0.10841595105528831,-0.006031763578066602,-0.003686031568981707
1772565828204058400,1.129058349609375,0.1063204400807619,-0.003385194592038169,-0.015823281548451633
1772565828214087200,1.139087158203125,0.10108253942728042,0.001634218172286637,-0.002683046805206686
1772565828224115500,1.149115478515625,0.10961188284158706,-0.0012121477021602913,0.004609539622068405
1772565828234144500,1.15914453125,0.11170622477233409,-0.00007168612987734377,0.00333142771134153
1772565828244172300,1.16917236328125,0.1093137766778469,0.006862378316465765,-0.0028685777062550186
1772565828254201300,1.179201416015625,0.10916238550841807,-0.01139782065586187,-0.014518446027580649
1772565828264229400,1.1892294921875,0.10153028319478034,-0.0019271915031829848,-0.010808083734940736
1772565828274258400,1.199258544921875,0.10407587602436542,0.008266851986641996,0.008572762430924922
1772565828284286200,1.2092861328125,0.10242869333922862,-0.007730210659559816,0.012697660341206937
1772565828294315300,1.219315185546875,0.10721709665954113,-0.006636912697250954,-0.005132284854538738
1772565828304343600,1.229343505859375,0.10931143859028816,-0.0007770168210612609,-0.013860749303828924
1772565828314372400,1.239372314453125,0.10900982529520988,-0.0009414775346172973,-0.008992759674973785
1772565828324400400,1.249400390625,0.11005787304341792,0.009387353049707598,0.004639770363550633
1772565828334429200,1.25942919921875,0.10347381847798824,-0.0016441367781022563,0.008238032317534089
1772565828344457500,1.26945751953125,0.11155308003723621,-0.007873395689646713,-0.004838690469134599
1772565828354486500,1.279486572265625,0.11110533626973629,-0.002635061211325228,-0.008492920394055544
1772565828364514300,1.289514404296875,0.10975742879211901,-0.002945561065757647,-0.004205927257239818
1772565828374542600,1.29954248046875,0.09838789351582526,-0.0015539742766181007,0.00417299310201779
1772565828384571400,1.3095712890625,0.10796470015645027,-0.0011942467192886397,0.006545220392383634
1772565828394599400,1.319599365234375,0.11410042643249034,-0.001334253411600366,0.0012037680328823624
1772565828404628200,1.329628173828125,0.1036240406036377,0.0028710573577089235,-0.012827095407154411
1772565828414656500,1.339656494140625,0.1018283893585205,0.005555501535558141,-0.010146770281996577
1772565828424685300,1.349685302734375,0.1027303066343069,0.004004646231210791,0.005627575824502855
1772565828434713300,1.35971337890625,0.10976561209857463,0.0020173585712444037,0.010515493996534496
1772565828444742400,1.369742431640625,0.1226332769781351,0.0008589823163580149,-0.0007697605297900735
1772565828454770400,1.3797705078125,0.1076712701678276,-0.004456938309664838,-0.013429573078639805
1772565828464799500,1.389799560546875,0.1111135195761919,-0.0004036169314058497,-0.003498527906555682
1772565828474827300,1.3998271484375,0.11260814204812049,0.00017649821122176943,0.01225495807500556
1772565828484856300,1.409856201171875,0.10542378350198268,-0.007734439310105517,0.004685673598200083
1772565828494884400,1.41988427734375,0.10183072744607925,0.0016719883328303693,0.0010186389906331897
1772565828504913400,1.429913330078125,0.11679331877827644,0.005183882611035369,-0.01147069409582764
1772565828514941400,1.43994140625,0.1109568677097559,-0.0023909091579494995,-0.0056144788809120655
1772565828524970500,1.449970458984375,0.10377484725117683,-0.0033942364150192587,0.009829374895896761
1772565828534998500,1.45999853515625,0.10661854624450207,-0.0022415912145981563,0.004884666769020259
1772565828545027600,1.470027587890625,0.1057195515781641,0.0007987217627931386,-0.0028433884660713374
1772565828555055400,1.480055419921875,0.09943301865458488,-0.002107338409638032,-0.003403506566863507
1772565828565084400,1.49008447265625,0.11364742196798323,-0.0042673933872021735,-0.009705054396484046
1772565828575112700,1.50011279296875,0.10721125144064426,-0.0024246241978835314,-0.0012604483898729084
1772565828585141500,1.5101416015625,0.11125380482971668,-0.00006874525411985814,0.005870042810868471
1772565828595169500,1.52016943359375,0.10616612630188464,-0.0006615920141572132,-0.00011429229574277997
1772565828605198300,1.5301982421875,0.10302373662292957,-0.0001409200077643618,-0.015401713401824235
1772565828615226600,1.5402265625,0.10601590417623519,0.0009633697060169651,-0.010211378217115997
1772565828625255700,1.550255615234375,0.11634031431376933,-0.0023355439752107483,-0.0026396277885884045
1772565828635283500,1.560283447265625,0.10122516276836395,-0.0033767053249059245,0.005198975148890167
1772565828645312500,1.5703125,0.10780980185568333,0.004416519534308463,0.005233699402399361
1772565828655340500,1.580340576171875,0.0998807624220848,-0.00024953604796901344,-0.00825438066413626
1772565828665369600,1.59036962890625,0.10916121646463871,0.0004911764838499949,-0.0007969955965876579
1772565828675397400,1.6003974609375,0.10541969184875488,-0.0028147149274358524,0.005473992697987705
1772565828685426400,1.610426513671875,0.10526888520121573,-0.005305230268649756,-0.005289502976555377
1772565828695454700,1.620454833984375,0.10841010583639145,-0.010097939871321432,-0.008004004365950822
1772565828705482500,1.630482421875,0.09793664261698723,-0.0025986062250332904,-0.009914477629773318
1772565828715511600,1.640511474609375,0.10900865625143051,0.0004844864481594413,-0.005700202669296413
1772565828725539300,1.650539306640625,0.10437105957865714,-0.001891946659865789,-0.008314750815555452
1772565828735568600,1.660568603515625,0.11379822861552238,-0.0009279193667229265,0.002645162480231374
1772565828745596400,1.670596435546875,0.10975742879211901,-0.003928745150519534,-0.0008306238715536892
1772565828755625500,1.68062548828125,0.10033084427714348,-0.0026982809069566425,-0.010950250418297947
1772565828765653200,1.6906533203125,0.10556757588684558,-0.0013082787201274186,-0.0012589140199124813
1772565828775682600,1.7006826171875,0.108856680560112,-0.004841699843551032,0.0011257526269182563
1772565828785710600,1.710710693359375,0.10242284812033176,0.0005025518278125674,0.010466047097928822
1772565828795739400,1.720739501953125,0.10691139171123504,0.0007230216115014628,-0.006142685739789158
1772565828805767400,1.730767333984375,0.10496727190613746,0.0037627683333121237,-0.004313205290306359
1772565828815796500,1.74079638671875,0.10751286473572254,0.0012210753607098013,-0.008385660627298057
1772565828825824500,1.750824462890625,0.11110416722595691,-0.0019655690185027197,0.008246818412188441
1772565828835853600,1.760853515625,0.10826046823263168,-0.0011809762457618488,0.012827826059516519
1772565828845881300,1.77088134765625,0.11125146674215793,-0.005004256294388324,0.0016910583594813941
1772565828855910700,1.78091064453125,0.11080021584331988,-0.0032967719564912837,-0.005920311693381518
1772565828865938400,1.7909384765625,0.1060112280011177,0.0013172337781405077,-0.004584587843902409
1772565828875967500,1.800967529296875,0.10989946761131286,-0.007061672881385311,0.00289531958270818
1772565828885995300,1.810995361328125,0.11214344714581966,-0.0023183827778557316,0.0038557621126994487
1772565828896024600,1.821024658203125,0.09688216512799262,0.0022905905886320397,-0.002883866606932133
1772565828906052600,1.831052490234375,0.10645955629050731,-0.01429161956834141,-0.01179440962485969
1772565828916081400,1.841081298828125,0.1124421378314495,-0.0030702879905467853,0.0006738989398814738
1772565828926109400,1.851109375,0.11169394981265067,-0.00007128883765544742,0.00993217768324539
1772565828936138500,1.861138427734375,0.10825170040428637,-0.0009172198761953041,0.008237283398862927
1772565828946166500,1.87116650390625,0.11139292103946208,-0.0003297936433693394,-0.004427241857722401
1772565828956195600,1.881195556640625,0.10331073687076568,-0.005729205001494847,-0.010658628794271499
1772565828966223400,1.891223388671875,0.10869769060611724,0.0022071774883428586,-0.009888064546883105
1772565828976252700,1.901252685546875,0.10555296283960341,0.002007092905556783,-0.00046601007655262946
1772565828986280400,1.911280517578125,0.1046522146075964,-0.00008416201896034181,0.001910272334422916
1772565828996309500,1.9213095703125,0.105697339746356,-0.010688914334680884,-0.0022929880416952073
1772565829006337300,1.931337158203125,0.1031529159605503,0.006197489233524538,0.0011993475860916077
1772565829016366600,1.94136669921875,0.10898761346340179,0.005711833741585724,0.003789893802255392
1772565829026394400,1.951394287109375,0.10749006838202475,-0.005153775167139247,0.004575436423067003
1772565829036423400,1.96142333984375,0.11287819116115569,-0.0026715298973489553,-0.0017683431130833922
1772565829046451500,1.971451416015625,0.10464812295436858,0.0029156636844156307,-0.0008950674098916351
1772565829056480500,1.98148046875,0.11437573624253272,-0.000983914737123996,-0.013667327357269823
1772565829066508500,1.991508544921875,0.11243278548121452,0.0021190699466271325,-0.004665087467897683
1772565829076537300,2.001537353515625,0.10569909331202507,0.0003684816859429702,0.002119001447968185
1772565829086565400,2.0115654296875,0.11317921993434428,-0.002547268763440661,0.0014187624904327095
1772565829096593400,2.021593505859375,0.10928981128036976,-0.0034049404721241444,0.007458882904890924
1772565829106622500,2.03162255859375,0.10450140796005725,-0.008612907211645506,-0.007264054452534765
1772565829116650500,2.041650390625,0.11288403638005257,0.00749139693500474,-0.0011289674973115325
1772565829126679300,2.05167919921875,0.10899345868229865,0.003218697185022756,-0.00447044167863205
1772565829136707600,2.06170751953125,0.11363456248641013,0.003486979032657109,0.0002798946536146104
1772565829146736400,2.071736328125,0.1007651440411806,-0.00375200947728008,-0.0022550854504108427
1772565829156764400,2.081764404296875,0.10450900674462318,-0.0034711101766675707,-0.008245229243300855
1772565829166793500,2.09179345703125,0.10346329708397388,0.002283375396556221,0.004380297443456947
1772565829176821500,2.101821533203125,0.11034662685692309,0.007210031843511387,0.0036446035800501704
1772565829186850600,2.1118505859375,0.10525777928531169,0.00037945060452912,-0.0008715038712136447
1772565829196878300,2.12187841796875,0.10166647679507732,-0.0031341287406859916,-0.0016660152497701346
1772565829206907400,2.131907470703125,0.10286182405948638,0.0033503927067155014,-0.007608593573886901
1772565829216935400,2.141935302734375,0.10076689760684966,0.0054579503120621665,-0.003349730553012341
1772565829226964500,2.151964599609375,0.09971826533675193,0.002977376409550197,-0.00046438437504693863
1772565829236992500,2.161992431640625,0.11094050109684467,0.0023797849757364016,-0.0028989363119006155
1772565829247021300,2.172021240234375,0.11512976948022842,0.004243327525025233,-0.002725826501008123
1772565829257049600,2.182049560546875,0.11243687713444232,0.0029777737017720935,0.00047908875383436675
1772565829267078400,2.192078369140625,0.1097410621792078,-0.0063923587850760666,-0.005725117914844304
1772565829277106400,2.2021064453125,0.10959317814111709,-0.0017607945608673617,0.005271437596902251
1772565829287135500,2.212135498046875,0.10181319178938865,-0.003978470610338263,-0.000678976973798126
1772565829297163500,2.22216357421875,0.11288462090194225,-0.0021550271759973837,-0.0020848617163486778
1772565829307192600,2.232192626953125,0.10764847381412983,-0.002658720648125745,-0.002932254059612751
1772565829317220400,2.242220458984375,0.10420797797143459,0.004585007969010621,-0.0003526128299534321
1772565829327249400,2.25224951171875,0.10959493170678615,0.007524632484326139,-0.0007678973662666976
1772565829337277400,2.26227734375,0.10375789611637591,0.0010385310011915862,-0.001726330602262169
1772565829347306500,2.272306396484375,0.10600070660710334,0.0012582701325183734,-0.00006327449455857277
1772565829357334300,2.282334228515625,0.11019348212182521,-0.0018668030854547394,-0.006484831974655389
1772565829367363300,2.29236328125,0.10211305151879786,-0.000333045046380721,-0.002970978634804487
1772565829377391600,2.3023916015625,0.10031623122990131,-0.0016261261973762884,-0.0028765783496201036
1772565829387420400,2.31242041015625,0.10974281574487685,-0.0007035451594740152,0.00202648259261623
1772565829397448400,2.322448486328125,0.11228840857446193,-0.0021242210457799956,-0.009933383259642868
1772565829407477500,2.3324775390625,0.10750058977603912,0.0016259024350903928,-0.018292685602977872
1772565829417505500,2.342505615234375,0.1067518172353506,0.0021053839145693926,-0.0007739435145631432
1772565829427534600,2.35253466796875,0.10959142457544803,-0.0036311002110829575,0.0073377407432533796
1772565829437562400,2.362562255859375,0.11123626917302608,0.003768860147381201,-0.0018221373932436108
1772565829447590700,2.372590576171875,0.10944237149357795,-0.0030842251843539994,-0.004142524898517876
1772565829457619500,2.382619384765625,0.11213584836125373,-0.005018458349676802,-0.002807458636164665
1772565829467647500,2.3926474609375,0.10809504853785037,-0.0030949886069633063,-0.0045239254315383726
1772565829477676300,2.40267626953125,0.10629939729273319,0.0007679475986165925,-0.006916720585897564
1772565829487704600,2.41270458984375,0.11183598863184452,0.0038098451783182097,0.0013514328752644359
1772565829497733600,2.422733642578125,0.11482757166326045,-0.00046465380310546607,0.004561809756513685
1772565829507761400,2.432761474609375,0.10929039580225944,-0.006920556510798633,-0.0026609445712529123
1772565829517790500,2.44279052734375,0.10554828666448593,0.003938362362235785,0.0004519815512001514
1772565829527817700,2.452817626953125,0.1001595793634653,0.0013811293272068723,-0.0021411402145400642
1772565829537846500,2.462846435546875,0.09836334359645843,0.0007215055078500882,0.002041205237712711
1772565829547874800,2.472874755859375,0.11197802745103835,-0.00010947455673012882,-0.0032634953079745174
1772565829557903600,2.482903564453125,0.11781564756333827,-0.0008447300287196412,-0.0028541107894852757
1772565829567931600,2.492931640625,0.11108078635036944,0.004289765049214475,-0.000840633808914572
1772565829577960400,2.50296044921875,0.11302490615546702,0.003276902778819203,-0.008046400469262152
1772565829587988700,2.51298876953125,0.10643675993680954,-0.0009229417975060642,-0.007244308572448789
1772565829598017800,2.523017822265625,0.11227028839588164,-0.0031749859074596313,0.0022541721349582074
1772565829608045600,2.533045654296875,0.10897709206938742,-0.00419083471938502,-0.003675163115095347
1772565829618074600,2.54307470703125,0.1041898577928543,0.0018172831216128542,-0.006018164310976863
1772565829628102700,2.5531025390625,0.10823007309436797,-0.003579890613653697,-0.006154832835309207
1772565829638131700,2.563131591796875,0.11047171454131603,-0.0036952651882078496,-0.0038892990561202167
1772565829648159500,2.573159423828125,0.11136720207631587,-0.003580223973793909,-0.0061153593414463095
1772565829658188500,2.5831884765625,0.10373568428456782,-0.0017536433008732274,-0.006436060929484665
1772565829668216800,2.593216796875,0.11495733552277088,-0.003435961231472902,-0.010515895855333655
1772565829678245600,2.60324560546875,0.10193652590811252,-0.0001916638143127784,-0.0045027182467281815
1772565829688273700,2.613273681640625,0.1004383963048458,0.00047484640355687586,0.0005786949370987713
1772565829698302500,2.623302490234375,0.10433072756826876,0.005432715406105853,0.00007054448556154966
1772565829708330800,2.633330810546875,0.10852174951732158,-3.5162644926458595e-7,-0.0014822379143908618
1772565829718359800,2.64335986328125,0.11136661755442619,-0.004589670444396324,-0.0045086365308612585
1772565829728387600,2.6533876953125,0.10867372520864009,-0.0030938423960702494,-0.0013604016330093145
1772565829738416600,2.663416748046875,0.11720248410105705,0.0004932314436184242,-0.001973857356235385
1772565829748444700,2.673444580078125,0.11989537644684314,-0.0005127444282639771,-0.008161167689040303
1772565829758473700,2.6834736328125,0.09909925665557384,0.007513983226148411,-0.011143380103912203
1772565829768501500,2.69350146484375,0.10149170475006103,0.006125360145652666,-0.006929543534852564
1772565829778529500,2.703529541015625,0.10792787527740001,0.00033014983639586713,-0.0055136488549411295
1772565829788558800,2.713558837890625,0.10747837794423103,-0.0016410589050268754,-0.0030509668021462856
1772565829798586600,2.723586669921875,0.10657879875600337,-0.004649273410835303,-0.00030859102513641117
1772565829808615700,2.73361572265625,0.10837386547923088,-0.005961707716272212,-0.00583391205156222
1772565829818643500,2.7436435546875,0.11630407395660877,-0.0009336915203835814,-0.011522095489501952
1772565829828672800,2.7536728515625,0.11405775633454322,0.012228010702575556,-0.007750467996299267
1772565829838700500,2.763700439453125,0.10792436814606189,0.005165908562927506,-0.0031325989373028277
1772565829848729600,2.7737294921875,0.10867255616486073,0.0042014611446764315,-0.009308620691113174
1772565829858757400,2.78375732421875,0.11734978361725806,0.0008570278212893754,-0.007442680688761174
1772565829868786700,2.79378662109375,0.1154050792902708,-0.0036092811049195004,0.0020060425927862524
1772565829878814700,2.803814697265625,0.10553016648590564,-0.00467935802184511,-0.0034564423304982482
1772565829888843500,2.813843505859375,0.1107686516612768,0.0018561355609679594,-0.014289075984805822
1772565829898871600,2.82387158203125,0.10388590641021728,-0.006741601481009274,-0.003439016271661967
1772565829908900600,2.833900634765625,0.10927286014556885,-0.00012551694265566766,-0.0018025559099391101
1772565829918928600,2.8439287109375,0.11046703836619853,0.001716005571070127,-0.0026848917024210094
1772565829928957700,2.853957763671875,0.1074748708128929,-0.0036110072711249813,-0.009657361063547433
1772565829938985500,2.8639853515625,0.1083726964354515,0.0012045900167897343,0.0012672982557676731
1772565829949014800,2.874014892578125,0.12079378659129142,0.0015590249110711738,-0.0013777728929184377
1772565829959042600,2.88404248046875,0.10313713386952876,-0.006182944684941322,-0.00464683942515403
1772565829969071600,2.894071533203125,0.09341185866892338,-0.006140754077606834,0.0008018909674137831
1772565829979099400,2.904099365234375,0.10658172136545181,0.008771093448041938,-0.00687213252549991
1772565829989128700,2.914128662109375,0.12094868489205836,-0.002541400711657479,-0.0046828240539878606
1772565829999156700,2.92415673828125,0.10389175162911414,-0.0008507442109752446,-0.006898235081136226
1772565830009185500,2.934185546875,0.11735913596749305,0.0051907964090118185,0.000876015649549663
1772565830019213600,2.944213623046875,0.10957798057198524,0.005026399627537466,0.0008539316819049417
1772565830029242600,2.95424267578125,0.10613222403228283,0.00338528135700617,-0.013686872307956217
1772565830039270700,2.964270751953125,0.10209142420887947,-0.0027605416213627903,-0.0012182349496521055
1772565830049299700,2.9742998046875,0.11346680470407008,0.0022038301872089505,0.002927596150804311
1772565830059327500,2.984327392578125,0.10673428157866001,0.0011862369427690282,-0.000300590381771326
1772565830069355800,2.994355712890625,0.11646247938871383,0.00004402180481702089,0.0019925072577781974
1772565830079384600,3.004384521484375,0.11556699185371398,-0.0013170602482045067,-0.006452665004413574
1772565830089412600,3.01441259765625,0.10838321782946586,0.008362247785669751,-0.004188647328875959
1772565830099441400,3.02444140625,0.10913199037015438,0.0027751364022959024,-0.010021171140950172
1772565830109469700,3.0344697265625,0.11347206540107727,0.004500074198492803,0.0017993227732367811
1772565830119498500,3.04449853515625,0.1077846674144268,-0.0058549594061682,0.002180869436729699
1772565830129526500,3.054526611328125,0.11766016474068164,-0.0024513660743366926,-0.015978563441708685
1772565830139555600,3.0645556640625,0.11122399421334266,-0.00515048723150976,-0.010282543757185339
1772565830149583600,3.07458349609375,0.10703238774240016,0.0025871486826799807,-0.007980806153453887
1772565830159612700,3.08461279296875,0.10987374864816665,0.0014292290855199097,-0.001345478058513254
1772565830169640400,3.094640380859375,0.10538286696970463,0.0018429107532138005,-0.0016080745174549519
1772565830179669500,3.10466943359375,0.11092062735259532,0.0037162851433502507,-0.0034927557528950273
1772565830189697500,3.114697509765625,0.1044862103909254,0.0033158191502559928,-0.010646225970424712
1772565830199726600,3.1247265625,0.10598492451608181,-0.0003442377272527665,-0.009192940155882387
1772565830209754600,3.134754638671875,0.10987433317005633,0.002764519110159017,-0.0016176460633985697
1772565830219783400,3.144783447265625,0.11152151585519313,0.00046346649301704017,-0.0011149937708862126
1772565830229811700,3.154811767578125,0.0961117652773857,-0.0033899803650099783,-0.0048396768498234445
1772565830239840500,3.164840576171875,0.1044908865660429,0.00018068119599483907,-0.007725954609550535
1772565830249868500,3.17486865234375,0.11556406924426554,0.0009587209303630515,0.0022468473450280723
1772565830259897600,3.184897705078125,0.10927870536446571,-0.00879217276868876,-0.00017985007893294095
1772565830269925600,3.194925537109375,0.1137666644334793,-0.011050509622110984,-0.010276515875197947
1772565830279954700,3.20495458984375,0.1175093580931425,0.0017709962944732977,-0.014656831584963947
1772565830289982500,3.214982421875,0.09655892452299594,-0.0012302678807405755,-0.006579835048038512
1772565830300011500,3.225011474609375,0.10822831952869892,0.0010550574443070218,-0.0050460313431918615
1772565830310039600,3.23503955078125,0.10747837794423103,-0.0005753613356966525,-0.003873699628189206
1772565830320068600,3.245068603515625,0.10089432337880135,-0.009857240150356664,-0.003367485405411571
1772565830330096600,3.2550966796875,0.10957213535308838,0.0036773185395635663,-0.001522770854178816
1772565830340125400,3.26512548828125,0.1085252566486597,0.001194593779160641,-0.011697415523789823
1772565830350153700,3.27515380859375,0.1064297456741333,0.005306426711892709,-0.0050318932199850674
1772565830360182500,3.2851826171875,0.10642916115224361,0.0009074337011203169,-0.005623301508184522
1772565830370210600,3.29521044921875,0.11376140373647212,0.0005154341422719881,-0.005824541435018181
1772565830380238600,3.305238525390625,0.11256371838450431,-0.0009281522621633484,-0.006411255281791091
1772565830390267600,3.315267578125,0.10837445000112056,0.00009811747907660901,-0.00605473346170038
1772565830400295400,3.32529541015625,0.10194120208323001,0.0036204326865961773,-0.006462273082975298
1772565830410324500,3.335324462890625,0.11630582752227782,0.0005704659648705274,0.0029567491800524294
1772565830420352800,3.345352783203125,0.11869944466054438,0.009431493585533461,-0.0076652739308774465
1772565830430381600,3.355381591796875,0.09820026198923587,-0.005683256101072766,-0.002942720654699951
1772565830440409600,3.36540966796875,0.1091226380199194,-0.0009791837630793452,-0.0021114574623294175
1772565830450438400,3.3754384765625,0.11420856298208236,-0.00318240202893503,-0.0015747019708156585
1772565830460466700,3.385466796875,0.10657646066844463,0.0006738943733042105,-0.0018802425223402677
1772565830470495700,3.395495849609375,0.11959551671743392,-0.00005659359202254563,-0.006938932417705655
1772565830480523500,3.4055234375,0.10672668279409409,0.0003413059846498072,-0.013562971933651715
1772565830490552600,3.415552490234375,0.10373393071889876,0.001493677190435119,-0.009980601668544113
1772565830500580600,3.42558056640625,0.1127121869444847,-0.0028435254633892328,-0.0017393910132348536
1772565830510609700,3.435609619140625,0.11121581090688705,-0.00410080921521876,-0.0074456032982096075
1772565830520637400,3.445637451171875,0.09804594821035861,-0.0023201683095656336,-0.006274879018403589
1772565830530666500,3.45566650390625,0.1095668746560812,-0.0009022963016992434,-0.012579696517344563
1772565830540694800,3.46569482421875,0.11061316883862019,0.008761791330156848,-0.008146883435361086
1772565830550723800,3.475723876953125,0.10327975721061229,0.002771693203039467,0.00013637626338750122
1772565830560751600,3.485751708984375,0.11046177766919135,-0.0035754016682039945,-0.004200410831905901
1772565830570780700,3.49578076171875,0.11136194137930869,0.002876560083311051,-0.00540428846264258
1772565830580808700,3.50580859375,0.10926643040478229,0.00024778704887721685,-0.005320354772545397
1772565830590837800,3.515837646484375,0.11151099446117878,-0.0014449883436551316,-0.008877499264851213
1772565830600865500,3.525865478515625,0.10896773971915244,0.004926039959024638,-0.008679529007337986
1772565830610894600,3.53589453125,0.10747311724722385,-0.004399906326225027,-0.0027322562417946756
1772565830620923000,3.5459228515625,0.11375906564891337,0.0014713511941954493,-0.0058129057961516075
1772565830630950700,3.55595068359375,0.1124117426931858,-0.0015600980567280203,-0.003430997361987829
1772565830640979700,3.565979736328125,0.11031681624054908,0.0014991342502646146,-0.0047820466447621585
1772565830651007700,3.5760078125,0.1200450140506029,0.00037738651160616423,-0.00452876600343734
1772565830661036800,3.586036865234375,0.09520400278270244,-0.0005888236054684967,-0.007691467818059026
1772565830671064600,3.596064697265625,0.09684767833650111,-0.004670768290013075,-0.004093881717510521
1772565830681093600,3.60609375,0.11121288829743861,0.006297657105792313,0.003060684478562325
1772565830691121700,3.61612158203125,0.10792378362417221,0.0022656433770433066,-0.011164258495159446
1772565830701150700,3.626150634765625,0.10612754785716533,-0.00047523912920150905,-0.008255001718644052
1772565830711178800,3.6361787109375,0.11226444317698478,-0.0012233769156504422,0.0027633637661114334
1772565830721207600,3.64620751953125,0.11974632336497307,-0.002856608707248233,-0.002001530814450234
1772565830731235800,3.65623583984375,0.10567863504588604,-0.00026513547590002414,-0.017793357778713107
1772565830741264600,3.6662646484375,0.10448387230336666,-0.0004934278064407407,-0.011480740565806627
1772565830751292700,3.676292724609375,0.11226736578643322,0.003911159261479042,0.001067026443313807
1772565830761321700,3.68632177734375,0.1145119298428297,0.00027487141862511633,-0.004320895406417548
1772565830771349800,3.696349853515625,0.11271394051015377,-0.0005646709783235565,-0.01659592815507203
1772565830781378800,3.70637890625,0.11061959857940673,0.002938601602008566,-0.0035881972176954146
1772565830791406600,3.716406494140625,0.11001987912058829,-0.00403959424700588,-0.00020860124938189983
1772565830801435600,3.726435546875,0.10358546215891837,-0.003989019403816201,-0.00577936885273084
1772565830811463700,3.736463623046875,0.11121697995066641,-0.0018327135861851275,-0.008587996532674879
1772565830821492700,3.74649267578125,0.11331307544708251,-0.0012780571117997168,-0.003848985312040895
1772565830831520800,3.756520751953125,0.10972118843495846,-0.0013563556455541402,0.0024139840728603303
1772565830841549600,3.766549560546875,0.08697568814158439,-0.0012985519105568528,-0.01305027317116037
1772565830851577900,3.776577880859375,0.1148082824409008,-0.003977995686302893,-0.005437222617864609
1772565830861606700,3.786606689453125,0.11061901405751705,-0.002387657754938118,-0.0002630896492861211
1772565830871634700,3.796634765625,0.10613105498850345,-0.00010132321631535887,-0.0044003355844877655
1772565830881662700,3.806662841796875,0.10852876377999782,-0.0036690713010262698,-0.0014520071729086338
1772565830891691800,3.81669189453125,0.11197101318836211,-0.005199929563538171,0.002041351368185133
1772565830901719800,3.8267197265625,0.1076315226793289,-0.006508299615210853,-0.007264638974424451
1772565830911748600,3.83674853515625,0.101793902567029,0.0010012494644150137,-0.0022415135827846826
1772565830921777000,3.84677685546875,0.10373802237212658,0.007411285470076836,0.006057053282950073
1772565830931805700,3.8568056640625,0.11405950990021228,0.0002108388722408563,-0.004162690903712064
1772565830941833700,3.866833740234375,0.10238426967561244,0.0011780445031588896,-0.0025583244469948112
1772565830951862500,3.876862548828125,0.11031681624054908,0.008825348952505738,-0.013836637775879353
1772565830961890800,3.886890869140625,0.10927052205801009,-0.002005745765264146,-0.0030247181160375472
1772565830971920000,3.896919921875,0.10403145236074923,-0.01014046383879613,0.010040515162236988
1772565830981947600,3.90694775390625,0.10253273823559284,-0.0030344540587626395,-0.005974379968177527
1772565830991976700,3.916976806640625,0.10642390045523643,0.00019975122264586387,-0.005067841316200792
1772565831002004700,3.927004638671875,0.10761983224153518,-0.003619934929674491,0.0003449227138422429
1772565831012033800,3.93703369140625,0.11689794819653034,0.0010555141020333395,-0.011156495313812046
1772565831022061600,3.9470615234375,0.10792086101472377,0.0004486114171799272,-0.006513656210340559
1772565831032090600,3.957090576171875,0.11375497399568557,0.00016439678147435187,-0.0014992255818098783
1772565831042119000,3.967118896484375,0.10552432126700878,-0.0029852994211018082,-0.007347604550141841
1772565831052147700,3.977147705078125,0.10642331593334674,-0.0003582434197189286,-0.012365341380611062
1772565831062175700,3.98717578125,0.11165887849926948,0.006636437773215584,-0.008251494587305933
1772565831072203500,3.99720361328125,0.11165654041171073,0.006559650776535272,-0.008356434532813727
1772565831082231800,4.007231689453125,0.11016074889600276,-0.0008425380716333166,-0.009130907770339399
1772565831092260600,4.017260498046875,0.10716799682080745,-0.002034474102826789,-0.00736198013536632
1772565831102288600,4.02728857421875,0.10447451995313167,-0.00030056754888501015,-0.01495099222594872
1772565831112317700,4.037317626953125,0.10192951164543627,-0.0029663892246549945,-0.00859846312776208
1772565831122345700,4.047345703125,0.11016016437411308,-0.0032130346292164173,-0.0048342334897257385
1772565831132374800,4.057374755859375,0.10836626669466495,0.006294990224670618,-0.010855539605859667
1772565831142402600,4.067402587890625,0.1071703349083662,0.00449674973024521,-0.012868998320121318
1772565831152431600,4.077431640625,0.10746961011588572,-0.001755264435801655,-0.0068485324542038135
1772565831162459600,4.087459716796875,0.1011836617141962,-0.004239792994223535,-0.010508406668622046
1772565831172488700,4.09748876953125,0.11525076551139354,-0.0010582083826186134,0.0012048274788074194
1772565831182516500,4.1075166015625,0.116594581335783,0.0032204690170008687,0.0023964118835516275
1772565831192545500,4.117545654296875,0.10073241081535815,0.006284386632265522,-0.012577997750602662
1772565831202573800,4.12757373046875,0.10701894373893737,-0.006624637737567536,-0.014356862257700413
1772565831212602600,4.1376025390625,0.11315700810253619,0.004028584229224361,-0.0017741517993621527
1772565831222630700,4.147630615234375,0.1128565638512373,0.004428333269688301,-0.0024859898631460963
1772565831232659500,4.157659423828125,0.1136059209138155,-0.0036235607920214533,-0.006836275760829448
1772565831242687700,4.167687744140625,0.09400281029939651,0.00468584256155882,-0.001352547120116651
1772565831252716800,4.177716796875,0.11106032808423041,-0.0006011396643472836,-0.009198657510615885
1772565831262744600,4.18774462890625,0.10971183608472347,-0.009233765356615185,0.001062003208324313
1772565831272773600,4.197773681640625,0.11390285803377628,-0.006757420104648917,-0.00790056225778535
1772565831282801700,4.2078017578125,0.1089654016315937,0.0013095299622975288,-0.008155505133233964
1772565831292829700,4.21782958984375,0.10447393543124198,-0.004156617355952039,-0.0016956249367445705
1772565831302858500,4.2278583984375,0.10686755256950854,-0.0010308454516576603,-0.0035025647608563303
1772565831312886800,4.23788671875,0.10537293009757995,-0.0024452331610722465,-0.007989245188236236
1772565831322915800,4.247915771484375,0.10103343958854674,-0.0005467882617609575,-0.005336611787602305
1772565831332943600,4.257943603515625,0.11285714837312698,-0.0047016246525803575,-0.0032419410632923244
1772565831342972700,4.26797265625,0.11345803687572478,-0.0036109159395797175,0.0007504530411213636
1772565831353000700,4.278000732421875,0.10837211191356182,0.004327197283040732,-0.00840087646273896
1772565831363029800,4.28802978515625,0.10583002621531486,0.0037349122120067476,-0.007684398756455629
1772565831373057500,4.2980576171875,0.10597849477529525,0.004560713777970522,-0.004159439500700682
1772565831383086600,4.308086669921875,0.10552665935456752,0.001162107148510404,0.0010143646743148566
1772565831393115000,4.318114990234375,0.10702537347972392,-0.008983398191584273,-0.0030694523069076237
1772565831403143700,4.328143798828125,0.10672785183787345,-0.0033149286676896735,-0.002861051986925304
1772565831413171700,4.338171630859375,0.11600713683664798,-0.002854380217543803,-0.0027683687347918747
1772565831423200500,4.348200439453125,0.12139350605010986,0.0038170101380441334,-0.005582805101014674
1772565831433228800,4.358228759765625,0.11032090789377688,0.003944413077109493,0.0038927696548402306
1772565831443257900,4.3682578125,0.10298983435332774,0.0004341673332965001,0.00028027824610471724
1772565831453285600,4.37828564453125,0.11286591620147228,-0.00012163535198196768,-0.0016972323719412086
1772565831463314700,4.388314697265625,0.10014964249134063,0.007126851638662628,-0.008372636748943478
1772565831473342700,4.3983427734375,0.11376549538969993,0.004230006819148547,-0.01072500856136903
1772565831483371800,4.408371826171875,0.11182137558460235,0.00018267679025884715,-0.013804306408856062
1772565831493399600,4.418399658203125,0.11286708524525164,-0.006303191797435283,-0.004132295765448361
1772565831503428600,4.4284287109375,0.11541092450916766,-0.003477800212358124,-0.00849215320907533
1772565831513456600,4.43845654296875,0.10867547877430915,-0.006322197892004624,-0.010071074697282165
1772565831523484700,4.448484619140625,0.10807985096871853,-0.0009728544869925826,-0.009905216611083597
1772565831533514200,4.45851416015625,0.09954992303252219,-0.0046894729904830455,-0.001272577219083905
1772565831543542300,4.468542236328125,0.09640694883167743,-0.00406938203049358,-0.0023437318482436237
1772565831553571300,4.4785712890625,0.10359072285592555,-0.0009405779188964515,-0.006465013029333204
1772565831563599400,4.488599365234375,0.11137304729521275,0.0021493783199228347,-0.014602745043858886
1772565831573628400,4.49862841796875,0.09925006330311298,-0.0013783848142717033,-0.00017731106197461485
1772565831583656200,4.50865625,0.10717676464915275,0.0023703823931515216,-0.004788567717093974
1772565831593685500,4.518685546875,0.11839900040924549,0.0041830076059559355,-0.004081277964264154
1772565831603713300,4.52871337890625,0.11196458344757557,-0.0008316011190880089,-0.004952069449424743
1772565831613742300,4.538742431640625,0.10777356149852275,-0.0065774923939025025,-0.007408778419159353
1772565831623770000,4.54877001953125,0.11181669940948485,0.0023337310440372672,-0.0042030411804094905
1772565831633799400,4.55879931640625,0.111518008723855,0.005361769061745144,-0.004011701593082398
1772565831643827200,4.5688271484375,0.11391337942779063,0.00475812691305764,-0.0011623400439508258
1772565831653856300,4.578856201171875,0.10807926644682883,-0.00006559888238552957,-0.008867872919980436
1772565831663884300,4.58888427734375,0.11167173798084258,0.008961633884347975,-0.006590539105143398
1772565831673913300,4.598913330078125,0.10732990938425063,-0.006367877364368177,-0.0012992460303008556
1772565831683941400,4.60894140625,0.11331599805653095,-0.00954848472843878,0.0015736242585815488
1772565831693970200,4.61897021484375,0.11137187825143337,0.0040802322180708865,-0.0074985573281534015
1772565831703998200,4.628998291015625,0.10284253483712673,0.004447129301703535,-0.0065449281314387915
1772565831714027500,4.639027587890625,0.10254618223905562,0.005021823917119764,-0.005213843924459069
1772565831724055300,4.64905517578125,0.10613690020740031,0.0014305351266171783,-0.007278685766085982
1772565831734083300,4.659083251953125,0.10823065761625766,-0.0013397287377389148,-0.008188676750473677
1772565831744112000,4.669112060546875,0.10868132399320601,-0.0003960820789216086,-0.014093462081160395
1772565831754140400,4.679140380859375,0.10763269172310828,-0.002415089184558019,-0.007550287515390664
1772565831764169200,4.689169189453125,0.10404080471098423,-0.0014873753138119354,-0.011337952827941625
1772565831774197200,4.699197265625,0.10000000488758086,0.002304632813716307,-0.0038667584307491777
1772565831784226300,4.709226318359375,0.11630875013172626,-0.001590684991236776,0.0027746340787969527
1772565831794254300,4.71925439453125,0.10927519823312759,0.0008685081965290009,-0.008909921963419765
1772565831804283400,4.729283447265625,0.10942366679310798,-0.004465719837741926,-0.009443389519304037
1772565831814311200,4.739311279296875,0.11451134532094001,-0.001679998109349981,-0.0089692326689139
1772565831824340200,4.74934033203125,0.11466273649036883,-0.001880790511611849,-0.006206234228983521
1772565831834368300,4.7593681640625,0.10463818608224391,-0.0036825838031480087,-0.0032835334490053355
1772565831844397300,4.769397216796875,0.10044599508941172,0.006848071229900233,0.0032661987217143178
1772565831854425300,4.77942529296875,0.11211889722645282,-0.004385133448778652,-0.0047922757778316736
1772565831864454100,4.7894541015625,0.10823007309436797,-0.005628767701168544,-0.011762151323072612
1772565831874482400,4.799482421875,0.1025432596296072,0.0017372492884984239,-0.0014265987370163202
1772565831884511200,4.80951123046875,0.10613222403228283,-0.0015100438033463432,-0.008874266128148883
1772565831894539300,4.819539306640625,0.10747779342234134,0.004861843015858903,-0.008683638926874846
1772565831904568300,4.829568359375,0.11361293517649174,0.002303902161354199,-0.0018874029154889284
1772565831914596400,4.839596435546875,0.10673135896921157,0.0008527580715483054,-0.003378847049642354
1772565831924624100,4.8496240234375,0.11092062735259532,0.006936772426660172,0.0013764759849756955
1772565831934653200,4.859653076171875,0.10493395415842532,0.0018570991087704897,0.002104899857379496
1772565831944681500,4.869681396484375,0.11047113001942634,0.006588561777188443,-0.009501439849473535
1772565831954710300,4.879710205078125,0.11286825428903102,0.0019231272494187577,-0.006624477907363325
1772565831964738300,4.88973828125,0.10314122552275658,-0.0008747461410704999,-0.0009957330390810966
1772565831974767000,4.89976708984375,0.11241583434641361,-0.005575169783830642,0.0018699768566526472
1772565831984795400,4.90979541015625,0.10822598144114016,-0.0002193829383002594,0.0011273965947329997
1772565831994824400,4.919824462890625,0.10718144082427024,0.0019795701443916184,-0.002554123195912689
1772565832004852200,4.929852294921875,0.10553659622669219,0.004321078069508075,-0.011824001045525074
1772565832014881300,4.93988134765625,0.11092296544015406,-0.0012586308921221643,-0.0021245544059202075
1772565832024909300,4.949909423828125,0.10239596011340618,-0.000778519224980846,-0.0043721324033103885
1772565832034938400,4.9599384765625,0.1106254437983036,-0.00005931070549413562,-0.010544610493164509
1772565832044966100,4.969966064453125,0.11646014130115509,-0.002167452832730487,-0.00953521425491199
1772565832054995200,4.9799951171875,0.11601415109932423,-0.010228781443065963,-0.007478373056650161
1772565832065023500,4.9900234375,0.1097282026976347,-0.00031539979183580727,-0.006515829901117831
1772565832075052300,5.00005224609375,0.11691197672188282,-0.0034493047702359035,-0.00106083416454494
1772565832085080300,5.010080322265625,0.09940671516954898,-0.0037335696382913737,0.0051958881426602595
1772565832095109000,5.020109130859375,0.10748831481635569,-0.00273949426675681,0.002706098887231201
1772565832105137400,5.030137451171875,0.11706629050076008,0.005618456369708292,-0.005300846354477107
1772565832115166500,5.04016650390625,0.11467208884060383,-0.002946652477723546,-0.007434095523506402
1772565832125194200,5.0501943359375,0.11242694026231766,0.004326927854982204,0.00001762698823586106
1772565832135222500,5.060222412109375,0.10644143611192702,0.0024632985407253725,0.006956869933195412
1772565832145251300,5.070251220703125,0.10255085841417312,-0.002681644865986891,0.00678869202574715
1772565832155279400,5.080279296875,0.1136228720486164,-0.0003065360653679818,-0.010848488810565321
1772565832165308200,5.09030810546875,0.1173655657082796,0.0018835258913924915,-0.000026833207998424767
1772565832175336400,5.10033642578125,0.0988093337982893,0.0022296815810957924,-0.0017052695479243994
1772565832185365200,5.110365234375,0.11856149749457835,0.0036747840891825033,-0.002630092775262892
1772565832195393300,5.120393310546875,0.10524199719429016,-0.001731399503024295,-0.015452420675754546
1772565832205422300,5.13042236328125,0.11003098503649233,0.0017030730242608115,-0.0019415259892120956
1772565832215450400,5.140450439453125,0.10598901616930961,0.004580450524901971,-0.005753430693875998
1772565832225479400,5.1504794921875,0.10464227773547172,-0.0023151770406169814,-0.008730601607449352
1772565832235507200,5.160507080078125,0.11167349154651164,-0.005890405178884975,-0.0010553908044472337
1772565832245536300,5.170536376953125,0.1097282026976347,-0.0030806997867068274,-0.004647533544898033
1772565832255564300,5.180564208984375,0.10673545062243937,-0.007229937553801574,-0.004953366357367485
1772565832265593300,5.19059326171875,0.10344400786161422,-0.006360488642356358,-0.004783489683177322
1772565832275621400,5.200621337890625,0.11197568936347961,-0.0031774427260272205,0.0009082374187186359
1772565832285650200,5.210650146484375,0.10374854376614093,0.0022471807051682845,-0.005801799880247563
1772565832295678500,5.220678466796875,0.11317746636867522,0.006012145562143996,-0.0028839214058592913
1772565832305707300,5.230707275390625,0.11182955889105796,-0.004877497242717072,-0.0013663747160695492
1772565832315735300,5.2407353515625,0.11976093641221523,0.00040927492063492533,-0.00017433365359902382
1772565832325763300,5.250763427734375,0.10853753160834312,0.002595153892622329,-0.00022206351915374397
1772565832335792400,5.26079248046875,0.10449556274116038,-0.00443145224195905,-0.006110336106456816
1772565832345820400,5.2708203125,0.10898410633206367,-0.0014060765387956052,-0.0046031646802090105
1772565832355849200,5.28084912109375,0.10958265674710273,-0.003148814853164367,-0.006809862677939236
1772565832365877500,5.29087744140625,0.10629121398627757,0.00003836838216520846,-0.0033768560219556093
1772565832375906300,5.30090625,0.11302256806790828,-0.0007114773041801527,0.0010468969707377255
1772565832385934300,5.310934326171875,0.12050386373400687,0.00019404300106689332,0.0021160971048288044
1772565832395963400,5.32096337890625,0.11077683496773243,-0.0027200132481520994,-0.005365454289596528
1772565832405991400,5.330991455078125,0.107183778911829,-0.0017396969739114864,-0.007987838682439177
1772565832416020500,5.3410205078125,0.10419219588041305,0.0009667581063462421,-0.0024096184249967336
1772565832426048300,5.35104833984375,0.11032675311267376,0.006075205427571199,0.005481554949935526
1772565832436077300,5.361077392578125,0.09880348857939243,0.001977273156028241,0.0028911183316260576
1772565832446105300,5.371105224609375,0.10673135896921157,-0.0022350747088436037,0.007076039333455264
1772565832456134400,5.381134521484375,0.11900164247751235,-0.009693295460031367,0.0035954672086983917
1772565832466162200,5.391162109375,0.11286533167958258,-0.00032814967555459584,-0.000025810294691473245
1772565832476190200,5.401190185546875,0.10777882219552994,-0.0004234358767280355,0.0033824820451438427
1772565832486219500,5.411219482421875,0.10104454550445079,-0.0008854227987118065,-0.003619523937720805
1772565832496247300,5.421247314453125,0.09655366382598876,0.002428218094189651,-0.008175251013319939
1772565832506276400,5.4312763671875,0.10223989276885986,0.005466772939334623,-0.008496025666594504
1772565832516304100,5.44130419921875,0.10313947195708752,0.0017326096459990366,-0.006299702932406216
1772565832526333400,5.45133349609375,0.10074410125315189,-0.00572591706586536,-0.007812317718751728
1772565832536360400,5.4613603515625,0.10254092154204845,-0.00805131410639733,-0.001022529714461416
1772565832546389500,5.471389404296875,0.10523381388783454,-0.005809855322539806,0.0009588716274127364
1772565832556417800,5.481417724609375,0.11331541353464127,-0.0025194309084443376,-0.010390114051196723
1772565832566446600,5.491446533203125,0.11331658257842063,-0.002928527732565999,-0.008020352712552994
1772565832576474600,5.501474609375,0.1043383263528347,0.008913771588052623,-0.006239150117896497
1772565832586503400,5.51150341796875,0.10643266828358172,-0.008411448089103215,-0.0004587218192405998
1772565832596531700,5.52153173828125,0.10268997462391853,-0.002342736334400251,-0.004479319104831666
1772565832606560800,5.531560791015625,0.10298924983143806,-0.002144551447755657,-0.009751596951950341
1772565832616588500,5.541588623046875,0.1137625727802515,-0.003561204179492779,-0.002197199517022818
1772565832626617600,5.55161767578125,0.10762626198232174,-0.00387678206784185,-0.0010497099823318422
1772565832636645600,5.561645751953125,0.10388649093210696,-0.00019254516372457146,-0.005976845919899642
1772565832646674700,5.5716748046875,0.10628010807037352,0.0003197745728539303,-0.003410118970740586
1772565832656702500,5.581702392578125,0.10418635066151619,-0.0025963777353288603,-0.011384056991990655
1772565832666730800,5.591730712890625,0.11540975546538829,-0.002753120933310129,0.0016629647761583328
1772565832676759800,5.601759765625,0.10538286696970463,0.005984106777748093,-0.0030881022084504363
1772565832686787600,5.61178759765625,0.10867664781808853,0.003959724810672923,-0.007168686052970588
1772565832696816600,5.621816650390625,0.10762976911365985,0.002163621474406682,-0.010886464467085898
1772565832706844700,5.6318447265625,0.10164660305082797,-0.004912422425625846,-0.008243822737503795
1772565832716873700,5.641873779296875,0.1122720419615507,-0.0004879433471476659,-0.008866576012037695
1772565832726901500,5.651901611328125,0.10628595328927039,-0.0015157885575434193,-0.008758055869955568
1772565832736930600,5.6619306640625,0.10628419972360134,-0.0014467008101288227,-0.0009700506085529923
1772565832746958600,5.67195849609375,0.11017419289946555,-0.002018098356761038,0.005049483675602823
1772565832756987600,5.681987548828125,0.10358955381214618,0.0026717947588302195,-0.0013770970394834875
1772565832767015700,5.692015625,0.11062310571074485,0.005906579995551146,-0.006211586257535964
1772565832777044500,5.70204443359375,0.10658113684356212,-0.00030369108773302286,-0.004056454050261527
1772565832787072800,5.71207275390625,0.1136146887421608,-0.003568679666472599,-0.011907167550642042
1772565832797101600,5.7221015625,0.10628244615793228,-0.0050568404315738,-0.0005114018545486033
1772565832807129600,5.732129638671875,0.10359072285592555,-0.007569900964736006,-0.00865227567423135
1772565832817158700,5.74215869140625,0.10493570772409438,-0.00623246921536047,-0.010656838695984333
1772565832827186700,5.752186767578125,0.10388824449777602,-0.005241129223606549,-0.010080719308461994
1772565832837215700,5.7622158203125,0.10388824449777602,0.000032084771851077674,-0.0024764731161296366
1772565832847243500,5.772243408203125,0.11121931803822517,0.0008458945059217512,0.00019312968561425805
1772565832857271600,5.782271484375,0.10792670623362063,-0.004453970034443773,-0.00048065965641289944
1772565832867300600,5.792300537109375,0.11735445979237556,-0.0007073582514887675,0.0053700756657868625
1772565832877328600,5.80232861328125,0.11615385183095932,-0.0026064196387305854,-0.004528053617384284
1772565832887357700,5.812357666015625,0.09894260478913783,0.0052453304746886715,0.002977517973445356
1772565832897385500,5.822385498046875,0.11001286485791206,-0.00811252907461021,0.0007885930944234132
1772565832907414800,5.832414794921875,0.09684183311760425,-0.0014869825881673022,-0.0032507636905647814
1772565832917442600,5.842442626953125,0.11255319699048995,0.0021858287396375087,-0.008635890795011073
1772565832927471600,5.8524716796875,0.11180559349358081,-0.0022297500797547397,-0.006480155799537896
1772565832937499600,5.862499755859375,0.1029740522623062,0.006329714478179812,-0.0018009119421243667
1772565832947528700,5.87252880859375,0.11404781946241854,0.0012324096054770052,-0.00834943853644654
1772565832957556700,5.882556640625,0.10118249267041683,-0.006708626226591877,0.000031801644060760734
1772565832967585500,5.89258544921875,0.10238076254427432,0.0005187631770968437,0.004443316209688782
1772565832977613600,5.902613525390625,0.11180793158113955,-0.004725717914220877,-0.004236030134558678
1772565832987642600,5.912642578125,0.11091244404613972,-0.0018780688315629959,-0.010315605776570737
1772565832997670700,5.922670654296875,0.1034317329019308,-0.0038428934979718174,-0.001672828583046794
1772565833007698400,5.932698486328125,0.11181319227814673,-0.010006064903363586,-0.014421269263420253
1772565833017727500,5.9427275390625,0.1032838488638401,0.005454086987697519,-0.00440400711260736
1772565833027755500,5.952755615234375,0.1130085395425558,0.000401785733923316,-0.00046986426776275035
1772565833037784600,5.96278466796875,0.11091419761180878,-0.006288122092466801,-0.004962225517258048
1772565833047812600,5.9728125,0.11181260775625705,0.0034277961913263422,-0.00939642683872953
1772565833057841700,5.982841552734375,0.11300970858633518,-0.002102516104048118,-0.006511318122781813
1772565833067869700,5.99286962890625,0.11121522638499737,-0.004214722485048696,-0.0019318996443413196
1772565833077898500,6.0028984375,0.10448387230336666,-0.0007430414862232282,-0.007329557436797768
1772565833087926500,6.012926513671875,0.10777706862986088,-0.0011361598565010353,-0.00878054169639945
1772565833097955600,6.02295556640625,0.10687865848541259,0.0009722105995984748,0.002753828752785921
1772565833107983600,6.032983642578125,0.0998462756305933,0.0017120235156966373,-0.005129490109253674
1772565833118012700,6.0430126953125,0.1046346789509058,0.0008398118250072002,-0.014269640631973743
1772565833128040400,6.05304052734375,0.10673077444732189,-0.0037540964030893516,-0.0020902320112101734
1772565833138069500,6.063069580078125,0.10613456211984157,-0.005052534149214625,-0.0012223266028799115
1772565833148097500,6.07309765625,0.10359189189970493,-0.009676157095562667,-0.006532105182483792
1772565833158126600,6.083126708984375,0.1070353103518486,-0.0005929426581598818,-0.0006365260715596378
1772565833168154600,6.093154541015625,0.10688567274808883,-0.000532567940163426,-0.0028583303068764505
1772565833178182700,6.1031826171875,0.10673486610054969,-0.0054037998388754204,-0.005060187732707709
1772565833188211700,6.113211669921875,0.10913315941393374,0.0007609424690948799,-0.002190313118509948
1772565833198239500,6.123239501953125,0.10524491980373858,-0.0035335307212779297,-0.0006207074479199946
1772565833208268500,6.1332685546875,0.11781506304144859,-0.0002214150651823729,0.00023461247347295283
1772565833218296600,6.143296630859375,0.10584230117499828,-0.0016369763849535955,-0.001336217039823532
1772565833228325600,6.15332568359375,0.09850888954699039,0.006238323567411862,-0.0017398294046521185
1772565833238353400,6.163353515625,0.11347264992296695,0.008386879903427324,-0.003429883117135614
1772565833248382500,6.173382568359375,0.11437047554552554,0.0067998892731964584,-0.005697407924011349
1772565833258410800,6.18341064453125,0.10539221931993961,0.007218585042725317,-0.003880403363611549
1772565833268439600,6.193439453125,0.1089829372882843,-0.0028226425055647266,-0.00854925369117409
1772565833278467600,6.203467529296875,0.11047814428210258,-0.003727363659790717,-0.005430025692097842
1772565833288496400,6.213496337890625,0.10284779553413391,-0.00013501085678581148,-0.015475527556706219
1772565833298524700,6.223524658203125,0.1064385135024786,0.0008637498230207711,-0.005803480380680411
1772565833308553700,6.2335537109375,0.1214046119660139,-0.00025928569042589516,-0.005549596951156854
1772565833318581500,6.24358154296875,0.10943535723090171,0.0007316022101789713,-0.004371694011893123
1772565833328610600,6.253610595703125,0.09955985990464687,-0.0008923320301109924,-0.006356054495833814
1772565833338638600,6.263638671875,0.11736615023016929,0.0026929380115587264,-0.002525426824390888
1772565833348666600,6.27366650390625,0.10254852032661438,-0.002835483720828779,-0.0022380064514465627
1772565833358695400,6.2836953125,0.10015256510078907,-0.005159054130455479,-0.0011079795082099735
1772565833368723700,6.2937236328125,0.10150339518785476,-0.004446951205190271,-0.009357903192937373
1772565833378752800,6.303752685546875,0.10988251647651195,0.00030167266058269885,-0.0030843028161674736
1772565833388780500,6.313780517578125,0.1091354975014925,-0.005898195759695954,-0.009274645356275141
1772565833398809600,6.3238095703125,0.11018412977159023,-0.0014396043490618466,-0.003435764868650585
1772565833408837600,6.333837646484375,0.10719254674017428,0.002977728035999462,-0.0032149982574395833
1772565833418866700,6.34386669921875,0.10599544591009616,0.0015662949020741506,-0.010087532641738653
1772565833428894500,6.35389453125,0.11572364372014998,0.0014947320697829127,-0.0035007381299510597
1772565833438923500,6.363923583984375,0.10390110397934912,-0.0015706696830922737,-0.005969612461514771
1772565833448951800,6.373951904296875,0.11243161643743514,0.0014153466906398533,0.0007234554363414645
1772565833458980600,6.383980712890625,0.11527356186509131,-0.005870622766180895,0.000359444429539144
1772565833469008600,6.394008544921875,0.09941314491033554,0.007867212544032371,-0.0035955950728617605
1772565833479037400,6.404037353515625,0.10091068999171257,-0.0010025144063169136,0.00009465601351112127
1772565833489065700,6.414065673828125,0.11812018346786499,-0.008583393422793597,-0.006572345861326902
1772565833499093500,6.424093505859375,0.11228665500879287,-0.004020336990687065,-0.00392267160275951
1772565833509122600,6.43412255859375,0.10016776266992092,-0.003815160674252547,-0.005171064228657633
1772565833519150600,6.444150634765625,0.10091536616683006,-0.0019721174902981144,-0.006362813030183315
1772565833529179600,6.4541796875,0.11049392637312412,-0.003332409525453113,-0.0047415867702104144
1772565833539208000,6.4642080078125,0.11109306131005287,-0.0013861753950826822,-0.004714643964357674
1772565833549236700,6.47423681640625,0.11109364583194255,-0.0010828359337989241,0.0005550948658026754
1772565833559265000,6.48426513671875,0.11872574814558029,-0.00580878217688296,-0.001064176899101585
1772565833569294000,6.494294189453125,0.10361644181907176,-0.001179528640769422,-0.0047789413722231985
1772565833579321900,6.50432177734375,0.10975333713889121,-0.008918708058074116,-0.001977437552809715
1772565833589351000,6.514350830078125,0.11154840386211871,-0.0024601932681864126,-0.0036842597370035945
1772565833599379000,6.52437890625,0.10765431903302669,0.003360831902339123,0.00809714427581057
1772565833609408000,6.534407958984375,0.10481120456159114,0.004402522974996827,-0.0003062164049595594
1772565833619435800,6.544435791015625,0.09957271938621998,0.002212228122795932,-0.002859115758165717
1772565833629464800,6.55446484375,0.10780278759300709,0.004835534964245744,-0.00884852889869362
1772565833639492900,6.564492919921875,0.11543430538475513,-0.0019451427184045314,-0.0047894810325466095
1772565833649521000,6.57452099609375,0.11049509541690349,-0.007593893761676736,0.0053135414392687375
1772565833659550000,6.584550048828125,0.10061784452497959,-0.0013590910253347829,-0.0036291868152096866
1772565833669577700,6.59457763671875,0.10480769743025302,0.0003288940276484936,-0.0011205284625291825
1772565833679607000,6.60460693359375,0.11109189226627349,-0.00006974533454049378,-0.008291004613786936
1772565833689634800,6.614634765625,0.10555705449283122,0.006010044936602935,0.007795147388242185
1772565833699664000,6.624663818359375,0.09508242222964763,0.0007027231755666434,0.0006018018180504441
1772565833709691600,6.634691650390625,0.11079437062442302,0.0015396854563616215,-0.007624905387870967
1772565833719721000,6.644720947265625,0.11184417193830012,0.006077680512447841,0.003127228642441332
1772565833729749000,6.6547490234375,0.10615852751731872,0.006914948753919452,-0.0077193970046006135
1772565833739777800,6.66477783203125,0.10166881488263606,0.00022224161566700786,0.00013794716596603394
1772565833749805800,6.674805908203125,0.10002221671938896,-0.00030997926462441683,-0.006334061859734356
1772565833759835000,6.6848349609375,0.10720248361229896,0.0014991205505328251,0.007330890877358615
1772565833769863000,6.69486279296875,0.11408464434146881,-0.005992833506898023,0.00021124986419454215
1772565833779892000,6.70489208984375,0.11827391272485256,-0.005424454467836767,-0.000997943262476474
1772565833789919700,6.714919677734375,0.11139058295190334,-0.005230868124496192,-0.010744681376218795
1772565833799949000,6.724948974609375,0.11168752007186412,0.0064523316442733625,-0.006494567917380481
1772565833809976800,6.734976806640625,0.10181026917994022,-0.0047322344199754295,-0.005672401346918195
1772565833820004900,6.7450048828125,0.10241174220442771,-0.0020585810641990973,-0.007069171201251447
1772565833830033700,6.75503369140625,0.11288695898950099,0.00010623228687327354,0.0004511960999108851
1772565833840062000,6.76506201171875,0.11677695216536521,0.001255438854615204,0.00013230287646874783
1772565833850090800,6.7750908203125,0.1021112979531288,-0.002579380934755318,-0.00006042495034635067
1772565833860118800,6.785118896484375,0.10779401976466178,-0.000056931518740020686,-0.006334463718533516
1772565833870147800,6.79514794921875,0.10240823507308959,0.008412069143611006,-0.004445745628792792
1772565833880175900,6.80517578125,0.10061375287175178,-0.0020360998043324795,-0.00819180028932169
1772565833890205000,6.815204833984375,0.1079459954559803,-0.0036675414976431054,-0.0002648432149551809
1772565833900232700,6.825232666015625,0.10704875435531139,0.006312840975192375,-0.005170991163421422
1772565833910261800,6.83526171875,0.10839841539859771,-0.0017712931219954042,-0.004136917141638696
1772565833920289800,6.845289794921875,0.1122895776182413,-0.004414702036557719,-0.0022536789446137846
1772565833930318800,6.85531884765625,0.10301204618513583,-0.0025368569672806185,-0.0030551132543012497
1772565833940347000,6.865346923828125,0.1100455980837345,0.0025621421055868265,-0.007201364479865878
1772565833950375700,6.875375732421875,0.10705343053042889,-0.006678116923896595,-0.00314854542510584
1772565833960404000,6.885404052734375,0.11094400822818279,0.004267178758070804,-0.002391753974743187
1772565833970431700,6.895431640625,0.11034253520369529,-0.0020475847461493683,-0.002714830182958394
1772565833980460800,6.905460693359375,0.10794774902164936,0.004029538643872365,-0.003164163119345903
1772565833990488800,6.91548876953125,0.11168693554997443,0.000254467951413244,-0.007543072323314845
1772565834000518000,6.925517822265625,0.11692249811589717,-0.002225978086935356,-0.0039307635776698584
1772565834010546000,6.9355458984375,0.10495265885889529,0.00437363024065271,-0.007821195144951344
1772565834020574700,6.94557470703125,0.1079459954559803,-0.0036450785040855406,-0.0037474976989440617
1772565834030603000,6.95560302734375,0.11437982789576052,-0.0007914974375627935,-0.004978683461714536
1772565834040631800,6.9656318359375,0.11003975286483764,0.0001995548598235473,-0.005921425938233733
1772565834050659800,6.975659912109375,0.1067477255821228,-0.0033653984796022996,-0.005026084533706307
1772565834060689000,6.98568896484375,0.11392974604070186,-0.0015238531329901889,0.0001799414104782045
1772565834070717000,6.995717041015625,0.11258359212875366,0.00018182740688789636,-0.0040253099933266635
1772565834080746000,7.00574609375,0.10480243673324584,0.0016371179488487541,-0.0005652874662540853
1772565834090773800,7.015773681640625,0.11752338661849498,-0.0012491552443010731,-0.005527494717203081
1772565834100802800,7.025802734375,0.1191694002598524,0.0019787344607524572,-0.003243475433252752
1772565834110830800,7.035830810546875,0.10645078846216201,-0.0012518860575044526,-0.003235876648686826
1772565834120859000,7.04585888671875,0.11288754351139067,0.0034092421879060564,0.006704794868268072
1772565834130887700,7.0558876953125,0.10899755033552647,0.0009910751302726567,-0.00930434637479484
1772565834140916000,7.065916015625,0.10780103402733802,-0.007160000423016026,-0.007092826071474701
1772565834150945000,7.075945068359375,0.1104945108950138,0.004935766768595203,-0.008262783166300506
1772565834160972800,7.085972900390625,0.10660451771914958,0.003335848158132285,-0.009101298083364963
1772565834171001900,7.096001953125,0.11004501356184482,0.0022117714650696143,-0.0026901341331191358
1772565834181030000,7.10602978515625,0.10884732820987701,0.004613950935704633,-0.00019241729956120251
1772565834191059000,7.116058837890625,0.11079378610253333,-0.0005822797002503649,0.0034649909631349145
1772565834201086700,7.126086669921875,0.10600421373844146,0.00039114104232285167,-0.008122972836811095
1772565834211115800,7.13611572265625,0.11468144119083881,0.0014197762705851346,-0.010292973819654435
1772565834221144000,7.14614404296875,0.10929390293359756,-0.008195083658373915,-0.009938717021886258
1772565834231172900,7.1561728515625,0.11183891124129294,0.001907605453301221,-0.010356778037175536
1772565834241201000,7.166200927734375,0.0925350758343935,0.003176785138901323,0.003693666886165738
1772565834251229700,7.176229736328125,0.10241349577009677,0.0016733400397002697,0.005343516452424228
1772565834261258000,7.186258056640625,0.10720365265607833,-0.0009140232721110805,-0.009091525608021766
1772565834271285800,7.19628564453125,0.11199264049828052,-0.0012230800881283357,-0.0038185171085409818
1772565834281314800,7.206314697265625,0.11363923866152763,-0.003997042880067601,0.0024973332410678267
1772565834291342800,7.2163427734375,0.11229483831524849,0.0020220164800528436,-0.0032258484450168904
1772565834301372000,7.226371826171875,0.10511515594422817,0.0017707816653419286,0.0023231457179412243
1772565834311400000,7.23639990234375,0.09703238725364208,0.001571172006591223,-0.002886606553290039
1772565834321428700,7.2464287109375,0.10511223333477973,0.0027807487257523462,0.00037445933558046815
1772565834331457000,7.25645703125,0.11184767906963825,0.0027644688778091222,-0.006465634083840995
1772565834341486000,7.266486083984375,0.10675941601991652,0.003927840968221426,-0.010365326669812202
1772565834351513900,7.276513916015625,0.11453998689353466,-0.003164108320418745,-0.008061725902557373
1772565834361543000,7.28654296875,0.11633446909487247,0.004423812358197756,-0.009498955631442367
1772565834371571000,7.296571044921875,0.1052618709385395,0.0002549885412212461,-0.004933401281572878
1772565834381600000,7.30660009765625,0.10526070189476013,0.0024538137597497553,-0.005139207785669714
1772565834391627800,7.316627685546875,0.10092121138572692,0.004614019434363581,-0.0026308782265521582
1772565834401656800,7.32665673828125,0.1163327155292034,0.007217662594118155,-0.004233564182836562
1772565834411684900,7.336684814453125,0.11228899309635161,0.006986790147423744,-0.004264123717881739
1772565834421713000,7.346712890625,0.1067524017572403,0.0016693579843267798,-0.004234915889706463
1772565834431742000,7.356741943359375,0.1148299097508192,-0.0010476550225634127,-0.005588394591584801
1772565834441769700,7.366769775390625,0.1166249764740467,0.0035065833488479256,0.002433072365820408
1772565834451799000,7.376799072265625,0.10914075819849968,-0.006625852447119541,-0.007012308181170374
1772565834461826800,7.386826904296875,0.10794365736842154,-0.009448385354829952,0.00007198752397671342
1772565834471855900,7.39685595703125,0.10749474455714225,0.004642501176754013,0.0033357933592051267
1772565834481883600,7.406883544921875,0.10779518880844116,0.000528398655122146,-0.009140552381519227
1772565834491913000,7.416912841796875,0.09986498033106327,0.0025727000322192904,-0.00818153462363407
1772565834501941000,7.42694091796875,0.10644903489649295,0.0019959778564982117,-0.0059153249910101294
1772565834511969800,7.4369697265625,0.10644611228704452,-0.001187917443201877,-0.0018976503148674963
1772565834521997800,7.446997802734375,0.1053968954950571,-0.007150141182704828,0.0019133776069618761
1772565834532030200,7.4570302734375,0.11018412977159023,-0.0013779966552043333,-0.003258983529638499
1772565834542058200,7.467058349609375,0.10794073475897312,0.008035276287049054,0.0007078377421014011
1772565834552086000,7.4770859375,0.11078443375229835,0.0034903765661409123,-0.007068075222708284
1772565834562115000,7.487114990234375,0.10450140796005725,-0.003874448546860367,-0.004492616977822036
1772565834572143000,7.49714306640625,0.10898878250718116,-0.003169259419571608,-0.0026192060550674794
1772565834582172200,7.507172119140625,0.10180500848293304,0.0015199943752028048,-0.00953866658732295
1772565834592200200,7.5172001953125,0.10554653309881687,-0.0025426428206730633,-0.005892638235166669
1772565834602229000,7.52722900390625,0.10973813956975936,0.002296865065791644,-0.001978113406244665
1772565834612257300,7.53725732421875,0.10913900463283062,0.00042026210553012784,-0.003264755683299154
1772565834622286000,7.5472861328125,0.1202104337453842,-0.004294381858827546,-0.0009241473739035427
1772565834632314000,7.557314208984375,0.103300799998641,-0.002113827515929006,-0.001311575788911432
1772565834642343200,7.56734326171875,0.10749182194769381,-0.00006542535244952886,-0.004561024305224418
1772565834652371200,7.57737109375,0.1031529159605503,0.00045017775318119673,-0.0042591187492012975
1772565834662400300,7.587400146484375,0.10135843375921248,0.0029641379020642488,-0.011039901463128625
1772565834672428000,7.597427978515625,0.1000111108034849,-0.004490936477389186,-0.007077957295905798
1772565834682457000,7.60745703125,0.11631927152574062,0.00018292795200832186,-0.00243727361690253
1772565834692485000,7.617485107421875,0.10913842011094092,0.006598165289172902,-0.002011540751811117
1772565834702513200,7.62751318359375,0.11168284389674663,-0.0013530266107292844,0.0022203246642835436
1772565834712542200,7.637542236328125,0.11228197883367538,0.0006737482428317889,-0.007515179669391364
1772565834722570200,7.6475703125,0.10674597201645374,0.004187272789119742,-0.010123846064135432
1772565834732599300,7.657599365234375,0.10599895304143428,-0.0006119122201111168,0.0014545096572488546
1772565834742627000,7.667626953125,0.09911679231226443,0.005109050109423697,0.004963632023055106
1772565834752656100,7.67765625,0.10569850879013538,-0.004488776486343704,-0.006379124844167381
1772565834762684200,7.68768408203125,0.11347791061997413,-0.0020252770162187514,-0.003626921792887151
1772565834772713200,7.697713134765625,0.10838906304836272,-0.0013625479243230074,-0.008165734266303478
1772565834782741200,7.7077412109375,0.11272796903550625,-0.0020718150051077825,-0.008965506341867149
1772565834792770000,7.71777001953125,0.10913842011094092,0.0031022631645435464,-0.001258493894804269
1772565834802798300,7.72779833984375,0.1071960538715124,0.0005723930604755878,-0.0030158406898379325
1772565834812827100,7.7378271484375,0.10510405002832413,-0.0018957277858396991,-0.003989398429729044
1772565834822855200,7.747855224609375,0.1085427923053503,-0.0025398343756562096,-0.0060530164286494255
1772565834832884000,7.757884033203125,0.11587328132390975,0.001206521678972058,0.004314995388593525
1772565834842912300,7.767912353515625,0.1001595793634653,-0.0042320663454942405,0.0017353724252432584
1772565834852940000,7.77793994140625,0.10674246488511561,-0.00542533581724856,-0.004152772297896444
1772565834862969000,7.787968994140625,0.0974625953644514,-0.005393360643251799,-0.00956654097493738
1772565834872997400,7.797997314453125,0.09835925194323063,0.0006611399230081588,-0.0005526471803896128
1772565834883026200,7.808026123046875,0.10943009653389453,-0.005282694209855981,0.00034773572543635964
1772565834893054200,7.81805419921875,0.11227145743966102,-0.0023767162358155473,-0.005620470230281353
1772565834903083000,7.8280830078125,0.10658522849678993,0.0036111488350201396,-0.0006924392435699701
1772565834913111300,7.838111328125,0.09805354699492454,0.002846301942365244,-0.0008236278751865029
1772565834923140400,7.848140380859375,0.11122048708200453,0.0020556356218643487,-0.005075166106130928
1772565834933168000,7.858168212890625,0.10493570772409438,0.002915234426152892,-0.006469396943505853
1772565834943197200,7.868197265625,0.10343933168649673,0.0018054145873058587,-0.0027613727384246884
1772565834953225200,7.87822509765625,0.11106734234690666,0.000498505840357393,-0.0001014328141696751
1772565834963254300,7.888254150390625,0.11660042655467986,0.00028558460888452827,-0.0013416056009940803
1772565834973282000,7.898281982421875,0.1034317329019308,0.004073880109097808,-0.006725965520460158
1772565834983311000,7.90831103515625,0.10208557898998259,0.0017061782967997714,-0.004003956678044051
1772565834993339400,7.91833935546875,0.10837152739167213,0.0012276009996188804,-0.006473817390296608
1772565835003367200,7.9283671875,0.11435820058584213,-0.0016820348028093576,-0.015846662424039093
1772565835013396200,7.938396240234375,0.10328443338572979,0.002810015919432044,-0.011402542496751994
1772565835023424300,7.94842431640625,0.0996931308954954,-0.0015071805594023316,-0.011567359403334558
1772565835033453300,7.958453369140625,0.11600304518342018,0.00037797103349585084,-0.005282488713879138
1772565835043481000,7.968481201171875,0.10687456683218478,0.0014759132048813624,-0.0024763452519662678
1772565835053510100,7.97851025390625,0.1146557222276926,-0.0000902127338340506,-0.006856167771387845
1772565835063538200,7.9885380859375,0.10971768130362033,0.0010232466670917347,-0.00615465017221868
1772565835073567200,7.998567138671875,0.10403028331696987,-0.0029350488048978146,-0.006943042337242513
1772565835083595300,8.00859521484375,0.10507950010895728,-0.002813070959621109,-0.012441530155669896
1772565835093624000,8.0186240234375,0.11106675782501697,-0.00530107924991753,-0.0060526145698502655
1772565835103652400,8.02865234375,0.11091653569936752,-0.002099515862786211,-0.0033725086404010653
1772565835113681200,8.03868115234375,0.11046586932241916,0.005336739651765674,0.003493194144312292
1772565835123709200,8.048709228515625,0.09894202026724815,0.004225705103366635,-0.00317609101915732
1772565835133737000,8.058737060546875,0.11315408549308777,-0.0027978414244484153,-0.00951119405850768
1772565835143766300,8.068766357421875,0.1097106670409441,0.00009877506620250642,-0.0019520839158445596
1772565835153794300,8.078794189453125,0.10731471181511879,-0.003928265659906901,-0.0031086335398256776
1772565835163823000,8.088822998046876,0.09878244579136371,-0.006246365309972315,-0.0008694032456725836
1772565835173851100,8.09885107421875,0.10851122812330723,-0.004930122479097917,0.0032446079444140193
1772565835183880200,8.108880126953125,0.11748889982700347,-0.0005101825784193352,-0.00697535543795675
1772565835193908200,8.118908203125,0.10955693778395652,-0.008935819023079238,-0.006290862038824707
1772565835203937300,8.128937255859375,0.11045417888462543,-0.008394588285847566,-0.00895383417038247
1772565835213965000,8.138965087890625,0.10790917057693004,0.004805276823299937,-0.005635813929885626
1772565835223994400,8.148994384765626,0.11538929719924926,0.004754099191911518,-0.010574713370483367
1772565835234022100,8.159022216796876,0.10970540634393691,0.004842425929335877,-0.007778488514386117
1772565835244051200,8.16905126953125,0.10491817206740378,-0.00035110129287932066,-0.0033902452264912425
1772565835254079000,8.179078857421874,0.10791150866448879,0.003366914583253674,-0.004278992493450641
1772565835264107300,8.189107177734375,0.10985679751336574,0.0028079335602000355,-0.0037677733019925654
1772565835274136300,8.19913623046875,0.11180325540602207,0.0020416892949026077,-0.008346789921633898
1772565835284164000,8.2091640625,0.10057985060214995,-0.002973618116462603,-0.012267397431470452
1772565835294193200,8.219193115234376,0.10267536157667637,0.0023967315439600498,-0.0035566147693432866
1772565835304221200,8.22922119140625,0.11150339567661285,0.006172048831591382,-0.009433671842887997
1772565835314250200,8.239250244140624,0.11210077704787254,0.00655271871224977,-0.009492343227565288
1772565835324278000,8.249278076171874,0.10895604928135871,0.005086290288344025,-0.005767696681246161
1772565835334307000,8.25930712890625,0.10566577556431293,-0.0033041058795759454,-0.008645973797608167
1772565835344335000,8.269335205078125,0.11135200450718402,0.0006552170722978189,-0.01150985706243664
1772565835354364200,8.2793642578125,0.10791033962070941,-0.0012747600430157034,-0.01779628038816154
1772565835364392200,8.28939208984375,0.10027999087274074,-0.005790840094815939,-0.007703450516797602
1772565835374421000,8.2994208984375,0.10776420914828777,-0.005309952109539881,-0.003836491156648844
1772565835384449300,8.30944921875,0.10716682777702807,-0.005859347886918112,-0.003455620346590876
1772565835394478000,8.31947802734375,0.10746785655021666,0.006028480209014378,-0.009362707232218236
1772565835404506000,8.329506103515625,0.10596972694694995,0.0026775714790681377,-0.008105601576901971
1772565835414534100,8.3395341796875,0.11225392178297042,-0.0037369032396934922,-0.00824864504309371
1772565835424563200,8.349563232421875,0.11180267088413239,-0.005412992358906194,-0.012191245189029722
1772565835434591200,8.35959130859375,0.09938625690340995,-0.002568672311073169,-0.0003011931699700653
1772565835444620000,8.3696201171875,0.09369885891675948,-0.00044080713663715866,-0.007146054096054285
1772565835454648300,8.3796484375,0.10776479367017745,-0.0028653674024390055,-0.006387125487532466
1772565835464677000,8.389677001953125,0.09938567238152027,0.0011973291589412838,-0.00858766773911193
1772565835474705200,8.399705078125,0.11135609616041182,0.001403587754187174,-0.005593801419064402
1772565835484734200,8.409734130859375,0.10836217504143714,-0.0009538620921550319,-0.0023942929917015136
1772565835494762200,8.41976220703125,0.11524492029249668,0.0012988578712334856,-0.010061484885029495
1772565835504791300,8.429791259765626,0.11375088234245777,0.003097920349566266,-0.011762735844962298
1772565835514819000,8.439819091796876,0.10597031146883965,-0.003944111683010123,-0.010947638336103408
1772565835524848000,8.44984814453125,0.10716624325513839,0.00306451583688613,-0.008434139411523938
1772565835534873600,8.45987353515625,0.10447218186557293,0.00240059943490196,-0.0030664383659139275
1772565835544902000,8.46990185546875,0.10521920084059237,0.01308728071330115,-0.005802603597845882
1772565835554931000,8.479930908203125,0.1059673888593912,0.006238086105394176,-0.0021670783733949064
1772565835564958700,8.489958740234375,0.10836334408521651,-0.0012941771295387297,-0.003100231037661433
1772565835574987800,8.49998779296875,0.10297639034986496,0.0008850346396444365,-0.009192958422191441
1772565835585015800,8.510015869140625,0.11180617801547049,0.010371085123741068,-0.010946999015286564
1772565835595044900,8.520044921875,0.1155488716751337,0.002301988765480928,-0.003867050691694021
1772565835605072600,8.53007275390625,0.10791676936149597,-0.0019644136744551358,0.003164236184582114
1772565835615101700,8.540101806640624,0.11524667385816574,-0.0036177977715153246,0.0013901391841471195
1772565835625129700,8.550129638671875,0.10522153892815113,0.0020509046478196977,-0.0018787446849979459
1772565835635158800,8.56015869140625,0.10671499235630034,-0.002320045011979528,-0.003841021201293915
1772565835645186800,8.570186767578125,0.11060498553216457,-0.0020520645584445447,-0.008356507598049939
1772565835655215600,8.580215576171875,0.11284838054478168,0.0003794277716428041,-0.0036715281195938585
1772565835665244000,8.590243896484376,0.11000351250767708,0.003205413011764176,-0.0020568777308799325
1772565835675272700,8.600272705078124,0.11718553296625614,-0.0006398505398072302,-0.011196370666474104
1772565835685300700,8.61030078125,0.1034188734203577,-0.00291297397040762,-0.0015908493880182504
1772565835695328800,8.620328857421875,0.11494155343174933,-0.0008751343001378699,-0.006929342605452984
1772565835705357800,8.63035791015625,0.11404431233108044,0.0017541730238357558,-0.0070921319517306975
1772565835715385900,8.6403857421875,0.10790800153315067,0.0008075809226837008,0.0035350239920429885
1772565835725414700,8.65041455078125,0.10701017591059207,-0.0009944772303337231,-0.004840608431585133
1772565835735443700,8.660443603515626,0.10042436777949333,-0.006705192160489969,-0.010763459141924977
1772565835745471700,8.6704716796875,0.10850538290441035,0.000054132206877693534,-0.004315652975719422
1772565835755500800,8.680500732421875,0.10955167708694934,-0.013447428395738825,-0.006707041624281555
1772565835765528800,8.69052880859375,0.11239245347082615,0.00004127729188185185,-0.014672522344440221
1772565835775557600,8.7005576171875,0.10969780755937099,-0.004366894539189524,-0.007922171301394701
1772565835785586000,8.7105859375,0.11433832684159279,-0.007200912388716824,-0.0071847421386279165
1772565835795614700,8.72061474609375,0.105061379930377,-0.003118638910609297,-0.008368417231552303
1772565835805642800,8.730642822265626,0.10176701456010341,-0.004758725134679116,-0.001192059328779578
1772565835815671800,8.740671875,0.1087999819368124,0.0007419546408345923,-0.012774872029572724
1772565835825699800,8.750699951171875,0.1067038864403963,0.0010635147453984244,-0.010768774637859314
1772565835835728000,8.760727783203125,0.10865034433305262,0.004705519942985847,-0.009927830301690846
1772565835845756700,8.770756591796875,0.1099935756355524,-0.006667485932027921,-0.006617664574086666
1772565835855785000,8.780784912109375,0.09981997214555739,0.00189453590917401,-0.008982000818941741
1772565835865813800,8.790813720703126,0.10954758543372153,-0.00008193352925591171,-0.01085265352902934
1772565835875841800,8.800841796875,0.10610533602535724,-0.004068637678399682,-0.009559928571060299
1772565835885870800,8.810870849609374,0.10655249527096748,-0.003389199480297975,-0.0008751388667151332
1772565835895899000,8.82089892578125,0.10370879627764225,-0.002778186875907704,-0.00030687399208545685
1772565835905928000,8.830927978515625,0.10131342557370662,-0.005566648550657555,-0.008581785987596959
1772565835915955700,8.840955810546875,0.10161328530311584,0.003088198106572963,-0.009742281134333461
1772565835925984800,8.85098486328125,0.11253624585568904,0.0012917066112393513,-0.012149324009753763
1772565835936012800,8.8610126953125,0.11223521708250045,0.000970068874862045,-0.0061165831841528415
1772565835946041900,8.871041748046874,0.09906710795164107,-0.0024171121782856062,-0.005568666977807879
1772565835956069600,8.881069580078124,0.09397767585813999,-0.007964818566455506,-0.014267814001068472
1772565835966098000,8.891097900390625,0.09786649999022483,0.001502819478115998,-0.019885398154519496
1772565835976127000,8.901126953125,0.10340250680744648,-0.006087169860000722,-0.011832787140179424
1772565835986154800,8.91115478515625,0.1090875667065382,0.0036718843126203864,-0.005928458467219025
1772565835996183800,8.921183837890625,0.10819091012775897,0.00034720143589656797,-0.001382595198508352
1772565836006211800,8.9312119140625,0.10400047270059586,-0.0073514085090020664,0.0060847632737830275
1772565836016241000,8.941240966796874,0.09771510882079601,0.00026088399246800687,-0.0045517450202256435
1772565836026268700,8.9512685546875,0.10789163492023944,-0.00048475130964070555,-0.011073164411913602
1772565836036297700,8.961297607421875,0.11522270846068858,-0.0015157383251935242,-0.012704382342938332
1772565836046326000,8.971325927734375,0.11133096171915531,0.0054842218310572205,-0.015968937096837908
1772565836056354800,8.981354736328125,0.10459317789673804,-0.009034525590622797,-0.019945348180830477
1772565836066382800,8.9913828125,0.09636252516806125,-0.0015963155810022726,-0.0074169617256149645
1772565836076411600,9.00141162109375,0.11252163280844688,-0.00772728348353412,-0.011259097171761094
1772565836086440000,9.01143994140625,0.11312135226726532,0.0011266887752572074,0.0010288681237027048
1772565836096467700,9.0214677734375,0.11102876390218734,0.0018489751678192987,-0.005168159885518253
1772565836106496800,9.031496826171875,0.11222528021037578,0.008152669288753531,-0.003056885086279362
1772565836116525000,9.041525146484375,0.1110305174678564,-0.0075083572029601775,-0.007133998332079499
1772565836126553900,9.051553955078125,0.11357377220988273,-0.00110856403009966,-0.007898826958425342
1772565836136582000,9.061581787109375,0.11132920815348625,-0.004716831354866735,-0.007901110247056932
1772565836146610700,9.071610595703126,0.11462123543620109,-0.006223189930361695,0.0014326631516218184
1772565836156639000,9.081638916015624,0.11402093145549297,-0.003159573709196411,-0.0012349851550534367
1772565836166667800,9.091667724609374,0.1111789860278368,-0.0010353709297254681,-0.008575812904536724
1772565836176695800,9.10169580078125,0.11641396407186984,-0.0027134830426657573,-0.00689036230193451
1772565836186724900,9.111724853515625,0.10459259337484836,0.0005902666438836604,-0.004064454693626612
1772565836196753000,9.1217529296875,0.10429214912354945,-0.0006557422286830843,-0.002992149286996573
1772565836206782000,9.131781982421876,0.11327040534913539,-0.008932540220604277,-0.0050535022635944185
1772565836216809700,9.141809814453126,0.10279752665162085,-0.000010959785431623458,0.003689940559118986
1772565836226837800,9.151837646484376,0.10548866543173789,0.0020213588929269464,-0.009578341010585427
1772565836236866800,9.16186669921875,0.11940262449383734,-0.0009556476238649338,-0.008397716391272842
1772565836246894800,9.171894775390625,0.11596095960736275,-0.0035587610606569796,-0.009422785122692585
1772565836256924000,9.181923828125,0.11207096643149853,-0.006075808215769939,-0.0069034957781434056
1772565836266951700,9.19195166015625,0.11192132882773875,-0.003611345197842456,-0.00977576327882707
1772565836276981000,9.20198095703125,0.1092266829162836,-0.000599573328346014,-0.010602752154879271
1772565836287008800,9.2120087890625,0.10159516512453555,-0.00615649050285574,-0.011499445266276597
1772565836297037800,9.222037841796874,0.10533785878419875,-0.003278866407042369,-0.010812814708985388
1772565836307065600,9.232065673828124,0.1089303303182125,-0.008505834674555807,-0.014643679842445998
1772565836317095000,9.242094970703125,0.10653612865805626,0.001869195971940644,-0.008060556858778
1772565836327123000,9.252123046875,0.11745967373251914,0.0006249817642383277,-0.004023209367785603
1772565836337151700,9.26215185546875,0.11027589970827102,0.00013137129470705986,-0.012288915143534541
1772565836347179800,9.2721796875,0.10593816276490688,-0.004036918232729658,-0.008457136694621295
1772565836357207800,9.282207763671876,0.10713584811687468,-0.00007076368127018213,-0.00604258636618033
1772565836367236900,9.29223681640625,0.1176093113362789,-0.006753465448739007,-0.011980506781488657
1772565836377264600,9.3022646484375,0.11207330451905727,0.0032822182747535406,-0.012863189633842557
1772565836387293700,9.312293701171875,0.10892857675254344,0.001676248949416913,-0.013907127462513744
1772565836397321700,9.32232177734375,0.10414192699790001,0.006989297198341227,-0.006497746255155652
1772565836407350800,9.332350830078125,0.11087503464519977,0.002426195100462064,-0.01030435373019427
1772565836417378800,9.34237890625,0.09471651152670382,0.0008856511275749653,-0.006324234585464
1772565836427407600,9.35240771484375,0.11387012480795383,-0.003560359362699091,-0.006473945254459977
1772565836437436000,9.362435791015624,0.11521394063234329,-0.001887416615220718,-0.013093893117178231
1772565836447464700,9.372464599609375,0.10294424164593219,0.0004224449294619262,-0.014682367885019629
1772565836457492700,9.38249267578125,0.10129939704835414,-0.0033928618752630427,-0.008874229595530778
1772565836467520800,9.392520751953125,0.10324410137534142,0.002400667933560908,-0.007458700241800397
1772565836477549800,9.4025498046875,0.10982640237510204,0.007390740438969806,-0.015172325092740356
1772565836487577900,9.412577880859375,0.10414017343223095,0.0032177656032610683,-0.010999021463468671
1772565836497606700,9.422606689453126,0.10144669656455516,0.010586358142504467,-0.005409129034541547
1772565836507635000,9.432635009765624,0.10369067609906196,0.001444764581369236,-0.010219890317134559
1772565836517663700,9.442663818359375,0.10369067609906196,-0.00511904634705279,-0.0018008571431972085
1772565836527691800,9.45269189453125,0.1048871924072504,0.0038157908619148653,-0.004510426629148423
1772565836537724000,9.462723876953126,0.10593816276490688,-0.0014104878524318337,-0.006400551224686205
1772565836547752000,9.472751953125,0.11282207705974578,0.003675916600343771,0.0017385324967093764
1772565836557780700,9.48278076171875,0.10429273364543915,0.007087259413790889,-0.0064990431630983945
1772565836567808800,9.492808837890625,0.0978589012056589,0.0065445491055259476,-0.013668679064139723
1772565836577837800,9.502837890625,0.11880991929769515,-0.009344979779282584,-0.009211005535535513
1772565836587865900,9.512865966796875,0.11177812096476554,0.0037135817296104503,-0.005652746798377484
1772565836597895000,9.52289501953125,0.11147884575724601,0.00885033726328984,-0.004093096266221255
1772565836607922700,9.532922607421876,0.1084860936820507,-0.00295575823278632,-0.005025828805379569
1772565836617951000,9.542950927734376,0.10789163492023944,-0.003870626321691088,-0.006457231581676751
1772565836627979800,9.552979736328124,0.10205576837360858,0.002260058453050442,-0.008479220662266015
1772565836638007800,9.5630078125,0.11073241130411625,0.0048048018992645665,-0.01380496399598196
1772565836648036600,9.57303662109375,0.10594459250569344,-0.005620442830817774,-0.0019763415742665527
1772565836658065000,9.58306494140625,0.10923837335407734,-0.0036697654207702725,-0.004108165971189737
1772565836668094000,9.593093994140625,0.1077408282727003,-0.0024848482188303024,-0.0014170637236908077
1772565836678121700,9.603121826171876,0.10549684873819351,-0.0033224817864829673,-0.008839961999747901
1772565836688150800,9.61315087890625,0.110285252058506,-0.0035677983170608056,-0.007222005409095436
1772565836698178800,9.6231787109375,0.10699264025390147,0.00086193689184729,-0.008778477603476494
1772565836708207900,9.633207763671875,0.11073358034789561,0.0032997356651350853,-0.0035042087286710735
1772565836718235600,9.643235595703125,0.10759235971271991,-0.000794694041647017,-0.0014738902111537753
1772565836728264000,9.653263916015625,0.1031008935123682,-0.004739330881042406,-0.009504124996904284
1772565836738293000,9.66329296875,0.11088438699543475,-0.0023853561999974773,-0.006249616712983698
1772565836748320800,9.67332080078125,0.10205869098305702,-0.0056269684697268525,-0.005491217827424406
1772565836758349800,9.683349853515624,0.10640227314531803,-0.0006356492887251079,-0.011915350857097655
1772565836768377900,9.6933779296875,0.10999123754799366,-0.0021540133958449586,-0.007857782561983913
1772565836778407000,9.703406982421875,0.10205986002683638,-0.004961714060604572,-0.006791979961376637
1772565836788434700,9.7134345703125,0.09981529597043991,-0.0009202383837662636,-0.003312302885763347
1772565836798463700,9.723463623046875,0.11687106018960475,0.003970871825772338,-0.010785305647552012
1772565836808491800,9.73349169921875,0.09801438402831554,-0.00478616113087628,-0.008169807653222233
1772565836818520800,9.743520751953126,0.1057932013362646,-0.00424237311037723,-0.0057352739826776085
1772565836828548900,9.753548828125,0.10384732796549796,-0.002732137510785833,-0.0051829373295418915
1772565836838577700,9.76357763671875,0.1096843635559082,-0.0017025250349892301,-0.008406045828200877
1772565836848606000,9.77360595703125,0.10549509517252445,-0.0077031902218936,-0.004900558457896113
1772565836858633700,9.7836337890625,0.10878829149901867,-0.0022583140205359085,-0.002467394760530442
1772565836868662800,9.793662841796875,0.10938625739216803,-0.0014970884236507117,-0.008141567939426749
1772565836878690800,9.80369091796875,0.10669219600260257,-0.005967630566982552,-0.00023501433227211235
1772565836888720000,9.813719970703126,0.10834113225340843,-0.0009252524856012314,-0.004399878926761448
1772565836898748000,9.823747802734376,0.1072924999833107,-0.005006685713492333,-0.0053524304112419485
1772565836908776700,9.833776611328124,0.11207856521606445,-0.003699105679686181,-0.0024913236253894864
1772565836918805000,9.843804931640625,0.10579261681437492,-0.0047424544198904186,-0.006828896171972155
1772565836928833800,9.853833740234375,0.10549334160685539,0.001912057866132818,-0.006775211489666253
1772565836938861800,9.86386181640625,0.10564297921061515,0.0014123738488415255,-0.0031714879092760383
1772565836948891000,9.873890869140626,0.111928343090415,-0.006067200217628852,-0.008595175192132591
1772565836958919000,9.8839189453125,0.10534545756876468,-0.0014443398896837607,-0.007978102739714086
1772565836968947000,9.893947021484376,0.1126777001529932,-0.008359708768711425,-0.009992986226081848
1772565836978975700,9.903975830078124,0.10744096854329109,-0.000295439282618463,-0.0047184981555677945
1772565836989003800,9.914003662109375,0.10804127252399921,-0.00040943018426187335,-0.013742566284257917
1772565836999032800,9.92403271484375,0.11537176154255867,0.0006819772150600329,-0.0014037110517732799
1772565837009060900,9.934060791015625,0.1125292315930128,-0.0014985862609930335,-0.00837455471139401
1772565837019089700,9.944089599609375,0.10489420666992663,-0.0009082191524095833,-0.008358973549772053
1772565837029117700,9.95411767578125,0.18867080650925636,0.004009870395599864,-0.023905940641183406
1772565837039147000,9.96414697265625,0.07672960393726826,-0.008108318690373562,0.007967563079390675
1772565837049174800,9.9741748046875,0.10170914689302443,-0.006349350760411471,-0.0013412950737401843
1772565837059203800,9.984203857421875,0.07761690816581249,-0.008748082465212791,-0.0050048590825870634
1772565837069231900,9.99423193359375,0.09467734856009483,-0.006648858863371424,-0.017324169364385307
1772565837079261000,10.004260986328125,0.09812135153412818,-0.0038554150528274473,-0.004690879496280104
1772565837089288700,10.014288818359375,0.11024725813567637,-0.0009627897507045417,0.003296411196887493
1772565837099316700,10.024316650390626,0.10336918905973434,-0.00034133338411338626,0.0032325156478211284
1772565837109345800,10.034345703125,0.09200257639288902,0.008289643773762508,-0.0003223090232349932
1772565837119373800,10.044373779296874,0.10921966865360737,0.0006530205486342311,-0.004443352742306888
1772565837129403000,10.05440283203125,0.1024906526595354,0.0005428655718918889,-0.006676883948035538
1772565837139430700,10.0644306640625,0.11760755777060986,-0.0009402856579516082,-0.005802311336901038
1772565837149459700,10.074459716796875,0.11596212865114211,0.0032858076044823973,-0.006345715764909983
