time,seconds_elapsed,z,y,x
1772561525793105000,0.07210498046875,0.0011538229882717133,-0.000921919010579586,-0.0002625756897032261
1772561525803133700,0.0821337890625,0.0003713862970471382,0.0029793456196784973,0.0003046775236725807
1772561525813163800,0.092163818359375,0.0003658328205347061,0.0018685590475797653,-0.0005407780408859253
1772561525823192800,0.10219287109375,-0.00013963552191853523,-0.000967707484960556,0.00008666235953569412
1772561525833222000,0.112221923828125,0.000866226851940155,0.0029284795746207237,0.0010130787268280983
1772561525843252000,0.122251953125,0.0005698166787624359,0.0019825249910354614,-0.0005917423404753208
1772561525853280800,0.13228076171875,-0.0015590609982609749,0.002316557802259922,0.0010627377778291702
1772561525863309800,0.142309814453125,-0.0002293447032570839,0.0022353315725922585,0.0004707174375653267
1772561525873339000,0.1523388671875,-0.001727917231619358,0.00030085910111665726,-0.002934066578745842
1772561525883368700,0.16236865234375,-0.0006847567856311798,-0.0021274108439683914,0.0017922455444931984
1772561525893397800,0.172397705078125,-0.0023840460926294327,-0.0012581497430801392,0.00020203180611133575
1772561525903426800,0.1824267578125,0.00010867277160286903,0.0015123365446925163,0.0019003292545676231
1772561525913455600,0.19245556640625,-0.0021996484138071537,-0.0002946536988019943,0.002437559887766838
1772561525923485700,0.202485595703125,-0.0011421074159443378,-0.0008248891681432724,0.0009983871132135391
1772561525933514800,0.2125146484375,0.00019929418340325356,-0.001445283181965351,-0.0020045749843120575
1772561525943543800,0.222543701171875,0.0008030333556234837,-0.0011142520233988762,-0.0020945901051163673
1772561525953574000,0.232573974609375,-0.00010681943967938423,-0.000011596828699111938,-0.0020548561587929726
1772561525963602700,0.242602783203125,0.00022900523617863655,0.004034544341266155,0.00012813694775104523
1772561525973631700,0.2526318359375,-0.0009731929749250412,-0.0032101599499583244,0.0009986711665987968
1772561525983661000,0.2626611328125,0.0033834725618362427,0.0013795318081974983,-0.0028096488676965237
1772561525993690600,0.272690673828125,-0.0006569642573595047,0.001861036755144596,-0.0008022906258702278
1772561526003719700,0.2827197265625,0.0005822046659886837,0.0010117553174495697,0.00022702105343341827
1772561526013749000,0.2927490234375,-0.000016052275896072388,-0.001321631483733654,-0.0003358009271323681
1772561526023777800,0.30277783203125,0.0002742321230471134,0.00019237585365772247,-0.00044126249849796295
1772561526033808000,0.312807861328125,0.001145046204328537,-0.00019555352628231049,-0.00024347472935914993
1772561526043837000,0.3228369140625,-0.00039798906072974205,-0.00047012604773044586,0.00021112710237503052
1772561526053866000,0.332865966796875,0.0003328705206513405,-0.000054652802646160126,0.0004266742616891861
1772561526063896000,0.34289599609375,0.0008356757462024689,0.00041273143142461777,-0.00009796861559152603
1772561526073925400,0.35292529296875,-0.0016086716204881668,0.0012093596160411835,0.0006491746753454208
1772561526083954200,0.3629541015625,-0.0014326367527246475,-0.0017904248088598251,0.0006534354761242867
1772561526093983200,0.372983154296875,0.000222071073949337,0.002855442464351654,0.0008325269445776939
1772561526104013300,0.383013427734375,-0.0001688813790678978,0.0017654113471508026,0.0016842065379023552
1772561526114042400,0.39304248046875,-0.0015103924088180065,0.0017924420535564423,-0.0006123073399066925
1772561526124071200,0.4030712890625,-0.0004576444625854492,-0.0011415621265769005,-0.002074382733553648
1772561526134100200,0.413100341796875,-0.0012283534742891788,-0.0021414002403616905,0.00005383789539337158
1772561526144130300,0.42313037109375,-0.000460031908005476,0.00034306198358535767,-0.000898242462426424
1772561526154159400,0.433159423828125,-0.0023308852687478065,0.0016259551048278809,0.0008303970098495483
1772561526164188200,0.443188232421875,-0.0006738663651049137,-0.00029951054602861404,-0.00011688936501741409
1772561526174218200,0.45321826171875,-0.0011670738458633423,-0.0021632295101881027,-0.0033168746158480644
1772561526184247300,0.463247314453125,0.0011362945660948753,-0.0008383067324757576,0.0016184952110052109
1772561526194276000,0.473276123046875,-0.0007034665904939175,0.0006243595853447914,0.0024832524359226227
1772561526204305200,0.48330517578125,-0.0017261207103729248,0.0011324910447001457,-0.0011714035645127296
1772561526214335200,0.493335205078125,-0.0025283838622272015,-0.0008337888866662979,0.003131919540464878
1772561526224364300,0.5033642578125,-0.0011715032160282135,-0.0005131438374519348,0.0006399992853403091
1772561526234393000,0.51339306640625,0.0013262792490422726,-0.0018924754112958908,-0.0005074189975857735
1772561526244423200,0.523423095703125,-0.0004492504522204399,0.001344596967101097,0.0020327046513557434
1772561526254452200,0.5334521484375,-0.0006396668031811714,-0.00022977404296398163,-0.0017727739177644253
1772561526264481300,0.543481201171875,0.00029989657923579216,0.0007800962775945663,0.0016424637287855148
1772561526274510000,0.553510009765625,-0.0001318482682108879,0.0005478803068399429,-0.0018890867941081524
1772561526284540200,0.5635400390625,0.0008138404227793217,-0.0019019609317183495,-0.002004934474825859
1772561526294569200,0.5735693359375,-0.0012859376147389412,-0.004198149777948856,0.0006802612915635109
1772561526304598000,0.583597900390625,-0.00024357670918107033,-0.0006303125992417336,-0.0005634352564811707
1772561526314628000,0.593628173828125,-0.00007517635822296143,0.0012212814763188362,0.0008436311036348343
1772561526324657200,0.6036572265625,-0.0017833276651799679,0.002955798991024494,0.0023286091163754463
1772561526334686200,0.613686279296875,0.0012051393277943134,0.0022041387856006622,-0.001016237773001194
1772561526344715000,0.623715087890625,-0.001023659948259592,-0.001202310435473919,-0.0009408700279891491
1772561526354745000,0.6337451171875,-0.00002740509808063507,-0.001037762500345707,0.00011092517524957657
1772561526364774100,0.643774169921875,0.0011885943822562695,0.0019372543320059776,-0.0025090929120779037
1772561526374803200,0.65380322265625,-0.0016619018279016018,0.0014141369611024857,0.001578579656779766
1772561526384833000,0.6638330078125,0.0012127142399549484,0.0004655187949538231,-0.0033999336883425713
1772561526394862000,0.673862060546875,0.00025803549215197563,0.0034269243478775024,-0.0005356534384191036
1772561526404891100,0.68389111328125,0.00064499257132411,-0.0015494590625166893,0.004789336584508419
1772561526414920200,0.693920166015625,-0.0003349347971379757,0.0002700258046388626,0.0011398494243621826
1772561526424950000,0.703949951171875,-0.000025741755962371826,-0.0007425080984830856,0.0010908469557762146
1772561526434979300,0.713979248046875,-0.0015490860678255558,-0.0009005358442664146,-0.0008903034031391144
1772561526445008400,0.72400830078125,0.000131901353597641,-0.0008544623851776123,0.0018029510974884033
1772561526455038200,0.7340380859375,0.000033653341233730316,-0.0010243747383356094,0.0007467130199074745
1772561526465067300,0.7440673828125,-0.0007631643675267696,0.00022171903401613235,-0.0016211038455367088
1772561526475096300,0.754096435546875,0.000891566276550293,-0.0022667869925498962,-0.0017378013581037521
1772561526485125400,0.76412548828125,-0.002862425521016121,-0.0018902160227298737,0.0013051265850663185
1772561526495155200,0.7741552734375,-0.00027539487928152084,0.000030685216188430786,0.0009761117398738861
1772561526505184300,0.784184326171875,0.0012588519603013992,-0.0019914526492357254,0.0005896873772144318
1772561526515213300,0.79421337890625,0.0013464856892824173,0.001772487536072731,0.0015358291566371918
1772561526525243400,0.804243408203125,0.0004423428326845169,0.002325892448425293,0.002837049774825573
1772561526535272200,0.814272216796875,0.00024337880313396454,-0.0010102782398462296,0.0007375283166766167
1772561526545301200,0.82430126953125,0.00008705072104930878,-0.002260366454720497,-0.002525908872485161
1772561526555330300,0.834330322265625,-0.000562161672860384,0.0014396896585822105,-0.0006920485757291317
1772561526565360400,0.8443603515625,-0.00011608237400650978,0.000978962518274784,0.003910958766937256
1772561526575389200,0.85438916015625,-0.002129619475454092,0.0015353802591562271,0.0007179770618677139
1772561526585418200,0.864418212890625,0.0009942678734660149,-0.0018673408776521683,-0.0004945597611367702
1772561526595448300,0.8744482421875,0.0010860851034522057,-0.000029039569199085236,0.0007787756621837616
1772561526605477000,0.88447705078125,-0.0004979628138244152,0.0016045430675148964,-0.0010633333586156368
1772561526615506200,0.894506103515625,0.0009059086441993713,0.0014604879543185234,0.001759437844157219
1772561526625536300,0.904536376953125,-0.0004048994742333889,0.0016559641808271408,0.0020625051110982895
1772561526635565300,0.9145654296875,-0.0029434929601848125,0.0004534441977739334,-0.0004770592786371708
1772561526645594000,0.924593994140625,-0.00023985188454389572,-0.00015029404312372208,-0.0009013009257614613
1772561526655624200,0.934624267578125,0.00028787925839424133,-0.0013291677460074425,0.00023654289543628693
1772561526665653200,0.9446533203125,0.0012173224240541458,0.0021353382617235184,-0.0002923603169620037
1772561526675682300,0.954682373046875,0.0012697521597146988,-0.0013377247378230095,0.0022959746420383453
1772561526685711000,0.964711181640625,-0.0016248375177383423,0.000878557562828064,-0.002142449375241995
1772561526695741200,0.9747412109375,0.00035036634653806686,-0.0007500909268856049,0.001817965880036354
1772561526705770200,0.984770263671875,-0.0007332740351557732,0.00057270098477602,-0.00114000728353858
1772561526715799000,0.994799072265625,-0.0012795720249414444,0.0008617490530014038,-0.0010349275544285774
1772561526725829000,1.0048291015625,-0.0027733389288187027,-0.0004669027402997017,-0.0009563644416630268
1772561526735858200,1.014858154296875,0.00007905904203653336,0.0001955302432179451,-0.00002265721559524536
1772561526745887200,1.02488720703125,0.0006154198199510574,0.0006131138652563095,0.0012846877798438072
1772561526755917300,1.034917236328125,0.0021106358617544174,-0.0028857775032520294,0.0017544599249958992
1772561526765946000,1.044946044921875,0.00021766126155853271,-0.0000559026375412941,0.0016735000535845757
1772561526775975200,1.05497509765625,-0.0015401225537061691,0.0005110576748847961,0.00019561965018510818
1772561526786004200,1.065004150390625,-0.0005944343283772469,-0.0009861718863248825,0.0031368155032396317
1772561526796034000,1.075033935546875,-0.0008022002875804901,0.0004932545125484467,0.0003862464800477028
1772561526806063000,1.08506298828125,-0.0005468032322824001,-0.0007903892546892166,0.00035615358501672745
1772561526816092200,1.095092041015625,-0.00006474927067756653,-0.0003555957227945328,0.000918705016374588
1772561526826122200,1.105122314453125,0.0023123882710933685,0.00010566320270299911,0.001971186138689518
1772561526836151000,1.115151123046875,0.002010604366660118,0.0006797164678573608,-0.0018124636262655258
1772561526846180000,1.12518017578125,0.0015733139589428902,0.0005433633923530579,-0.001976780593395233
1772561526856210200,1.135210205078125,-0.00017954502254724503,-0.0006672870367765427,-0.00010288506746292114
1772561526866239200,1.1452392578125,-0.00012095551937818527,0.00024005211889743805,0.001505398191511631
1772561526876268000,1.15526806640625,-0.000414515845477581,-0.0005757734179496765,0.0005335714668035507
1772561526886298000,1.165298095703125,0.00010959431529045105,-0.0005262382328510284,-0.0025061601772904396
1772561526896327200,1.1753271484375,0.001727493479847908,0.00017335731536149979,0.0019530486315488815
1772561526906356200,1.185356201171875,0.0001663481816649437,-0.0011454401537775993,0.001491522416472435
1772561526916386000,1.195385986328125,0.00010650139302015305,0.002154942601919174,-0.001040623988956213
1772561526926415000,1.2054150390625,-0.0004136133939027786,-0.000008342787623405457,0.00013809092342853546
1772561526936444200,1.215444091796875,0.00009002722799777985,-0.002145138569176197,0.0007016230374574661
1772561526946473200,1.22547314453125,0.0007917694747447968,-0.0005760034546256065,0.0024252207949757576
1772561526956503000,1.2355029296875,-0.0011293292045593262,0.001137848012149334,0.0024567898362874985
1772561526966532400,1.245532470703125,0.0000810772180557251,-0.002183913253247738,0.0004796590656042099
1772561526976561400,1.2555615234375,-0.002826675772666931,0.0019240062683820724,0.0017810119315981865
1772561526986591000,1.265591064453125,-0.0008950852788984776,-0.0014781821519136429,-0.003672609105706215
1772561526996620300,1.275620361328125,0.0004941914230585098,0.0009468588978052139,-0.0010796491988003254
1772561527006649300,1.2856494140625,0.0011218981817364693,0.00016096048057079315,-0.0010255868546664715
1772561527016679200,1.29567919921875,-0.00010249903425574303,0.000617428682744503,-0.0021622530184686184
1772561527026708200,1.305708251953125,-0.0007083681412041187,-0.001660638488829136,-0.0034632072784006596
1772561527036737300,1.3157373046875,-0.00040365615859627724,0.0013882452622056007,-0.00024358462542295456
1772561527046767400,1.325767333984375,-0.0015988829545676708,-0.00261714868247509,0.0006336607038974762
1772561527056796400,1.33579638671875,-0.0018995460122823715,0.00016146432608366013,-0.0014657266438007355
1772561527066825200,1.3458251953125,-0.001492348499596119,0.0001654587686061859,-0.001047077588737011
1772561527076854800,1.355854736328125,0.00021807290613651276,0.00016173720359802246,-0.000020563602447509766
1772561527086883600,1.365883544921875,-0.00023892568424344063,0.0010693427175283432,0.00017384719103574753
1772561527096912600,1.37591259765625,-0.0001530149020254612,0.00018043816089630127,0.00030121486634016037
1772561527106942700,1.385942626953125,0.001188686117529869,-0.0022949697449803352,0.0013813935220241547
1772561527116971800,1.3959716796875,0.00005252007395029068,-0.001853269524872303,0.002649359405040741
1772561527127000600,1.40600048828125,-0.0016811974346637726,0.00014197081327438354,0.0030490998178720474
1772561527137030700,1.41603076171875,0.00016631744801998138,-0.00106866005808115,-0.0020254626870155334
1772561527147059700,1.426059814453125,0.0011586109176278114,-0.0012505538761615753,-0.002248369622975588
1772561527157088800,1.4360888671875,0.0022499719634652138,-0.00006048660725355148,0.00039735157042741776
1772561527167117600,1.44611767578125,-0.00030586356297135353,0.001584547571837902,-0.0009491425007581711
1772561527177147600,1.456147705078125,0.0021216506138443947,0.0006427085027098656,-0.002410097513347864
1772561527187176700,1.4661767578125,-0.0007468401454389095,0.001745256595313549,-0.0006175236776471138
1772561527197205500,1.47620556640625,0.00014984514564275742,-0.00026190653443336487,-0.00010056421160697937
1772561527207235600,1.486235595703125,-0.0013140947557985783,-0.0005740290507674217,0.001935422420501709
1772561527217264600,1.4962646484375,-0.0017794445157051086,0.0013250475749373436,0.0017292452976107597
1772561527227293700,1.506293701171875,-0.0007432084530591965,-0.00034954771399497986,0.002125789411365986
1772561527237323800,1.51632373046875,-0.0028002732433378696,0.000710965134203434,-0.0006060739979147911
1772561527247352600,1.5263525390625,-0.002950741909444332,-0.0013740230351686478,-0.002758706919848919
1772561527257381600,1.536381591796875,-0.00011476222425699234,0.0007590502500534058,-0.0012682205997407436
1772561527267411700,1.54641162109375,-0.0003392673097550869,0.0023952964693307877,0.00037708040326833725
1772561527277440500,1.5564404296875,0.0009092651307582855,-0.00020890124142169952,-0.001149655319750309
1772561527287469600,1.566469482421875,-0.0009861062280833721,-0.00216659065335989,-0.0013565830886363983
1772561527297499600,1.576499755859375,-0.0019273869693279266,0.0013925926759839058,0.001558336429297924
1772561527307528700,1.58652880859375,-0.0007145833224058151,0.0007875226438045502,-0.0013389158993959427
1772561527317557500,1.5965576171875,-0.0017998451367020607,-0.0013434160500764847,-0.0011529596522450447
1772561527327587600,1.606587646484375,-0.0005364413373172283,-0.0003356756642460823,-0.00029888376593589783
1772561527337616600,1.61661669921875,0.00014067348092794418,-0.0009321011602878571,0.0008820304647088051
1772561527347645700,1.626645751953125,-0.000619126483798027,-0.0013022804632782936,-0.0016540978103876114
1772561527357675500,1.636675537109375,-0.00029883673414587975,-0.001507607288658619,0.0035326210781931877
1772561527367704600,1.64670458984375,-0.0002016313374042511,-0.00004020519554615021,-0.000818984117358923
1772561527377733600,1.656733642578125,-0.0010169525630772114,-0.0016268771141767502,-0.0003021322190761566
1772561527387763700,1.666763671875,-0.001385800540447235,-0.0006542913615703583,-0.001197220291942358
1772561527397792500,1.67679248046875,-0.001828373409807682,-0.0012108702212572098,0.0016575213521718979
1772561527407821600,1.686821533203125,0.000819607637822628,-0.0018670735880732536,0.0021233083680272102
1772561527417851600,1.6968515625,0.002851717174053192,-0.0005938941612839699,-0.002073188778012991
1772561527427880700,1.706880615234375,0.0007653962820768356,-0.0008711293339729309,-0.002020458225160837
1772561527437909500,1.716909423828125,-0.0019591599702835083,0.0003694724291563034,-0.0014209141954779625
1772561527447939600,1.726939697265625,-0.000009459443390369415,0.00018358416855335236,0.0015511736273765564
1772561527457968600,1.73696875,-0.0011323182843625546,-0.002534136176109314,0.0030495887622237206
1772561527467997400,1.74699755859375,-0.00030780350789427757,-0.0012728627771139145,0.00015606451779603958
1772561527478027500,1.757027587890625,0.0008882293477654457,0.00033752527087926865,0.001511216163635254
1772561527488056600,1.767056640625,-0.0024329987354576588,0.001260044053196907,0.0009540831670165062
1772561527498085600,1.777085693359375,-0.000234940554946661,-0.0012169620022177696,-0.0020364467054605484
1772561527508115700,1.78711572265625,-0.0009089866653084755,0.00257271621376276,-0.0006441459991037846
1772561527518144500,1.79714453125,-0.0006978968158364296,-0.0016450658440589905,0.0011311667039990425
1772561527528174600,1.807174560546875,0.0003098435699939728,0.00022580474615097046,0.0019844435155391693
1772561527538203600,1.81720361328125,-0.00016726739704608917,0.0012740883976221085,0.0025744419544935226
1772561527548232400,1.827232421875,-0.0019923318177461624,-0.0010878685861825943,-0.0012128399685025215
1772561527558262500,1.837262451171875,-0.000008013099431991577,0.0018308954313397408,0.0022730976343154907
1772561527568291600,1.84729150390625,0.001853269524872303,0.0005291430279612541,-0.0007501230575144291
1772561527578320600,1.857320556640625,0.00010888651013374329,-0.001317860558629036,0.0014087045565247536
1772561527588350700,1.867350830078125,0.00019304268062114716,0.00241828802973032,0.0024239011108875275
1772561527598379500,1.877379638671875,0.002496154047548771,0.001049734652042389,0.0020992523059248924
1772561527608408600,1.88740869140625,-0.0005851229652762413,-0.0003747902810573578,0.0004915017634630203
1772561527618438700,1.897438720703125,0.00010982714593410492,-0.00039991363883018494,0.0015246598049998283
1772561527628467500,1.907467529296875,-0.0006888546049594879,0.0005239369347691536,-0.00018295878544449806
1772561527638496500,1.91749658203125,-0.00045741768553853035,-0.001691354438662529,-0.0015501109883189201
1772561527648526600,1.927526611328125,-0.0010829940438270569,0.0010895179584622383,-0.0003189318813383579
1772561527658555600,1.9375556640625,0.00001023709774017334,-0.0005295360460877419,0.0020304638892412186
1772561527668584700,1.947584716796875,-0.0010851207189261913,0.0017863484099507332,-0.0005919504910707474
1772561527678614500,1.957614501953125,-0.0010967222042381763,-0.0011250870302319527,-0.003114082384854555
1772561527688643600,1.9676435546875,-0.001897534355521202,0.0015513896942138672,-0.00008819904178380966
1772561527698673000,1.9776728515625,0.0002538468688726425,-0.0009596506133675575,0.0003940742462873459
1772561527708702500,1.987702392578125,0.001152929849922657,0.0000033490359783172607,-0.00023150211200118065
1772561527718731500,1.9977314453125,-0.0007647867314517498,-0.002094239927828312,0.000868484377861023
1772561527728760800,2.0077607421875,0.00108238123357296,0.00155695341527462,0.0008740769699215889
1772561527738790700,2.017790771484375,-0.0029794187285006046,0.0013936934992671013,-0.0008065369911491871
1772561527748819700,2.02781982421875,0.00037323497235774994,-0.00001964624971151352,0.0012129377573728561
1772561527758849500,2.037849609375,0.003197716549038887,0.0016068806871771812,-0.0006222818046808243
1772561527768878600,2.047878662109375,0.00022456329315900803,-0.0034454017877578735,0.0003457767888903618
1772561527778907600,2.05790771484375,0.0011367332190275192,0.0010917484760284424,0.0010275477543473244
1772561527788937500,2.0679375,0.0009545730426907539,-0.00046646688133478165,-0.002211388200521469
1772561527798966500,2.077966552734375,-0.0011277631856501102,0.0024201180785894394,0.0031204260885715485
1772561527808995800,2.087995849609375,-0.0013629202730953693,-0.00005955062806606293,-0.0006852308288216591
1772561527819025700,2.098025634765625,-0.0007769167423248291,-0.0011102724820375443,0.0014772601425647736
1772561527829054700,2.1080546875,0.00001404155045747757,-0.002311624586582184,0.0003014747053384781
1772561527839083800,2.118083740234375,0.0008948836475610733,-0.00015549641102552414,-0.0025278758257627487
1772561527849113600,2.128113525390625,-0.0025568390265107155,-0.0022708456963300705,0.0007837647572159767
1772561527859142700,2.138142578125,0.0015021124854683876,0.003551555797457695,-0.001811036840081215
1772561527869171700,2.148171630859375,-0.0008710306137800217,0.0002934439107775688,-0.0007918449118733406
1772561527879201500,2.158201416015625,0.00036121439188718796,0.0024398742243647575,-0.001056404784321785
1772561527889230800,2.16823095703125,-0.0008683670312166214,0.000033175572752952576,0.0009332429617643356
1772561527899259600,2.178259765625,-0.0029969397000968456,-0.0005288133397698402,0.0017840955406427383
1772561527909289500,2.18828955078125,0.0021703913807868958,-0.0015120524913072586,-0.0017339400947093964
1772561527919318800,2.19831884765625,0.001169402152299881,0.0024173101410269737,-0.0016339607536792755
1772561527929348600,2.2083486328125,0.000041287392377853394,0.00042100436985492706,-0.0008789543062448502
1772561527939377700,2.218377685546875,0.0008833166211843491,0.0017076889052987099,0.000004366040229797363
1772561527949406700,2.22840673828125,-0.0008163126185536385,-0.0025736093521118164,-0.0021117818541824818
1772561527959436500,2.2384365234375,0.001182693988084793,0.00046513229608535767,-0.00008026044815778732
1772561527969465900,2.2484658203125,0.0014689834788441658,-0.0016691256314516068,-0.00005069933831691742
1772561527979494700,2.25849462890625,-0.0016274899244308472,0.00032564718276262283,-0.000054094940423965454
1772561527989524500,2.2685244140625,-0.002183824311941862,-0.002364145591855049,0.0024921540170907974
1772561527999553800,2.2785537109375,-0.00107496976852417,-0.00036493130028247833,0.001811203546822071
1772561528009582800,2.288582763671875,0.0016798041760921478,0.0020577460527420044,0.0009201094508171082
1772561528019612700,2.29861279296875,0.0005778325721621513,0.0007971199229359627,0.0008040713146328926
1772561528029641700,2.308641845703125,-0.00023070257157087326,0.0017763646319508553,0.0009433552622795105
1772561528039671600,2.318671630859375,-0.0014949217438697815,-0.0003849305212497711,0.0003956817090511322
1772561528049700900,2.328700927734375,0.0011551901698112488,-0.0015119807794690132,0.0013703983277082443
1772561528059729700,2.338729736328125,-0.0010164827108383179,-0.00035848934203386307,0.00021364260464906693
1772561528069759500,2.348759521484375,-0.0008204737678170204,-0.0006314637139439583,0.0006221719086170197
1772561528079788300,2.358788330078125,0.0009554056450724602,-0.0008769389241933823,-0.001788876485079527
1772561528089817300,2.3688173828125,0.0004938794299960136,-0.0005206074565649033,-0.00011827610433101654
1772561528099847400,2.378847412109375,0.0008446937426924706,-0.001565815880894661,0.0017368290573358536
1772561528109876500,2.38887646484375,0.00007157772779464722,0.0006579235196113586,0.00033840350806713104
1772561528119905300,2.3989052734375,-0.0019789463840425014,0.001538565382361412,0.0006160670891404152
1772561528129935400,2.408935302734375,-0.0020125024020671844,-0.000024709850549697876,-0.0023927721194922924
1772561528139964400,2.41896435546875,-0.002684449777007103,-0.00010730884969234467,0.0014719367027282715
1772561528149994500,2.428994384765625,-0.0019808425568044186,-0.002300955355167389,0.00003915652632713318
1772561528160023300,2.439023193359375,-0.002329425420612097,-0.0015920810401439667,-0.0028890911489725113
1772561528170052400,2.44905224609375,0.0001680869609117508,0.0016511166468262672,-0.0009066341444849968
1772561528180082400,2.45908251953125,-0.0009956606663763523,-0.00030955392867326736,-0.0015114657580852509
1772561528190111500,2.469111572265625,0.00006907060742378235,0.0004489142447710037,0.0007729940116405487
1772561528200140300,2.479140380859375,-0.0016997507773339748,0.0015982910990715027,0.002535790205001831
1772561528210170400,2.48917041015625,0.0009287893772125244,-0.0012209312990307808,-0.0010379054583609104
1772561528220199400,2.499199462890625,-0.0009254440665245056,0.0015068631619215012,-0.000006017275154590607
1772561528230229500,2.5092294921875,-0.0012330394238233566,0.0006996588781476021,0.0008592437952756882
1772561528240258300,2.51925830078125,0.0023344485089182854,0.0015854397788643837,-0.0005858228541910648
1772561528250287400,2.529287353515625,0.0010079275816679,0.0006607901304960251,-0.0006686472333967686
1772561528260317400,2.5393173828125,0.0003813058137893677,-0.0018757395446300507,0.0028349850326776505
1772561528270346200,2.54934619140625,0.0008889045566320419,0.0016308445483446121,-0.0022119712084531784
1772561528280375300,2.559375244140625,-0.0016249543987214565,-0.00140395388007164,0.00028973910957574844
1772561528290405400,2.5694052734375,0.00045204441994428635,-0.0006361650303006172,0.004046926274895668
1772561528300434400,2.579434326171875,0.0014491323381662369,0.0003437027335166931,-0.0016708383336663246
1772561528310464300,2.58946435546875,0.00010823085904121399,-0.0005649682134389877,0.002797412686049938
1772561528320493300,2.599493408203125,0.00012361258268356323,-0.0027698175981640816,-0.0008871364407241344
1772561528330522400,2.6095224609375,0.002354809083044529,0.0002488754689693451,0.0023105209693312645
1772561528340552400,2.619552490234375,-0.002364461775869131,0.00123611930757761,0.0029761362820863724
1772561528350581200,2.629581298828125,-0.00014258641749620438,-0.0003655059263110161,-0.002075614407658577
1772561528360610300,2.6396103515625,-0.0007338086143136024,0.0021655410528182983,0.00210593082010746
1772561528370640400,2.649640380859375,-0.0005260822363197803,-0.0006225220859050751,-0.0002027633599936962
1772561528380669400,2.65966943359375,-0.0006255805492401123,-0.0004559401422739029,-0.0014918954111635685
1772561528390699300,2.66969921875,0.001194157637655735,-0.002049841918051243,0.0014506317675113678
1772561528400728300,2.679728271484375,-0.0013987990096211433,0.0007574232295155525,-0.0006295768544077873
1772561528410757400,2.68975732421875,0.0009615607559680939,0.00011853128671646118,0.001904953271150589
1772561528420787500,2.699787353515625,0.0006732568144798279,0.0015973672270774841,0.0022586584091186523
1772561528430816300,2.709816162109375,-0.002014937810599804,-0.0009763119742274284,0.0005875248461961746
1772561528440845300,2.71984521484375,0.0008531808853149414,-0.00013892818242311478,0.0009184125810861588
1772561528450875400,2.72987548828125,0.0003165537491440773,0.00011353939771652222,-0.0000810716301202774
1772561528460904400,2.739904541015625,-0.00041856197640299797,0.0019021127372980118,-0.002160300500690937
1772561528470934300,2.749934326171875,-0.0013847569935023785,0.0007532248273491859,-0.0006758542731404305
1772561528480963300,2.75996337890625,-0.0005728281103074551,0.00035898108035326004,0.001072172075510025
1772561528490992400,2.769992431640625,-0.003514555748552084,0.001040218397974968,-0.0002479567192494869
1772561528501022500,2.7800224609375,-0.0013768356293439865,-0.0019080182537436485,0.0016743000596761703
1772561528511051300,2.79005126953125,-0.00004978291690349579,0.001836119219660759,-0.00032839691266417503
1772561528521080300,2.800080322265625,0.0001963544636964798,-0.00009602215141057968,-0.0000501386821269989
1772561528531110400,2.8101103515625,-0.0011477423831820488,-0.002027079463005066,0.0004489375278353691
1772561528541139500,2.820139404296875,0.00018578767776489258,-0.0006387261673808098,0.0030081039294600487
1772561528551169300,2.830169189453125,0.00044011976569890976,-0.0017548566684126854,0.0007992777973413467
1772561528561198300,2.8401982421875,-0.0023993030190467834,-0.002246326766908169,-0.00002864096313714981
1772561528571227400,2.850227294921875,0.0014819884672760963,0.0024600112810730934,-0.0004254519008100033
1772561528581257200,2.86025732421875,-0.0009417352266609669,-0.0009052762761712074,-0.0012187492102384567
1772561528591286300,2.870286376953125,-0.0009385393932461739,0.0028236815705895424,-0.0017599035054445267
1772561528601315300,2.8803154296875,0.0007649082690477371,-0.0005431631579995155,0.0016503604128956795
1772561528611345400,2.890345458984375,-0.0009717387147247791,-0.0005844421684741974,-0.001408546231687069
1772561528621374500,2.90037451171875,-0.0012475908733904362,-0.0031458642333745956,0.0018082354217767715
1772561528631404300,2.910404296875,0.0009180912747979164,0.00020172912627458572,0.0010249996557831764
1772561528641433300,2.920433349609375,-0.00043169688433408737,-0.0013914462178945541,0.0011486578732728958
1772561528651462400,2.93046240234375,0.002074071206152439,0.0010525370016694069,0.0031119398772716522
1772561528661492200,2.9404921875,0.00009538233280181885,-0.0025809546932578087,0.00006782356649637222
1772561528671521300,2.950521240234375,0.00008206721395254135,-0.000005943700671195984,-0.0016413931734859943
1772561528681551000,2.960551025390625,-0.0004191836342215538,0.00038155075162649155,0.00012423843145370483
1772561528691580400,2.970580322265625,0.0002194419503211975,0.0016401605680584908,0.0013543525710701942
1772561528701609500,2.980609375,-0.00267588859423995,-0.000041035935282707214,-0.0026213936507701874
1772561528711639000,2.99063916015625,-0.0005176626145839691,0.0008053174242377281,0.0013613635674118996
1772561528721668400,3.00066845703125,-0.00011804886162281036,0.002888660877943039,-0.00042408285662531853
1772561528731698200,3.0106982421875,0.0009791739284992218,0.0016654711216688156,-0.00012927129864692688
1772561528741727200,3.020727294921875,-0.002183813601732254,0.0024390611797571182,-0.002051698509603739
1772561528751756300,3.03075634765625,-0.0004463670775294304,-0.0008573997765779495,-0.0003320951946079731
1772561528761786000,3.0407861328125,0.0014025038108229637,0.0005830591544508934,0.00035103689879179
1772561528771815400,3.0508154296875,0.0025151725858449936,0.0015487214550375938,0.0014655692502856255
1772561528781844500,3.060844482421875,0.0010082237422466278,-0.0009619519114494324,0.0009334320202469826
1772561528791874000,3.0708740234375,-0.00038940366357564926,-0.00027059484273195267,0.0008426187559962273
1772561528801903400,3.0809033203125,-0.0006615561433136463,-0.002326211892068386,-0.004288846626877785
1772561528811933200,3.09093310546875,-0.00044584041461348534,-0.0011946344748139381,-0.0009673521853983402
1772561528821962200,3.100962158203125,-0.0010086195543408394,-0.00016502849757671356,0.0007474059239029884
1772561528831991300,3.1109912109375,0.0016327034682035446,-0.0026974286884069443,-0.00019721686840057373
1772561528842021000,3.121021240234375,-0.0005082618445158005,-0.0020228950306773186,0.0011151684448122978
1772561528852050400,3.131050537109375,0.001473396085202694,-0.001893199048936367,-0.0010246820747852325
1772561528862080300,3.141080322265625,-0.0011807731352746487,-0.00031647272408008575,-0.003792582545429468
1772561528872109000,3.151109130859375,0.0017199423164129257,-0.00007385853677988052,0.0019534537568688393
1772561528882138400,3.161138427734375,0.0005115596577525139,0.0020440956577658653,0.001960473135113716
1772561528892168200,3.171168212890625,-0.0001909816637635231,-0.0016632908955216408,0.003043048083782196
1772561528902197200,3.181197265625,0.0012880926951766014,-0.0007669208571314812,-0.0002895426005125046
1772561528912226300,3.191226318359375,0.00317414291203022,-0.0007538720965385437,0.0009980956092476845
1772561528922256100,3.201256103515625,-0.0012050392106175423,-0.00004070531576871872,0.0020554419606924057
1772561528932285200,3.21128515625,-0.0004295269027352333,-0.0005791960284113884,-0.0016042739152908325
1772561528942315300,3.221315185546875,0.0010222382843494415,-0.0011755134910345078,-0.0001521972008049488
1772561528952344000,3.231343994140625,-0.0012518353760242462,-0.001911877654492855,-0.0007612621411681175
1772561528962373400,3.241373291015625,-0.0016012750566005707,0.00014170818030834198,-0.0003681732341647148
1772561528972403200,3.2514033203125,0.0002568121999502182,-0.003071129322052002,0.0010190671309828758
1772561528982432300,3.261432373046875,0.0014799926429986954,0.0013267314061522484,-0.0003655850887298584
1772561528992462300,3.27146240234375,0.001677599735558033,0.00008596479892730713,0.00034388061612844467
1772561529002491100,3.2814912109375,0.000984390266239643,0.0007745586335659027,-0.0009893495589494705
1772561529012520200,3.291520263671875,-0.0007149730809032917,0.0005575111135840416,0.001318812370300293
1772561529022550300,3.30155029296875,0.001988365314900875,0.00020150002092123032,-0.0016564000397920609
1772561529032579000,3.3115791015625,-0.00004469230771064758,0.0003988398239016533,-0.0003354721702635288
1772561529042609200,3.321609130859375,-0.0001218114048242569,-0.001223272643983364,-0.0009283162653446198
1772561529052638200,3.33163818359375,0.0005442444235086441,-0.0003910353407263756,0.0021732011809945107
1772561529062667300,3.341667236328125,0.00013612210750579834,-0.0003123655915260315,-0.0020219525322318077
1772561529072697300,3.351697265625,0.0019950084388256073,0.0005236007273197174,0.002025253139436245
1772561529082726100,3.36172607421875,0.00046625640243291855,-0.0018955236300826073,0.001201404258608818
1772561529092756200,3.371756103515625,0.0007738517597317696,-0.0028340211138129234,-0.001638057641685009
1772561529102785000,3.381784912109375,0.0002979505807161331,-0.001153591088950634,-0.0007889093831181526
1772561529112814000,3.39181396484375,-0.0007595904171466827,0.001710372045636177,0.001466521993279457
1772561529122844200,3.40184423828125,-0.0007849624380469322,0.0008544838055968285,-0.0014192843809723854
1772561529132873200,3.411873291015625,-0.00194556824862957,0.0004933588206768036,0.00006675906479358673
1772561529142903000,3.421903076171875,-0.0007449234835803509,-0.002109939232468605,0.0015777051448822021
1772561529152932000,3.43193212890625,-0.0011707628145813942,0.0002253865823149681,-0.0005456334911286831
1772561529162961200,3.441961181640625,-0.0010446044616401196,0.000258629210293293,0.0005027567967772484
1772561529172991200,3.4519912109375,-0.0007548523135483265,-0.0003901170566678047,0.0006806552410125732
1772561529183020000,3.46202001953125,-0.0008851308375597,0.0011232038959860802,0.0002638865262269974
1772561529193050000,3.472050048828125,0.0029855072498321533,-0.002260342240333557,0.001465238630771637
1772561529203079200,3.4820791015625,0.001063079573214054,-0.00032753776758909225,-0.0012584435753524303
1772561529213108200,3.492108154296875,0.00003376789391040802,0.0002991044893860817,0.00050350371748209
1772561529223138000,3.502137939453125,-0.001086114440113306,0.00016375165432691574,-0.0009486014023423195
1772561529233167000,3.5121669921875,0.0008452096953988075,0.0013019861653447151,0.00048737507313489914
1772561529243197200,3.522197265625,0.002144484780728817,0.0006546583026647568,0.0015309592708945274
1772561529253226200,3.532226318359375,-0.000025459565222263336,-0.0005376385524868965,0.00018419884145259857
1772561529263255000,3.542255126953125,-0.0005671991966664791,-0.00022946391254663467,-0.0009027328342199326
1772561529273285000,3.55228515625,-0.0014130189083516598,-0.00007606670260429382,0.0013058269396424294
1772561529283314200,3.562314208984375,0.00023052562028169632,0.0010321540758013725,0.0011697662994265556
1772561529293344300,3.57234423828125,0.0006574308499693871,0.0003109704703092575,-0.0019599804654717445
1772561529303373000,3.582373046875,0.0006619282066822052,-0.0009076939895749092,-0.0008514849469065666
1772561529313402000,3.592402099609375,0.001003611832857132,-0.0018997220322489738,-0.0004184548743069172
1772561529323432200,3.60243212890625,-0.00030381372198462486,0.0009916434064507484,0.003579196520149708
1772561529333461200,3.612461181640625,-0.000274518970400095,0.0013881875202059746,-0.0007127542048692703
1772561529343491300,3.6224912109375,0.0030692610889673233,0.0004563070833683014,-0.0020238575525581837
1772561529353520000,3.63252001953125,0.0006343331187963486,-0.0008537024259567261,0.0013956408947706223
1772561529363549200,3.642549072265625,-0.00039453525096178055,-0.0006211744621396065,0.002782548777759075
1772561529373579300,3.652579345703125,-0.0004794904962182045,0.0011652735993266106,0.0007079467177391052
1772561529383608000,3.662608154296875,0.0005502756685018539,-0.00018998049199581146,-0.0006312625482678413
1772561529393638100,3.67263818359375,0.0006919559091329575,-0.0005090273916721344,-0.0024781650863587856
1772561529403667200,3.682667236328125,-0.000907133799046278,0.001326357014477253,0.0010747229680418968
1772561529413696300,3.6926962890625,-0.0006429483182728291,0.0009588403627276421,0.001268334686756134
1772561529423726000,3.70272607421875,-0.0006821951828896999,-0.0007203705608844757,-0.0016548410058021545
1772561529433755100,3.712755126953125,0.0016597891226410866,0.0014053648337721825,-0.0008380492217838764
1772561529443785200,3.72278515625,-0.00004169438034296036,0.000552191399037838,0.0002476470544934273
1772561529453814300,3.732814208984375,0.0005615111440420151,0.0011588595807552338,-0.0005909828469157219
1772561529463844400,3.74284423828125,0.00014703627675771713,-0.0010153325274586678,0.0014891484752297401
1772561529473873200,3.752873046875,-0.0011078454554080963,-0.00025180354714393616,0.0029120752587914467
1772561529483902200,3.762902099609375,-0.0019482742063701153,-0.0012112949043512344,0.0002521192654967308
1772561529493932300,3.772932373046875,0.0000461675226688385,0.001090475358068943,-0.00041873054578900337
1772561529503961000,3.782961181640625,0.0018375646322965622,0.00004598591476678848,0.0008458802476525307
1772561529513991200,3.7929912109375,-0.0005022883415222168,0.0023663975298404694,-0.0003389599733054638
1772561529524020200,3.803020263671875,-0.00005291122943162918,-0.001985384151339531,0.0019897669553756714
1772561529534049300,3.81304931640625,0.0015276744961738586,-0.0011502169072628021,0.0033562341704964638
1772561529544079400,3.823079345703125,0.0005631353706121445,0.0004186658188700676,0.0021926313638687134
1772561529554108200,3.833108154296875,-0.0009298329241573811,0.0012181466445326805,-0.0009491001255810261
1772561529564138200,3.84313818359375,-0.0007986105047166348,0.0004727281630039215,0.0038762539625167847
1772561529574167300,3.853167236328125,-0.001022049691528082,-0.00003274064511060715,-0.0016295653767883778
1772561529584196000,3.863196044921875,-0.0006710905581712723,-0.0032451925799250603,0.003134133294224739
1772561529594226200,3.87322607421875,-0.0025030793622136116,0.0006081359460949898,-0.0006797793321311474
1772561529604255200,3.883255126953125,-0.0028708018362522125,-0.00137434434145689,0.0006058327853679657
1772561529614285300,3.893285400390625,-0.0007850141264498234,-0.002138138748705387,0.0006750747561454773
1772561529624314400,3.903314453125,-0.0008776928298175335,0.0020275814458727837,-0.001464182510972023
1772561529634343200,3.91334326171875,-0.001807935070246458,0.0010488703846931458,-0.0010695019736886024
1772561529644373200,3.923373291015625,0.0008751889690756798,0.00010065268725156784,0.0015547620132565498
1772561529654402300,3.93340234375,0.00006638653576374054,-0.002345460467040539,-0.004320704378187656
1772561529664432400,3.943432373046875,-0.000011487863957881927,-0.0018124766647815704,0.0009014550596475601
1772561529674461200,3.953461181640625,-0.0015686382539570332,-0.00010139495134353638,0.0008529853075742722
1772561529684491300,3.9634912109375,-0.001011026557534933,0.0006010700017213821,-0.0006301179528236389
1772561529694520300,3.973520263671875,-0.00012605823576450348,-0.0010788524523377419,0.0007978687062859535
1772561529704549400,3.98354931640625,-0.0007888330146670341,0.0015130601823329926,-0.0009986655786633492
1772561529714579200,3.9935791015625,0.00077071413397789,-0.0014513041824102402,0.0007699392735958099
1772561529724606200,4.003606201171875,-0.0006166300736367702,0.0019014058634638786,0.00012746453285217285
1772561529734636300,4.01363623046875,-0.0015937439166009426,0.0005330741405487061,0.003325388766825199
1772561529744665000,4.0236650390625,-0.0008849441073834896,0.002367408014833927,0.00028027500957250595
1772561529754694100,4.033694091796875,-0.0005089058540761471,-0.0013889800757169724,-0.00405615009367466
1772561529764724200,4.04372412109375,0.002149605192244053,-0.0007745707407593727,0.0010451991111040115
1772561529774753000,4.0537529296875,0.00035729818046092987,-0.0024273283779621124,0.002244953066110611
1772561529784783000,4.063783203125,0.0007686624303460121,0.002511473372578621,-0.00010261032730340958
1772561529794812200,4.073812255859375,-0.0008555995300412178,-0.0012374576181173325,-0.000983051024377346
1772561529804842200,4.08384228515625,0.0006502065807580948,0.002446032129228115,0.0017965501174330711
1772561529814871300,4.093871337890625,-0.00017350958660244942,-0.0027210330590605736,0.000267895869910717
1772561529824900000,4.103900146484375,0.0029038945212960243,0.0005328692495822906,-0.0009224959649145603
1772561529834930200,4.11393017578125,-0.0005006906576454639,-0.00048552360385656357,-0.000056702643632888794
1772561529844959200,4.123959228515625,-0.002637184225022793,-0.0003435462713241577,0.00008537294343113899
1772561529854989300,4.1339892578125,-0.0015705879777669907,0.0006202515214681625,0.0008808593265712261
1772561529865018000,4.14401806640625,0.0011200560256838799,0.0017595449462532997,0.0009182104840874672
1772561529875047200,4.154047119140625,-0.0021718773059546947,-0.0007150648161768913,0.0012266049161553383
1772561529885077200,4.1640771484375,-0.00022451113909482956,-0.0008801016956567764,0.0030207824893295765
1772561529895106300,4.174106201171875,-0.001948641613125801,-0.0008356273174285889,-0.0005124327726662159
1772561529905136000,4.18413623046875,-0.001769794151186943,-0.0009566769003868103,-0.0009401189163327217
1772561529915165200,4.194165283203125,0.0013000313192605972,-0.0018736040219664574,0.00033819861710071564
1772561529925195300,4.2041953125,-0.0018033217638731003,-0.00008076895028352737,0.0008115507662296295
1772561529935224300,4.214224365234375,-0.0012704231776297092,-0.00020274240523576736,0.0010491041466593742
1772561529945253000,4.224253173828125,0.0010070381686091423,-0.0019381344318389893,0.0015572281554341316
1772561529955283200,4.234283203125,-0.001068097073584795,0.0005596447736024857,0.001155090518295765
1772561529965312300,4.244312255859375,0.000402793288230896,0.0005560684949159622,-0.0012147687375545502
1772561529975342300,4.25434228515625,0.0020901719108223915,0.0011398335918784142,-0.001795338001102209
1772561529985371100,4.26437109375,0.0022675367072224617,0.0005332324653863907,-0.0018710196018218994
1772561529995400200,4.274400146484375,-0.0008598128333687782,-0.0010327063500881195,0.0010118521749973297
1772561530005430300,4.28443017578125,-0.0004635388031601906,-0.00020106229931116104,-0.0005234549753367901
1772561530015459300,4.294459228515625,0.0005793552845716476,0.0011699330061674118,0.000760987401008606
1772561530025489200,4.3044892578125,-0.002420586533844471,-0.0009236698970198631,0.0015355218201875687
1772561530035518200,4.314518310546875,-0.0009694299660623074,0.0006377408280968666,0.0003070058301091194
1772561530045548300,4.32454833984375,-0.0008587664924561977,-0.0005973372608423233,0.0005679703317582607
1772561530055577300,4.334577392578125,0.0014456668868660927,-0.0015262477099895477,-0.0009753317572176456
1772561530065606100,4.344606201171875,-0.00031463103368878365,-0.001406785100698471,0.0030103251338005066
1772561530075636200,4.35463623046875,-0.0025186631828546524,0.0016710292547941208,0.005006897263228893
1772561530085666000,4.364666015625,0.00010470394045114517,-0.0006073843687772751,-0.0008313222788274288
1772561530095695600,4.374695556640625,-0.0003783935680985451,0.001024068333208561,0.00017961394041776657
1772561530105725000,4.384724853515625,0.0021471502259373665,-0.0005756206810474396,0.0017165420576930046
1772561530115754800,4.394754638671875,0.00219881534576416,-0.0025919005274772644,0.0012438315898180008
1772561530125783800,4.40478369140625,0.000862661749124527,-0.00039213337004184723,0.0010752645321190357
1772561530135812900,4.414812744140625,0.00017530005425214767,-0.0010147811844944954,-0.00012582074850797653
1772561530145842700,4.4248427734375,0.0006636632606387138,-0.002299492247402668,-0.0007582339458167553
1772561530155871700,4.434871826171875,0.0006114644929766655,-0.0010406160727143288,0.00014777341857552528
1772561530165901800,4.44490185546875,0.0012051882222294807,-0.0015664128586649895,0.0012264568358659744
1772561530175930600,4.4549306640625,0.0002528419718146324,0.0002975333482027054,-0.0008974140509963036
1772561530185960700,4.464960693359375,-0.000020380131900310516,0.00003227218985557556,0.0003611813299357891
1772561530195989800,4.47498974609375,0.001769796945154667,-0.0016601663082838058,0.0019015534780919552
1772561530206018800,4.485018798828125,0.0004490315914154053,0.0005343817174434662,0.00060243159532547
1772561530216048600,4.495048583984375,-0.00011396082118153572,-0.0011559268459677696,0.0007483726367354393
1772561530226077700,4.50507763671875,-0.0009107212536036968,-0.0005243150517344475,0.002023302949965
1772561530236107800,4.515107666015625,0.0011380482465028763,-0.00031312648206949234,0.0017055878415703773
1772561530246136800,4.52513671875,-0.0004333113320171833,0.002193637192249298,-0.0014531798660755157
1772561530256165600,4.53516552734375,0.0011581936851143837,-0.00024208985269069672,0.00014098826795816422
1772561530266195700,4.54519580078125,-0.0013294653035700321,0.0005963388830423355,-0.0014783660881221294
1772561530276224800,4.555224853515625,-0.0012311944738030434,-0.002650054171681404,-0.0012173759751021862
1772561530286254800,4.5652548828125,-0.00018295692279934883,0.00035969261080026627,-0.00009493529796600342
1772561530296283600,4.57528369140625,-0.00046631740406155586,-0.0001226058229804039,-0.0018291855230927467
1772561530306313700,4.585313720703125,0.0007635299116373062,-0.0006973547860980034,0.0003402410075068474
1772561530316342800,4.5953427734375,0.000323575921356678,-0.001905897632241249,-0.0007596444338560104
1772561530326371800,4.605371826171875,0.0004536798223853111,0.00008058082312345505,-0.0011793645098805428
1772561530336402000,4.61540185546875,-0.0007793637923896313,0.0011831298470497131,0.000781521201133728
1772561530346430700,4.6254306640625,0.0008109491318464279,0.001615898683667183,0.00020658504217863083
1772561530356460800,4.635460693359375,0.002413373440504074,-0.0010776221752166748,0.0005986019968986511
1772561530366489900,4.64548974609375,-0.0005224435590207577,0.0005182716995477676,0.0021990155801177025
1772561530376520000,4.65552001953125,0.001095692627131939,-0.000315297394990921,0.00019658450037240982
1772561530386549800,4.6655498046875,0.0012241881340742111,0.0004869932308793068,0.0018410729244351387
1772561530396578800,4.675578857421875,-0.0013476270250976086,-0.0011460566893219948,0.000718284398317337
1772561530406609000,4.68560888671875,-0.0002620713785290718,0.0006697904318571091,-0.0035346150398254395
1772561530416638000,4.695637939453125,0.0021052127704024315,-0.0011651283130049706,0.002251368947327137
1772561530426666800,4.705666748046875,-0.0010370002128183842,0.00041634123772382736,0.0010854573920369148
1772561530436696800,4.71569677734375,-0.00009823590517044067,-0.0011722352355718613,-0.0003137676976621151
1772561530446726000,4.725725830078125,-0.0008079200051724911,0.001759188249707222,0.0005938010290265083
1772561530456756000,4.735755859375,0.00005094893276691437,-0.0004626866430044174,0.0001517161726951599
1772561530466784800,4.74578466796875,-0.0016884426586329937,-0.001905667595565319,0.0013076085597276688
1772561530476813800,4.755813720703125,-0.0017464994452893734,0.0015588384121656418,0.0011667273938655853
1772561530486844000,4.765843994140625,-0.00035018613561987877,0.0002029547467827797,-0.0011650072410702705
1772561530496873000,4.775873046875,-0.0013789650984108448,0.000981130637228489,0.0011916235089302063
1772561530506903000,4.785903076171875,-0.0007089255377650261,0.0004525640979409218,0.001387590542435646
1772561530516931800,4.795931884765625,0.0020983126014471054,0.0006190119311213493,0.0023652371019124985
1772561530526962000,4.8059619140625,0.004177173599600792,-0.0008979151025414467,-0.0007352964021265507
1772561530536991000,4.815990966796875,-0.0002697724848985672,0.0013282205909490585,-0.0030967211350798607
1772561530547019800,4.826019775390625,-0.0013024341315031052,-0.0013950243592262268,0.002224585972726345
1772561530557049900,4.8360498046875,0.0006057210266590118,0.0037502022460103035,0.00023813359439373016
1772561530567079000,4.846078857421875,-0.0013262624852359295,-0.0015417896211147308,0.0031317593529820442
1772561530577108700,4.856108642578125,-0.0006937617436051369,0.0014811642467975616,-0.0005290214903652668
1772561530587138000,4.866137939453125,0.002382400445640087,-0.0028877761214971542,-0.0022931862622499466
1772561530597167600,4.876167724609375,-0.0004069940187036991,-0.00021369662135839462,0.00014413893222808838
1772561530607197000,4.886197021484375,-0.0008354894816875458,0.000025918707251548767,0.0005610277876257896
1772561530617226000,4.89622607421875,-0.000021094921976327896,0.000392901711165905,-0.0018611177802085876
1772561530627255800,4.906255859375,0.0005377624183893204,0.0017795180901885033,-0.00037451693788170815
1772561530637284900,4.916284912109375,-0.000676638912409544,-0.0008815117180347443,-0.0010544219985604286
1772561530647314700,4.926314697265625,0.0014564781449735165,0.00029664672911167145,-0.0011524325236678123
1772561530657343700,4.93634375,-0.001512147020548582,0.0005573704838752747,0.0010284306481480598
1772561530667373800,4.946373779296875,0.0033178143203258514,-0.0021973997354507446,-0.0011270316317677498
1772561530677402600,4.956402587890625,0.004467234946787357,-0.0022575873881578445,0.0016748802736401558
1772561530687432000,4.966431884765625,0.0002545993775129318,0.00041534844785928726,-0.002676899079233408
1772561530697461800,4.976461669921875,0.0019459733739495277,0.00015888642519712448,-0.0007351883687078953
1772561530707490800,4.98649072265625,-0.0002586399205029011,0.002233704552054405,0.00010449253022670746
1772561530717520600,4.996520751953125,0.0011336607858538628,0.00013353582471609116,0.0007244758307933807
1772561530727549700,5.0065498046875,0.0017619375139474869,-0.00046244822442531586,-0.001995333004742861
1772561530737578800,5.016578857421875,-0.00009162304922938347,-0.0018968265503644943,-0.0005236701108515263
1772561530747608800,5.02660888671875,-0.0017396868206560612,-0.001069660298526287,0.000952521339058876
1772561530757637600,5.0366376953125,0.0023381453938782215,-0.0023421188816428185,-0.00043125730007886887
1772561530767667700,5.046667724609375,0.0012215785682201385,0.0005699498578906059,0.0009895730763673782
1772561530777696800,5.05669677734375,0.0013526063412427902,-0.0020330240949988365,-0.0010602623224258423
1772561530787726800,5.066726806640625,-0.0005396916531026363,0.0008019059896469116,0.0024676332250237465
1772561530797755600,5.076755615234375,-0.000027299392968416214,-0.0011651050299406052,0.0006103441119194031
1772561530807784700,5.08678466796875,-0.00245174253359437,-0.00012794043868780136,0.002240304835140705
1772561530817814800,5.096814697265625,0.0001914449967443943,-0.0029146727174520493,-0.0012678774073719978
1772561530827843800,5.10684375,-0.002273052465170622,-0.00019084569066762924,-0.0002954164519906044
1772561530837874000,5.1168740234375,-0.0006447960622608662,0.00014844071120023727,0.0018692007288336754
1772561530847902700,5.12690283203125,0.0006363787688314915,-0.0004990957677364349,-0.003043076954782009
1772561530857932800,5.136932861328125,-0.00036070868372917175,0.0013821609318256378,-0.0029195062816143036
1772561530867961900,5.1469619140625,0.0012189685367047787,-0.00010451953858137131,0.0004368983209133148
1772561530877990700,5.15699072265625,0.0004272111691534519,-0.0023951036855578423,0.000562598928809166
1772561530888020700,5.167020751953125,0.002069171518087387,-0.00021682586520910263,0.00018934067338705063
1772561530898049800,5.1770498046875,0.0011557070538401604,0.00042153336107730865,-0.00031159957870841026
1772561530908079900,5.187079833984375,0.0009763780981302261,0.0004827529191970825,-0.0009072469547390938
1772561530918109000,5.19710888671875,-0.0007831724360585213,-0.0010030241683125496,0.0005215387791395187
1772561530928137700,5.2071376953125,-0.0002772086299955845,-0.0009792428463697433,0.001630532555282116
1772561530938167800,5.217167724609375,-0.0010404707863926888,-0.0009283768013119698,0.000036630779504776
1772561530948196900,5.22719677734375,0.0001282249577343464,-0.0012021781876683235,-0.0018976135179400444
1772561530958227000,5.23722705078125,-0.00016152719035744667,-0.0007941816002130508,-0.00013007363304495811
1772561530968255700,5.247255859375,-0.0026746545918285847,-0.00015613436698913574,-0.0018742536194622517
1772561530978285800,5.257285888671875,0.0007618884555995464,0.0014082062989473343,0.0021969201043248177
1772561530988315000,5.26731494140625,-0.0013759806752204895,0.00019437819719314575,-0.000400615856051445
1772561530998343700,5.27734375,0.0015588230453431606,-0.00029244832694530487,0.0008819624781608582
1772561531008373800,5.287373779296875,0.0022035925649106503,0.0016946960240602493,0.001954446081072092
1772561531018402800,5.29740283203125,-0.0013898108154535294,0.0022853855043649673,0.0002889051102101803
1772561531028433000,5.307432861328125,-0.0008069355972111225,0.00004663877189159393,-0.000048747286200523376
1772561531038462000,5.3174619140625,0.0017901789397001266,0.0006700856611132622,0.0006463374011218548
1772561531048490800,5.32749072265625,-0.0006061173044145107,-0.003848062828183174,-0.001625110860913992
1772561531058520800,5.337520751953125,-0.0016098627820611,0.002429540269076824,-0.0007651760242879391
1772561531068550000,5.3475498046875,0.0020125163719058037,-0.001616060733795166,-0.0008119642734527588
1772561531078580000,5.357580078125,-0.00024238275364041328,0.00027931109070777893,0.003262672107666731
1772561531088609000,5.367609130859375,-0.0003564697690308094,0.0005475878715515137,-0.00019521266222000122
1772561531098638000,5.37763818359375,-0.0021991110406816006,-0.00040475837886333466,0.0020588869228959084
1772561531108668200,5.387668212890625,0.0016422714106738567,-0.0004083225503563881,0.0006261114031076431
1772561531118697200,5.397697265625,0.0004861927591264248,0.0007400317117571831,0.00202000979334116
1772561531128727000,5.40772705078125,0.00013371091336011887,0.0006223199889063835,0.0010788445360958576
1772561531138756000,5.417756103515625,0.0005369139835238457,-0.00041764508932828903,0.0010857689194381237
1772561531148786200,5.4277861328125,-0.0007159612141549587,-0.0004827892407774925,0.0005885008722543716
1772561531158815200,5.437815185546875,0.0010001794435083866,0.000037326477468013763,0.0014140801504254341
1772561531168844000,5.447843994140625,-0.0024473131634294987,-0.001787351444363594,0.0016798730939626694
1772561531178874000,5.4578740234375,-0.0005639255978167057,-0.000511431135237217,0.0007618814706802368
1772561531188903200,5.467903076171875,0.0003959415480494499,0.0007786853238940239,0.0007067946717143059
1772561531198933200,5.477933349609375,-0.0003465479239821434,-0.00026447512209415436,-0.0009227939881384373
1772561531208962000,5.487962158203125,0.0007354803383350372,0.0006066514179110527,0.0008004005067050457
1772561531218991000,5.4979912109375,0.0004787519574165344,-0.0013853926211595535,0.0018507507629692554
1772561531229021200,5.508021240234375,0.0000949823297560215,0.000929294154047966,-0.0018462534062564373
1772561531239050200,5.51805029296875,0.0001671542413532734,0.0002714935690164566,-1.5040859580039978e-7
1772561531249080000,5.528080078125,0.0010418393649160862,-0.0009390721097588539,-0.00045033451169729233
1772561531259109000,5.538109130859375,-0.000271365512162447,-0.0011942023411393166,-0.001862608827650547
1772561531269138200,5.54813818359375,0.0018752221949398518,0.0006543081253767014,0.0012907907366752625
1772561531279168300,5.558168212890625,0.0004941071383655071,-0.001960650086402893,-0.0003033778630197048
1772561531289197000,5.568197021484375,0.0005238112062215805,-0.00013561267405748367,-0.0008112341165542603
1772561531299227000,5.578226806640625,-0.0006735464558005333,-0.0012578684836626053,0.00037520425394177437
1772561531309256200,5.588256103515625,0.0002672025002539158,0.0015433644875884056,-0.0004964261315762997
1772561531319286000,5.5982861328125,-0.0008124434389173985,-0.000765862874686718,-0.0008546211756765842
1772561531329315000,5.608315185546875,0.0006775748915970325,0.0004951851442456245,0.00006879586726427078
1772561531339344100,5.61834423828125,-0.0015570838004350662,-0.00145664531737566,-0.0015794350765645504
1772561531349374000,5.6283740234375,-0.005891315173357725,-0.0009862352162599564,0.00005672033876180649
1772561531359403000,5.638403076171875,0.0006984109058976173,0.001603689044713974,-0.001883392222225666
1772561531369433000,5.64843310546875,0.0009609116241335869,0.0013550389558076859,0.001453908160328865
1772561531379462000,5.6584619140625,-0.00028677983209490776,0.0022565191611647606,-0.0002563740126788616
1772561531389491200,5.6684912109375,0.000635908916592598,0.000021836720407009125,-0.00027910713106393814
1772561531399521000,5.67852099609375,-0.0003444012254476547,-0.0009313086047768593,-0.0017670155502855778
1772561531409550000,5.688550048828125,0.002440791577100754,0.00017721578478813171,-0.0011232397519052029
1772561531419580000,5.698579833984375,-0.0014396999031305313,-0.0019242847338318825,-0.00001403316855430603
1772561531429609000,5.70860888671875,-0.0020801275968551636,0.0006932895630598068,0.0006102696061134338
1772561531439638000,5.718637939453125,-0.0018204697407782078,0.0009460235014557838,0.0010840464383363724
1772561531449668000,5.728668212890625,-0.0026444694958627224,-0.0006182370707392693,-0.0006128465756773949
1772561531459697000,5.73869677734375,-0.00047905324026942253,-0.0013372907415032387,-0.002183578908443451
1772561531469727000,5.74872705078125,0.0007723555900156498,-0.00019482336938381195,-0.0013322392478585243
1772561531479756000,5.758756103515625,-0.00007772538810968399,-0.0017389245331287384,-0.0005005341954529285
1772561531489784800,5.768784912109375,-0.00006340350955724716,-0.0008181361481547356,0.0005997400730848312
1772561531499815000,5.77881494140625,-0.0014093653298914433,0.001694556325674057,0.002254362218081951
1772561531509844000,5.788843994140625,0.0016153734177350998,0.0007924623787403107,-0.002270940225571394
1772561531519874000,5.7988740234375,-0.001697066705673933,0.002094748429954052,0.0019051628187298775
1772561531529903000,5.808903076171875,-0.001750268042087555,-0.0010559167712926865,0.00024055130779743195
1772561531539932000,5.818931884765625,-0.00119420001283288,0.0014421287924051285,0.0003662519156932831
1772561531549962000,5.8289619140625,0.0009588524699211121,0.0012725573033094406,-0.001224852167069912
1772561531559991000,5.838990966796875,0.0010528620332479477,0.0002246033400297165,0.0008516144007444382
1772561531570021000,5.849021240234375,0.0002872226759791374,-0.00012907758355140686,0.0010500969365239143
1772561531580050000,5.8590498046875,-0.0005681845359504223,0.0010839924216270447,0.001354762353003025
1772561531590079000,5.869078857421875,0.001081960741430521,0.0003407290205359459,0.00118337944149971
1772561531600109000,5.879109130859375,0.00077463174238801,0.0002714870497584343,0.0017026960849761963
1772561531610138000,5.88913818359375,-0.0015441440045833588,0.00035388022661209106,0.00026907119899988174
1772561531620168000,5.89916796875,0.0002875779755413532,0.00044043269008398056,-0.0004198886454105377
1772561531630197000,5.909197021484375,0.00017749611288309097,-0.0009255176410079002,0.0007648728787899017
1772561531640226000,5.91922607421875,0.0004688454791903496,-0.001459481194615364,0.00021359883248806
1772561531650256100,5.929256103515625,0.0010950281284749508,-0.00032840296626091003,-0.0009852098301053047
1772561531660285000,5.939284912109375,0.0025395271368324757,-0.0002727434039115906,0.00047073978930711746
1772561531670315000,5.94931494140625,-0.002319985069334507,-0.0005982322618365288,0.0008302312344312668
1772561531680344000,5.959343994140625,-0.0013721659779548645,-0.0006054220721125603,0.000192936509847641
1772561531690373000,5.969373046875,-0.00003133947029709816,-0.0010960400104522705,0.0005382196977734566
1772561531700403000,5.97940283203125,0.002297061961144209,-0.0006539551541209221,-0.0010010874830186367
1772561531710432000,5.989431884765625,0.0003333576023578644,-0.00014249514788389206,-0.00008731428533792496
1772561531720462000,5.999462158203125,-0.0015143440105021,0.0007339511066675186,0.00016355514526367188
1772561531730491100,6.0094912109375,0.00028283894062042236,-0.0022175833582878113,-0.0019110697321593761
1772561531740520000,6.01952001953125,0.0010724663734436035,0.00008099060505628586,-0.0004932028241455555
1772561531750550000,6.029550048828125,0.0014671776443719864,-0.0005408981814980507,0.000567232258617878
1772561531760579000,6.0395791015625,0.0008876733481884003,-0.0005422299727797508,0.0012743016704916954
1772561531770609200,6.049609130859375,-0.0003689560107886791,0.0007308535277843475,-0.0010208259336650372
1772561531780638000,6.059637939453125,0.000959162600338459,-0.000032940879464149475,-0.00038140080869197845
1772561531790667000,6.0696669921875,-0.0003057066351175308,0.0027081482112407684,0.00010759290307760239
1772561531800697000,6.079697021484375,0.00006420677527785301,-0.0017071058973670006,0.0017643449828028679
1772561531810726100,6.08972607421875,-0.0013909018598496914,0.0023340461775660515,0.0036463234573602676
1772561531820755000,6.0997548828125,0.0013340446166694164,-0.00041939597576856613,0.004242338240146637
1772561531830785000,6.109784912109375,-0.001219442579895258,0.0009821094572544098,0.0027826018631458282
1772561531840814000,6.11981396484375,0.002471432089805603,0.0021541668102145195,0.0013516852632164955
1772561531850844200,6.12984423828125,-0.00019654445350170135,-0.0019409200176596642,0.0008542956784367561
1772561531860873000,6.139873046875,-0.0013030879199504852,-0.001021064817905426,-0.0012677107006311417
1772561531870902000,6.149902099609375,0.0013678651303052902,-0.0003889966756105423,-0.0019953222945332527
1772561531880932000,6.15993212890625,-0.0004233764484524727,-0.00011708773672580719,0.0002816803753376007
1772561531890961200,6.169961181640625,0.0010255095548927784,-0.0012078089639544487,-0.0013197301886975765
1772561531900991000,6.179990966796875,0.0006769015453755856,0.0019059590995311737,0.003290734253823757
1772561531911020000,6.19002001953125,-0.0017807180993258953,-0.0008039828389883041,-0.0009520971216261387
1772561531921049000,6.200049072265625,-0.0013740533031523228,-0.00012913811951875687,-0.00006073713302612305
1772561531931079200,6.2100791015625,-0.0019104224629700184,-0.0004547080025076866,0.00006262678653001785
1772561531941108000,6.22010791015625,0.0011524795554578304,-0.0021692514419555664,-0.002063108142465353
1772561531951138000,6.230137939453125,0.0008621020242571831,0.000046329572796821594,-0.0018359571695327759
1772561531961167000,6.2401669921875,0.0007190899923443794,0.0012625958770513535,0.0028637228533625603
1772561531971196200,6.250196044921875,-0.0003602588549256325,-0.00014856737107038498,0.0005791820585727692
1772561531981226000,6.26022607421875,-0.0015935683622956276,0.0008591730147600174,-0.0001036524772644043
1772561531991255000,6.270255126953125,0.002132793888449669,-0.004121667705476284,-0.0007394826970994473
1772561532001284000,6.2802841796875,-0.000055791810154914856,0.0006302101537585258,-0.0017299121245741844
1772561532011314200,6.290314208984375,-0.0020919926464557648,-0.0010711010545492172,0.0009065717458724976
1772561532021343000,6.300343017578125,-0.0000701206736266613,0.00007432512938976288,0.002071971073746681
1772561532031373000,6.310373046875,-0.00037128105759620667,-0.00048651453107595444,0.0014877859503030777
1772561532041402000,6.320402099609375,-0.00018805544823408127,0.0006732922047376633,0.0017019035294651985
1772561532051431200,6.33043115234375,-0.0005510291084647179,-0.002445641905069351,-0.0016479217447340488
1772561532061461000,6.3404609375,0.0014367545954883099,-0.0011705206707119942,0.0007734242826700211
1772561532071490000,6.350489990234375,0.0025385296903550625,-0.0007311878725886345,0.0025114649906754494
1772561532081520000,6.36052001953125,-0.000019169878214597702,-0.0017905933782458305,-0.0012585055083036423
1772561532091549000,6.370548828125,-0.0016914461739361286,-0.002129088155925274,-0.0009842258878052235
1772561532101578000,6.380577880859375,-0.001068266574293375,0.0015215734019875526,-0.0010279016569256783
1772561532111608000,6.390608154296875,0.0025565228424966335,-0.00024229660630226135,0.00046245940029621124
1772561532121637000,6.40063720703125,-0.00015857024118304253,-0.0005975617095828056,0.00010239984840154648
1772561532131666000,6.410666015625,0.00081250024959445,0.00006007123738527298,0.0005498398095369339
1772561532141696000,6.420696044921875,0.0014527239836752415,-0.002010270021855831,-0.0002190149389207363
1772561532151725000,6.43072509765625,-0.0011367523111402988,0.0018861647695302963,-0.0009656781330704689
1772561532161755100,6.440755126953125,-0.00023340806365013123,0.000872831791639328,0.0009944085031747818
1772561532171784000,6.450783935546875,-0.0007850327529013157,-0.0001034298911690712,-0.0010578092187643051
1772561532181813000,6.46081298828125,-0.002610097173601389,0.0003128228709101677,0.0003342246636748314
1772561532191843000,6.470843017578125,0.00024878885596990585,0.0003476561978459358,-0.00015767943114042282
1772561532201872100,6.4808720703125,-0.00018610525876283646,-0.0003295857459306717,0.0007861442863941193
1772561532211901000,6.49090087890625,-0.000993634108453989,0.0012270649895071983,-0.0017660288140177727
1772561532221931000,6.500930908203125,0.0003017275594174862,-0.0008486034348607063,0.001787693239748478
1772561532231960000,6.5109599609375,-0.0016754809767007828,-0.0009818868711590767,0.002575705759227276
1772561532241990100,6.520990234375,-0.0005351151339709759,-0.0010268939658999443,0.00044437870383262634
1772561532252019000,6.53101904296875,0.0006773290224373341,0.0006264420226216316,0.0020603640004992485
1772561532262048000,6.541048095703125,-0.000440133735537529,0.00029674265533685684,-0.00003900658339262009
1772561532272078000,6.551078125,0.0004320722073316574,-0.003686465322971344,-0.0018725772388279438
1772561532282107100,6.561107177734375,0.0026049455627799034,0.005155495367944241,0.00017858948558568954
1772561532292137200,6.57113720703125,0.001047955360263586,-0.00020661205053329468,0.0007437095046043396
1772561532302166000,6.581166015625,0.002339854370802641,0.0006075166165828705,0.0009311959147453308
1772561532312195000,6.591195068359375,0.002057640813291073,-0.00037898682057857513,0.0018220245838165283
1772561532322225200,6.60122509765625,-0.002775996457785368,0.0011712387204170227,-0.002909347414970398
1772561532332254000,6.61125390625,0.00044052954763174057,-0.0006617177277803421,0.0004495736211538315
1772561532342283000,6.621282958984375,0.000017086509615182877,-0.0016550766304135323,-0.0018098526634275913
1772561532352313000,6.63131298828125,0.0002504591830074787,-0.00012012477964162827,0.0015821987763047218
1772561532362342100,6.641342041015625,0.0007633841596543789,0.00290842168033123,0.00304507277905941
1772561532372372200,6.651372314453125,-0.0021438393741846085,-0.0022085867822170258,0.0010723555460572243
1772561532382401000,6.661401123046875,-0.0027004401199519634,0.0016700411215424538,-0.00040117185562849045
1772561532392430000,6.67143017578125,-0.000264044851064682,-0.0005918014794588089,0.0009757550433278084
1772561532402460200,6.681460205078125,0.001285382080823183,0.001821022480726242,0.0005781454965472221
1772561532412489000,6.691489013671875,0.0008571632206439972,-0.0008022375404834747,0.00005106348544359207
1772561532422518000,6.70151806640625,0.0004060240462422371,0.0007210904732346535,-0.000010188668966293335
1772561532432548000,6.711548095703125,0.001058452297002077,-0.0009135259315371513,0.002318207174539566
1772561532442577200,6.7215771484375,-0.0034303059801459312,0.00027770642191171646,0.001933913677930832
1772561532452607000,6.73160693359375,-0.0014183255843818188,-0.0025436440482735634,-0.0020856852643191814
1772561532462636000,6.741635986328125,0.0006927619688212872,-0.0002405419945716858,-0.0004923157393932343
1772561532472665000,6.7516650390625,-0.00045605283230543137,-0.0022685639560222626,0.0009840941056609154
1772561532482695200,6.761695068359375,0.0008654077537357807,0.0022745225578546524,-0.00029209256172180176
1772561532492724000,6.771723876953125,0.0012722527608275414,-0.001173572614789009,-0.00045449333265423775
1772561532502753000,6.7817529296875,0.0015236549079418182,-0.0011125868186354637,-0.0007338589057326317
1772561532512783000,6.791783203125,-0.0003005065955221653,-0.00034207478165626526,-0.0005746381357312202
1772561532522812200,6.801812255859375,-0.0002413843758404255,0.0016145501285791397,-0.0017994255758821964
1772561532532841000,6.811841064453125,0.00024274224415421486,-0.0003398098051548004,-0.0014817188493907452
1772561532542871000,6.82187109375,0.0009298385120928288,-0.00008521135896444321,0.0002690432593226433
1772561532552900000,6.831900146484375,-0.0014304928481578827,-0.0004404820501804352,-0.0011259554885327816
1772561532562930200,6.84193017578125,0.00015728408470749855,0.0003741784021258354,-0.0016255644150078297
1772561532572959000,6.851958984375,-0.0007013669237494469,0.0006830543279647827,0.000610101968050003
1772561532582988000,6.861988037109375,0.0012994660064578056,0.0004897080361843109,0.0013336827978491783
1772561532593018000,6.87201806640625,-0.0026766862720251083,-0.0002873782068490982,-0.00002242252230644226
1772561532603047200,6.882047119140625,0.0007896837778389454,0.0009560519829392433,-0.0012996750883758068
1772561532613076000,6.892075927734375,-0.0009704479016363621,0.00017629936337471008,-0.0017893491312861443
1772561532623106000,6.90210595703125,-0.00015125935897231102,0.000224236398935318,0.0020368145778775215
1772561532633135000,6.912135009765625,0.0020270561799407005,-0.00010304618626832962,-0.00044331513345241547
1772561532643165200,6.922165283203125,-0.0006837756372988224,0.0001464923843741417,-0.00003079138696193695
1772561532653194000,6.932194091796875,0.0004518609493970871,0.0005790404975414276,-0.0013111941516399384
1772561532663223000,6.94222314453125,0.00016557052731513977,-0.0014644032344222069,0.0011061569675803185
1772561532673253000,6.952253173828125,-0.001110665500164032,-0.0021673543378710747,-0.002023475244641304
1772561532683282200,6.9622822265625,0.00009121932089328766,-0.0006133997812867165,-0.00044155726209282875
1772561532693311000,6.97231103515625,-0.0010067173279821873,0.0003568651154637337,-0.002543630078434944
1772561532703341000,6.982341064453125,-0.0017902189865708351,-0.0018961690366268158,0.00030355527997016907
1772561532713370000,6.9923701171875,-0.00039523886516690254,0.00038909632712602615,0.0002849344164133072
1772561532723399000,7.00239892578125,-0.00029776711016893387,-0.0004852199926972389,-0.0015646307729184628
1772561532733429000,7.012428955078125,0.0002035568468272686,0.000883009284734726,0.0006764624267816544
1772561532743458000,7.0224580078125,0.0021111792884767056,0.0010587787255644798,0.0010559633374214172
1772561532753488100,7.032488037109375,0.0014354158192873001,0.0019903555512428284,0.0003415355458855629
1772561532763517200,7.04251708984375,0.001163506880402565,-0.000642445869743824,-0.0012116199359297752
1772561532773546000,7.0525458984375,-0.000045348890125751495,0.00022017024457454681,-0.0005218395963311195
1772561532783576000,7.062576171875,-0.00034921569749712944,-0.00013855751603841782,0.00018549617379903793
1772561532793605000,7.072605224609375,-0.0024731121957302094,0.0008944394066929817,-0.0016468153335154057
1772561532803634000,7.082634033203125,0.0008462523110210896,-0.0007681716233491898,-0.00098102493211627
1772561532813664000,7.0926640625,0.0014251386746764183,-0.0001428946852684021,0.0012874109670519829
1772561532823693000,7.102693115234375,0.0012224726378917694,0.0006312858313322067,0.0011412035673856735
1772561532833722000,7.11272216796875,-0.001340340357273817,0.0008242130279541016,-0.0029621380381286144
1772561532843752200,7.122752197265625,-0.000027401838451623917,0.002559262327849865,0.00042939744889736176
1772561532853781000,7.132781005859375,-0.0013042790815234184,0.0006917249411344528,-0.0006271824240684509
1772561532863811000,7.14281103515625,-0.0005258372984826565,0.0010533817112445831,0.0010865619406104088
1772561532873840000,7.152840087890625,-0.001049052458256483,-0.00021204259246587753,-0.0009760134853422642
1772561532883869000,7.162868896484375,0.0008292756974697113,0.0023445915430784225,0.0008996510878205299
1772561532893899000,7.17289892578125,0.001188808586448431,0.0002901768311858177,0.0006477795541286469
1772561532903928000,7.182927978515625,-0.0005145496688783169,0.0030151233077049255,0.0028848350048065186
1772561532913957000,7.19295703125,-0.001024162396788597,0.0005145948380231857,-0.0009982637129724026
1772561532923987200,7.2029873046875,0.0001508244313299656,0.0009114062413573265,-0.0001676240935921669
1772561532934016000,7.21301611328125,0.0009500989690423012,-0.0019227014854550362,-0.0014636470004916191
1772561532944045000,7.223045166015625,-0.001397743821144104,0.000689859502017498,0.0012937895953655243
1772561532954075100,7.2330751953125,-0.003146778792142868,0.0011961441487073898,0.0006641987711191177
1772561532964104000,7.24310400390625,-0.00036404188722372055,0.0008773636072874069,-0.0021060211583971977
1772561532974134000,7.253134033203125,0.0005224784836173058,0.0001037726178765297,0.0019707726314663887
1772561532984163000,7.2631630859375,0.0004068976268172264,-0.00044963229447603226,-0.0007946542464196682
1772561532994192100,7.273192138671875,0.0005222940817475319,-0.0001765284687280655,0.0017756270244717598
1772561533004222000,7.283221923828125,0.0005941996350884438,0.000327342189848423,0.00044005177915096283
1772561533014251000,7.2932509765625,-0.0005665826611220837,0.00042469706386327744,0.0008659744635224342
1772561533024280000,7.303280029296875,0.00026032933965325356,0.001096080057322979,0.00029312819242477417
1772561533034310100,7.31331005859375,0.0013826875947415829,0.0018372396007180214,-0.0007368209771811962
1772561533044339000,7.3233388671875,-0.00027326634153723717,0.0014321720227599144,0.0005281800404191017
1772561533054368000,7.333367919921875,0.0010627247393131256,-0.00066336989402771,0.002042187377810478
1772561533064398000,7.343398193359375,0.0017226561903953552,-0.0005962587893009186,0.00115162692964077
1772561533074427100,7.35342724609375,0.0011619511060416698,-0.0012086732313036919,-0.0019797682762145996
1772561533084455200,7.363455078125,-0.0006292914040386677,0.00007789954543113708,-0.0022671236656606197
1772561533094485200,7.3734853515625,-0.0006630891002714634,0.0003737788647413254,-0.0015410622581839561
1772561533104514300,7.383514404296875,0.0008205575868487358,0.0006848359480500221,0.0035847239196300507
1772561533114543400,7.39354345703125,0.00021533295512199402,-0.0003066975623369217,0.002391248941421509
1772561533124573200,7.4035732421875,-0.002253950107842684,-0.0013597114011645317,0.0021627498790621758
1772561533134602200,7.413602294921875,0.0005449792370200157,0.0029457956552505493,-0.0005174451507627964
1772561533144632300,7.42363232421875,0.002370842732489109,-0.0021152757108211517,0.0006157299503684044
1772561533154661400,7.433661376953125,0.0014770813286304474,-0.0007206480950117111,0.000559905543923378
1772561533164690200,7.443690185546875,0.0006541647017002106,0.00038482993841171265,0.00034152623265981674
1772561533174720300,7.45372021484375,-0.0008178446441888809,0.0010698316618800163,-0.003261030185967684
1772561533184749300,7.463749267578125,0.00048017967492341995,0.0008186949416995049,-0.0000801505520939827
1772561533194778400,7.4737783203125,0.0009054346010088921,0.0004313131794333458,0.00006817467510700226
1772561533204808200,7.48380810546875,0.0016942629590630531,0.002033737488090992,-0.0006138607859611511
1772561533214837200,7.493837158203125,0.0006285840645432472,0.0005263946950435638,0.0004876842722296715
1772561533224866300,7.5038662109375,-0.0008476064540445805,-0.000838741660118103,-0.002012224867939949
1772561533234896400,7.513896484375,0.00044011417776346207,-0.0006153751164674759,-0.000033342279493808746
1772561533244925200,7.52392529296875,0.0006997724995017052,0.0010299254208803177,-0.0003252248279750347
1772561533254954200,7.533954345703125,-0.00010451162233948708,-0.0000194525346159935,0.0015926389023661613
1772561533264984300,7.543984375,0.00044356752187013626,0.00010571535676717758,-0.00045186933130025864
1772561533275013000,7.55401318359375,0.0012071141973137856,0.000940907746553421,-0.002122662030160427
1772561533285042200,7.564042236328125,-0.00003551691770553589,0.00007165223360061646,-0.004226825665682554
1772561533295072300,7.574072265625,-0.0005677076987922192,0.0000165523961186409,-0.0007215938530862331
1772561533305101300,7.584101318359375,0.0014773341827094555,-0.00024576857686042786,-0.0008880416862666607
1772561533315130000,7.594130126953125,-0.00028177956119179726,0.002307719551026821,0.0007829917594790459
1772561533325160200,7.60416015625,-0.0016991142183542252,-0.0004989858716726303,0.0017127012833952904
1772561533335189200,7.614189208984375,-0.0008765347301959991,-0.0005148369818925858,-0.0017182179726660252
1772561533345219300,7.62421923828125,-0.0006823902949690819,0.003361660987138748,0.00005304999649524689
1772561533355248000,7.634248046875,-0.0014028558507561684,-0.00219002366065979,-0.00014557316899299622
1772561533365277200,7.644277099609375,0.0010501821525394917,0.001626020297408104,-0.002629237249493599
1772561533375307300,7.654307373046875,0.0008434285409748554,-0.001107713207602501,-0.0007126675918698311
1772561533385336300,7.66433642578125,-0.0019323844462633133,0.00027233734726905823,-0.002877817489206791
1772561533395365000,7.674365234375,0.0005769822746515274,-0.0012875888496637344,-0.0012336322106420994
1772561533405395200,7.684395263671875,0.0019048340618610382,-0.00002418551594018936,-0.0025769309140741825
1772561533415424300,7.69442431640625,0.0020186430774629116,-0.0002880403771996498,-0.0006783497519791126
1772561533425453300,7.704453369140625,0.00018132897093892097,0.0017596641555428505,-0.00003279931843280792
1772561533435483100,7.714483154296875,0.0003128903917968273,-0.0012984704226255417,0.001806638203561306
1772561533445512200,7.72451220703125,-0.00096516078338027,0.003575648181140423,-0.0006109797395765781
1772561533455541200,7.734541259765625,-0.000080830417573452,-0.0014529014006257057,-0.0007447339594364166
1772561533465571300,7.7445712890625,-0.0007849703542888165,0.003724816255271435,0.0013679517433047295
1772561533475600100,7.75460009765625,0.00025818729773163795,-0.0005462700501084328,-0.0005883737467229366
1772561533485629400,7.76462939453125,-0.0016305269673466682,0.0018963813781738281,-0.000997435301542282
1772561533495659300,7.7746591796875,-0.002054047305136919,0.0009168917313218117,-0.0019257012754678726
1772561533505688300,7.784688232421875,0.00010630907490849495,0.00031155534088611603,0.0020224349573254585
1772561533515717400,7.79471728515625,0.001023637130856514,0.00014006812125444412,-0.0010169977322220802
1772561533525747200,7.804747314453125,0.000241733156144619,0.00040585175156593323,-0.00020553264766931534
1772561533535776300,7.8147763671875,-0.0003151507116854191,-0.0010538836941123009,-0.0005204412154853344
1772561533545805300,7.824805419921875,0.00020523136481642723,0.00003108847886323929,0.0016084900125861168
1772561533555835100,7.834835205078125,-0.001149850431829691,-0.0007459260523319244,-0.0032748905941843987
1772561533565864400,7.844864501953125,-0.00037726713344454765,0.0000711316242814064,0.001369396224617958
1772561533575893500,7.8548935546875,-0.00016750628128647804,0.0030765756964683533,-0.0012218467891216278
1772561533585923300,7.86492333984375,0.0004602009430527687,-0.0004515796899795532,-0.0029696794226765633
1772561533595952400,7.874952392578125,0.0005084634758532047,-0.001735941506922245,-0.0003926674835383892
1772561533605982200,7.884982177734375,0.0006685187108814716,0.002271050587296486,-0.0013564652763307095
1772561533616011300,7.89501123046875,-0.0005514593794941902,0.0001489119604229927,0.0003276616334915161
1772561533626040300,7.905040283203125,-0.0016502798534929752,-0.0019214292988181114,0.000664551742374897
1772561533636070100,7.915070068359375,0.00034376606345176697,-0.001629258506000042,-0.0013706423342227936
1772561533646099500,7.925099365234375,-0.00017741462215781212,0.0009641274809837341,0.0007708054035902023
1772561533656128500,7.93512841796875,-0.0004008272662758827,-0.001016547903418541,-0.0010901466012001038
1772561533666158300,7.945158447265625,0.0012444742023944855,0.0009872149676084518,-0.0006744270212948322
1772561533676187400,7.9551875,0.00004082499071955681,0.0003541726619005203,0.0029878653585910797
1772561533686216400,7.965216552734375,0.001247502863407135,-0.004232056438922882,0.0009140614420175552
1772561533696246300,7.975246337890625,-0.001707468181848526,-0.0007832767441868782,0.0017793802544474602
1772561533706275300,7.985275390625,-0.0002810792066156864,0.0031097326427698135,0.0015080040320754051
1772561533716304400,7.995304443359375,-0.00016840314492583275,-0.0008066203445196152,0.0006428491324186325
1772561533726333400,8.00533349609375,0.0005306764505803585,-0.0016985125839710236,-0.00129646435379982
1772561533736362200,8.0153623046875,-0.0016797082498669624,-0.0031915586441755295,-0.0008916123770177364
1772561533746392300,8.025392333984374,-0.000735084991902113,-0.000390445813536644,-0.0000623045489192009
1772561533756421400,8.03542138671875,0.0006724512204527855,-0.0009619910269975662,-0.002953692339360714
1772561533766450400,8.045450439453125,-0.0002143816091120243,0.0032758964225649834,-0.001970453653484583
1772561533776480500,8.05548046875,0.0003516077995300293,-0.0020906347781419754,0.0019125714898109436
1772561533786509300,8.06550927734375,0.0017993021756410599,-0.00036117807030677795,-0.00042781466618180275
1772561533796538400,8.075538330078125,-0.00036033429205417633,0.002399139106273651,-0.0015019308775663376
1772561533806568400,8.085568359375,-0.00047644833102822304,0.0014561135321855545,-0.00044785160571336746
1772561533816597200,8.09559716796875,-0.0022494071163237095,-0.0011120336130261421,0.0008156746625900269
1772561533826626300,8.105626220703124,-0.0014568502083420753,0.001445399597287178,-0.004261109046638012
1772561533836656400,8.115656494140625,-0.002628820016980171,0.0001223050057888031,-0.0008659539744257927
1772561533846685400,8.125685546875,-0.0022461237385869026,0.0010296441614627838,0.0008637690916657448
1772561533856714200,8.13571435546875,-0.000222683884203434,0.0006825719028711319,-0.0011037178337574005
1772561533866744300,8.145744384765624,0.0005911779589951038,0.000009325332939624786,-0.002573249861598015
1772561533876773400,8.1557734375,0.002035683486610651,-0.0011151321232318878,-0.001901016104966402
1772561533886802400,8.165802490234375,-0.002547883428633213,0.0012630708515644073,-0.00024293223395943642
1772561533896832300,8.175832275390626,0.0000027371570467948914,-0.0018846895545721054,0.0009570922702550888
1772561533906861300,8.185861328125,-0.0006462754681706429,-0.0013808198273181915,-0.002001146785914898
1772561533916890400,8.195890380859375,0.00048806844279170036,0.0018520308658480644,0.0016040671616792679
1772561533926920400,8.20592041015625,0.0012425421737134457,-0.0003583934158086777,-0.003183497581630945
1772561533936949200,8.21594921875,-0.0008510760962963104,0.00041768141090869904,0.002425495535135269
1772561533946978300,8.225978271484376,-0.00034427689388394356,0.001025415025651455,0.0023253606632351875
1772561533957008400,8.23600830078125,0.000059007201343774796,0.00034745875746011734,0.00244077667593956
1772561533967037400,8.246037353515625,0.001561296172440052,0.0012667812407016754,-0.0016474421136081219
1772561533977066200,8.256066162109375,0.0009994972497224808,0.0014995820820331573,0.000630062073469162
1772561533987096300,8.266096435546874,-0.00007428927347064018,-0.0006027175113558769,-0.0027385703288018703
1772561533997125400,8.27612548828125,-0.001857616938650608,0.0007294714450836182,0.0009736251085996628
1772561534007154200,8.286154296875,-0.00007463060319423676,-0.0005118278786540031,0.0015808260068297386
1772561534017184300,8.296184326171876,-0.0001293923705816269,0.00037604663521051407,0.00012142769992351532
1772561534027213300,8.30621337890625,-0.0030900281853973866,-0.0000481950119137764,-0.00044635822996497154
1772561534037242400,8.316242431640624,-0.0026371199637651443,0.0023288950324058533,-0.0031616906635463238
1772561534047272200,8.326272216796875,-0.002705296967178583,-0.0006261486560106277,0.0013742055743932724
1772561534057301200,8.33630126953125,0.000016369391232728958,-0.0009686816483736038,0.0028793606907129288
1772561534067330300,8.346330322265626,0.00016896845772862434,0.0006055133417248726,-0.0007017916068434715
1772561534077360400,8.3563603515625,0.003712090663611889,0.0018826285377144814,0.000787537544965744
1772561534087389700,8.3663896484375,-0.0013274089433252811,-0.0012207524850964546,0.0010450659319758415
1772561534097418800,8.376418701171875,-0.00016204826533794403,0.0012410599738359451,-0.00107599887996912
1772561534107448800,8.38644873046875,-0.0009783068671822548,-0.0013906760141253471,0.00031257327646017075
1772561534117478000,8.396477783203125,0.0022416748106479645,0.0018928050994873047,-0.0015848963521420956
1772561534127506700,8.406506591796875,-0.0023666596971452236,-0.0009727561846375465,0.0017019771039485931
1772561534137536800,8.416536865234375,-0.0003028903156518936,0.0005274759605526924,0.0025923727080225945
1772561534147565800,8.42656591796875,0.0014087231829762459,0.001218300312757492,-0.0016582985408604145
1772561534157595000,8.436594970703124,0.0014877659268677235,0.0010744733735918999,-0.0018774745985865593
1772561534167624700,8.446624755859375,-0.0013271952047944069,-0.0010334188118577003,-0.0006265877746045589
1772561534177653800,8.45665380859375,-0.00046037090942263603,0.0013165445998311043,0.0009650774300098419
1772561534187682800,8.466682861328126,-0.00017727678641676903,-0.00040545500814914703,0.0005477601662278175
1772561534197713000,8.476712890625,-0.0003945613279938698,0.0015486394986510277,-0.0000736583024263382
1772561534207741700,8.48674169921875,0.000009706709533929825,-0.002023192122578621,0.0009465981274843216
1772561534217770800,8.496770751953125,0.0006541386246681213,0.0003742082044482231,0.0008433014154434204
1772561534227800800,8.50680078125,-0.0019056922756135464,0.0012804819270968437,-0.00042116735130548477
1772561534237830000,8.516829833984374,0.0008704951032996178,0.000047087669372558594,0.0004448825493454933
1772561534247858700,8.526858642578125,-0.0012318040244281292,0.0009397799149155617,0.0006467504426836967
1772561534257888800,8.536888671875,0.0013158777728676796,-0.0011311806738376617,-0.001768636517226696
1772561534267917800,8.546917724609376,-0.0006743022240698338,-0.00009760819375514984,0.0025179870426654816
1772561534277946600,8.556946533203124,0.0004685567691922188,0.0011371709406375885,0.001149708405137062
1772561534287976700,8.566976806640625,-0.00009283795952796936,0.00023968517780303955,0.00029643159359693527
1772561534298005800,8.577005859375,-0.0002589598298072815,0.001422598958015442,0.000690956600010395
1772561534308034800,8.587034912109376,-0.0013404698111116886,-0.001975860446691513,-0.0002046646550297737
1772561534318065000,8.59706494140625,0.002216077409684658,-0.001055271364748478,0.0012100795283913612
1772561534328093700,8.60709375,-0.0007019480690360069,0.0019274689257144928,-0.0010093986056745052
1772561534338122800,8.617122802734375,0.0006703892722725868,0.0017261607572436333,0.0017178775742650032
1772561534348152800,8.62715283203125,-0.000792219303548336,0.0005509080365300179,-0.0006771027110517025
1772561534358181600,8.637181640625,0.000014010816812515259,-0.0014295801520347595,0.0011883014813065529
1772561534368213000,8.647212890625,0.0002891155891120434,0.0019638193771243095,0.0026770085096359253
1772561534378242800,8.657242919921876,0.002554789185523987,-0.001810278743505478,-0.00038675032556056976
1772561534388271900,8.66727197265625,-0.002555550541728735,0.00028696004301309586,-0.0010722479782998562
1772561534398301000,8.677301025390625,-0.00034744199365377426,0.0008228514343500137,0.0009532701224088669
1772561534408331000,8.6873310546875,-0.0005421186797320843,0.001299823634326458,-0.002809243742376566
1772561534418359800,8.69735986328125,0.0009037666022777557,-0.0026491042226552963,0.0013679713010787964
1772561534428388900,8.707388916015624,-0.0009162379428744316,0.00008463021367788315,0.00044918060302734375
1772561534438419000,8.7174189453125,0.001005419995635748,0.0014816401526331902,-0.0013077165931463242
1772561534448448000,8.727447998046875,-0.0007141833193600178,-0.0003234501928091049,0.00002865772694349289
1772561534458476800,8.737476806640625,0.002201444935053587,-0.0022650565952062607,-0.002458400558680296
1772561534468507000,8.7475068359375,-0.0019733263179659843,0.0001520281657576561,0.000215945765376091
1772561534478536000,8.757535888671875,0.001142646186053753,-0.0006435215473175049,0.0006307652220129967
1772561534488564700,8.767564697265625,0.0026987316086888313,0.0012824758887290955,0.0007673855870962143
1772561534498593800,8.77759375,-0.0003312462940812111,0.0008027665317058563,0.00005350448191165924
1772561534508624000,8.787623779296876,0.0005007251165807247,0.000602230429649353,-0.000925473403185606
1772561534518653000,8.79765283203125,0.00139579176902771,0.00011302158236503601,0.0005598766729235649
1772561534528681700,8.807681640625,0.002222703769803047,-0.0032670628279447556,-0.0011171153746545315
1772561534538711800,8.8177119140625,-0.0007586139254271984,-0.0011539021506905556,0.0003102729097008705
1772561534548740900,8.827740966796876,0.0017146635800600052,-0.00040129292756319046,-0.001419450156390667
1772561534558770000,8.83777001953125,-0.0020858109928667545,0.00005533173680305481,0.0015662265941500664
1772561534568799700,8.8477998046875,0.0003461875021457672,-0.0005441457033157349,-0.0012314235791563988
1772561534578828800,8.857828857421875,-0.0017438586801290512,-0.004067824222147465,-0.0015470604412257671
1772561534588857900,8.86785791015625,0.002155009191483259,-0.0007564490661025047,-0.000800576526671648
1772561534598888000,8.877887939453124,-0.0010083550587296486,-0.0011776797473430634,-0.001619173213839531
1772561534608916700,8.887916748046875,0.0013552005402743816,-0.0012077735736966133,-0.0015600509941577911
1772561534618945800,8.89794580078125,0.0014284541830420494,-0.0009129960089921951,0.00046735256910324097
1772561534628975900,8.907975830078126,-0.0008006119169294834,0.0011490900069475174,-0.0007744799368083477
1772561534639004700,8.918004638671874,-0.0006970865651965141,-0.0002653244882822037,0.001329195685684681
1772561534649033700,8.92803369140625,0.0014126691967248917,0.001097148284316063,0.0030791591852903366
1772561534659063800,8.938063720703125,0.0015180953778326511,0.0015932274982333183,0.00008469820022583008
1772561534669092900,8.9480927734375,-0.001687551848590374,-0.00025980081409215927,0.000674322247505188
1772561534679121700,8.95812158203125,-0.001010761596262455,-0.0008131284266710281,0.0008729882538318634
1772561534689151700,8.96815185546875,0.00017594313248991966,0.0021815961226820946,-0.0009893602691590786
1772561534699180800,8.978180908203125,-0.0007275594398379326,-0.0018276339396834373,-0.002405669540166855
1772561534709209900,8.9882099609375,-0.0016005439683794975,0.0000096810981631279,-0.002638962585479021
1772561534719239700,8.99823974609375,0.00036198925226926804,0.00035236869007349014,0.00141923688352108
1772561534729268700,9.008268798828125,-0.000432698056101799,0.0009744828566908836,0.0007864693179726601
1772561534739297800,9.0182978515625,-0.000233466736972332,-0.0022976184263825417,0.0013083191588521004
1772561534749328000,9.028327880859376,0.0006626867689192295,0.0023301569744944572,0.00016449112445116043
1772561534759356700,9.038356689453124,0.0012934496626257896,-0.0013814475387334824,0.0020977891981601715
1772561534769385700,9.0483857421875,-0.00034812232479453087,-0.0007172552868723869,-0.0009089196100831032
1772561534779414800,9.058414794921875,0.0012323623523116112,-0.0002461913973093033,-0.0004039490595459938
1772561534789444900,9.06844482421875,0.0020776502788066864,0.000563410110771656,0.00041310861706733704
1772561534799473700,9.0784736328125,-0.0002054404467344284,0.001407739706337452,0.000019070692360401154
1772561534809502700,9.088502685546874,-0.0030728657729923725,0.0018061483278870583,0.0013559777289628983
1772561534819532800,9.09853271484375,-0.001601305790245533,-0.0005799075588583946,0.00037148408591747284
1772561534829561600,9.1085615234375,0.000547066330909729,-0.00016658566892147064,-0.00038991356268525124
1772561534839591000,9.1185908203125,-0.0006480151787400246,0.0004319949075579643,0.00032878946512937546
1772561534849620700,9.128620849609375,0.00133444182574749,0.0027843648567795753,-0.002765537705272436
1772561534859649800,9.13864990234375,-0.0007598469965159893,-0.00037245452404022217,-0.0006744093261659145
1772561534869678800,9.148678955078125,0.0013925195671617985,-0.0004307776689529419,-0.002121570985764265
1772561534879708700,9.158708740234376,-0.001092527061700821,0.00144901592284441,0.001913202926516533
1772561534889737700,9.16873779296875,0.00237331073731184,-0.0005579423159360886,0.0007962733507156372
1772561534899767000,9.17876708984375,0.0018744929693639278,0.002939271740615368,-0.0008464260026812553
1772561534909796600,9.188796630859375,0.0022667772136628628,0.0008215261623263359,-0.0009998241439461708
1772561534919826000,9.198825927734376,-0.0011899052187800407,-0.0006866082549095154,0.0012367181479930878
1772561534929855000,9.20885498046875,-0.00004288181662559509,-0.0001574372872710228,0.0007978295907378197
1772561534939884800,9.218884765625,-0.00022066012024879456,-0.000618496909737587,0.0030729304999113083
1772561534949913900,9.228913818359375,0.00020171701908111572,0.0006169434636831284,-0.0003479002043604851
1772561534959943000,9.23894287109375,0.0004233159124851227,0.0007022283971309662,-0.00226972671225667
1772561534969972000,9.248971923828124,0.003097929060459137,0.0007413765415549278,-0.0011003329418599606
1772561534980002000,9.259001953125,0.0007594381459057331,0.00019678939133882523,0.00003313086926937103
1772561534990030800,9.26903076171875,-0.0012634992599487305,-0.0010618213564157486,-0.0008393204770982265
1772561535000060000,9.279059814453126,-0.001404191367328167,0.000400458462536335,0.002512233331799507
1772561535010090000,9.289090087890624,0.0006762705743312836,0.002222060225903988,0.0008458932861685753
1772561535020118800,9.299118896484375,-0.00017402507364749908,0.0019236160442233086,0.0013688942417502403
1772561535030147800,9.30914794921875,0.0004664654843509197,0.0007217312231659889,-0.002036756370216608
1772561535040178000,9.319177978515626,-0.0013005752116441727,0.0028630169108510017,0.0006726915016770363
1772561535050207000,9.32920703125,0.0020914929918944836,-0.0013128193095326424,0.0007717609405517578
1772561535060235800,9.33923583984375,-0.0009936261922121048,-0.000006081536412239075,0.0028921468183398247
1772561535070265900,9.349265869140625,0.0005299681797623634,-0.002659388817846775,0.0002327142283320427
1772561535080295000,9.359294921875,0.0002088639885187149,0.0015989523380994797,-0.003073491156101227
1772561535090323700,9.36932373046875,0.0015439060516655445,-0.0018394552171230316,-0.001642308197915554
1772561535100353800,9.379353759765625,-0.00008859531953930855,0.0013286154717206955,0.0013395072892308235
1772561535110382800,9.3893828125,-0.0009341491386294365,0.001470295712351799,0.002529407851397991
1772561535120411600,9.39941162109375,-0.0008986778557300568,-0.001303316093981266,0.0004605678841471672
1772561535130441700,9.409441650390624,0.00009601283818483353,0.0006799399852752686,-0.0006603565998375416
1772561535140470800,9.419470703125,0.0039425259456038475,0.0021942658349871635,0.0004130462184548378
1772561535150499600,9.42949951171875,-0.000037301331758499146,0.0005471007898449898,0.0005011968314647675
1772561535160529700,9.43952978515625,0.0010021226480603218,0.0006692055612802505,0.00040507223457098007
1772561535170558700,9.449558837890624,0.0006433948874473572,-0.001024032011628151,-0.00005938299000263214
1772561535180587800,9.459587890625,0.0003258083015680313,-0.0007363483309745789,-0.0014025303535163403
1772561535190616600,9.469616455078125,0.001405719667673111,0.0005060164257884026,0.0005599530413746834
1772561535200646700,9.479646728515625,-0.0003394228406250477,-0.00009685009717941284,-0.0009183632209897041
1772561535210675700,9.48967578125,0.0014744563959538937,0.001249111257493496,0.0017320150509476662
1772561535220704800,9.499704833984374,0.0008507687598466873,0.001685958355665207,-0.0010349503718316555
1772561535230734600,9.509734619140625,0.002744276076555252,-0.0024001291021704674,-0.0021654623560607433
1772561535240763600,9.519763671875,0.0009956415742635727,-0.0007882537320256233,-0.000865439884364605
1772561535250792700,9.529792724609376,-0.00003686593845486641,-0.002283885143697262,-0.00008646491914987564
1772561535260822800,9.53982275390625,0.0013769492506980896,-0.0008386671543121338,0.000664951279759407
1772561535270851600,9.5498515625,0.00016068387776613235,-0.00008445978164672852,-0.0006812764331698418
1772561535280880600,9.559880615234375,0.0005589951761066914,-0.0009020334109663963,0.0020526284351944923
1772561535290910700,9.56991064453125,0.0011693923734128475,0.0020942892879247665,0.0004768362268805504
1772561535300939800,9.579939697265624,-0.0010685482993721962,0.00047991983592510223,0.0008512549102306366
1772561535310968600,9.589968505859375,0.0006920676678419113,0.0007891133427619934,0.0017785681411623955
1772561535320997600,9.59999755859375,-0.00023127440363168716,0.0013868845999240875,-0.0001319553703069687
1772561535331027700,9.61002783203125,0.00033278344199061394,0.0002979179844260216,0.0004219822585582733
1772561535341056500,9.620056396484374,-0.0009812177158892155,0.0008576316758990288,0.0018792888149619102
1772561535351085600,9.63008544921875,0.001259832177311182,-0.00004731118679046631,0.0010260120034217834
1772561535361115600,9.64011572265625,-0.00046515651047229767,0.0009553553536534309,-0.0019346163608133793
1772561535371144700,9.650144775390626,0.0003132857382297516,0.0009998297318816185,0.0028710579499602318
1772561535381173500,9.660173583984376,0.00149551872164011,-0.0009907763451337814,-0.0021668528206646442
1772561535391203600,9.67020361328125,0.0009192107245326042,0.0010763686150312424,-0.0024422239512205124
1772561535401232600,9.680232666015625,-0.0011451230384409428,-0.0029663313180208206,-0.0010653124190866947
1772561535411261700,9.69026171875,-0.001537139993160963,0.00011121761053800583,0.00004069879651069641
1772561535421291500,9.70029150390625,-0.0016194605268537998,0.000004068948328495026,0.0021812040358781815
1772561535431320600,9.710320556640625,-0.0009904219768941402,0.0016669463366270065,-0.004188810475170612
1772561535441349600,9.720349609375,0.0019515929743647575,-0.0031933076679706573,-0.0008225115016102791
1772561535451378700,9.730378662109375,-0.000219681765884161,0.0017090393230319023,-0.00011464301496744156
1772561535461408500,9.740408447265626,0.00020878342911601067,-0.00018309522420167923,-0.0015369127504527569
1772561535471437600,9.7504375,-0.0022810054942965508,0.0019088173285126686,0.0002255672588944435
1772561535481467000,9.760466796875,0.0001475578173995018,0.00011422950774431229,0.0012211296707391739
1772561535491496700,9.77049658203125,-0.0015669851563870907,0.000774960033595562,0.00009621027857065201
1772561535501525800,9.78052587890625,-0.0010930406861007214,-0.002265656366944313,0.0009499741718173027
1772561535511554800,9.790554931640624,-0.001172402873635292,-0.00009118486195802689,-0.0006527160294353962
1772561535521584600,9.800584716796875,-0.0003655082546174526,-0.0021963417530059814,-0.0008304398506879807
1772561535531613700,9.81061376953125,0.00018470082432031631,0.0002327272668480873,-0.0016064848750829697
1772561535541642800,9.820642822265626,0.00046982988715171814,0.0019293781369924545,-0.002375551965087652
1772561535551672600,9.830672607421874,0.0011870190501213074,-0.0001928946003317833,0.0008018659427762032
1772561535561702000,9.840701904296875,-0.0008811652660369873,-0.0006870720535516739,0.00026446860283613205
1772561535571730700,9.850730712890625,0.0007942290976643562,-0.0024287793785333633,-0.0019379658624529839
1772561535581759700,9.860759765625,-0.0014632758684456348,-0.00008840858936309814,0.0002325046807527542
1772561535591789800,9.870789794921874,0.002832136582583189,-0.000013307668268680573,-0.0030863266438245773
1772561535601819000,9.88081884765625,0.00022038491442799568,0.00283698458224535,-0.0010166643187403679
1772561535611847700,9.89084765625,-0.00009919423609972,-0.000572660006582737,-0.000046741217374801636
1772561535621877800,9.900877685546876,-0.00010844506323337555,-0.001066591590642929,0.0015878323465585709
1772561535631906800,9.91090673828125,0.0009538894519209862,0.007767645642161369,0.005717063322663307
1772561535641935600,9.920935546875,0.00100681371986866,0.025046395137906075,0.01562991738319397
1772561535651965700,9.930965576171875,-0.0015389015898108482,0.00467773899435997,0.00431627593934536
1772561535661994800,9.940994873046876,0.001599577721208334,-0.003083381801843643,0.0004249289631843567
1772561535672023800,9.95102392578125,0.001816625241190195,-0.016918238252401352,-0.00712033873423934
1772561535682054000,9.961053955078125,-0.00047614192590117455,-0.014509782195091248,-0.00789155438542366
1772561535692082700,9.971082763671875,0.0008317367173731327,-0.009137121960520744,-0.0062867337837815285
1772561535702111700,9.98111181640625,0.00013268878683447838,0.00312819704413414,-0.001677271444350481
1772561535712140800,9.991140869140626,0.00030659325420856476,-0.0010356549173593521,-0.004100215155631304
