time,seconds_elapsed,z,y,x
1772565924142770200,0.071770263671875,0.11831775186657904,-0.009453193960688076,0.0212207384115085
1772565924152798200,0.081798095703125,0.11323650307953358,-0.003733323043119162,0.034876448396220804
1772565924162827300,0.0918271484375,0.12430968575775622,-0.004144483960163779,-0.003968547437945381
1772565924172855000,0.10185498046875,0.10171733019948005,-0.005913941318099387,-0.029462780183879655
1772565924182884000,0.111884033203125,0.11488660837411879,-0.000014197488711215554,0.0038302349457982926
1772565924192912100,0.121912109375,0.11518763714730738,-0.0036392424183432012,0.03807916256082244
1772565924202940200,0.131940185546875,0.10546294646859168,-0.005664633598993532,0.006372028383100405
1772565924212969200,0.14196923828125,0.10740706627368926,-0.001425562123977579,-0.0360726724434644
1772565924222997200,0.151997314453125,0.1072574286699295,-0.007070792336179874,-0.012727260895026847
1772565924233026300,0.1620263671875,0.1192430500179529,-0.0040335709315957495,-0.006747464966215193
1772565924243054000,0.17205419921875,0.10764145955145359,0.00021351945309434084,0.01256961351474747
1772565924253083100,0.182083251953125,0.1145902557760477,-0.007629376067011617,-0.017996168608125297
1772565924263111200,0.192111083984375,0.10649170499444008,0.005436309302411973,-0.02794494123314507
1772565924273139200,0.20213916015625,0.10817980421185493,-0.0034112149492837485,-0.004666914098802954
1772565924283168300,0.212168212890625,0.10908172148764132,0.001021858427603729,0.023727058676630258
1772565924293196300,0.2221962890625,0.11606325093805789,0.004598538737441413,0.00022415501154027877
1772565924303225300,0.232225341796875,0.10935820034146308,-0.004404646433424204,-0.016953829081496223
1772565924313253000,0.242253173828125,0.10826572892963886,0.006577734422497451,-0.020216127946227787
1772565924323281400,0.252281494140625,0.12826982156038283,0.006101591110997833,0.01526369317062199
1772565924333310200,0.262310302734375,0.11050678585469723,-0.0043415089361835265,0.015904237830173223
1772565924343338200,0.272338134765625,0.1093488479912281,-0.003963058412075043,-0.012521426991466432
1772565924353367000,0.282366943359375,0.11308394286632537,-0.0026076160819735374,-0.01777907352503389
1772565924363395300,0.292395263671875,0.1149737021356821,-0.00009834124136250466,0.0041426710289902986
1772565924373424400,0.30242431640625,0.11751286522448062,-0.006381088472390547,0.013642941834684461
1772565924383452200,0.3124521484375,0.11486205845475196,-0.006795582990837283,-0.006224920663144439
1772565924393480200,0.322480224609375,0.10082242718636988,-0.0072474823436466974,-0.021782701409514993
1772565924403509200,0.33250927734375,0.11469137806296348,-0.007880798111390322,-0.0101874310859479
1772565924413537300,0.342537353515625,0.12454524807929993,-0.005633996432134881,0.02211469157654792
1772565924423566000,0.352566162109375,0.11080664558410644,-0.006582648059632629,0.007197090163547545
1772565924433594000,0.362593994140625,0.10514730464816092,-0.005864804946747608,-0.018289571197284384
1772565924443623400,0.37262353515625,0.1097714573174715,0.0020321542815770954,-0.01456031240792945
1772565924453651200,0.382651123046875,0.1184288110256195,-0.0076052554059075185,0.011401190789882092
1772565924463679200,0.39267919921875,0.10796470015645027,-0.007047516491869464,0.01142932090582326
1772565924473708000,0.4027080078125,0.1142851353496313,0.0004650099961319938,-0.011604184282384812
1772565924483736300,0.412736328125,0.1050181253105402,0.0013817823477555065,-0.017806609985930845
1772565924493765000,0.42276513671875,0.09973638551533222,-0.0030645341031951827,0.0015915069751441478
1772565924503793200,0.432793212890625,0.1139455281317234,-0.0008523881787899881,0.016472959362529217
1772565924513822200,0.442822265625,0.10499766704440117,-0.003374883260577917,-0.005144632879458368
1772565924523850200,0.452850341796875,0.1078501338660717,0.0037872177879791705,-0.023869152294751256
1772565924533878000,0.4628779296875,0.10783435177505016,0.00006306443200446666,-0.008849643143545836
1772565924543907000,0.472906982421875,0.11680033304095268,0.006019735213555396,0.012179573017545044
1772565924553935400,0.482935302734375,0.10663374381363391,0.00002269588899798691,0.011642415667232125
1772565924563964200,0.492964111328125,0.09976444256603717,-0.0016724175910931079,-0.015887304961681364
1772565924573992200,0.5029921875,0.11846622042655944,0.0037494887266308068,-0.017927487286087125
1772565924584021000,0.51302099609375,0.10169044219255446,-0.00305123166362755,0.014072748086694627
1772565924594049300,0.52304931640625,0.12189502583146095,0.005922106358245946,0.013880312520824372
1772565924604077000,0.5330771484375,0.11457973438203334,0.004740399460121989,-0.007448379777185619
1772565924614106000,0.543106201171875,0.1114449434876442,0.001107760312501341,-0.015029254227085039
1772565924624134000,0.5531337890625,0.11412556087374687,-0.0018999884024262427,-0.002976714255847037
1772565924634162700,0.56316259765625,0.10603811600804328,-0.00409498682920821,0.010204966742638499
1772565924644190700,0.573190673828125,0.10949088681042193,0.005324117632210254,0.009577519026678055
1772565924654219800,0.5832197265625,0.11608429372608661,0.0042705351923592386,-0.010704742091475055
1772565924664247800,0.593247802734375,0.11218494819998741,-0.00017380393063649535,-0.004254095514211804
1772565924674275800,0.60327587890625,0.11950199321508406,0.00494683158530388,0.004023940020147711
1772565924684304600,0.6133046875,0.11217325776219367,-0.005822495608404279,0.005634882348123938
1772565924694333000,0.6233330078125,0.10305120915174483,-0.0015163137139286844,-0.013743443067092447
1772565924704361700,0.63336181640625,0.1066430961638689,0.009233390897279604,-0.015966763406060635
1772565924714389800,0.6433896484375,0.10499006825983524,-0.0004056444917107001,0.0064433857194148
1772565924724418800,0.653418701171875,0.10932546711564063,0.0012434378895675763,0.01626938134813681
1772565924734446800,0.66344677734375,0.11546645408868789,-0.005230530197778717,-0.0013328195063397287
1772565924744475000,0.673474853515625,0.10469488470554351,-0.0013876001671887933,-0.020305541529040783
1772565924754503700,0.683503662109375,0.11052607507705688,-0.006119921352132223,-0.0034961532863788305
1772565924764532000,0.693531982421875,0.10962474232316016,0.0011600293558556587,0.010752608954347669
1772565924774560800,0.703560791015625,0.11232289536595344,0.006453445889125577,0.005231306515913457
1772565924784588800,0.7135888671875,0.10978314775526522,-0.0009166536206146701,-0.01909954500645399
1772565924794617900,0.723617919921875,0.10244564447402954,0.00476190803903155,-0.008963241319544613
1772565924804646000,0.73364599609375,0.10722644900977611,0.0001568299629492685,0.005732387905847281
1772565924814674000,0.743673828125,0.10782675299048423,0.0048424213627586135,0.010081285564042627
1772565924824702700,0.75370263671875,0.11247487105727196,-0.000006342975818552077,0.002329520659800619
1772565924834730800,0.763730712890625,0.116516255402565,-0.0006980652667582035,-0.00990658658426255
1772565924844759800,0.773759765625,0.10887947691380977,0.0037912409425480288,-0.005369071018788963
1772565924854787800,0.783787841796875,0.10977379540503024,-0.00658349744300358,0.008678579159267246
1772565924864815600,0.793815673828125,0.11322481264173984,-0.004950101254624314,-0.0013428477100096642
1772565924874844700,0.8038447265625,0.10469663827121257,0.005781423812499269,-0.008049916733754799
1772565924884872700,0.813872802734375,0.10603986957371234,0.005477390231471508,-0.01143755901120603
1772565924894901800,0.82390185546875,0.10663315929174423,0.003236657533398829,0.0002792553327977657
1772565924904929800,0.8339296875,0.11486264297664164,0.004028255435661413,0.005893149691820144
1772565924914958600,0.84395849609375,0.11291910769343376,0.0018926864453824236,-0.016133114682603627
1772565924924987000,0.85398681640625,0.11261690987646579,-0.0032927716348087415,-0.010565671547502278
1772565924935015700,0.864015625,0.11381108809709549,-0.007198820896330289,0.0005381071983836591
1772565924945043700,0.874043701171875,0.1018412488400936,0.00336237997203134,0.004627404072321951
1772565924955071700,0.88407177734375,0.10722820257544517,-0.002529596109432168,-0.006412205129861831
1772565924965100800,0.894100830078125,0.11156827760636806,-0.00816356514210347,-0.005442830374743789
1772565924975128800,0.90412890625,0.10483283187150955,0.007660369426896795,-0.002045296890940517
1772565924985157600,0.91415771484375,0.11276187130510806,0.0032044220644980668,0.0012037862991914152
1772565924995186000,0.92418603515625,0.11291618508398532,-0.010356033685081638,0.0007643171696923673
1772565925005214700,0.934214599609375,0.10334347009658813,0.0005398561974754557,0.0027774470903910694
1772565925015242800,0.94424267578125,0.10813245793879031,0.0012300532516092062,-0.002221712903771549
1772565925025270800,0.954270751953125,0.11037585295140742,-0.0032015633871313185,0.002550433401484042
1772565925035299800,0.9642998046875,0.1082815110206604,0.00037714904958847907,0.004245711278356611
1772565925045328000,0.974327880859375,0.10708616375625132,0.008949884081049821,-0.002184668829012662
1772565925055356700,0.984356689453125,0.10289747989475727,-0.0035375721421558406,-0.006865227860677987
1772565925065385000,0.994385009765625,0.10394318955540656,-0.0032614403482060877,-0.0038239970012567937
1772565925075413800,1.004413818359375,0.09750701902806758,-0.005740530113107525,0.007196012451313435
1772565925085441800,1.01444189453125,0.10798106676936149,-0.003700407154206186,0.0017744075276888906
1772565925095469800,1.0244697265625,0.10319383249282836,-0.0016017041421728208,-0.012166165546700358
1772565925105499000,1.034498779296875,0.10035013349950313,-0.0015922878598561509,-0.0006834887521341442
1772565925115526700,1.044526611328125,0.11591302881240845,0.008152783453185111,0.00442696786308661
1772565925125555700,1.0545556640625,0.10558803415298461,0.0002671447698958218,0.009131766286864877
1772565925135584000,1.064583984375,0.10319500153660774,0.0003352644029306248,0.00004009454837068915
1772565925145612800,1.07461279296875,0.11007833130955695,0.0019140351940877735,-0.0038983408791013058
1772565925155640800,1.084640869140625,0.10469079305231571,-0.008080184007855132,-0.0012414696947671473
1772565925165668600,1.094668701171875,0.09915537075698375,0.00041189156940672544,0.006124912621080875
1772565925175698000,1.104697998046875,0.10783785890638828,-0.004777388735953719,0.0058608457242604346
1772565925185725700,1.1147255859375,0.11352467237114906,0.00527990403114818,-0.009522400439111515
1772565925195754800,1.124754638671875,0.11801146239638328,-0.0011733865943504497,-0.0035907271014992146
1772565925205782800,1.13478271484375,0.10453998640477656,-0.003854058779380284,0.008177698698733001
1772565925215811800,1.144811767578125,0.10932838972508907,0.0006198123987764119,0.004109389813896269
1772565925225839900,1.15483984375,0.10842705697119236,0.002420938970032148,-0.001115834021102637
1772565925235867600,1.16486767578125,0.11605974380671977,-0.0018567292160121722,0.0010328136464580894
1772565925245896700,1.174896728515625,0.10977437992691993,-0.00003076959759928286,0.004106996927410364
1772565925255924700,1.1849248046875,0.10034545732438564,-0.004300702001759782,0.00006426087524741888
1772565925265953800,1.194953857421875,0.11785481052994727,0.001951061002537608,0.003639781274460256
1772565925275981600,1.204981689453125,0.10752923134863376,0.0020436620562802998,-0.009516418222896754
1772565925286010600,1.2150107421875,0.10782675299048423,0.00031878819216508416,-0.0017510449184104798
1772565925296039000,1.225038818359375,0.10662497598528861,0.004690961694670841,0.004156078499834985
1772565925306066700,1.235066650390625,0.11261048013567924,-0.0007901548638474195,0.0002861417313106358
1772565925316095700,1.245095703125,0.112163320890069,-0.008486216658633201,0.004624883321672678
1772565925326123800,1.255123779296875,0.10528291372656821,-0.002631407949514687,0.0008603796890005469
1772565925336152800,1.26515283203125,0.10738076278865337,0.0002424715529428795,-0.0027823607275262474
1772565925346180600,1.2751806640625,0.11232172632217406,-0.004792357976222411,-0.0014186711588874458
1772565925356209700,1.285209716796875,0.11456453681290149,-0.0044792095069773495,-0.006998060460109264
1772565925366238000,1.295238037109375,0.10857961718440055,0.0009547297418350353,-0.013443546805065125
1772565925376266800,1.305266845703125,0.10738017826676369,-0.003673222319758497,-0.002366528201941401
1772565925386294800,1.315294677734375,0.1052881744235754,-0.0010689809383824468,0.009606598990689963
1772565925396322800,1.32532275390625,0.10977671801447868,-0.00024139384070876984,0.00476315928120166
1772565925406352000,1.335351806640625,0.11621230401992798,-0.001237062947708182,-0.020182901530060915
1772565925416379600,1.345379638671875,0.10094809939265251,-0.00446017601294443,-0.007333320296462625
1772565925426408700,1.35540869140625,0.10797989772558211,-0.0030713565696263686,0.003943513461388647
1772565925436437000,1.36543701171875,0.0993015012294054,-0.00008896605824120342,0.003980502737220376
1772565925446464800,1.37546484375,0.10154840337336063,0.0011598055935697629,-0.0012973828667774796
1772565925456493800,1.385493896484375,0.10678688854873179,0.0015532481908332556,-0.005075988090038299
1772565925466521900,1.39552197265625,0.10873217739760875,-0.004904243685747496,0.005947035303525626
1772565925476551000,1.405551025390625,0.10289280371963977,-0.007091031406610273,0.003066018240805715
1772565925486578700,1.41557861328125,0.1004997711032629,0.0057380184956127775,-0.005067749984655529
1772565925496607700,1.425607666015625,0.10858312431573867,-0.008739419668144547,-0.00671058528823778
1772565925506635800,1.4356357421875,0.10439210236668586,-0.00011219623677898198,0.0007122764552012085
1772565925516664800,1.445664794921875,0.11082593480646609,-0.0018952985275769605,0.009964910909067839
1772565925526692900,1.45569287109375,0.11172200686335564,-0.003113862270792015,0.005087970788776874
1772565925536720600,1.465720703125,0.11651041018366813,0.0030974819581490007,0.0004775361175648868
1772565925546750000,1.47575,0.10199614714086055,0.0015850589680485427,-0.004117079930007457
1772565925556777700,1.48577783203125,0.11217091967463493,-0.000580548967467621,0.0002000526167452335
1772565925566806800,1.495806884765625,0.10454115544855594,-0.001240789274754934,0.00033964375052601096
1772565925576834600,1.50583447265625,0.11008008487522601,-0.007909722811775282,-0.005956853444641455
1772565925586863900,1.51586376953125,0.10274842681288719,0.0008022791264811531,-0.0074357851570937775
1772565925596892000,1.525891845703125,0.09406710770726204,0.0032976989716757086,-0.001895805417653173
1772565925606919700,1.535919677734375,0.1124731174916029,-0.006220198822254315,0.007254866499081253
1772565925616948700,1.54594873046875,0.12010521980524062,-0.0005120594416745007,-0.0015018011313863097
1772565925626977800,1.555977783203125,0.10259878920912742,-0.0009295724676921963,-0.011617719617392866
1772565925637006600,1.566006591796875,0.10693769519627094,0.00008872859622351825,0.001014583870023489
1772565925647034600,1.57603466796875,0.09915361719131469,-0.0032994023049948734,0.005907671407517045
1772565925657063400,1.5860634765625,0.1118757361203432,-0.007129481987166218,0.0035209954666905103
1772565925667091700,1.596091796875,0.09586451251804828,0.0013114205252844839,-0.004819839638192206
1772565925677119500,1.606119384765625,0.10305004010796547,-0.007827478755265474,0.0005580722741782665
1772565925687148500,1.6161484375,0.10753799917697907,-0.005054858537041582,-0.0016355287799611686
1772565925697176600,1.626176513671875,0.11157996804416179,0.004836361514730379,-0.0017062833280768244
1772565925707205600,1.63620556640625,0.1139759232699871,-0.006728787665208801,-0.004159357302309945
1772565925717233700,1.646233642578125,0.10933832659721374,0.007011029539536685,-0.002059371082065627
1772565925727262500,1.656262451171875,0.10544599533379077,0.005026463559619151,0.0016987302092835307
1772565925737290500,1.66629052734375,0.1027519339442253,-0.010360545463417655,0.00044277533143758773
1772565925747318500,1.676318603515625,0.10484686039686203,0.0006081904596416279,-0.01033743401588872
1772565925757347600,1.68634765625,0.10903612878024578,-0.0020915928512346,-0.009479136686120182
1772565925767375400,1.696375244140625,0.11038462077975272,-0.004387585700768977,-0.0055179049049504094
1772565925777404700,1.70640478515625,0.11308102025687694,-0.0005240467069903388,0.004412756674643606
1772565925787432700,1.7164326171875,0.12026420975923538,-0.003664509290340356,0.006376585827209055
1772565925797461500,1.72646142578125,0.10949088681042193,-0.004527692857780493,-0.0007079473399557173
1772565925807489500,1.736489501953125,0.11218436367809771,0.001174167479062453,-0.004844480889104307
1772565925817517600,1.746517578125,0.103505967181921,-0.001355446896678768,-0.0028712080547586083
1772565925827546600,1.756546630859375,0.10635083521902561,-0.0047314124360680575,0.0058890489054378116
1772565925837574400,1.766574462890625,0.11308628095388412,-0.0040328265795018525,-0.0037709425066132095
1772565925847603500,1.776603515625,0.11653028392791748,0.0024055998370051384,0.0035772648317273703
1772565925857631700,1.7866318359375,0.11039689573943615,0.0015220310686621815,-0.002283398229442537
1772565925867660500,1.79666064453125,0.1087514666199684,0.004384918819647282,-0.0013471037600189446
1772565925877688600,1.8066884765625,0.1108475621163845,0.005115310886851512,-0.005982353212079033
1772565925887716600,1.816716552734375,0.10785539456307887,-0.00010675744325853884,-0.005499693394824862
1772565925897745700,1.82674560546875,0.10605857427418232,0.0008931174814002588,-0.0070659015319310126
1772565925907773400,1.8367734375,0.10785481004118919,0.005447821643692441,0.00031396131999790667
1772565925917802500,1.846802490234375,0.10531038625538348,-0.0030514143267180768,-0.004547689899615943
1772565925927830500,1.85683056640625,0.10650690256357193,0.009123975706053897,-0.0014747030619066208
1772565925937859600,1.866859619140625,0.11413900487720965,-0.00512913848280441,-0.00041070882589556274
1772565925947887600,1.8768876953125,0.10920271751880645,0.006853852516715414,0.0011199439406394957
1772565925957915600,1.88691552734375,0.10127133999764919,0.001413730122288689,0.00156185162239708
1772565925967944700,1.89694482421875,0.10830255380868911,-0.0069281004964374,0.005087687660986558
1772565925977972500,1.906972412109375,0.10111877978444099,0.013864475630875676,-0.0005193750984501094
1772565925988001500,1.91700146484375,0.10470891323089598,0.002472052669338882,-0.0016923918000422418
1772565925998029600,1.927029541015625,0.10829963119924067,-0.006415159705351107,0.0007747106995433569
1772565926008058600,1.93705859375,0.11069441738128662,0.004478647817973978,0.0033778789352625605
1772565926018086700,1.947086669921875,0.10919862586557864,0.00021173392138443885,-0.00439732164349407
1772565926028115500,1.957115478515625,0.11293956595957279,-0.0002289590508211404,0.001875073156878352
1772565926038143700,1.967143798828125,0.10500760391652583,0.00365401986236684,-0.005530654788669199
1772565926048171500,1.977171630859375,0.11054302621185778,-0.00777830585129559,0.0015857896204106508
1772565926058200600,1.98720068359375,0.10829670858979225,0.003332359293103218,0.0010664053888060152
1772565926068228600,1.997228515625,0.105305710080266,-0.0019101992691867053,0.000013106076745316385
1772565926078257700,2.007257568359375,0.10126374121308326,0.007367208866332658,0.0010682776854839175
1772565926088285700,2.01728564453125,0.10814590194225311,0.0038869427022524177,-0.002506786056002602
1772565926098313500,2.0273134765625,0.10634966617524623,0.0008261851584538816,-0.0002909914363641292
1772565926108342500,2.037342529296875,0.10320844554007053,-0.00646812743502669,-0.0036702129453420637
1772565926118370600,2.04737060546875,0.10440554637014865,-0.005817047681729309,0.002460024304827675
1772565926128399600,2.057399658203125,0.09931728332042694,-0.0023674826165894047,-0.008434294675150885
1772565926138427400,2.067427490234375,0.11143676018118857,0.007582682814495638,-0.004763478941610083
1772565926148456400,2.07745654296875,0.10320844554007053,0.000021755174081772564,-0.010550026453798636
1772565926158484500,2.087484375,0.10964286250174045,-0.010360901656444184,-0.004595821623969823
1772565926168513500,2.097513427734375,0.10380758047699927,-0.0015664547322783618,-0.00023412841628305613
1772565926178541600,2.10754150390625,0.10664952590465546,-0.008451962762582116,-0.002381753170536831
1772565926188569600,2.117569580078125,0.10650105734467506,-0.00007219301995355635,0.006153608992602676
1772565926198598700,2.1275986328125,0.10694997015595435,0.008949605519836768,-0.006951636635651811
1772565926208626400,2.13762646484375,0.11727554933726787,0.0027709671172546223,-0.0066610379249323155
1772565926218655500,2.147655517578125,0.10874562140107154,-0.0006762050613993778,-0.006928931613499298
1772565926228683500,2.15768359375,0.11113806949555874,-0.001808889752603136,-0.0003570424098987132
1772565926238712600,2.167712646484375,0.09991466469168662,-0.0009592689196346328,0.00036395620787516237
1772565926248740600,2.17774072265625,0.10066285271048546,-0.0059392492892919105,0.003919602862838656
1772565926258768600,2.1877685546875,0.11024082839488983,-0.0015446036600740625,0.009174463784275576
1772565926268797700,2.197797607421875,0.10604805288016796,-0.00012606036534998564,0.007926226422004402
1772565926278825500,2.207825439453125,0.11083528715670109,-0.00430958399453666,0.0005125708983279764
1772565926288854500,2.2178544921875,0.10484861396253109,0.0019417862841160968,-0.00423935460280627
1772565926298882600,2.227882568359375,0.10694470945894717,-0.0007654085816582664,-0.009007738048397005
1772565926308911600,2.23791162109375,0.09946399831473826,-0.003818393810954876,0.0011077968451194465
1772565926318939600,2.247939697265625,0.10395312642753124,-0.0097079496064689,-0.005297375755757093
1772565926328967700,2.2579677734375,0.11023732126355171,0.0024924196039326487,-0.0041994975164532655
1772565926338996700,2.267996826171875,0.10380115073621272,0.004149274299712851,0.0015549012918025255
1772565926349024500,2.2780244140625,0.11113397784233092,0.0056152597656240685,-0.003118479080405086
1772565926359053600,2.288053466796875,0.11068740311861038,0.005978695383691229,-0.004201634674612433
1772565926369081600,2.29808154296875,0.1148778405457735,-0.00004936013363767415,-0.00669012702209875
1772565926379110700,2.308110595703125,0.11547872904837131,0.0060157485916046425,-0.003207381206564605
1772565926389138400,2.318138427734375,0.1180237373560667,0.0031496596699580547,-0.0029568679110612717
1772565926399166500,2.32816650390625,0.11398527562022208,0.0014078438041964544,-0.002146547042019665
1772565926409195800,2.33819580078125,0.10515841056406497,0.002989066847343929,-0.0017671284035313873
1772565926419223600,2.3482236328125,0.11234043102264403,0.002925933916680515,-0.003555445725563913
1772565926429252600,2.358252685546875,0.11458324151337146,-0.003509679488232359,0.00312728344136849
1772565926439280400,2.3682802734375,0.11548165165781975,0.00005349288606084883,-0.0062762124589644365
1772565926449309700,2.378309814453125,0.10949790107309817,0.008162071871338411,-0.0021935827878303824
1772565926459337500,2.38833740234375,0.1039636478215456,-0.004705597574799322,0.005172909125871956
1772565926469366500,2.398366455078125,0.10441431419849395,-0.0005529257416026667,0.009935958809219301
1772565926479394600,2.40839453125,0.10860475162565708,-0.0013295178709784522,0.0032794783283956346
1772565926489422600,2.418422607421875,0.1130915416508913,-0.0010972115190234035,0.007670625959429889
1772565926499451600,2.42845166015625,0.10545885481536388,0.0025659871636424213,0.0054524201869964595
1772565926509479400,2.4384794921875,0.10905191087126731,-0.0021143663720460605,0.0017717497797217218
1772565926519508500,2.448508544921875,0.10905074182748795,0.001257717576669529,-0.004730964911496266
1772565926529536500,2.45853662109375,0.10037234533131122,-0.005120713147753849,-0.007788717647455632
1772565926539564500,2.468564453125,0.10546119290292262,-0.006746455752640031,-0.0036779487272258844
1772565926549593600,2.478593505859375,0.10800444764494896,0.004681289684027433,0.0012127550569362938
1772565926559621600,2.48862158203125,0.11054828690886497,0.004135259474092163,0.0031323340758215635
1772565926569650700,2.498650634765625,0.1059106902360916,0.00014158672804478556,-0.0017131879928987473
1772565926579678500,2.508678466796875,0.1074058972299099,0.0013734803102910518,-0.0035873661006335165
1772565926589707500,2.51870751953125,0.10994798292815684,-0.007105763184861279,-0.003495386101398617
1772565926599735600,2.528735595703125,0.10620528926849365,-0.004118586900504306,0.004075222682813183
1772565926609764600,2.5387646484375,0.11279051287770271,-0.002270666612032801,-0.004116942932689562
1772565926619788800,2.548788818359375,0.10545943933725356,-0.004338659391971305,-0.009941210373071952
1772565926629816800,2.55881689453125,0.10695639989674091,0.003726167216547765,-0.006000245061796158
1772565926639846000,2.568845947265625,0.11159341204762459,-0.0015095871456200255,-0.0020675452553667126
1772565926649873700,2.578873779296875,0.11952362052500247,0.006062921334733255,0.001431667637778446
1772565926659902700,2.58890283203125,0.12536007159352303,-0.00025899342948105186,-0.005463516969745979
1772565926669931000,2.598930908203125,0.10500935748219489,0.0016726961523061618,-0.0005203614791389554
1772565926679959800,2.608959716796875,0.11548223617970943,0.013528421210078521,0.0033746457985602317
1772565926689987800,2.61898779296875,0.10306114602386951,0.0065680943778948855,0.007772999488515779
1772565926700015900,2.629015869140625,0.11084171689748763,-0.00488279903891962,-0.0010182097323704511
1772565926710045000,2.639044921875,0.093929160541296,0.003099797212821431,-0.011402067572716622
1772565926720072700,2.64907275390625,0.1054495024651289,-0.0064468563181348144,-0.0056426820620894425
1772565926730101800,2.659101806640625,0.0976677625477314,0.0010030578290112315,-0.003061451663542539
1772565926740129800,2.6691298828125,0.10769465104341507,0.002874514256697148,-0.000600194382853806
1772565926750158800,2.679158935546875,0.11382920827567576,-0.004315534244710579,-0.002884633791912347
1772565926760187000,2.689186767578125,0.10709493158459663,0.004056038491730578,-0.0011380458529107271
1772565926770215000,2.69921484375,0.10574702410697936,0.008477033271756954,-0.004012258715508505
1772565926780244000,2.709243896484375,0.1097889929741621,-0.004280266568507067,0.0007080021388828754
1772565926790271700,2.719271728515625,0.10230828182995319,0.005955446938844398,0.006928264893218875
1772565926800300800,2.72930078125,0.10215922874808311,-0.0017829926929436623,-0.0008082202435005456
1772565926810328800,2.739328857421875,0.10185936901867389,-0.006173615167592652,-0.008618839195510371
1772565926820358000,2.74935791015625,0.1072445691883564,0.0034011319466866552,0.0003906158859375864
1772565926830386000,2.759385986328125,0.11008885270357131,0.005365253360196947,0.0024246789968106895
1772565926840413700,2.76941357421875,0.10515022725760936,0.010732913306611589,-0.005262085246667265
1772565926850443000,2.779443115234375,0.10140811811983584,-0.006518058390822261,-0.00006581351151689887
1772565926860470800,2.789470703125,0.11562369047701358,-0.006814095895062201,0.00021213578018359838
1772565926870499800,2.799499755859375,0.11382453210055828,0.0005268231859663501,-0.0011333696777932345
1772565926880527600,2.809527587890625,0.10469722279310226,-0.00430591703299433,0.0005488843207247555
1772565926890557000,2.819556884765625,0.10080839866101741,-0.00017358473492786288,-0.0034162838500458744
1772565926900585000,2.8295849609375,0.10799275720715522,-0.00016947938196826726,0.0018902250602375716
1772565926910612700,2.83961279296875,0.11442600512504576,-0.00004729147413745522,-0.00037991182883270085
1772565926920641800,2.849641845703125,0.11247954723238944,-0.0038793850168818604,-0.0026534553845413028
1772565926930669800,2.859669921875,0.09572013561129569,0.001596068985830061,0.00045484022856689987
1772565926940699000,2.869698974609375,0.10559621745944023,0.0069148528557969255,0.006857099353149533
1772565926950726700,2.8797265625,0.11412380730807781,0.0030700459619518367,0.005743365957587957
1772565926960755700,2.889755615234375,0.10888649117648601,-0.002112950733094476,0.0015946487803012131
1772565926970783700,2.89978369140625,0.10379647456109523,0.005976316196937114,0.000913077990617603
1772565926980811800,2.909811767578125,0.09765899471938609,-0.003526813286123797,-0.0053575267114676535
1772565926990840800,2.9198408203125,0.11516484079360961,0.00037882041686680164,0.000005132832843810319
1772565927000868900,2.929868896484375,0.10409048907160759,-0.002705208404664881,0.0048550205494277176
1772565927010898000,2.93989794921875,0.11995265959203243,-0.004016519332095049,-0.005592413179576396
1772565927020925700,2.94992578125,0.09600947394669056,0.003230049696099013,0.0002698481836356222
1772565927030954800,2.959954833984375,0.11277005461156367,-0.002387420292920433,-0.0031297676593996585
1772565927040982800,2.969982666015625,0.11351707358658313,-0.0027998598515987395,-0.00591229278370738
1772565927051010800,2.9800107421875,0.09600947394669056,0.0012668918303912506,0.0023084413391537962
1772565927061039900,2.990039794921875,0.10977671801447868,-0.001999667650926858,-0.0008907017620280385
1772565927071068000,3.00006787109375,0.11411562400162219,-0.005136495238775387,-0.002429528701864183
1772565927081097000,3.010096923828125,0.1006482396632433,-0.004119737677974626,-0.002467139032203704
1772565927091124700,3.020124755859375,0.11860767472386359,-0.0070176328102592375,-0.014757296284753828
1772565927101153800,3.03015380859375,0.10289514180719851,0.0071423369021620595,0.004748345304559916
1772565927111181800,3.040181884765625,0.10902969903945922,0.0010640947007108479,0.0014697985579259693
1772565927121209900,3.0502099609375,0.10274667324721813,-0.0030224622268695384,-0.001605590299423784
1772565927131239000,3.060239013671875,0.0988572645932436,0.002978508920711465,-0.004396262197569012
1772565927141267000,3.070266845703125,0.10888123047947883,-0.00950360440709628,0.002284201947040856
1772565927151296000,3.0802958984375,0.10678455046117305,-0.004938515848107635,0.011032120015472173
1772565927161323800,3.09032373046875,0.1085778636187315,-0.002323031553509645,-0.002768240870628506
1772565927171352800,3.100352783203125,0.11336802050471305,0.001242136415047571,-0.0019234058106318115
1772565927181380900,3.110380859375,0.10857903266251087,0.00033209519830998033,0.010170516483765095
1772565927191409000,3.120408935546875,0.10379062934219836,-0.0017755857046227901,-0.008653298587538301
1772565927201437700,3.130437744140625,0.1094791963726282,-0.0019778028789907694,-0.008248133586440234
1772565927211465700,3.1404658203125,0.10124971268773078,-0.0015176380213350056,-0.0051751010829582805
1772565927221495000,3.1504951171875,0.11411854661107063,-0.0014854664845159276,-0.0006955627824179828
1772565927231522800,3.160522705078125,0.10872925478816031,0.004981870932644233,0.0027287673767656087
1772565927241552000,3.1705517578125,0.10663315929174423,-0.0006759219336090609,-0.004029785239044577
1772565927251579600,3.18057958984375,0.10588555579483508,-0.0007388128356775269,-0.0027529337036423383
1772565927261609000,3.19060888671875,0.11216916610896586,0.003764275303808972,-0.00026504414435476065
1772565927271636700,3.20063671875,0.11381634879410266,-0.006954358315700664,-0.0022979382114484905
1772565927281664800,3.210664794921875,0.11905249588191509,-0.0007271132647292688,-0.006376695425063372
1772565927291693800,3.22069384765625,0.10663374381363391,-0.006916510523343459,-0.008008351747505367
1772565927301721900,3.230721923828125,0.11231938823461532,-0.001862597267795354,-0.00793276576064527
1772565927311751000,3.2407509765625,0.10648059907853603,0.0035388142511714247,0.001087466443143785
1772565927321778700,3.25077880859375,0.10827566580176352,0.00152585329383146,0.0016117643118835985
1772565927331807700,3.260807861328125,0.10827741936743258,0.0013536202657734974,0.0028416896993294356
1772565927341835800,3.270835693359375,0.10483400091528892,-0.00413775739185512,-0.004013363827206194
1772565927351863800,3.28086376953125,0.10229074617326259,-0.004506700302101672,-0.002283818354550749
1772565927361892900,3.290892822265625,0.11126783335506915,0.0021427019839640707,-0.010563844916597008
1772565927371921000,3.3009208984375,0.10857611005306243,-0.0110009896582691,-0.003225647515617311
1772565927381950000,3.310949951171875,0.1090261919081211,-0.005630352303478866,0.0008897884465754031
1772565927391977700,3.320977783203125,0.10318915631771088,0.0011380275866016746,0.00555746973035857
1772565927402006800,3.3310068359375,0.11141747095882892,-0.0025832807917380704,-0.004014167544804513
1772565927412034800,3.341034912109375,0.10258592972755431,0.005968890942307189,-0.0013062602929770945
1772565927422062800,3.351062744140625,0.09854454538226128,0.009524122038739733,0.006105440735630691
1772565927432091600,3.361091552734375,0.10243161594867706,-0.002748577188933268,-0.0022550306514836846
1772565927442120000,3.371119873046875,0.10617314056456088,0.009430415873299352,-0.00032218115907162425
1772565927452149000,3.38114892578125,0.10946282975971698,-0.0013026115977438166,-0.0017496566789224743
1772565927462176800,3.3911767578125,0.11485036801695823,-0.002055370760383084,0.0027799130421131846
1772565927472205800,3.401205810546875,0.10183014292418956,0.004696587717859075,-0.009475264228601009
1772565927482233900,3.41123388671875,0.1085644196152687,-0.006228313630050979,0.0019508966057561338
1772565927492262000,3.421261962890625,0.11379998218119143,0.003542266583582386,-0.0009720051036216319
1772565927502290700,3.431290771484375,0.10212766456604003,0.0018752832194324583,-0.00609111994933337
1772565927512319000,3.441319091796875,0.10167816723287106,0.002495538576203398,-0.002232709221821278
1772565927522348000,3.45134814453125,0.10182605127096175,0.004138976667984388,-0.003051733987126499
1772565927532375800,3.461375732421875,0.1049655183404684,-0.006071972290868871,-0.004563855583127587
1772565927542404900,3.47140478515625,0.10361994895040988,0.005040414453158155,-0.0004661562070250511
1772565927552433000,3.481432861328125,0.10152443797588348,0.003392857308685779,-0.008430193888768553
1772565927562461000,3.4914609375,0.10376666394472121,-0.008919310846272855,-0.006765439014323056
1772565927572489700,3.50148974609375,0.12381751832664012,0.0076986510440940036,-0.004551032634172589
1772565927582517800,3.511517822265625,0.11304594894349575,-0.004978231370565482,0.0019065094747580586
1772565927592546800,3.521546875,0.11364274579286575,-0.0001867958429502323,-0.005964534427598118
1772565927602574800,3.531574951171875,0.11184767906963825,-0.0005559716486372053,-0.009810250070318579
1772565927612604000,3.54160400390625,0.10511632498800753,-0.013497478082543238,-0.0038593240429647263
1772565927622631200,3.551631103515625,0.11499123779237269,0.007232271074783057,-0.000004256050009280443
1772565927632659200,3.5616591796875,0.1081067389756441,-0.005473764369124546,0.003668441113363951
1772565927642688300,3.571688232421875,0.1140939966917038,-0.012689604898914695,0.003588544277567416
1772565927652716000,3.581716064453125,0.10242284812033176,0.005456520973378792,-0.00008362316284328699
1772565927662745300,3.591745361328125,0.10900924077332019,-0.013260979612660593,0.00013696078527718783
1772565927672773000,3.601773193359375,0.1164899519175291,0.0021583288113586605,-0.0030653971862979234
1772565927682802200,3.61180224609375,0.11125322030782699,0.003961665606009773,-0.009623659723345189
1772565927692830200,3.621830322265625,0.1058674356162548,-0.0101406784679275,0.004911481710709631
1772565927702858200,3.631858154296875,0.11335165389180182,0.0028420824249740686,0.002103018427547067
1772565927712887000,3.641886962890625,0.11440028616189955,-0.00018093235774431377,0.00607897285381332
1772565927722915000,3.6519150390625,0.10242869333922862,-0.011574058572179637,-0.005025116419326514
1772565927732944100,3.661944091796875,0.09913725057840346,0.0009899015199160202,0.001597023400478065
1772565927742972200,3.67197216796875,0.11020926421284676,-0.0019258443628903477,0.0012622932870872319
1772565927753001200,3.682001220703125,0.096443189188838,0.0013673291307175531,0.003445957469101995
1772565927763029000,3.692029052734375,0.10646773959696293,0.0030669269896810873,0.0026535832487046716
1772565927773057300,3.702057373046875,0.11290215655863284,-0.006858090300415642,-0.004123491404484958
1772565927783086000,3.712086181640625,0.11274842730164528,0.00019155878303572536,0.0004205817659385502
1772565927793114000,3.722114013671875,0.11574176389873027,-0.0033862905705813314,-0.0022440525997430086
1772565927803143200,3.73214306640625,0.11559095725119113,0.0027098206477006895,0.003691931586805731
1772565927813171200,3.742171142578125,0.1061637882143259,0.00436703153650742,0.0010290507867932318
1772565927823200300,3.7522001953125,0.09942892700135707,-0.004861231094505637,-0.003349420025758445
1772565927833228000,3.76222802734375,0.11005378139019012,0.0006557924610329791,-0.00239420166015625
1772565927843256300,3.77225634765625,0.1109521915346384,-0.01592680585500784,-0.002380775923002511
1772565927853285000,3.78228515625,0.10362170251607894,-0.00281275586578995,-0.0057466173605993385
1772565927863313200,3.792313232421875,0.10706336740255355,0.0030945502155460417,-0.01008508495632559
1772565927873342200,3.80234228515625,0.09913315892517566,-0.0037844687084667384,-0.008125931978877633
1772565927883370200,3.812370361328125,0.1167909806907177,-0.006964381952793337,-0.010516626507695763
1772565927893399300,3.8223994140625,0.11813830364644527,0.0037697780294110995,0.002096132029034197
1772565927903427000,3.832427001953125,0.1109568677097559,-0.00552673209880013,0.0003891271817497909
1772565927913455400,3.842455322265625,0.11245382826924323,-0.00146192121214699,-0.0034970483355224132
1772565927923484200,3.852484130859375,0.10901274790465831,0.004756341381347738,0.0011762224388308822
1772565927933512200,3.86251220703125,0.10437456670999526,-0.003819585687620565,0.0007623992072418332
1772565927943541000,3.872541015625,0.10302841279804706,-0.0006456089937360957,0.002598199799656868
1772565927953569300,3.8825693359375,0.11140870313048362,-0.0041563616276253015,-0.0022007797135971483
1772565927963598300,3.892598388671875,0.1117103164255619,-0.00624701833052095,-0.0028123357406817373
1772565927973626000,3.902626220703125,0.10213409430682659,0.0011796656380873172,-0.0033230800081044433
1772565927983654100,3.912654052734375,0.10886778647601604,-0.0026607756078941744,-0.011134210416767746
1772565927993683200,3.92268310546875,0.10677402906715869,-0.001939621726493351,-0.0013357603820972144
1772565928003711200,3.932711181640625,0.10707271975278854,0.004965015695965849,-0.00046381811946630475
1772565928013740000,3.942739990234375,0.09764379715025424,0.0012191847977228462,-0.005073741334024816
1772565928023768000,3.95276806640625,0.1006347956597805,-0.005635453170281835,0.003077818276453763
1772565928033797400,3.96279736328125,0.11006196469664573,0.003103459607786499,-0.01010344259692356
1772565928043825200,3.9728251953125,0.09779285023212432,0.0009497704389272257,-0.00403075335342437
1772565928053853200,3.982853271484375,0.11126023457050323,0.0020278890984132885,-0.00058901540171355
1772565928063882200,3.99288232421875,0.11440262424945831,0.00372649144353345,0.0014148352339863777
1772565928073910300,4.00291015625,0.10796645372211933,-0.0069580024443566795,-0.0018296813788823783
1772565928083939000,4.01293896484375,0.10228022477924824,-0.008147888082358985,-0.005415741438418627
1772565928093967000,4.022967041015625,0.10961246736347674,-0.0003757105777505785,-0.004472268309537321
1772565928103996200,4.03299609375,0.09674363344013691,-0.017014080501906573,-0.0022900471659377214
1772565928114024200,4.043024169921875,0.10392682294249533,0.0013296092025237157,0.003025193040072918
1772565928124053200,4.05305322265625,0.10961305188536644,-0.00027172961346805095,0.005130312093161046
1772565928134081000,4.0630810546875,0.11185586237609386,-0.01047149502460379,0.0021001506170257923
1772565928144109300,4.073109375,0.10137889202535152,0.005453808426484465,-0.007708893876895308
1772565928154138000,4.08313818359375,0.11170505572855471,-0.0074055863816523924,0.004008304059598595
1772565928164166100,4.093166259765625,0.10901274790465831,-0.0018149176345905289,0.002423555618803948
1772565928174195000,4.10319482421875,0.11005962660908698,-0.0011212819477776064,0.005993139467574656
1772565928184223200,4.11322314453125,0.10901391694843768,-0.0013883445192826912,-0.003460990641452372
1772565928194251000,4.1232509765625,0.09734276837706565,0.002699367752345279,-0.0058513381103985004
1772565928204280000,4.133280029296875,0.1061719715207815,-0.004851001961436122,-0.0006983027287758886
1772565928214308400,4.143308349609375,0.11275427252054214,-0.010969544207234866,-0.0031953802415169773
1772565928224337200,4.153337158203125,0.1022813938230276,0.0016241397362668066,-0.00490094205038622
1772565928234365200,4.163365234375,0.11350187601745128,-0.0015632078958442435,-0.009973770068958401
1772565928244394000,4.17339404296875,0.1007826796978712,-0.0005892071979586035,-0.0058898434898816045
1772565928254422300,4.18342236328125,0.11694470994770526,-0.001852993755810894,-0.0066269438590854405
1772565928264451300,4.193451416015625,0.10258008450865745,-0.00444581412745174,-0.002135185397788882
1772565928274479000,4.20347900390625,0.10512333925068378,-0.004800577815296128,-0.009259557384997607
1772565928284507400,4.21350732421875,0.09898819749653338,-0.007180709850904531,-0.004775306376721709
1772565928294536200,4.2235361328125,0.1034796636968851,0.0030094703145558013,0.0002316350650973618
1772565928304564200,4.233564208984375,0.10348024821877479,-0.005541326879733242,0.004090502450335771
1772565928314593000,4.243593017578125,0.10362930130064486,-0.00664868076685816,0.004534757352806627
1772565928324621300,4.253621337890625,0.10213234074115753,0.0041269620032049715,-0.008593896550498902
1772565928334650000,4.263650146484375,0.11275777965188026,-0.0005817454107105731,-0.00018752192873507738
1772565928344678100,4.27367822265625,0.11470423754453658,-0.00578996331198141,-0.00005620543295517563
1772565928354706200,4.2837060546875,0.1034796636968851,-0.00532336414696183,-0.011078278978448361
1772565928364735200,4.2937353515625,0.11170856285989283,-0.007375593102187849,0.0009376096436753868
1772565928374763300,4.30376318359375,0.1121592292368412,0.0024537224282044916,-0.0037091567162424325
1772565928384792000,4.3137919921875,0.10362871677875518,0.004320680777286179,-0.000615282354131341
1772565928394820000,4.323820068359375,0.10422785171568393,-0.011671112038753926,0.002409965484868735
1772565928404849200,4.33384912109375,0.11574994720518589,-0.0031681543078739193,-0.0022390293647535143
1772565928414877200,4.343877197265625,0.10677227550148963,-0.007369364290800876,-0.0028518092345446344
1772565928424905000,4.353905029296875,0.10677286002337932,-0.002323780472180806,0.00021013561934232712
1772565928434934000,4.36393408203125,0.10841770462095737,-0.0018298503422411157,0.0034184849402867255
1772565928444962300,4.37396240234375,0.10841828914284705,-0.009516884013777599,-0.004090411118790507
1772565928454991000,4.3839912109375,0.09928922626972198,0.002098269187193364,0.001508303937409073
1772565928465019100,4.39401904296875,0.10677052193582057,-0.0056466367179993536,-0.0037985520327463744
1772565928475047200,4.404047119140625,0.09749299050271511,0.0004500955547904595,-0.004575874814484268
1772565928485076200,4.414076171875,0.10811901393532752,-0.005101227562571875,-0.008815302482526748
1772565928495104000,4.42410400390625,0.11156360143125056,-0.010741877497779205,-0.002432433045003563
1772565928505133000,4.434133056640625,0.11560206316709518,-0.0019121537642553448,0.0018119265264831483
1772565928515161300,4.444161376953125,0.1181459024310112,-0.003984941450320184,0.003281432823464274
1772565928525190100,4.454190185546875,0.101236268684268,0.0035232330895494665,-0.003481795967463404
1772565928535218200,4.46421826171875,0.11246084253191947,0.00026254166001453996,0.0006923296457156539
1772565928545247000,4.4742470703125,0.11021744751930236,-0.006004268216365016,-0.0016015351788140832
1772565928555275300,4.484275146484375,0.10588029509782791,0.008707544958847574,-0.0007231814417056739
1772565928565303000,4.494302978515625,0.10243921473324298,-0.002134619142208248,-0.011882142707239836
1772565928575332000,4.50433203125,0.10273848994076251,0.0015596550987334922,-0.014563728207722306
1772565928585360100,4.514360107421875,0.1036363155633211,0.0006022173765813932,0.0006707571347244084
1772565928595389200,4.52438916015625,0.11036708512306213,-0.004637267879210412,-0.0018607523705810307
1772565928605417200,4.534417236328125,0.10438099645078182,-0.0017391215851763262,0.0017256547488272188
1772565928615446000,4.544446044921875,0.10961714353859424,-0.008070393266202881,-0.0005085340440273285
1772565928625474800,4.554474853515625,0.10393033007383345,-0.0025966425968101245,0.0032676234938204284
1772565928635502600,4.564502685546875,0.11200783806741237,-0.0025572787008015436,-0.003720920219272375
1772565928645531600,4.57453173828125,0.10796879180967807,-0.008097194508160464,0.0011351049771532416
1772565928655559400,4.584559326171875,0.10841887366473674,0.0018814983310876414,-0.0004249291474930942
1772565928665588700,4.594588623046875,0.10617547865211963,-0.004543237486784346,-0.0017142931045964359
1772565928675616500,4.604616455078125,0.10602759461402893,-0.003775171157158911,-0.0011314699816517531
1772565928685645600,4.6146455078125,0.10976795018613338,0.0059666670191800214,-0.00831823968058452
1772565928695673300,4.62467333984375,0.11380816548764705,-0.011751008874550462,-0.0029727322004735467
1772565928705701600,4.63470166015625,0.10752221708595752,0.002220014137029648,-0.00006380421752110123
1772565928715730700,4.644730712890625,0.1028828668475151,-0.0018025650430936366,0.006325969884824007
1772565928725758500,4.654758544921875,0.10587561892271041,-0.008827362813078797,0.0030086437640711662
1772565928735787500,4.66478759765625,0.11993980011045932,0.007951949951727873,-0.006473013672698289
1772565928745815600,4.674815673828125,0.10826631345152854,-0.0024126643320312724,-0.0008722527898848056
1772565928755844600,4.6848447265625,0.10497370164692402,-0.001033658463251777,0.001336399702914059
1772565928765872400,4.694872314453125,0.1096142209291458,0.00953311819594819,0.009225819512177259
1772565928775900700,4.704900634765625,0.10751695638895034,-0.008707791554019786,-0.008659344735834747
1772565928785929700,4.7149296875,0.10886369482278824,0.004959636267949826,-0.0011184095706790686
1772565928795957500,4.72495751953125,0.11350187601745128,-0.0008651745951268821,0.0009147036921232938
1772565928805986600,4.734986572265625,0.11035831729471683,-0.012376369664701632,-0.00019323928346857427
1772565928816014600,4.7450146484375,0.11454875472187995,0.005968466250621713,-0.005382642886415124
1772565928826043600,4.755043701171875,0.11948621112406253,-0.004019501307047904,0.004138067919109017
1772565928836071400,4.765071533203125,0.09359832115173339,-0.008730610740603878,0.00448056121384725
1772565928846099700,4.775099609375,0.10631517938375472,-0.0026272340978961434,-0.0052864707692526275
1772565928856128800,4.785128662109375,0.10975509070456027,-0.007331247070385143,-0.0010489793299697338
1772565928866156500,4.795156494140625,0.11020400351583957,0.0007258072236320004,-0.0037258155900985
1772565928876185600,4.805185546875,0.10272036976218223,-0.008898432455025612,-0.012723434103280305
1772565928886213600,4.815213623046875,0.10601239704489707,0.000048697979934513564,-0.004858253686130047
1772565928896242700,4.82524267578125,0.11798340534567832,-0.0019677472758572547,-0.004369027130771428
1772565928906270500,4.8352705078125,0.11439327189922333,-0.006588123385771178,-0.0054363458350300785
1772565928916298800,4.845298828125,0.10601181252300738,0.0035330603638198226,-0.00547112488746643
1772565928926327600,4.85532763671875,0.10346738873720168,0.00613991382739041,-0.006004720307514071
1772565928936355600,4.86535546875,0.10885375795066356,-0.0028939633092610164,0.0019123546936549245
1772565928946384600,4.875384521484375,0.1058586677879095,0.00032028146293014285,-0.0037369032396934922
1772565928956412700,4.88541259765625,0.1019675055682659,0.0009597666765563189,-0.009190017546433955
1772565928966441700,4.895441650390625,0.10929799458682536,-0.0005987924436340108,0.002210077264904976
1772565928976469500,4.905469482421875,0.1143856731146574,0.0023638384879333895,0.005213405533041805
1772565928986497500,4.91549755859375,0.10091887329816818,-0.004293993699760176,-0.0028795557579956946
1772565928996526600,4.925526611328125,0.11169336529076099,-0.0003754502828465774,-0.00538119984799996
1772565929006554600,4.9355546875,0.11289046612083911,-0.001105897148977965,0.0017792115669697521
1772565929016583700,4.945583740234375,0.10151859275698662,-0.007235285015776753,-0.00007048968663439154
1772565929026611500,4.955611572265625,0.10510872620344161,0.0006450336050009355,-0.0043642778904177245
1772565929036640800,4.965640869140625,0.10735270573794842,-0.0024526081833522767,-0.009202712631225586
1772565929046668500,4.97566845703125,0.10675532436668872,-0.0026657212110701945,-0.002891501924116164
1772565929056696600,4.985696533203125,0.10855039108991622,-0.00592431201506406,0.002963051056675613
1772565929066725400,4.995725341796875,0.1119938095420599,-0.007714830427337438,-0.012933898516185581
1772565929076753700,5.005753662109375,0.11663257525861262,-0.002126353637361899,-0.008183726580720394
1772565929086782700,5.01578271484375,0.09718027129173278,-0.004419647639733739,-0.0000896875774487853
1772565929096810500,5.025810546875,0.10436287627220153,0.00001831197482533753,0.0024504436257295308
1772565929106839600,5.035839599609375,0.10346388160586356,-0.00036455899607390165,0.0090144600501284
1772565929116867600,5.04586767578125,0.10181962153017521,-0.006987045875750482,0.004434840642288327
1772565929126895600,5.0558955078125,0.10870178225934504,-0.0025128185045672578,-0.0019748802695423364
1772565929136924400,5.06592431640625,0.09897592253684998,-0.005816221131244674,0.00270602582199499
1772565929146952700,5.07595263671875,0.10855506726503372,-0.005399274360807612,0.0075703804553486406
1772565929156981500,5.0859814453125,0.10586275944113731,0.003499034796631895,-0.01015515451785177
1772565929167009500,5.096009521484375,0.10571078374981879,-0.005235489500686526,-0.002523947253357619
1772565929177038600,5.10603857421875,0.10316752900779247,-0.0031463215019786727,-0.0003136142601259053
1772565929187066600,5.116066650390625,0.11109539939761161,-0.0018282931393943725,0.005216437740344554
1772565929197094700,5.1260947265625,0.1110959839195013,0.0017625572596909477,0.0021555340660735964
1772565929207123500,5.13612353515625,0.10765490355491637,0.005222232726891525,-0.010806878158543259
1772565929217151700,5.14615185546875,0.10660627128481864,-0.007532181036542169,-0.010442008635215461
1772565929227180500,5.1561806640625,0.1130389346808195,-0.002201496666227467,-0.0033169790608808397
1772565929237208600,5.16620849609375,0.10525777928531169,-0.003062931234575808,-0.0006525821572169661
1772565929247237600,5.176237548828125,0.1066039331972599,0.007383091422053985,-0.000513155420217663
1772565929257265700,5.186265625,0.1045078377008438,-0.00268759511616081,-0.00619286329075694
1772565929267293700,5.196293701171875,0.1024123267263174,-0.006090334498044103,-0.00949053486296907
1772565929277322500,5.206322509765625,0.10764905833601951,-0.001950773308170028,0.008584233673010021
1772565929287350500,5.2163505859375,0.10330898330509662,0.0019997361495858058,0.003377550141699612
1772565929297379600,5.226379638671875,0.10315934570133685,-0.012733197445468976,-0.0034845907127484675
1772565929307407600,5.23640771484375,0.11258417665064334,-0.0014957184504717587,-0.004683079782314598
1772565929317436400,5.2464365234375,0.09881868614852428,-0.003948564095841721,-0.010592851815372705
1772565929327464700,5.256464599609375,0.11153612890243529,-0.007883560890634543,0.0012249386850744484
1772565929337492500,5.266492431640625,0.10630056633651255,0.0015989870287012307,-0.0064668944591656325
1772565929347521500,5.276521484375,0.10869476799666881,-0.003514976717857644,-0.011250438941270112
1772565929357549600,5.286549560546875,0.11078735636174677,0.009270686133787967,-0.007311638187617063
1772565929367578600,5.29657861328125,0.10944237149357795,-0.009590296309860422,0.005208692825306207
1772565929377606700,5.306606689453125,0.10420622440576553,0.001855372942565009,0.010345927849598228
1772565929387635500,5.316635498046875,0.11408113721013069,-0.0009677125209942459,-0.011267006483580916
1772565929397663500,5.32666357421875,0.11034136615991592,-0.003433814940159209,-0.012058686584234236
1772565929407691500,5.33669140625,0.11139058295190334,-0.005213638428482227,-0.0012501461915671824
1772565929417720600,5.346720458984375,0.11288462090194225,0.0013720783710712567,0.0015799626678228377
1772565929427748600,5.35674853515625,0.09702245038151741,-0.006728833330981433,0.005323441778775305
1772565929437777400,5.36677734375,0.10584873091578482,-0.0015096830437425523,-0.0037444106927141544
1772565929447805700,5.3768056640625,0.11527531543076038,-0.005955844231066294,0.004344276282005012
1772565929457834500,5.38683447265625,0.114677349537611,-0.004889416009373962,0.004068381950072944
1772565929467862500,5.396862548828125,0.11273498329818248,-0.0006204288867069407,0.00017217822913080452
1772565929477890600,5.406890625,0.10255962624251842,-0.003994517562841065,-0.0014244067799299954
1772565929487919600,5.416919677734375,0.10944295601546764,0.002103849544608965,-0.012553520896472036
1772565929497947600,5.42694775390625,0.10181143822371959,-0.009336179984896444,-0.0010494359876960515
1772565929507976400,5.4369765625,0.10136310993432998,0.0007651437201770022,-0.0023545272368937727
1772565929518004700,5.447004638671875,0.0983691888153553,-0.001600133239594288,-0.0062452693314291536
1772565929528033500,5.457033447265625,0.11273498329818248,-0.010110456859599798,-0.002475705931149423
1772565929538061600,5.4670615234375,0.10300561644434929,-0.0066606725987512615,-0.0037200617027468978
1772565929548089600,5.477089599609375,0.11078677183985709,-0.008553226613393052,-0.006073200700152665
1772565929558118700,5.48711865234375,0.10943944888412951,0.0028369724250165746,-0.0034280016873031852
1772565929568146400,5.497146484375,0.10973872409164905,-0.004189012655057013,-0.007775511106010526
1772565929578175500,5.507175537109375,0.11662263838648795,-0.00919153365008533,-0.0012882679785601793
1772565929588203800,5.517203857421875,0.11288345185816287,-0.0014218220971990376,0.0010886172206141054
1772565929598232600,5.527232666015625,0.1022597665131092,-0.0034489942429820073,-0.0070858848740346725
1772565929608260600,5.537260498046875,0.10226385816633701,-0.005470129373623058,-0.005061137580778449
1772565929618288600,5.54728857421875,0.11184300289452076,0.0006120218179654329,-0.007403152395971119
1772565929628317200,5.557317138671875,0.1206727905601263,-0.0032387216263217848,-0.010818824324663728
1772565929638345000,5.567344970703125,0.10855272917747497,-0.013166620426671579,-0.0010901515905745328
1772565929648374000,5.5773740234375,0.1121463697552681,-0.007223804640537127,-0.003813530406169593
1772565929658402000,5.587402099609375,0.11484043114483355,0.0005071960368892177,-0.009221161603368819
1772565929668431000,5.59743115234375,0.11124912865459918,0.0030289148005424064,-0.005156177186779677
1772565929678459000,5.607458984375,0.10810849254131316,0.004929798252112232,-0.004571545699238777
1772565929688487200,5.617487060546875,0.11289514229595661,-0.006619664734927937,0.0030253574368543923
1772565929698516200,5.62751611328125,0.10436638340353965,-0.0013779783888952805,0.0007883556324057281
1772565929708544000,5.6375439453125,0.0967348656117916,-0.005554496888560243,-0.0018121639885008334
1772565929718573000,5.647572998046875,0.10167349105775356,-0.0022427556918002663,0.001059153664112091
1772565929728601000,5.65760107421875,0.1075099421262741,0.0014836398536106571,-0.002321008559782058
1772565929738630100,5.667630126953125,0.10721242048442363,-0.004353656031703576,-0.004909015758987516
1772565929748658000,5.677657958984375,0.10736439617574214,-0.003589969049673527,0.004637797602172941
1772565929758686000,5.68768603515625,0.1040723688930273,-0.0033384785066358745,-0.003396346173714846
1772565929768715300,5.69771533203125,0.10811433776021002,-0.002389288023021072,0.0007156557223759591
1772565929778743000,5.707742919921875,0.10721768118143081,-0.0034799967360217123,-0.0037513701564632356
1772565929788772000,5.717772216796875,0.10257949998676777,0.0022717488908441737,-0.0031173465692438183
1772565929798800000,5.7277998046875,0.11035773277282714,-0.0034287140733562406,0.004031977196130901
1772565929808829200,5.7378291015625,0.1118494326353073,-0.004822652649786323,0.0057062305512838064
1772565929818857000,5.74785693359375,0.10810790801942348,0.0012361359325237572,-0.009116166858933865
1772565929828885000,5.757885009765625,0.11424304977357387,-0.01049675276344642,-0.007953644151892512
1772565929838913800,5.767913818359375,0.10945406193137168,-0.005883989137830213,-0.008008096019178628
1772565929848942000,5.777942138671875,0.11035130303204059,-0.003302493877802044,-0.0028093765986151992
1772565929858971100,5.78797119140625,0.11304653346538543,-0.004163266292447224,-0.004954097009729594
1772565929868999000,5.7979990234375,0.10706102931499481,-0.0006869182516587897,-0.007963928083889186
1772565929879028000,5.808028076171875,0.10735913547873496,-0.0012386566831730306,-0.0035545324101112783
1772565929889056000,5.818055908203125,0.11080196940898894,-0.006490617828047834,-0.003357311071269214
1772565929899084000,5.828083984375,0.11184651002585887,-0.0018524822991574182,-0.000639302550535649
1772565929909112800,5.83811279296875,0.11199497858583926,0.0008192393944365903,-0.003157842976413667
1772565929919141000,5.84814111328125,0.101070264467597,-0.00018808818431571126,0.0006911971345543861
1772565929929170200,5.858170166015625,0.11378595365583896,-0.004287267131451517,-0.0005455781187862158
1772565929939198000,5.868197998046875,0.11079378610253333,-0.0038094752855598922,-0.0006584821750409901
1772565929949227000,5.87822705078125,0.10166647679507732,-0.00493859347992111,0.0033721250479109583
1772565929959255000,5.888255126953125,0.10600830539166926,-0.002957183004892431,-0.0036719117120839655
1772565929969283000,5.898282958984375,0.10900222651064395,0.003960455463035032,-0.0005379610679112375
1772565929979311900,5.908311767578125,0.11468728640973568,0.004280590795492753,-0.0043690088644623756
1772565929989340200,5.918340087890625,0.09732815532982349,-0.001982200492895208,-0.004883990915585309
1772565929999369200,5.928369140625,0.10076689760684966,0.0009684431733563542,-0.00924061522250995
1772565930009397000,5.93839697265625,0.10705109244287013,-0.0009133565518306567,-0.010069138468522578
1772565930019426000,5.948426025390625,0.09882336232364178,-0.0037562929267529396,-0.005858973427582532
1772565930029454000,5.9584541015625,0.11064473302066326,-0.0025385785669088364,-0.0014013729642145334
1772565930039482000,5.968482177734375,0.10615560490787028,-0.003145024594035931,-0.014126213573291897
1772565930049511000,5.978510986328125,0.10510697263777255,-0.003665281041897833,-0.003223912216257304
1772565930059539200,5.988539306640625,0.1067524017572403,-0.010034245251654647,0.001509856573678553
1772565930069568000,5.998568115234375,0.10256371789574623,-0.006998366420785896,-0.01432356277629733
1772565930079596000,6.008595947265625,0.1125900218695402,-0.00964167487064842,-0.0038093108887784183
1772565930089623800,6.018623779296875,0.10106675733625889,-0.003266851742262952,-0.0043374446824193
1772565930099653000,6.028653076171875,0.09702420394718646,-0.004597054599830881,-0.004869396134652197
1772565930109681200,6.03868115234375,0.1110913077443838,0.0017680188860977068,0.0020632892053574323
1772565930119710000,6.0487099609375,0.10899638129174709,0.002808335418999195,0.00162055040653795
1772565930129738000,6.058738037109375,0.1092962410211563,-0.007548552216030657,0.004205306202732026
1772565930139767000,6.06876708984375,0.11438041241765022,0.0006571487344801426,-0.0054194860317744314
1772565930149795000,6.078795166015625,0.1113876603424549,-0.005974133373005315,0.0056831054040230805
1772565930159824100,6.08882421875,0.10764555120468139,-0.0036130622308934105,-0.0029211664100177582
1772565930169852000,6.098851806640625,0.10554887118637561,-0.0008318933800328522,-0.00120510147344321
1772565930179880200,6.108880126953125,0.10988719265162944,-0.005768746994016692,-0.0053417994193732735
1772565930189909000,6.118908935546875,0.09955985990464687,0.001274518014420755,-0.0021428572475910186
1772565930199937000,6.12893701171875,0.11152969916164875,-0.0035754610337084157,-0.0029310302169062194
1772565930209965800,6.1389658203125,0.10314940882921218,0.0005336958847474306,-0.0016220847764983773
1772565930219994000,6.148994140625,0.10808861879706382,-0.004585400694655254,0.0042689094908535475
1772565930230022000,6.15902197265625,0.10868600016832351,0.0026552272165194153,-0.004881141371373087
1772565930240051000,6.169051025390625,0.10314590169787406,-0.008859780945070088,0.0037240620244294404
1772565930250079000,6.179078857421875,0.1190086567401886,-0.00839259725816082,0.0037973099237307902
1772565930260108000,6.18910791015625,0.10359773711860179,0.0028170164823764932,-0.003648713499587029
1772565930270136000,6.199135986328125,0.11063245806097984,-0.00853248978604097,-0.009213051362149416
1772565930280164900,6.209164794921875,0.10868716921210288,0.005951113257021643,0.001501910729240626
1772565930290193200,6.219193115234375,0.11497019500434398,-0.0021507437265245242,0.002278283662907779
1772565930300222000,6.229221923828125,0.11781389399766921,-0.010956616227002813,0.005176343191973865
1772565930310250000,6.23925,0.10045651648342609,0.0029313179112737996,-0.006682509971223771
1772565930320278000,6.249278076171875,0.11197919649481773,-0.005768030041386373,-0.009788494896236807
1772565930330307000,6.25930712890625,0.11033493641912936,-0.000661171889049001,-0.005808923740778118
1772565930340335000,6.269335205078125,0.11003566121160983,-0.0014140908818924798,0.00017453458299860358
1772565930350364000,6.279364013671875,0.10090718286037445,-0.001278290007240139,-0.0014021766818128525
1772565930360392200,6.28939208984375,0.11317688184678554,0.0019580935315228996,-0.007842877253796905
1772565930370420000,6.299419921875,0.10509528219997882,-0.0037123715866357087,-0.004782265840470791
1772565930380449000,6.309448974609375,0.11003390764594077,-0.003872019127756357,0.003186648945789784
1772565930390477000,6.31947705078125,0.11676701529324054,-0.0020405202511232347,0.002522376350779086
1772565930400506000,6.329506103515625,0.10569500165879726,-0.009614700098754838,0.008588982913363725
1772565930410534100,6.3395341796875,0.11542027685940265,-0.0037874004510696974,0.0047733701479621225
1772565930420563000,6.34956298828125,0.09970832846462727,-0.006490001340117305,-0.008097052944265305
1772565930430591200,6.35959130859375,0.1145247893244028,0.0005736488692229614,0.002731653453595936
1772565930440619000,6.369618896484375,0.10270341862738132,-0.0015308217298937961,-0.0018802790549583732
1772565930450648000,6.37964794921875,0.10824000996649265,-0.007883305162307806,-0.010704221501667052
1772565930460675800,6.38967578125,0.1085381161302328,0.005352215782110579,-0.006607545038871467
1772565930470705200,6.399705078125,0.10973580148220062,-0.008416644854028708,0.0013593604533933103
1772565930480733000,6.40973291015625,0.10644377419948577,-0.004728736421791837,-0.00012358984705060719
1772565930490762000,6.419761962890625,0.10150397970974445,0.0023745516781928017,-0.0024310265392065047
1772565930500790000,6.4297900390625,0.1076408750295639,-0.008019042104878462,-0.00324002310084179
1772565930510818000,6.439818115234375,0.10883739133775233,0.0033913138055708257,-0.0025733758856542406
1772565930520847000,6.44984716796875,0.11212941862046719,-0.0035348824281478297,0.004347071027290076
1772565930530875000,6.459875,0.10015841031968593,-0.015057197113358414,-0.0019500928881578147
1772565930540904000,6.469904052734375,0.10674421845078468,0.009436411789245903,0.0031319230838678775
1772565930550932000,6.479931884765625,0.10734276886582374,-0.0106087754702894,-0.004506042714975774
1772565930560961000,6.4899609375,0.11407646103501319,0.004541735082864761,-0.005561634448822588
1772565930570989000,6.499989013671875,0.10704232461452484,0.004152639867155812,-0.0008816964716650545
1772565930581017000,6.51001708984375,0.09148176738917826,-0.015996450724848545,0.0014460888887755572
1772565930591046100,6.520046142578125,0.11482406453192233,-0.008571401590900495,-0.006040138680767268
1772565930601074000,6.530073974609375,0.11048398950099944,0.004004326570802368,-0.005435706514213234
1772565930611103000,6.54010302734375,0.11242869382798672,-0.007802769005694426,-0.000009735942725092173
1772565930621131000,6.550131103515625,0.10554419501125811,0.002875454971613362,-0.007249697133619338
1772565930631161300,6.560161376953125,0.11287585307359695,-0.009320872817910275,-0.005139189519360661
1772565930641189600,6.570189697265625,0.11601590466499329,0.006194562057498842,0.0014689400414004922
1772565930651217400,6.580217529296875,0.11227379552721976,-0.001908358938549645,-0.002052932208124548
1772565930661246500,6.59024658203125,0.1032972928673029,-0.008814804725605063,0.004454056799411773
1772565930671274500,6.6002744140625,0.10060323147773742,-0.0038019221667665985,-0.010084701363835484
1772565930681303600,6.610303466796875,0.10284954909980297,-0.0027551347938831895,-0.005241645246837288
1772565930691331600,6.62033154296875,0.10479600699245929,-0.007687677558930591,0.006512706362269818
1772565930701360400,6.6303603515625,0.10733984625637531,0.0004389987720409408,0.00544863906102255
1772565930711388700,6.640388671875,0.1050964512437582,-0.008915324224322103,-0.004718790416512638
1772565930721416400,6.65041650390625,0.11153086820542811,-0.0033441821616375816,-0.0033571466744877396
1772565930731445500,6.660445556640625,0.10240472794175147,0.0025159557431470602,-0.002369688273407519
1772565930741473500,6.6704736328125,0.11602058084011077,-0.0017452179658226667,-0.007940090550575405
1772565930751502600,6.680502685546875,0.10524784241318702,-0.0017880159279331563,-0.006349405559338629
1772565930761530600,6.690530517578125,0.10973755504786968,-0.0007785603241762146,-0.008006324187200516
1772565930771559400,6.700559326171875,0.11916297051906585,-0.0005723154286621138,0.000005790419969707727
1772565930781587700,6.710587646484375,0.1124292783498764,0.00889528151671402,0.0018246764102019368
1772565930791615500,6.720615478515625,0.11183131245672702,-0.0014593684954568743,0.0002262099713087082
1772565930801644500,6.73064453125,0.11138239964544773,-0.004438484770944342,0.0003632072892040014
1772565930811672600,6.740672607421875,0.10793956571519374,-0.008034499968914314,-0.0050017172774299975
1772565930821701600,6.75070166015625,0.10075754525661468,-0.008351059671374969,0.004264324647281319
1772565930831729700,6.760729736328125,0.11078443375229835,0.0009880246566608547,0.0073012629240751265
1772565930841758500,6.770758544921875,0.11063479614853858,-0.0033566717504523694,-0.008983480389975011
1772565930851786500,6.780786376953125,0.10225567485988139,-0.009819090963900089,-0.01163907293267548
1772565930861814500,6.790814453125,0.1130301668524742,-0.0024828115253709257,-0.0029389760613441466
1772565930871843600,6.800843505859375,0.10674538749456405,-0.005235850260290317,0.0015027692457661032
1772565930881871400,6.810871337890625,0.11213292575180529,-0.006690286852302961,-0.007940656806156039
1772565930891900400,6.820900390625,0.11243395452499388,-0.0059949569653253995,-0.014687902576662599
1772565930901928400,6.830928466796875,0.10644611228704452,-0.00236984810361173,0.0004398709882982075
1772565930911957500,6.84095751953125,0.1033013845205307,0.0024324102121172472,0.0035513906049542128
1772565930921985500,6.850985595703125,0.10704466270208358,-0.0034943083891645073,0.00340332390377298
1772565930932013600,6.861013671875,0.10435177035629749,0.004325178855890408,-0.0016640972873196004
1772565930942042600,6.871042724609375,0.10360650494694709,0.008405753567256032,-0.008440496087074279
1772565930952070400,6.8810703125,0.10824527066349983,-0.0053626504111569375,0.006663677406590431
1772565930962099500,6.891099365234375,0.10959317814111709,-0.006640776021615602,-0.0015091441876254974
1772565930972127500,6.90112744140625,0.11348492488265037,-0.0005994226312963292,-0.015235416924208402
1772565930982155500,6.911155517578125,0.11213877097070217,0.009775174190360121,-0.01282777126058936
1772565930992184600,6.9211845703125,0.11483166331648825,-0.0038022372605977578,-0.000622789807152003
1772565931002212600,6.931212646484375,0.10480594386458396,-0.007189769940194673,-0.006618577889539301
1772565931012241700,6.94124169921875,0.10974223122298717,0.0007852366601349785,-0.005796192123368382
1772565931022269400,6.95126953125,0.10689853222966193,0.00040334750334732234,-0.010141071193572134
1772565931032298500,6.961298583984375,0.10944237149357795,0.007301870278851129,-0.0019101444702595471
1772565931042326500,6.971326416015625,0.1052531031101942,-0.003465634850529022,0.002019724058266729
1772565931052354600,6.9813544921875,0.10959610075056553,-0.0042552097590640185,0.000009334083925932644
1772565931062383600,6.991383544921875,0.1067564934104681,-0.0025169740898767484,-0.009372845033742487
1772565931072411600,7.00141162109375,0.10451192935407161,0.001092023887252435,-0.004754263588692993
1772565931082440700,7.011440673828125,0.10346446612775326,-0.006242826212593354,-0.006537238015327602
1772565931092468500,7.021468505859375,0.10466156695783138,0.0004942497903481126,-0.005482157738134264
1772565931102497500,7.03149755859375,0.11139409008324146,-0.0006798172240145504,-0.004022149921860545
1772565931112525600,7.041525634765625,0.1025648869395256,-0.006669202965078875,0.002135989115387201
1772565931122553600,7.0515537109375,0.10420856249332427,-0.0051896319318097085,-0.003391505601815879
1772565931132582400,7.06158251953125,0.11662789908349513,-0.0051605885004159064,-0.0076417651911266146
1772565931142610400,7.0716103515625,0.10690203936100005,-0.00045747514364775265,-0.0018858868118375538
1772565931152639700,7.0816396484375,0.10615560490787028,-0.000011247479799203575,-0.001655566920991987
1772565931162667500,7.09166748046875,0.10331249043643474,-0.0027742596194613722,-0.0024657325264066457
1772565931172696600,7.101696533203125,0.10810381636619568,0.004706853383546695,-0.001265124564990401
1772565931182724400,7.111724365234375,0.1066080248504877,0.0023547098999843,-0.0050605530588887625
1772565931192752600,7.121752685546875,0.10331658208966255,-0.0022537154772318897,-0.000041190526913851496
1772565931202781400,7.131781494140625,0.10406477010846138,0.00952710858026985,-0.01069611126044765
1772565931212809500,7.1418095703125,0.1048129581272602,-0.003420823027845472,-0.0006891878405585885
1772565931222838500,7.151838623046875,0.11169687242209911,-0.0010533632441423833,-0.006492503824457526
1772565931232866600,7.161866455078125,0.10197101269960403,0.004375329007394612,-0.007958576055336742
1772565931242895600,7.1718955078125,0.11364216127097607,-0.004762373829912394,-0.01202454685261473
1772565931252923400,7.18192333984375,0.10930325528383254,-0.005073572370666079,-0.006452683270722627
1772565931262951700,7.19195166015625,0.10571019922792911,0.005557629560562782,-0.002037332780193537
1772565931272980500,7.20198046875,0.11079787775576114,-0.004968331031058914,0.0010036240845918655
1772565931283008500,7.212008544921875,0.11528875943422316,0.004846284687123261,-0.00044350598379969597
1772565931293037300,7.222037353515625,0.11080080036520958,-0.001874762629624456,-0.006035791299212724
1772565931303065600,7.232065673828125,0.1139449436098337,0.0034124798911856487,0.0006244520412757992
1772565931313094700,7.2420947265625,0.11873217788636684,0.0011422197045292705,-0.010648363128583877
1772565931323122400,7.252122314453125,0.10690963814556598,-0.005499611196434125,-0.010909735744819045
1772565931333150700,7.262150634765625,0.10810966158509254,-0.01032646509730257,-0.007949789960682392
1772565931343179500,7.272179443359375,0.10646247889995575,-0.000854972861520946,-0.0069791730965487655
1772565931353207600,7.28220751953125,0.11035305659770965,-0.0038914864466292783,-0.008335026418603956
1772565931363236400,7.292236328125,0.10765665712058543,0.0013556980584282427,-0.00334655221523717
1772565931373264600,7.3022646484375,0.10167466010153293,0.009542831305786967,-0.003254983207955956
1772565931383293700,7.312293701171875,0.11229834544658661,-0.0010051949871703982,0.0035415815969929098
1772565931393321500,7.322321533203125,0.11020400351583957,0.0031680036108242345,-0.0023978731882758437
1772565931403349800,7.332349853515625,0.10676116958558558,-0.0009001408772310242,-0.0018704517806880175
1772565931413378600,7.342378662109375,0.11064999371767044,0.000008795227808877825,-0.00505850723227486
1772565931423406600,7.352406494140625,0.10660977841615676,0.004094489072286524,-0.0017253807541914284
1772565931433435400,7.362435302734375,0.10092588756084442,-0.0022520806425716726,0.0075295004556886844
1772565931443463700,7.372463623046875,0.09912965179383754,-0.0015670438207453115,-0.002517919371370226
1772565931453491500,7.382491455078125,0.1049655183404684,0.0014156024189665912,0.002793119583558291
1772565931463520500,7.3925205078125,0.10556640684306622,0.000170922420383431,-0.002484930417221039
1772565931473548500,7.402548583984375,0.10960779118835925,0.004464660391816869,-0.004037822415027767
1772565931483577600,7.41257763671875,0.10616904891133308,-0.006505573368584737,-0.003734510353207588
1772565931493605600,7.422605712890625,0.10946107619404792,-0.0010175201792037114,-0.009326868733856826
1772565931503634400,7.432634521484375,0.10167992079854012,-0.006305036694649607,-0.00456873268764466
1772565931513662500,7.442662353515625,0.10571896705627441,-0.00983244820239488,0.0015288900677114725
1772565931523690500,7.4526904296875,0.1013794765472412,-0.002871130422945134,0.0006488375638611614
1772565931533719600,7.462719482421875,0.10407470698058605,-0.0013874083709437398,0.005640617969166487
1772565931543747300,7.472747314453125,0.11305179416239261,-0.0006366493691457435,0.003227492412831634
1772565931553776400,7.4827763671875,0.1127519344329834,-0.004274635978741571,-0.003358717577066272
1772565931563804700,7.4928046875,0.11439911711812019,-0.005897739101969637,-0.010574731636792421
1772565931573833500,7.50283349609375,0.10257949998676777,-0.0027676015498116612,-0.007161397795658558
1772565931583861500,7.512861572265625,0.10287994423806666,0.0013231794617371633,-0.0027920966702513397
1772565931593889500,7.5228896484375,0.11365326718688011,-0.007262136490084231,-0.005092994023766368
1772565931603918600,7.532918701171875,0.11455226185321807,-0.011607778178690933,-0.006670362875703722
1772565931613946400,7.5429462890625,0.10542553706765175,-0.00213592974988278,0.008403671208024025
1772565931623975400,7.552975341796875,0.10901508599221706,0.0004157548937713727,0.004246003539301455
1772565931634003200,7.563003173828125,0.10946458332538604,-0.0009482269358122721,-0.001973766024690121
1772565931644032300,7.5730322265625,0.10422843623757362,-0.0022509161653695626,-0.011808200688194484
1772565931654060000,7.58306005859375,0.10931260763406753,-0.004741102713020518,-0.003603632248844951
1772565931664088300,7.59308837890625,0.10886311030089854,-0.0032104225470218806,-0.007467413271218538
1772565931674117000,7.6031171875,0.10841478201150893,-0.005457114628423005,-0.0022157580870203674
1772565931684145200,7.613145263671875,0.10901508599221706,-0.0062562199837062505,0.0024155001765117047
1772565931694174200,7.62317431640625,0.10287935971617698,0.000551797797018662,-0.0040975167130120095
1772565931704202200,7.6332021484375,0.11260580396056175,0.003105587632791139,-0.006919825858436524
1772565931714231300,7.643231201171875,0.1055710830181837,-0.0017362126754596828,-0.0058364693348295985
1772565931724259000,7.653259033203125,0.10602174939513206,0.004423757559270598,0.003405534127168357
1772565931734287400,7.663287353515625,0.10452829596698283,-0.0010429103487869724,0.00011529694274067878
1772565931744316200,7.673316162109375,0.11365677431821822,0.004400609579123556,-0.000023618337605148552
1772565931754344200,7.68334423828125,0.10213467882871627,0.00007239394935313611,-0.004884904231037945
1772565931764373200,7.693373291015625,0.10213584787249565,-0.0021860296690370887,0.0008430632280185818
1772565931774401300,7.7034013671875,0.11320961507260799,-0.00013389204535633326,-0.005596742294821888
1772565931784429300,7.71342919921875,0.11814707147479056,-0.0006532306111883371,-0.0016427439720369875
1772565931794458000,7.7234580078125,0.1115618478655815,-0.0016798519788775593,0.0007701623885892331
1772565931804486400,7.733486328125,0.1094663368910551,-0.0013915365567896514,-0.004073039858881384
1772565931814515200,7.74351513671875,0.10423018980324268,-0.010028664894239045,0.001220189444720745
1772565931824543200,7.753543212890625,0.10812076750099658,0.0007855289210798219,-0.0041645905998535454
1772565931834572300,7.763572265625,0.10093991608619689,0.0019137474997201933,-0.010628891243133693
1772565931844600300,7.773600341796875,0.10153729745745659,-0.005525238828035071,0.0005588577254675328
1772565931854628000,7.783628173828125,0.09899345819354056,-0.005354878096655011,0.005407046675309539
1772565931864657200,7.7936572265625,0.09869476750791072,-0.00458203056063503,-0.005025993202161043
1772565931874685200,7.803685302734375,0.10288403589129447,-0.008484801019681618,-0.0005739274304360151
1772565931884714200,7.81371435546875,0.11260931109189987,-0.004752487190137617,0.002345412348676473
1772565931894742300,7.8237421875,0.11305705485939979,-0.0058376612114952875,0.004912541156634688
1772565931904771000,7.83377099609375,0.10811842941343784,0.002752385714370757,0.002940364300832152
1772565931914799000,7.843799072265625,0.10183423457741737,-0.008050720451353117,0.0012204269067384301
1772565931924827100,7.8538271484375,0.09944120196104049,-0.005615615958650596,-0.0006845481980592012
1772565931934856200,7.863856201171875,0.10258300711810588,0.003529703929531388,-0.0011837116255424916
1772565931944884200,7.87388427734375,0.10602584104835987,0.00033736502847168595,-0.0027788718624971805
1772565931954913000,7.8839130859375,0.10348024821877479,0.0010189997502369806,-0.0024263138314709067
1772565931964941300,7.89394140625,0.100189974501729,-0.004879004213213921,-0.003555080399382859
1772565931974970000,7.90397021484375,0.11201309876441955,-0.004537058907747268,-0.0006693688952364027
1772565931984998100,7.913998046875,0.10902093121111392,-0.00909866316828411,-0.0062162259000353515
1772565931995026200,7.924026123046875,0.10707798044979572,-0.00623691249503754,-0.0002909275042824447
1772565932005055200,7.93405517578125,0.1036369000852108,-0.007354938473226502,-0.011205339424218981
1772565932015083300,7.944083251953125,0.10977321088314056,-0.008144426616793498,-0.004453015619795769
1772565932025112000,7.954112060546875,0.11321312220394611,-0.00042065483117476103,-0.002809504462778568
1772565932035140400,7.964140380859375,0.11082008958756923,-0.005560670901020057,0.005916439235862344
1772565932045169200,7.974169189453125,0.1070785649716854,-0.00811806376625318,0.005442337184399366
1772565932055197200,7.984197265625,0.10707681140601634,0.0008119922363199293,-0.00158281221203506
1772565932065225200,7.99422509765625,0.10857494100928305,-0.007869495832663961,-0.002232033368386328
1772565932075254300,8.004254150390626,0.1187508825868368,-0.004577993706334382,-0.0034695940730161963
1772565932085282000,8.014281982421876,0.11575696146786212,0.0015450466180685907,0.005115625980682671
1772565932095311000,8.02431103515625,0.11979717676937579,0.0033193354147486387,-0.001974387079197913
1772565932105339400,8.03433935546875,0.1067781207203865,0.001061149258376099,-0.00200291905393824
1772565932115367200,8.0443671875,0.12129355280697345,-0.0044635096143465485,0.006075082129985094
1772565932125396200,8.054396240234375,0.1091746604681015,-0.0011185328682651742,-0.0006433211385272443
1772565932135424300,8.06442431640625,0.10812778176367283,0.005056698867678642,-0.002415427111275494
1772565932145453300,8.074453369140626,0.10259060590267181,-0.0061809125580592076,-0.0025248971014283595
1772565932155481000,8.084481201171876,0.10648059907853603,0.0051206081164767965,-0.0013137860123068094
1772565932165510100,8.09451025390625,0.1102244617819786,-0.002105813172832131,0.0012596629385836422
1772565932175538200,8.1045380859375,0.1088783078700304,-0.006306319902860559,-0.004832333793584257
1772565932185566200,8.114566162109375,0.10857844814062118,0.003364174636895768,-0.0006578793868422508
1772565932195595300,8.12459521484375,0.10693243449926376,0.004127583057712763,-0.0023068156376481056
1772565932205623000,8.134623046875,0.1018459250152111,-0.005910872578178532,-0.004175111993867903
1772565932215652400,8.14465234375,0.10424012667536735,0.0006925031756516546,-0.0005739091641269624
1772565932225680100,8.15468017578125,0.10633505312800406,-0.00344862435022369,-0.001748067510034889
1772565932235709200,8.164709228515624,0.09675473935604095,0.005833464526990428,-0.010572612744942306
1772565932245737200,8.1747373046875,0.10932488259375095,0.00341021030228585,-0.009771653359290212
1772565932255765200,8.18476513671875,0.11007482417821883,-0.010491925891279242,-0.0021776180337183177
1772565932265794300,8.194794189453125,0.11231938823461532,-0.00299388458635658,-0.0023366993192583323
1772565932275822000,8.204822021484375,0.10737959374487399,-0.00197924135082867,-0.0007538140419870615
1772565932285851100,8.21485107421875,0.10857494100928305,-0.002632362364162691,0.0017153342842124403
1772565932295879200,8.224879150390626,0.11126841787695885,-0.004781197261391207,-0.0022324900261126456
1772565932305908200,8.234908203125,0.10214344665706157,-0.0024587091305758803,-0.0008565985630266368
1772565932315936000,8.24493603515625,0.11875029806494712,0.003273770106816664,-0.0048020665194839236
1772565932325964300,8.25496435546875,0.11575696146786212,-0.003513976637437008,-0.004269073887635022
1772565932335993300,8.264993408203125,0.11291326247453688,-0.0010425176231423391,-0.000919160671532154
1772565932346021000,8.275021240234375,0.10992167944312095,-0.0018919694927521048,-0.007301208125147968
1772565932356050200,8.28505029296875,0.11336217528581619,-0.003973205346753821,-0.005263583084009587
1772565932366078200,8.295078125,0.12039864979386329,0.002587408977583982,-0.003477064993418753
1772565932376107300,8.305107177734374,0.11246785679459571,-0.0073066880178637795,-0.0007500877149403095
1772565932386135000,8.315135009765624,0.10663082120418547,-0.0020505210553295908,-0.00585950315054506
1772565932396163300,8.325163330078125,0.1084293950587511,0.0019523853099439293,-0.007174878331739455
1772565932406192400,8.3351923828125,0.10768354512751102,-0.0047698447503149504,0.0006011990298517048
1772565932416220200,8.34522021484375,0.10843231766819954,-0.004225773602025583,0.003609477467741817
1772565932426249200,8.355249267578126,0.11516425627171993,0.0010905397496419028,-0.004607712991163134
1772565932436277200,8.36527734375,0.1099240175306797,0.000051506424951367075,-0.0026473727036267517
1772565932446305300,8.37530517578125,0.10498539208471774,0.0018419746048748491,0.002550524733029306
1772565932456334000,8.385333984375,0.10633096147477626,-0.0037005076189059764,-0.0007588007443584501
1772565932466362000,8.395362060546875,0.11112111836075782,0.0011468456472968683,0.00178034407813102
1772565932476391400,8.405391357421875,0.09899871889054775,-0.005914238145621493,-0.006110829296801239
1772565932486419200,8.415419189453125,0.1069306809335947,-0.006130155051779001,0.0032282778641209006
1772565932496448300,8.4254482421875,0.10827741936743258,-0.0021060049690771847,0.006804200122132897
1772565932506476300,8.435476318359376,0.10857552553117275,0.002153255344019271,-0.0007151990646496415
1772565932516504300,8.44550439453125,0.10992343300879001,-0.00278403209480457,-0.007415299491491168
1772565932526533000,8.455533203125,0.11351239741146564,-0.0042920711707323785,0.003013502602279186
1772565932536561200,8.46556103515625,0.10468377878963947,-0.005179562628944404,-0.006148695355467498
1772565932546590200,8.475590087890625,0.10737608661353587,-0.0027903202716959637,0.0011998590427450835
1772565932556618200,8.4856181640625,0.0992968250542879,0.00021967976582236586,0.010970215494092554
1772565932566647300,8.495647216796876,0.10169161123633384,-0.008952112570754251,-0.0021521365325897933
1772565932576675000,8.505675048828126,0.10543138228654861,-0.0054194814651971675,-0.0047989247143268585
1772565932586703400,8.515703369140626,0.10498363851904868,0.0003421325351344421,-0.005529485744889825
1772565932596732200,8.525732177734374,0.10288929658830165,0.0012458536089397967,0.0030377054617740213
1772565932606760200,8.53576025390625,0.1012444519907236,0.0013939705424709245,0.004609594420995563
1772565932616789000,8.5457890625,0.09840133751928806,0.0009086073114769532,-0.00941761575723067
1772565932626816500,8.55581640625,0.10752689326107501,-0.0016479453035397455,-0.0021080964614637195
1772565932636845600,8.565845458984375,0.1051315225571394,0.006095449064578861,-0.002915467321593314
1772565932646873600,8.57587353515625,0.1016886886268854,0.0065260864336509255,0.00479333522375673
1772565932656901600,8.585901611328126,0.11111468861997127,-0.005003603273839689,-0.00006643456602469086
1772565932666930400,8.595930419921874,0.09809680161476135,-0.00026267865733243525,-0.0013578078171238303
1772565932676958500,8.60595849609375,0.09570493804216385,-0.006585292107868008,-0.006860551685560494
1772565932686987500,8.615987548828125,0.10468436331152915,0.001872401709179394,-0.0043673648966476315
1772565932697015600,8.626015625,0.09825111539363861,0.0006965034973341972,-0.00334344694269821
1772565932707043600,8.636043701171875,0.10139233602881431,0.0025253172265365716,-0.005914630871266127
1772565932717072400,8.646072265625,0.1096235732793808,-0.004292011805227957,-0.004168846649862825
1772565932727100700,8.6561005859375,0.11231705014705658,-0.0063797367655206464,-0.00004548310954123735
1772565932737129500,8.66612939453125,0.11366378858089446,0.00194673645386938,0.0008494564361870288
1772565932747157500,8.676157470703124,0.11456219872534275,0.0003592298004077747,-0.005034861495206132
1772565932757186600,8.6861865234375,0.10812719724178313,-0.0039182465893914924,-0.00012166275144554674
1772565932767214600,8.696214599609375,0.10588146414160728,-0.00575074554644525,-0.006048395052459091
1772565932777242400,8.706242431640625,0.11485972036719322,-0.003522443071682937,0.004373758104816079
1772565932787271400,8.716271484375,0.10274141255021095,-0.004565307754697278,0.0016042385925538838
1772565932797299700,8.7262998046875,0.11426526160538196,-0.009033959335042164,0.001995265470445156
1772565932807328500,8.73632861328125,0.1037888757765293,-0.004718169362004846,0.004456230490189045
1772565932817356500,8.7463564453125,0.10647943003475666,0.006624610338103957,0.0003900404972024262
1772565932827385300,8.75638525390625,0.11905132683813571,-0.0027990515674231574,0.0035220366463065145
1772565932837413600,8.76641357421875,0.10857903266251087,-0.002492296306346543,0.0006629482876043766
1772565932847441400,8.77644140625,0.11711012964248657,-0.00022183975686784833,0.0001769366026390344
1772565932857470500,8.786470458984375,0.10723463231623172,-0.003258983529638499,0.0006650671794544905
1772565932867498800,8.796498779296876,0.11591185976862907,-0.001262115190573968,-0.008274400538858025
1772565932877527600,8.806527587890624,0.10558744963109493,-0.001554499433003366,-0.009352514631766826
1772565932887555600,8.8165556640625,0.10708441019058226,-0.0038521590832388025,-0.0009951576503459364
1772565932897584400,8.82658447265625,0.10932955876886843,0.0057965072171995416,-0.007401974219037219
1772565932907612700,8.83661279296875,0.12159984227716922,-0.0015842232844093813,0.0029370763652026653
1772565932917640400,8.846640380859375,0.11217325776219367,-0.006883430237649008,0.001567696841293946
1772565932927669500,8.85666943359375,0.1142681842148304,-0.0016795916839735582,-0.0017019907454494385
1772565932937697500,8.866697509765626,0.11456687490046023,-0.005602619479759596,-0.0006707023357972503
1772565932947726600,8.8767265625,0.10543898107111453,0.005274652467295527,0.00248385270498693
1772565932957754600,8.886754638671874,0.11695990751683712,0.004355491795763373,-0.005666318666003644
1772565932967783400,8.896783447265625,0.10618775361180305,-0.008028878512303345,0.0023629023395944386
1772565932977811500,8.9068115234375,0.11561726073622702,0.0032297072028042747,0.00038988523357547816
1772565932987839500,8.916839599609375,0.10678747307062149,-0.007566681527765467,-0.0011562938956543802
1772565932997868500,8.92686865234375,0.10169687193334102,-0.0110089263695525,0.0006012812282424419
1772565933007896300,8.936896240234375,0.11367021832168102,0.002797786625521257,-0.004523843233147635
1772565933017925400,8.94692529296875,0.10798340485692023,-0.013242937065893783,-0.006496485879831016
1772565933027953700,8.95695361328125,0.10573884080052375,-0.00022830603027250616,0.0053500466579105704
1772565933037981400,8.9669814453125,0.11995499767959117,0.004766926707443781,0.0051927554706577205
1772565933048010500,8.977010498046875,0.12309504927098751,-0.008519753602053969,0.00015345526235178113
1772565933058038500,8.98703857421875,0.10528583633601665,0.0022225714202970264,-0.001598703900910914
1772565933068067600,8.997067626953125,0.10304127227962016,-0.009955873652664012,-0.0030064518069848416
1772565933078095400,9.007095458984375,0.10902560738623142,-0.00210933400390204,-0.004904229986015707
1772565933088124400,9.01712451171875,0.11171791521012782,0.006415630062809214,-0.006222673907130956
1772565933098152700,9.027152587890624,0.1117190842539072,-0.014738477419852278,0.0062114766596816475
1772565933108180500,9.037180419921874,0.10917524498999118,-0.004815419191401452,-0.009461381833720951
1772565933118209500,9.04720947265625,0.10857727909684181,0.0014171139560407028,-0.004443243144452572
1772565933128237600,9.057237548828125,0.10693184997737407,-0.007387356605217792,-0.0021629684538580474
1772565933138266600,9.0672666015625,0.11022212369441986,0.007760637763864361,-0.0040900275263004
1772565933148294400,9.07729443359375,0.10558511154353618,-0.00854284221669659,-0.0003032572628930211
1772565933158323500,9.087323486328126,0.11366729571223258,-0.00800088082710281,-0.00013641279600560665
1772565933168351700,9.097351806640624,0.1082815110206604,0.006458779651368968,-0.008503788847941904
1772565933178379500,9.107379638671874,0.10902852999567984,-0.00954263494296465,-0.0009356003496795892
1772565933188408600,9.11740869140625,0.11636018805801868,-0.00011457999011036008,-0.0030814532719552513
1772565933198436600,9.1274365234375,0.10334288557469844,-0.004482054484612308,-0.002917969805933535
1772565933208465700,9.137465576171875,0.11217267324030399,-0.00834985409497749,0.004041183415893465
1772565933218493400,9.147493408203125,0.10543898107111453,0.00044588973713107405,-0.001341751731466502
1772565933228522500,9.1575224609375,0.10992752466201781,-0.00029391861238982527,-0.00001695113480091095
1772565933238550500,9.167550537109374,0.10977847158014774,0.0004224768955027684,-0.001030475558899343
1772565933248578600,9.17757861328125,0.10274550420343875,0.001805318689183332,0.0003232040723785758
1772565933258607600,9.187607666015625,0.11037819103896618,-0.01249275801940821,-0.0052445495899766685
1772565933268635400,9.197635498046875,0.10753566108942031,0.0025657360018929466,-0.0019614545323885977
1772565933278664700,9.207664794921875,0.10439151784479618,0.0002293837425066158,-0.005093322817329317
1772565933288692500,9.2176923828125,0.10708499471247196,-0.004844919280521572,-0.004817465018015355
1772565933298721500,9.227721435546876,0.10573825627863406,-0.0008962181873619555,-0.008582023449614644
1772565933308749300,9.237749267578126,0.09810381587743759,0.005660770274628885,-0.005309961242694407
1772565933318777600,9.247777587890624,0.10812895080745219,-0.005174466328718699,-0.013617332469392568
1772565933328806700,9.257806640625,0.10229074617326259,-0.00040624727990943937,-0.00526555584538728
1772565933338834400,9.26783447265625,0.10558335797786712,-0.008098619280266575,0.00030504736118018626
1772565933348863500,9.277863525390625,0.11126783335506915,0.0030199277764884755,-0.004002513639628887
1772565933358891500,9.2878916015625,0.10902560738623142,-0.006810054474184289,-0.0026704613182693716
1772565933368919600,9.29791943359375,0.11411387043595313,-0.00823484484660439,-0.008428202861081808
1772565933378948400,9.3079482421875,0.11022621534764766,-0.008004744151467458,0.003968958429899067
1772565933388976600,9.3179765625,0.10902852999567984,-0.005735164384823292,-0.001657484883442521
1772565933399005700,9.328005615234375,0.09944996978938579,-0.0017666215134551748,-0.008768558997660875
1772565933409033500,9.338033447265625,0.09959960739314555,0.01025836373057682,-0.005156012789998203
1772565933419062500,9.3480625,0.09735679690241814,-0.005714290560153313,-0.011201448700390755
1772565933429090600,9.358090576171875,0.10648469073176384,0.00689192863793578,-0.006431877944711595
1772565933439118600,9.36811865234375,0.10543605846166611,-0.003401355708972551,-0.0029859022093005477
1772565933449147400,9.3781474609375,0.10992460205256939,0.0038115804776782166,-0.002677238118927926
1772565933459175700,9.38817578125,0.1082768348455429,0.002487104107998311,-0.0029568405115976927
1772565933469204500,9.39820458984375,0.11082008958756923,-0.008600554620148613,-0.01210272665536031
1772565933479232500,9.408232421875,0.11695581586360931,0.0007503617095761001,-0.00530484667615965
1772565933489261600,9.418261474609375,0.104386257147789,0.0034431216246215623,-0.001618248851597309
1772565933499289600,9.42828955078125,0.0957066916078329,0.0016524753481848165,-0.0012241349674761294
1772565933509317600,9.438317626953125,0.09690379243791103,-0.002394133161497302,0.0006171089850366115
1772565933519346400,9.448346435546876,0.09810206231176853,-0.00583662916503381,-0.0016985475461930035
1772565933529374700,9.458374755859374,0.10797755963802337,-0.0011008054153295232,-0.00454915120434016
1772565933539403500,9.468403564453125,0.10258943685889244,0.002984308473835699,0.005616451642289758
1772565933549431600,9.478431640625,0.10169161123633384,-0.006942471515084617,-0.005150258902646601
1772565933559459300,9.488459228515625,0.10423545050024986,0.0026976826853351665,-0.0027152320417575537
1772565933569488600,9.498488525390625,0.10752806230485439,-0.0003540924009867012,-0.0048071445534005755
1772565933579516700,9.5085166015625,0.11815233217179774,-0.0004358158676885068,-0.010988408737909048
1772565933589545500,9.51854541015625,0.10558160441219806,0.005457023296877741,0.003938015302363783
1772565933599573500,9.528573486328124,0.10079553917944431,-0.002989797499706037,0.001122793484851718
1772565933609602600,9.5386025390625,0.11351239741146564,0.004076519590755924,-0.00046403731517493724
1772565933619630600,9.548630615234375,0.109169984292984,-0.0002763281567720696,-0.00596981339091435
1772565933629657900,9.558657958984375,0.10946809045672416,-0.01215893665489275,-0.008255367044825107
1772565933639687200,9.568687255859375,0.11021627847552298,0.006971802640845999,-0.010798457390069962
1772565933649715000,9.57871484375,0.11545534817278384,-0.00775162334034685,0.002750833078101277
1772565933659744000,9.588743896484376,0.10961714353859424,0.004428283037338406,-0.0009621960956603288
1772565933669772000,9.59877197265625,0.10407996767759323,0.0065010022247442975,0.0002215337961912155
1772565933679801000,9.608801025390624,0.11200900711119174,0.0005568986638216302,-0.002568699710536748
1772565933689829000,9.6188291015625,0.10228373191058635,0.00585573572430294,-0.0004817191023379564
1772565933699857000,9.62885693359375,0.10722235735654831,0.002025003021582961,-0.0008551189919933676
1772565933709886000,9.638885986328125,0.10273439828753471,-0.0006530342483660206,0.0002553812668658793
1772565933719914000,9.6489140625,0.10498013138771056,0.009243081174232065,-0.0035822058683261273
1772565933729943000,9.658943115234376,0.11006839443743228,-0.004950882139336318,-0.0022073007859289644
1772565933739970800,9.668970703125,0.10528057563900947,0.0014063916326267645,0.0006530570812523364
1772565933750000000,9.679000244140624,0.11081482889056204,-0.0071525797349633645,-0.0014385631694458425
1772565933760028200,9.689028076171875,0.10692249762713908,-0.006769092276133597,-0.0035461847068741915
1772565933770056000,9.699055908203125,0.12248305485248565,-0.00032400322339963165,0.001034567212127149
1772565933780085000,9.7090849609375,0.10856851126849651,0.00508041766998358,-0.007560333985369652
1772565933790113000,9.719113037109375,0.09614800563454627,0.003988804774684831,-0.0045019875943660735
1772565933800142000,9.72914208984375,0.09839198516905308,-0.003041760582383722,-0.0023088614642620083
1772565933810169900,9.739169921875,0.11066285319924354,-0.004240765675180592,-0.0061557826833799475
1772565933820198100,9.7491982421875,0.10452888048887252,-0.0011340181317646056,-0.004024615873582661
1772565933830227200,9.759227294921875,0.1031838956207037,-0.0016060515237273647,-0.006673303751461208
1772565933840255000,9.7692548828125,0.10497779330015182,-0.00483585919123143,-0.0017969664193689821
1772565933850284000,9.779283935546875,0.10123568416237831,0.010274428949388674,0.004400755709595978
1772565933860312000,9.78931201171875,0.10333119513690471,-0.006954225884960033,-0.004661288075614721
1772565933870341000,9.799341064453126,0.10811667584776878,-0.006761516324453987,-0.0018064831663854419
1772565933880369000,9.809368896484376,0.1120060845017433,-0.0011131488736718892,-0.004201342413667589
1772565933890397200,9.819397216796874,0.10317863492369651,-0.0017641601283103227,-0.0005872983686625957
1772565933900426200,9.82942626953125,0.1063210246026516,-0.005790798995620571,0.0035793928567320107
1772565933910454000,9.8394541015625,0.09973580099344254,-0.006767169747105799,0.0032082214567810295
1772565933920483000,9.849483154296875,0.11066051511168479,-0.002031862020632252,-0.005526526602823287
1772565933930511000,9.859510986328125,0.1040764605462551,-0.0003884421951603144,-0.0049362508257851006
1772565933940540200,9.8695400390625,0.1150040972739458,-0.010695887498161754,-0.007884688835218548
1772565933950568000,9.87956787109375,0.1144073004245758,-0.000865686051780358,-0.008422010582312942
1772565933960596000,9.889595947265626,0.10154022006690501,-0.0013335136260837317,0.0023103958342224357
1772565933970625000,9.899625,0.10677695167660713,-0.0033207099545048547,-0.004352587452623993
1772565933980653000,9.909653076171875,0.10752689326107501,-0.003700854678777978,-0.007350965551007538
1772565933990682000,9.91968212890625,0.11201719041764735,-0.008265390681917778,-0.005290251895226538
1772565934000710000,9.9297099609375,0.10573124201595782,-0.012326653338037431,-0.0057459049745462835
1772565934010739200,9.9397392578125,0.11470657563209533,-0.0060075241859536615,-0.0032597507146187124
1772565934020767000,9.94976708984375,0.17693828313946722,0.002102269508875906,-0.013502072059269994
1772565934030795000,9.959794921875,0.125740595343709,-0.001381042562238872,-0.0029458076609298585
1772565934040824000,9.969823974609374,0.09744038353264331,0.00032733225822448726,0.0024253274507820607
1772565934050852000,9.97985205078125,0.0772287856310606,-0.0026635475202929225,-0.004294664986617863
1772565934060881200,9.989881103515625,0.06989478948116302,-0.0033026126088108866,-0.025275073569919912
1772565934070909000,9.999908935546875,0.09847849440872669,-0.0010380560771562158,-0.012243066707812248
1772565934080937200,10.009937255859375,0.09145195677280425,-0.0008718098318902776,0.013109656941890716
1772565934090966000,10.019966064453126,0.1061246252477169,-0.008236666910932399,0.013484792130906134
1772565934100994000,10.029994140625,0.09386895478665828,-0.0016815324793104081,-0.012939469740446656
1772565934111022800,10.04002294921875,0.10989420691430568,0.000029171295557171106,-0.008647745629586279
1772565934121051100,10.050051025390625,0.12217442729473113,-0.0022823068174766376,0.011661449161265046
1772565934131080200,10.060080078125,0.1326537357330322,-0.0018128535416675731,0.0022016930290497836
