time,seconds_elapsed,z,y,x
1772563752441146600,0.072146728515625,1.6191303106069563,0.24981647234559057,-1.7983263095453381
1772563752451144700,0.082144775390625,1.5689248487189411,0.4470931946367025,-1.6303376410588621
1772563752461142500,0.092142578125,1.57073569753319,0.5070575417339801,-1.383951727683842
1772563752471140600,0.102140625,1.654737922821939,0.4326362147390842,-1.1571484666571021
1772563752481139700,0.1121396484375,1.7439803868517278,0.3662929802596569,-0.9484604157745837
1772563752491137500,0.122137451171875,1.7472189303815364,0.3814285900712013,-0.6978045699954033
1772563752501135600,0.132135498046875,1.7088368850171565,0.4470072699189186,-0.5067468683496117
1772563752511133700,0.1421337890625,1.6339555392950773,0.6060369714021683,-0.5026774269536137
1772563752521131500,0.152131591796875,1.2325877385228872,0.8706745807826518,-0.9714151749044656
1772563752531129600,0.162129638671875,0.42446050706803795,1.3459487447649239,-1.794139379249513
1772563752541127700,0.172127685546875,-0.2558446465939283,1.726090802156925,-2.4713889447331425
1772563752551126800,0.182126708984375,-0.7261106270253658,1.9069260927349327,-2.8843931150242685
1772563752561124600,0.19212451171875,-1.1410174160674214,2.1627719083726404,-3.0896599592864513
1772563752571122700,0.202122802734375,-1.5068217360273002,2.1547814941406247,-3.016999504484236
1772563752581120800,0.212120849609375,-1.7229218167319893,2.238095152643323,-2.914067830058932
1772563752591118600,0.22211865234375,-1.8410222725860774,2.297044185218215,-2.797905794921517
1772563752601116400,0.232116455078125,-1.9174708676248788,2.0791338402211665,-2.5904402715712784
1772563752611114500,0.242114501953125,-1.92118024353683,1.4672808760166167,-2.1389012034416197
1772563752621113600,0.252113525390625,-1.9179127661734818,0.9904472076326608,-1.819609920592606
1772563752631111400,0.262111328125,-1.9113351413488386,0.40065877572000025,-1.435770762248337
1772563752641109500,0.272109619140625,-1.8295041226193307,-0.294788417494297,-0.7562751714035868
1772563752651107600,0.282107666015625,-1.7618688025027514,-0.8944353955984115,0.02207330012023449
1772563752661105400,0.29210546875,-1.7136882705710828,-1.4412293199151753,0.8538821436747908
1772563752671103500,0.302103515625,-1.8444222902879117,-1.7233651765853166,1.5968530123472213
1772563752681101600,0.3121015625,-2.0875319584712386,-1.8284516909569501,2.3133599447250366
1772563752691100700,0.3221005859375,-2.2369617646992204,-1.797744418004155,2.8541636887162922
1772563752701098500,0.332098388671875,-2.4197025966376065,-1.8336106811553239,2.8927260590836403
1772563752711096600,0.3420966796875,-2.3627204802215096,-0.8102063758164644,3.29548414517045
1772563752721094400,0.352094482421875,-2.251898490937799,-0.2809282344460487,3.448714512725174
1772563752731092500,0.362092529296875,-2.17572579023093,-0.0006347907721996307,3.471080073790252
1772563752741090600,0.372090576171875,-2.041603735511005,0.385830624422431,3.4659909339576958
1772563752751088400,0.38208837890625,-1.922820265828818,0.8057014656126499,3.3777915492400523
1772563752761087500,0.39208740234375,-1.7487670366063712,0.5296680174708366,2.59677882694304
1772563752771085600,0.40208544921875,-1.5298685573548079,0.34369068782925605,1.985414523038268
1772563752781083600,0.412083740234375,-1.3324281689345836,0.08854103776216507,1.5135560127183794
1772563752791081500,0.42208154296875,-1.2956371921539307,-0.25665011775791646,1.0635676811620594
1772563752801079600,0.43207958984375,-1.3937307788982987,-0.6173901400655508,0.8166559903472661
1772563752811077600,0.44207763671875,-1.4921497982047498,-0.8543003690868616,0.6231696002498268
1772563752821075500,0.452075439453125,-1.4938494417294859,-1.1386690993756055,0.3285278977498412
1772563752831074600,0.462074462890625,-1.392955264481157,-1.251072074240446,-0.023315993657708166
1772563752841072600,0.47207275390625,-1.2218328280135988,-1.0393611684054136,-0.019954992792010306
1772563752851070500,0.482070556640625,-1.043168743994832,-1.1039864930510521,0.2514008189275861
1772563752861068500,0.492068603515625,-1.0057409306153655,-0.8882534920930862,0.0926221695959568
1772563752871066600,0.502066650390625,-0.9824518249645828,-1.7192846292734145,-0.26307868950068947
1772563752881064400,0.512064453125,0.1936896575845778,-2.3349679654210806,-1.8902967372342943
1772563752891062500,0.5220625,1.7678028687268494,-1.7801625840842723,-3.3781410933300853
1772563752901061600,0.5320615234375,0.7701679415471852,-1.8126415428847074,-2.8447064168021083
1772563752911059500,0.5420595703125,2.9907378127634523,-1.5144231509417294,-3.2464097331389783
1772563752921057500,0.5520576171875,2.3932453823447224,-1.6258154874593018,-3.183040546034276
1772563752931055600,0.5620556640625,1.2840582519106567,-1.625676955771446,-1.979379626788199
1772563752941053400,0.572053466796875,0.7118804416209459,-1.6931465639322996,-0.8716460561633109
1772563752951051500,0.582051513671875,0.5605173292428255,-1.646723835453391,-0.11310790826380253
1772563752961049600,0.592049560546875,0.6948141560077666,-1.370982648256421,0.08408961131125688
1772563752971048700,0.602048583984375,0.8317734799802303,-1.0742395895630121,-0.054525663174688814
1772563752981046500,0.612046630859375,0.7708311546962707,-0.9685837508708238,-0.3167807613328099
1772563752991044600,0.622044677734375,0.5095826762974262,-0.9771844059556722,-0.34233108991384503
1772563753001042700,0.632042724609375,-0.03525189411249011,-0.7013859356135129,-0.3742608903989196
1772563753011040500,0.64204052734375,-0.6837082401037216,-0.23064707697331904,-0.36061581140607596
1772563753021038600,0.65203857421875,-1.1211199986815452,0.13434884921312332,-0.3391197266519069
1772563753031036400,0.662036376953125,-1.6317437084645032,0.28648236144185063,-0.24343407783210277
1772563753041035500,0.672035400390625,-2.0471967332124708,0.4323614894509315,0.32739158719629047
1772563753051033600,0.68203369140625,-2.386472527208924,0.54448856998384,1.287822134488821
1772563753061031700,0.69203173828125,-2.614516728207469,0.28973639480173585,1.7940192600011824
1772563753071029500,0.702029541015625,-2.542083944681287,-0.004612462231516838,1.8709972857415675
1772563753081027600,0.712027587890625,-2.2654104450702666,-0.24593407795429229,2.148790729293227
1772563753091025700,0.722025634765625,-1.2154571555018425,-0.25314766259491445,2.909329111099243
1772563753101023500,0.7320234375,-0.36124800836239007,0.09035130205452442,3.542387360417843
1772563753111022600,0.742022705078125,-1.5648346567958593,0.4266150547534227,3.838043792918324
1772563753121020700,0.752020751953125,-2.865218166694045,0.6729881086468696,3.2451714235156772
1772563753131018500,0.7620185546875,-3.158438311958313,1.141454346179962,2.6359552375555038
1772563753141016600,0.7720166015625,-2.90554842351675,1.3556138142108916,2.2374054168134925
1772563753151014700,0.7820146484375,-2.709575769561529,2.2641566456168887,1.4760317532271146
1772563753161012500,0.792012451171875,-2.528621821039915,3.355813233926892,0.5481041301324964
1772563753171010600,0.802010498046875,-2.153800081887841,5.241465652486681,-0.028775720368325708
1772563753181009400,0.812009521484375,-1.2286334479391574,5.3326235947489735,0.4910974637970328
1772563753191007500,0.822007568359375,-1.290446053251624,3.420707438641786,0.4714002451583743
1772563753201005600,0.832005615234375,-1.2228980460923164,0.12252338686287402,-0.3924424437776208
1772563753211003600,0.842003662109375,-0.7814746407203376,-2.3615181186944243,-1.255175125645101
1772563753221001500,0.85200146484375,-0.6839426333814859,-1.3564327293783425,-2.5752666678369045
1772563753230999600,0.86199951171875,-0.8611969967328011,-0.0569248332709074,-2.9850623974755406
1772563753240997600,0.87199755859375,-1.028158075737208,0.031662966242432596,-2.6629034502357243
1772563753250996500,0.88199658203125,-1.013373325189948,-0.17977672143578527,-2.3672023018106816
1772563753260994600,0.89199462890625,-0.9602063831478357,0.3848942203551531,-2.438858548006415
1772563753270992600,0.90199267578125,-0.9909802915960549,0.9615987142890691,-2.456345397119224
1772563753280990700,0.91199072265625,-1.14366340053156,0.9188912069410086,-2.1292612684369088
1772563753290988500,0.921988525390625,-1.3691921115778385,0.6528682806819677,-1.5915218804523348
1772563753300986600,0.931986572265625,-1.6035199228905141,0.6842272955417633,-1.280157006688416
1772563753310984400,0.941984375,-1.7605442759007215,0.6540180352389812,-1.199023614834249
1772563753320983300,0.9519833984375,-1.6707254732877015,0.45986265983879565,-1.1568816324144602
1772563753330981400,0.9619814453125,-1.3725526740521192,0.10838497139513492,-1.089344219714403
1772563753340979500,0.9719794921875,-1.1159433266960084,-0.35574528276026246,-1.097235265225172
1772563753350977500,0.9819775390625,-0.9435277816779911,-0.7787468231916427,-1.0946157303765416
1772563753360975600,0.9919755859375,-0.6891074687987565,-0.7822013475596904,-1.040587495329976
1772563753370973700,1.0019736328125,-0.4679992045432329,-0.7368050395190715,-0.9297282427757978
1772563753380971500,1.011971435546875,-0.3443465213894844,-0.7994061648607254,-0.7462181800305843
1772563753390970400,1.021970458984375,-0.2763672101408243,-0.9822796832680701,-0.5763900211572647
1772563753400968400,1.031968505859375,-0.1844639294039458,-1.191108311665058,-0.4298804862901568
1772563753410966300,1.04196630859375,-0.2889927368275821,-1.4878893642812967,-0.3047507163211703
1772563753420964400,1.05196435546875,-0.6774327400308102,-1.7817957382440566,-0.2998237813130021
1772563753430962700,1.061962646484375,-0.8852765221089124,-2.1765473357468843,-0.22392916689515113
1772563753440960500,1.07196044921875,-0.8314993392139672,-2.3899913489848372,-0.05505465548485517
1772563753450958600,1.08195849609375,-0.9351356547772883,-2.3739327791094778,-0.10717734917104244
1772563753460956700,1.091956787109375,-1.2429875519841909,-2.324011687120795,-0.2964773934945464
1772563753470955300,1.101955322265625,-1.3089566924542189,-1.8682295745939015,-0.6440154044017196
1772563753480953300,1.111953369140625,-1.2591834845036267,-1.2229279297739266,-1.2503902294561267
1772563753490951400,1.121951416015625,-1.3138520632803439,-0.7149690552860498,-1.7907050208866595
1772563753500949500,1.131949462890625,-1.3945698600709437,-0.3048059536397457,-2.2852418114826083
1772563753510947600,1.141947509765625,-1.4436375501006842,0.07948854725658894,-2.6805747160047293
1772563753520945700,1.151945556640625,-1.3517016092032192,0.22249065852463243,-3.011932576483488
1772563753530943500,1.161943603515625,-1.4135580536574124,0.14119535410702228,-3.1813173755034803
1772563753540942300,1.1719423828125,-1.3614631247609852,0.03637129006385803,-3.1260519998773932
1772563753550940400,1.1819404296875,-1.2623726359337568,-0.1774275279611349,-2.9422365244448185
1772563753560938500,1.1919384765625,-1.2056581574779004,-0.5358236174911261,-2.705412512402236
1772563753570936300,1.201936279296875,-1.1516706928331404,-0.8944710514336824,-2.264503267097473
1772563753580934400,1.211934326171875,-1.0432119986146688,-1.0195195728600024,-1.9707877395316957
1772563753590932500,1.221932373046875,-0.8946756340950727,-0.7867389909893274,-1.9823598116427659
1772563753600930800,1.231930908203125,-0.8358342266131192,-0.5540191993951797,-1.9555700043946505
1772563753610929700,1.2419296875,-0.7261329849876463,-0.4929138655692339,-1.9590853190392254
1772563753620927500,1.251927490234375,-0.583127804979682,-0.717031248512864,-1.9055092116743324
1772563753630925600,1.261925537109375,-0.4412117353826761,-1.0884113227784633,-1.8405457411155104
1772563753640923600,1.271923583984375,-0.28934023509100076,-1.374826464203,-1.844349225051701
1772563753650921500,1.28192138671875,-0.13386720317602158,-1.578520652320981,-1.8413740086331962
1772563753660919600,1.29191943359375,-0.025404490369558334,-1.7442782007545232,-1.8386849156796932
1772563753670917600,1.301917724609375,0.06408581094145774,-1.846152767342329,-1.8893290612459182
1772563753680916500,1.31191650390625,0.1354011347450316,-1.9168676410347223,-1.955288849365711
1772563753690914600,1.32191455078125,0.1972441351957619,-1.9447101722061633,-2.037261030131578
1772563753700912600,1.33191259765625,0.1527624577820301,-1.815275398519635,-2.192991690069437
1772563753710910500,1.341910400390625,0.19845774876922367,-1.7821031967580316,-1.9764090865448116
1772563753720908500,1.351908447265625,0.30602263595312834,-1.859621905246377,-1.6988485749661921
1772563753730906600,1.36190673828125,0.5389671762138605,-1.8567489801585673,-1.3803604251936077
1772563753740904400,1.371904541015625,0.7601058356076479,-1.7704495838433503,-1.2114517192527652
1772563753750903600,1.381903564453125,0.9223302414789796,-1.586814433413744,-1.2406693381696938
1772563753760901600,1.391901611328125,1.0972834882810711,-1.5615058046340942,-1.247467035485804
1772563753770899700,1.401899658203125,1.3140265430644154,-1.6388175923734902,-1.2485758735105394
1772563753780897500,1.4118974609375,1.4966788199365137,-1.7190724478274584,-1.3130550676837562
1772563753790895600,1.4218955078125,1.434762169727683,-1.5922738678634165,-1.5654302846014498
1772563753800893400,1.4318935546875,1.2375909536376595,-0.9745487967550754,-2.083273424243927
1772563753810891500,1.4418916015625,0.8794637441769242,-0.08864975883364677,-2.754719564145803
1772563753820890600,1.451890625,0.691760613656044,0.4978004685670137,-3.1558281294599175
1772563753830888700,1.461888671875,0.6852557618066668,0.6696539957880974,-3.282875423488021
1772563753840886500,1.471886474609375,0.34230069477558134,0.3628495618075132,-3.201489518177509
1772563753850884600,1.481884521484375,0.43543812041729685,0.009779051214456557,-3.1134181437537074
1772563753860882700,1.491882568359375,0.5541740976959466,-0.09236848709583281,-3.319057620720565
1772563753870880500,1.501880615234375,0.31606735236644745,0.17593115192353725,-3.5929864977985617
1772563753880878600,1.511878662109375,0.08793839569389819,0.47142450281679626,-3.523137885546684
1772563753890877700,1.521877685546875,-0.1058566219612956,0.7576701328933239,-3.3058307671397924
1772563753900875500,1.53187548828125,-0.23858488423526286,1.0096949289381503,-3.170681707459688
1772563753910873600,1.54187353515625,-0.2924208115801215,1.238145372650027,-3.191564336490631
1772563753920871700,1.55187158203125,-0.25278672032803295,1.5449585744589567,-3.1457191156387325
1772563753930869500,1.561869384765625,-0.04203326134830713,1.7314648964107036,-3.05587780893296
1772563753940867600,1.57186767578125,0.16959435011744498,2.0052923589408396,-3.0642899557083845
1772563753950865700,1.58186572265625,0.21873510538339613,2.184336089926958,-3.0111352886259555
1772563753960863500,1.591863525390625,-0.05055997441411018,2.1369746192932126,-2.6081816799670454
1772563753970862600,1.601862548828125,-0.2839046199083328,2.023781370833516,-2.0845169945642352
1772563753980860700,1.611860595703125,-0.5691539324238896,1.8183505681812762,-1.5669377665549515
1772563753990858500,1.6218583984375,-0.8308101879060268,1.5453338375121355,-0.9263783478260039
1772563754000856600,1.631856689453125,-0.8309975271716713,1.1393944910407066,-0.5115352716699242
1772563754010854700,1.641854736328125,-0.6821843915373087,0.6959113035947084,-0.1319806587770581
1772563754020852500,1.6518525390625,-0.4991425308257341,0.34011867456138134,0.26403701313883066
1772563754030850600,1.6618505859375,-0.3378139047503471,0.021582886254787444,0.7171908229887485
1772563754040849700,1.671849609375,-0.17899404662549495,-0.2461643795788288,1.2016367199420928
1772563754050847700,1.68184765625,0.03642681964337825,-0.4053314437061548,2.0371353579252958
1772563754060845600,1.691845458984375,0.3725912036210298,-0.2791121249347925,2.7107448133409022
1772563754070843600,1.70184375,0.4227607174128294,-0.3137076374977827,2.801853071242571
1772563754080841500,1.711841552734375,-0.03868921161741018,-0.5628723679363727,2.98413972967267
1772563754090839600,1.721839599609375,-0.6800187379360199,-0.8066483910739422,3.262581992521882
1772563754100837600,1.731837646484375,-1.049095795956254,-0.8791127387821673,3.613997721645236
1772563754110836700,1.741836669921875,-0.5572567200116813,-0.5525765993714332,3.323375191658735
1772563754120834600,1.75183447265625,-0.8294177106343209,0.06679623894393444,2.6713626510232684
1772563754130832600,1.76183251953125,0.3077192107379436,1.0312117642194032,4.168354774692655
1772563754140830700,1.771830810546875,0.37993747473061085,1.2162778242349623,4.039833608719706
1772563754150828500,1.78182861328125,-0.01642842610105872,1.1339829873859881,3.418843398335576
1772563754160826600,1.79182666015625,0.03629603287056088,1.2430892587929963,3.984420933577418
1772563754170824700,1.80182470703125,0.025443141879513857,0.8047755829393863,4.000445016661286
1772563754180823600,1.811823486328125,-0.4004804965436458,0.20186872625648974,4.057330102443695
1772563754190821600,1.821821533203125,-0.6840723972409963,-0.3213292184174061,4.053221498081088
1772563754200819700,1.83181982421875,-0.7795739216655493,-0.7414332838416099,3.212905815204978
1772563754210817500,1.841817626953125,-0.9367933588564396,-0.4216179771184921,3.7375662336468696
1772563754220815600,1.851815673828125,-0.5671715264350176,-0.5484925449281931,3.775875798296928
1772563754230813700,1.861813720703125,-0.4169049405893311,-0.7719348050892353,2.931488920459151
1772563754240811500,1.8718115234375,-0.1514636501431465,-0.4483382262617349,2.7926906906217335
1772563754250809600,1.8818095703125,0.4097983599871397,-0.06409340972602368,2.5438369258284568
1772563754260808700,1.89180859375,0.8802104708909988,0.17820201946496964,1.896994481307268
1772563754270806500,1.901806640625,1.6378385182082653,0.2063140152275562,0.7388713243991136
1772563754280804600,1.9118046875,1.5828466988265513,0.09439794709682464,0.5848574052512645
1772563754290802700,1.921802734375,1.424500887954235,0.2056692875832319,0.5233575191497802
1772563754300800500,1.931800537109375,1.6321464440464972,-0.11760697324872016,-0.5430851329267025
1772563754310798600,1.941798583984375,1.2510229744017123,-0.19349369662106036,-0.1274696110934019
1772563754320796700,1.951796630859375,2.5116554886698723,-0.356973363250494,-0.8919804036617278
1772563754330795800,1.961795654296875,3.387197967749834,-0.5929086097598075,-1.7938602700471877
1772563754340793600,1.971793701171875,4.399741856378316,-0.8278565987974404,-3.399376481321454
1772563754350791700,1.981791748046875,3.0236826355099677,-0.4557686685234308,-2.6353099253892895
1772563754360789500,1.99178955078125,2.6728829924583435,-0.63223699606359,-2.69916718827188
1772563754370787600,2.00178759765625,1.8625370620407162,-0.9389122507065534,-2.9552894827634093
1772563754380785700,2.01178564453125,1.5164086256705223,-1.2593781302928924,-2.691836114731431
1772563754390783500,2.021783447265625,1.5693582717001437,-1.6471429376482962,-2.3130840503931043
1772563754400782600,2.031782470703125,1.6803613166391849,-1.7246926257967947,-1.5450164421260355
1772563754410780700,2.04178076171875,2.1518635608673096,-1.1826350823521614,-0.9453753092408179
1772563754420778800,2.05177880859375,2.8647768526673314,0.43467093543708324,-1.0748778874665499
1772563754430776600,2.061776611328125,2.5060896712362766,2.184655238878727,-1.7801807042628526
1772563754440774700,2.071774658203125,1.4066484203994274,2.8088609041780233,-1.1593635123580694
1772563754450772700,2.081772705078125,1.5728841077387332,3.109597416421771,-0.7657365349709987
1772563754460770600,2.0917705078125,0.9990683209836483,3.287691883859038,-0.6407844596564769
1772563754470769700,2.101769775390625,0.14096907107047735,3.3768817409187553,-0.18671382722258567
1772563754480767700,2.111767822265625,-0.4477132992964238,3.5297394757688045,0.08603168528974056
1772563754490765600,2.121765625,-1.0706581508796662,3.8363054248183963,0.36902503557205196
1772563754500763600,2.131763671875,-1.5941256332099436,4.129527323648333,0.350507382106781
1772563754510761700,2.14176171875,-1.8236919292092322,4.378016931304336,0.1077495961010456
1772563754520759600,2.151759521484375,-1.7967314415693283,4.371192638242245,-0.1451373697310686
1772563754530757600,2.161757568359375,-1.6845242815375328,3.774246151268482,-0.5725806920021772
1772563754540755700,2.171755615234375,-1.531453196197748,2.8361580764263867,-0.5434785161584615
1772563754550754600,2.181754638671875,-1.3050234446585178,1.596473073118925,-0.09499766655564308
1772563754560752600,2.191752685546875,-1.115201130026579,0.5622217950731515,0.2999222732514143
1772563754570750700,2.201750732421875,-0.9894681334674358,-0.3418535355299711,0.6702490390717983
1772563754580748500,2.21174853515625,-0.9462111755430698,-1.0826672261685133,0.8952414512842893
1772563754590746600,2.22174658203125,-1.0257277798503637,-1.6154799714058636,0.9689964233249425
1772563754600745000,2.231744873046875,-1.0878647948116063,-1.9054753094047308,0.9988228217899798
1772563754610743000,2.241742919921875,-1.0637503442525864,-1.9711533579736946,0.9686386959284543
1772563754620742100,2.2517421875,-1.0628688852429389,-1.8170143511414527,0.7984335204362869
1772563754630740000,2.261739990234375,-1.0696072535872458,-1.522587168174982,0.5669055689752102
1772563754640738000,2.271738037109375,-1.080554764059186,-1.1678864260315895,0.23269173454344272
1772563754650736000,2.281736083984375,-1.156965803566575,-0.8228764722973108,-0.10181260726749897
1772563754660734000,2.29173388671875,-1.22704354839921,-0.5012696059823036,-0.2792477340131998
1772563754670732000,2.30173193359375,-1.3386778769791126,-0.26679800228476525,-0.2702799991816282
1772563754680730000,2.311730224609375,-1.433919289162755,-0.20602116976082324,-0.22302958770692347
1772563754690729200,2.321729248046875,-1.4886603486537933,-0.24384908837378025,-0.25925708538591863
1772563754700727000,2.33172705078125,-1.5285522140592336,-0.3901549173623323,-0.25991233442425726
1772563754710725000,2.34172509765625,-1.5014549482971429,-0.6036667351394891,-0.22709727553725242
1772563754720723000,2.351722900390625,-1.4062053528070448,-0.8958622135311365,-0.12205226221978664
1772563754730721000,2.361720947265625,-1.2348171050101517,-1.1719050140231848,0.036811435046792025
1772563754740719000,2.371718994140625,-1.0381202284336088,-1.5217349352598188,0.28345336900949475
1772563754750717000,2.381717041015625,-0.8527549662757664,-1.8477526037544012,0.5933201131701469
1772563754760715000,2.391715087890625,-0.6277361775130033,-2.0855197418659923,0.8731266501098871
1772563754770714000,2.401714111328125,-0.4291782563049346,-2.2234780137479304,1.197723930412531
1772563754780712200,2.411712158203125,-0.2446954760700464,-2.449390463414788,1.4653700739592312
1772563754790710000,2.4217099609375,-0.044202275950461625,-2.6146482456326483,1.6738175940841435
1772563754800708000,2.4317080078125,0.12789514302909374,-2.6396704586863518,1.8350737394452095
1772563754810706200,2.4417060546875,0.2834727312970906,-2.5789403879135846,1.9060352813750505
1772563754820704000,2.4517041015625,0.42471886574327944,-2.446281391483545,1.9034125316560266
1772563754830702000,2.4617021484375,0.5475087945878505,-2.322412435230613,1.8429554326057433
1772563754840701200,2.471701171875,0.659589113369584,-2.1324124259442088,1.7410510554015635
1772563754850699000,2.481698974609375,0.7209064825110137,-1.9044149866968392,1.5934288831174372
1772563754860697000,2.491697021484375,0.7417557937942445,-1.7018109319031238,1.401546713346243
1772563754870695200,2.501695068359375,0.7296171738415956,-1.4731319401323795,1.1036942321062087
1772563754880693000,2.51169287109375,0.7098566807083785,-1.219126199403405,0.7001286290287971
1772563754890691000,2.521691162109375,0.7218646600186824,-0.9291139102697372,0.26941490678489205
1772563754900689200,2.531689208984375,0.7499224413760006,-0.6117956810593604,-0.19277181208729743
1772563754910688000,2.54168798828125,0.7349003749415278,-0.24193594822883605,-0.6650450406879186
1772563754920686000,2.55168603515625,0.7057923538789153,0.14579203424751758,-1.2011544893831014
1772563754930684200,2.56168408203125,0.9684086865648627,0.5937456451058387,-1.7964479484528302
1772563754940682000,2.571681884765625,5.063762230193615,0.8962170183181762,-3.1638141597777603
1772563754950680000,2.58168017578125,12.09243804718852,0.444975471830368,-5.136026671415567
1772563754960678100,2.59167822265625,8.30311941447258,-0.22532091351449487,-4.7734512503743165
1772563754970676000,2.601676025390625,5.2358267698168754,0.06965045933127403,-4.570914415597915
1772563754980674000,2.611674072265625,4.0440269687563175,-0.20884967118501663,-4.10616456823945
1772563754990673200,2.621673095703125,3.380581764480471,-0.5988555354654789,-3.7498376861989495
1772563755000671200,2.631671142578125,3.1452462374299763,-0.7870218995839356,-3.597026128578186
1772563755010669000,2.6416689453125,3.328075332173705,-0.5841565635055304,-4.15086880236268
1772563755020667100,2.651667236328125,2.9169425087124106,0.17697276993095873,-4.828302784502506
1772563755030665000,2.6616650390625,1.5291735608279704,1.48489895029366,-5.064795080372691
1772563755040663000,2.6716630859375,0.2747586059004068,3.073855656433105,-5.109573548775911
1772563755050661000,2.6816611328125,-0.6886819368630648,4.60413980885148,-5.483052641147375
1772563755060660200,2.69166015625,-1.0044604623507707,5.644314047205448,-5.700396584433316
1772563755070658000,2.701657958984375,-0.9111422002494335,5.513682172688841,-5.6496542391896245
1772563755080656100,2.71165625,-0.7624263144444674,4.356471454450488,-4.900532154411077
1772563755090654200,2.721654296875,-0.6758323921620846,2.744371188610792,-3.524537230950594
1772563755100652000,2.731652099609375,-0.6254705706685781,1.3669903637498617,-2.203773780846596
1772563755110650000,2.741650146484375,-0.5143289940416813,0.2600076114922762,-0.9831558815807103
1772563755120648200,2.751648193359375,-0.40797406716942786,-0.5850047047674656,0.1216577099442482
1772563755130647000,2.76164697265625,-0.3382804262835532,-1.1902940726727247,1.1166776323199272
1772563755140645000,2.77164501953125,-0.2157598524322733,-1.5149784467369316,1.9660101498663425
1772563755150643200,2.781643310546875,-0.10348258630633353,-1.6285077952831983,2.583358204355836
1772563755160641000,2.79164111328125,0.026447861942648886,-1.465965701764822,2.9585365018606185
1772563755170639000,2.80163916015625,0.12121990304887294,-0.7816244244545698,2.984380552691221
1772563755180637200,2.81163720703125,0.16982114461064338,0.2530781044900417,2.762663216626644
1772563755190635000,2.821635009765625,0.1454964123018086,1.316612175643444,2.422631635826826
1772563755200634000,2.831634033203125,0.0625281331706792,2.2335487413853405,2.1493097847312685
1772563755210632200,2.841632080078125,-0.07756831978373228,2.983830517593026,2.136460824552178
1772563755220630000,2.851630126953125,-0.26003902954384683,3.5771377712816,2.2664251750707627
1772563755230628000,2.861628173828125,-0.38066630046181377,4.007632882338762,2.535695704948902
1772563755240626200,2.871626220703125,-1.3079337791472672,4.016760776168108,3.3480630581915376
1772563755250624000,2.8816240234375,-1.3828022653877734,3.7422225350201126,3.844788006481528
1772563755260622000,2.8916220703125,-0.9309148222118615,3.324259573277831,3.6759430134266613
1772563755270620200,2.9016201171875,-1.0486374577295035,2.785632588803768,3.777272805613279
1772563755280619300,2.911619384765625,-1.0010843369811773,2.148410205543041,3.7737919777601956
1772563755290617000,2.9216171875,-0.8583405843883752,1.5216034178346394,3.651145841300487
1772563755300615200,2.931615234375,-0.8501059130717068,1.002927334499359,3.376619290590286
1772563755310613000,2.941613037109375,-0.8223744410593062,0.6392535968273878,2.97750073004961
1772563755320611000,2.951611083984375,-0.7419324655354023,0.22817104224860668,2.524520815461874
1772563755330609200,2.961609130859375,-0.6675941406488418,-0.40624855855107306,2.003515996918082
1772563755340607000,2.97160693359375,-0.8217582819223404,-0.9878478387892246,1.7729338018745182
1772563755350606000,2.981606201171875,-0.9386696741223335,-1.3025012327045202,2.148067091193795
1772563755360604200,2.991604248046875,-0.9286485577803104,-1.4320289453715085,2.895430934128165
1772563755370602200,3.001602294921875,-1.2287655498862267,-1.4160890334397553,3.6399662756383417
1772563755380600000,3.01160009765625,-1.5750082602858542,-1.3724234947144984,5.083992532795667
1772563755390598100,3.02159814453125,-1.279843410694599,-1.856792234778404,4.824421559154987
1772563755400596200,3.03159619140625,-1.2984276996552944,-2.1697844174832106,4.482618877029418
1772563755410594000,3.041593994140625,-1.5421055231153964,-2.3524948542833326,3.9736873581171035
1772563755420592000,3.051592041015625,-1.1566450471796095,-2.164887877613306,3.227346428489685
1772563755430591200,3.06159130859375,-0.9850225522354245,-1.691752479225397,2.6531623929440973
1772563755440589000,3.071589111328125,-0.09147299956083298,-1.2183172211080788,1.109876135611534
1772563755450587100,3.081587158203125,0.3835644330561161,-0.5321276855826378,0.2652823370248079
1772563755460585200,3.091585205078125,0.6503411002919077,0.09312485842108725,-0.3310644304901361
1772563755470583000,3.1015830078125,1.2180537478663027,0.5483610275030136,-1.1154098043411969
1772563755480581000,3.1115810546875,2.792638960434496,0.7661427776843309,-2.5931144592165944
1772563755490579200,3.1215791015625,5.700220058822632,0.9160492615133523,-4.436100286960602
1772563755500578000,3.131578125,7.771169423544406,1.3623147731542586,-4.269008275052905
1772563755510576000,3.141576171875,7.140358076369762,1.3025374730616808,-2.0578999135345217
1772563755520574200,3.15157421875,6.345391939783096,0.3358101637125015,-0.3735784610927105
1772563755530572000,3.161572021484375,6.608328590464591,0.37654958585798737,0.19786708939969538
1772563755540570000,3.171570068359375,7.182685059967636,1.388864341905713,-1.631684087231755
1772563755550568200,3.181568115234375,4.989456638532877,0.20175591353178024,-3.377957845717668
1772563755560566000,3.19156591796875,1.2220739432930945,-0.9400345327347517,-2.31327869618237
1772563755570564900,3.20156494140625,-1.0000374582767486,-0.18630583094358444,-0.25100889700055123
1772563755580563000,3.21156298828125,-0.7865759093821049,1.4721078577816487,0.41943128072917457
1772563755590561000,3.22156103515625,-0.8894117222175002,2.9903701484948395,0.3404939376145601
1772563755600559400,3.231559326171875,-1.2736143070466817,3.834848796269297,0.621973960724473
1772563755610557400,3.241557373046875,-1.6467115604937075,4.24831503111422,0.9695879594773054
1772563755620555300,3.25155517578125,-2.0568951204061507,4.435620394489169,0.9767401693195104
1772563755630553300,3.26155322265625,-2.3515349232099947,4.432137813070416,0.8159411200761795
1772563755640551400,3.271551513671875,-2.578499073886871,4.19245928837955,0.6539402938276528
1772563755650550000,3.281550048828125,-2.5852234137058256,3.6318536963313814,0.5191647436350584
1772563755660548000,3.291548095703125,-2.4522400076270103,2.9836054766654967,0.32090777813494203
1772563755670546200,3.301546142578125,-2.36521989582181,2.3254431812286374,0.031982115194201466
1772563755680544300,3.311544189453125,-2.3607445039734243,1.6968284673154352,-0.04584405180811882
1772563755690542300,3.321542236328125,-2.522006202292442,1.2850088306337595,-0.0062970543175935745
1772563755700540400,3.33154052734375,-2.6473709500610827,0.9567243862509727,0.18035247549712657
1772563755710538200,3.341538330078125,-2.6428058341026306,0.7302391051322221,0.39573827045261856
1772563755720537000,3.351537109375,-2.681166836678982,0.5314221676617861,0.5516606535702944
1772563755730535200,3.36153515625,-2.791349212884903,0.36071021169126033,0.6208452489554882
1772563755740533200,3.371533203125,-2.78871564951092,0.2549292853146791,0.6058487553536892
1772563755750531000,3.381531005859375,-2.8526693585053087,0.13324585640728473,0.4505138167351484
1772563755760529200,3.391529052734375,-2.9561458073318003,-0.035242578294873234,0.2391232288956642
1772563755770527200,3.40152734375,-3.0000118370652196,-0.20339666647613047,0.07302724228799343
1772563755780525300,3.411525390625,-2.9160324081301687,-0.4079331506371498,-0.0011082535028457642
1772563755790523400,3.4215234375,-2.7851147024095058,-0.6379857688486575,0.013445172506570815
1772563755800522200,3.431522216796875,-2.627716986042261,-0.9324813408762216,0.09101356535553931
1772563755810520000,3.44152001953125,-2.4485809005975723,-1.3311170863360167,0.237267956417799
1772563755820518100,3.45151806640625,-2.2938462659597394,-1.7626187440872192,0.42003801445066924
1772563755830516200,3.46151611328125,-2.1561516134500502,-2.156859469458461,0.5901654485315084
1772563755840514300,3.471514404296875,-2.018174198476225,-2.511335170674324,0.7144213582754134
1772563755850512400,3.481512451171875,-1.8977508526325224,-2.762458049443364,0.7612988447844982
1772563755860510500,3.491510498046875,-1.8056243575990198,-2.9521307264715433,0.7136608952969312
1772563755870509000,3.501509033203125,-1.751130550867319,-2.9654847135633227,0.5141910468757153
1772563755880507100,3.511507080078125,-1.7058756971240043,-2.8222400257110594,0.19041794243752955
1772563755890505200,3.521505126953125,-1.6956171918295322,-2.527111416476965,-0.2147767231464386
1772563755900503000,3.5315029296875,-1.6998668120980263,-2.2542384781926867,-0.6204360836327075
1772563755910501000,3.541501220703125,-1.7311480855464934,-2.0694430518120526,-0.8892313972145318
1772563755920499200,3.551499267578125,-1.7557015120446682,-1.9436352364510296,-1.0118453849703073
1772563755930497300,3.561497314453125,-1.7551450472056864,-1.8515625174313783,-1.0463450359433888
1772563755940495400,3.571495361328125,-1.6990648480653763,-1.9361089325994252,-0.8562374746292829
1772563755950494200,3.581494140625,-1.5465782846152782,-2.0583494108676907,-0.7643687537491322
1772563755960492000,3.591491943359375,-1.3946703978359698,-2.133980698174238,-0.8197305754870176
1772563755970490000,3.601489990234375,-1.2663117289483548,-2.0622183612555265,-1.0784534078657626
1772563755980488200,3.61148828125,-1.1056453661739825,-1.9622832382977007,-1.4363368716984986
1772563755990486300,3.621486328125,-0.9233984552323817,-1.8156442318320274,-1.812465017274022
1772563756000484400,3.631484375,-0.7656324900746345,-1.610968046939373,-2.215793304464221
1772563756010482400,3.641482421875,-0.6116027888357639,-1.3984119224518536,-2.607702079756558
1772563756020481300,3.651481201171875,-0.464901238527894,-1.258034314468503,-2.9045465529978274
1772563756030479000,3.66147900390625,-0.3361456792771816,-1.1731003612875939,-3.116277624838054
1772563756040477200,3.671477294921875,-0.15371117334160952,-1.19574883094728,-3.2369425243526697
1772563756050475000,3.68147509765625,0.3892372179955244,-1.0937678813755511,-3.3718408241420983
1772563756060473000,3.69147314453125,1.2557425502695143,-0.7075456272870302,-3.580619475917518
1772563756070471200,3.70147119140625,4.272451108983159,0.16972528302073478,-4.277368691641092
1772563756080469200,3.71146923828125,10.28977955365777,1.335032798475027,-5.716816973358393
1772563756090467300,3.72146728515625,10.055222609764337,2.2891274207442995,-6.20041765165925
1772563756100466200,3.731466064453125,6.003730711954832,2.813033221426606,-5.0503918764889235
1772563756110464300,3.74146435546875,2.8693460602790117,2.550471833798289,-3.929192382830381
1772563756120462000,3.751462158203125,1.9189917935818432,2.1700357618957757,-2.536253631092608
1772563756130460200,3.761460205078125,0.9498276124745607,1.5575497604846953,-1.5306863034784792
1772563756140458200,3.771458251953125,-1.3513292687594889,0.48205111077129836,-2.1752339150607582
1772563756150456000,3.7814560546875,-2.780717928755283,-0.5572837541490793,-2.97650265892297
1772563756160454400,3.791454345703125,-2.6404151395738125,-1.4318161794036626,-2.587557994133234
1772563756170453200,3.801453369140625,-2.359454171901941,-1.6666081010967493,-1.633846233701706
1772563756180451000,3.811451171875,-2.2401976778805253,-1.4428303253710268,-1.091200076714158
1772563756190449200,3.82144921875,-2.1948820338606834,-0.9680658644765615,-0.9983926136791705
1772563756200447200,3.831447265625,-2.297346383035183,-0.24793431186079978,-1.204696692034602
1772563756210445000,3.841445068359375,-2.4148458042562004,0.5304214661866427,-1.5525076746642588
1772563756220443100,3.851443115234375,-2.452511225783825,1.1641595144629477,-1.8385902231335638
1772563756230441200,3.861441162109375,-2.405793898272514,1.716135809853673,-2.0824457412481308
1772563756240439300,3.871439208984375,-2.274647059971094,2.087527574557066,-2.265918394592404
1772563756250438100,3.881438232421875,-2.140236251437664,2.2124480856895445,-2.2983248726785184
1772563756260436200,3.891436279296875,-2.0798983948528766,2.096839592781663,-2.1271184111893175
1772563756270434000,3.90143408203125,-2.2015245406150816,1.7355980506926774,-1.6995733821094035
1772563756280432000,3.91143212890625,-2.4451287143170832,1.1492115361779927,-1.110695050778985
1772563756290430200,3.92143017578125,-2.6425673491716384,0.5911556286126375,-0.5454109455257654
1772563756300428000,3.931427978515625,-2.833576243239641,0.1389326698720455,-0.09969196185171604
1772563756310426000,3.941426025390625,-3.0197032104849812,-0.27068799546062944,0.2821896326839924
1772563756320425200,3.95142529296875,-3.141951287537813,-0.5834376015812158,0.5976292085409164
1772563756330423300,3.96142333984375,-3.18201675594449,-0.7250970660686492,0.8874252245754003
1772563756340421000,3.971421142578125,-3.187535811626911,-0.8460691318362951,1.168980066487193
1772563756350419200,3.981419189453125,-3.1926901256501674,-1.0618716908991337,1.39200322445333
1772563756360417000,3.9914169921875,-3.2342215749561785,-1.2768243551343679,1.5347528222650288
1772563756370415000,4.0014150390625,-3.2676667484402655,-1.3853870211839676,1.546121773019433
1772563756380413200,4.0114130859375,-3.284516176432371,-1.3004215038210152,1.4246511100798844
1772563756390411300,4.021411376953125,-3.336519919914007,-1.0753040039241313,1.3084277001440525
1772563756400410000,4.03141015625,-3.3806302797973156,-0.814627114868164,1.2571791589438914
1772563756410408200,4.041408203125,-3.3666134448826313,-0.4876783030033111,1.22556996871531
1772563756420406300,4.05140625,-3.3299954865813253,-0.1773053628861904,1.158386776280403
1772563756430404000,4.061404052734375,-3.3045337130665775,0.008764321213960646,1.1022405261665582
1772563756440402200,4.071402099609375,-3.3282539036110044,0.07689443911015988,1.1340689121037721
1772563756450400300,4.081400146484375,-3.363737597185373,-0.002167407166957855,1.272061086255312
1772563756460398000,4.091398193359375,-3.3978327590107917,-0.11059271057248114,1.4025678730875253
1772563756470397200,4.101397216796875,-3.418497945898771,-0.23521745362877844,1.477043560618162
1772563756480395300,4.111395263671875,-3.4296447783350943,-0.3503676813751459,1.5115361973285675
1772563756490393000,4.12139306640625,-3.443821772247553,-0.46432431542277336,1.5498562833726406
1772563756500391200,4.13139111328125,-3.487781325483322,-0.5725257469445467,1.602849622413516
1772563756510389200,4.14138916015625,-3.541081538516283,-0.6394143403470516,1.6426643309295177
1772563756520387000,4.151386962890625,-3.599342004305124,-0.7274146953612566,1.6731746200054882
1772563756530385200,4.16138525390625,-3.6299814727187156,-0.8447025196582079,1.6468518457472323
1772563756540383200,4.17138330078125,-3.622050679719448,-0.871215263530612,1.4948299771994351
1772563756550382000,4.181382080078125,-3.679343177258968,-0.6580097352236509,1.1205062506973742
1772563756560380200,4.191380126953125,-3.80819284453392,-0.21995032639205456,0.5164274276256561
1772563756570378200,4.201378173828125,-3.9211166284024714,0.24310791461765766,-0.053665539214015005
1772563756580376000,4.2113759765625,-4.016369146502018,0.7422393395274877,-0.5719885713279247
1772563756590374100,4.2213740234375,-4.016210156548023,1.2398147671669721,-1.0753092646211384
1772563756600372500,4.23137255859375,-3.951753758728504,1.721807425749302,-1.5757652161329985
1772563756610370300,4.241370361328125,-3.8306466684043405,2.1219880625635383,-2.0513971075117587
1772563756620369400,4.251369384765625,-3.669039225387573,2.403766776359081,-2.4034791915893554
1772563756630367500,4.261367431640625,-3.45747854167819,2.325642503193021,-2.390678746727109
1772563756640365600,4.271365478515625,-3.1963492326796055,1.7058283508509398,-1.8668004185736178
1772563756650363400,4.28136328125,-2.9133471145689485,0.9999474419057368,-1.3404367033451794
1772563756660361500,4.291361572265625,-2.701017200052738,0.34979368087947366,-0.8873392998576164
1772563756670359300,4.301359375,-2.5480466524779795,-0.15230594618618487,-0.48788171662092206
1772563756680357400,4.311357421875,-2.458918754738569,-0.44995968998372554,-0.227124163544178
1772563756690355500,4.32135546875,-2.4681530315518376,-0.5483347240179777,-0.07039455569684505
1772563756700354600,4.3313544921875,-2.583717685317993,-0.3964601549863815,-0.06814239285588264
1772563756710352400,4.341352294921875,-2.762245867997408,-0.05817804820239544,-0.26414368838369845
1772563756720350500,4.3513505859375,-2.9152947415053845,0.35501346135437484,-0.5311304912388325
1772563756730348500,4.3613486328125,-3.026649668622017,0.7203238603174686,-0.7424000830471515
1772563756740346400,4.371346435546875,-3.0833669966220856,0.9761135618537664,-0.9100982441544532
1772563756750344400,4.381344482421875,-3.110677028352022,1.1394500206202267,-0.9578133505314588
1772563756760342500,4.391342529296875,-3.076455609798431,1.1732979296863078,-0.8728829044818878
1772563756770341400,4.40134130859375,-2.9759400566041467,1.047049969342351,-0.6560106703609228
1772563756780339500,4.41133935546875,-2.8035318181097506,0.7500929756373167,-0.3095376583367586
1772563756790337500,4.421337646484375,-2.546501176601648,0.3290180193543434,0.07067921785712242
1772563756800335400,4.43133544921875,-2.3266309297084806,-0.12078092710971831,0.3768891930758953
1772563756810333400,4.44133349609375,-2.152623439323902,-0.5235433971107005,0.5387818827748299
1772563756820331500,4.45133154296875,-2.056502321696281,-0.8730389718264341,0.6697159551084041
1772563756830329300,4.461329345703125,-2.0053204159915445,-1.1450322046667336,0.7905681938886642
1772563756840327400,4.471327392578125,-1.9762346067607401,-1.2682739689320326,0.7952437844842671
1772563756850326500,4.481326416015625,-1.9737176555037497,-1.3036515717834234,0.6051607730895281
1772563756860324400,4.491324462890625,-2.0136615433573724,-1.2514455837279557,0.36787586553692814
1772563756870322400,4.501322509765625,-2.074885535126924,-1.1420149026721715,0.2102928557306528
1772563756880320500,4.511320556640625,-2.148811187559366,-1.020007064116001,0.04262625880539417
1772563756890318300,4.521318359375,-2.211083811599016,-0.9089286158531904,-0.14288286880254744
1772563756900316400,4.53131640625,-2.315921319645643,-0.8013491156220436,-0.38370880996286866
1772563756910314500,4.541314453125,-2.449599137729406,-0.7036556341111659,-0.6375923856168985
1772563756920313600,4.551313720703125,-2.5669302166461945,-0.6331897667437791,-0.8396756314069033
1772563756930311400,4.5613115234375,-2.641805132627487,-0.6122445938706398,-0.9704273329108953
1772563756940309500,4.5713095703125,-2.633764449512958,-0.648828065380454,-0.990883260962367
1772563756950307300,4.581307373046875,-2.543321377521753,-0.7118775190114974,-0.8787246162474155
1772563756960305400,4.591305419921875,-2.456574821960926,-0.7512643575042486,-0.69070496712327
1772563756970303500,4.601303466796875,-2.355996140402555,-0.7401841605633497,-0.5769722049593925
1772563756980301300,4.61130126953125,-2.269275303804874,-0.7044429850965738,-0.5347486817359924
1772563756990299400,4.62129931640625,-2.1930092257261276,-0.6546504879236221,-0.5345137039363383
1772563757000298500,4.631298583984375,-2.094694397446513,-0.6291752704054117,-0.4715186108410358
1772563757010296600,4.641296630859375,-1.9954262139648198,-0.6368903748273849,-0.3667465692460537
1772563757020294400,4.65129443359375,-1.90857269089818,-0.7249392451584339,-0.2558282799810171
1772563757030292500,4.66129248046875,-1.7958014672428368,-0.9039391370028257,-0.0743178666204214
1772563757040290600,4.67129052734375,-1.6798831777334213,-1.1490969698876141,0.14697510655224322
1772563757050288400,4.681288330078125,-1.5981880603432654,-1.3141396480500698,0.3166670718252659
1772563757060286500,4.691286376953125,-1.5281757819622754,-1.3818465720981359,0.40998423794806
1772563757070285600,4.70128564453125,-1.4928513706028461,-1.2370792047232388,0.36007249830961224
1772563757080283400,4.711283447265625,-1.5472171670407056,-0.7744061636388302,-0.08391337796151638
1772563757090281500,4.721281494140625,-1.6901117262810468,-0.04614274249374866,-0.7259083824515342
1772563757100279600,4.731279541015625,-1.870336191484332,0.8434387833327055,-1.4220546638458966
1772563757110277400,4.74127734375,-2.0315514203131197,1.7657862682074308,-2.1626912443518638
1772563757120275500,4.751275390625,-2.16006907915473,2.5432722776830197,-2.800668829894066
1772563757130273500,4.7612734375,-2.213850353702903,2.989894932198524,-3.228219119670987
1772563757140271400,4.771271240234375,-2.1639298462361096,2.8950983411729334,-3.2281384556502104
1772563757150270500,4.7812705078125,-2.0056898338258264,2.4141075531095266,-2.8286703510195017
1772563757160268500,4.7912685546875,-1.8004180211275815,1.7918962764978408,-2.36824012042582
1772563757170266400,4.801266357421875,-1.5974311044961214,1.1813543948918581,-1.9318752405524253
1772563757180264400,4.811264404296875,-1.3729524870246648,0.7000538102269173,-1.5004530777782201
1772563757190262500,4.821262451171875,-1.1676117007434368,0.37712066374421116,-1.119570431151986
1772563757200260400,4.83126025390625,-1.0146843347232788,0.13583996455371378,-0.785230924513936
1772563757210258400,4.841258544921875,-0.8657634278655052,-0.0239244809448719,-0.5615075093239545
1772563757220256500,4.851256591796875,-0.7619049939841032,-0.03760696933865547,-0.45473055764734743
1772563757230255600,4.861255615234375,-0.7019131012927741,0.08422785073816776,-0.4235305327415466
1772563757240253400,4.87125341796875,-0.704983010257408,0.3413654597520828,-0.437140540421009
1772563757250251500,4.88125146484375,-0.7528303647119552,0.6644511664479971,-0.46099955491423605
1772563757260249300,4.891249267578125,-0.7971183461844921,0.9812515092641114,-0.4694453116983175
1772563757270247400,4.901247314453125,-0.8532359547257423,1.2269570391595364,-0.4040916727781296
1772563757280245500,4.91124560546875,-0.9097123866420239,1.4099854558676481,-0.2690390592098236
1772563757290243300,4.921243408203125,-0.9542962092559784,1.5093699592053889,-0.06230009656846523
1772563757300242400,4.931242431640625,-0.9811924725532531,1.5525211186677217,0.17713351345062256
1772563757310240500,4.941240478515625,-0.9799380885779857,1.5657318978965282,0.4242155923962593
1772563757320238600,4.951238525390625,-0.9367753117430955,1.5051228231549263,0.6567734714269637
1772563757330236400,4.961236328125,-0.8632434809338301,1.4140887995332478,0.8734832084625959
1772563757340234500,4.971234375,-0.7899023503910749,1.2285627207905054,1.0297112965285777
1772563757350232600,4.981232666015625,-0.6794213565647602,0.9498188446462154,1.119680321267247
1772563757360230400,4.99123046875,-0.5734462958555668,0.6406225470930338,1.235730712723732
1772563757370228500,5.001228515625,-0.059841597500443454,0.4064584019094705,1.440444891539216
1772563757380227600,5.0112275390625,3.0654350340902803,1.1005255389422177,2.3641280089318752
1772563757390225400,5.021225341796875,3.748787300363183,1.4812719919681547,3.029620208865404
1772563757400223500,5.031223388671875,3.6238843248873946,1.4575328044623135,3.8697581970870494
1772563757410221600,5.0412216796875,1.9055483746409414,0.9988666609317064,3.912267551514506
1772563757420219400,5.051219482421875,0.7255144877631217,0.17941081073284149,3.099644177684188
1772563757430217500,5.061217529296875,0.3987129023492336,-0.38748131423890586,2.876019546693563
1772563757440215600,5.071215576171875,0.1228304069854319,-0.6645306614249944,2.911374937713146
1772563757450213400,5.08121337890625,0.31443843599036336,-0.8539408881247043,2.815595765390992
1772563757460212500,5.09121240234375,1.539019539798796,-1.064772673037648,1.9108868130594492
1772563757470210600,5.10121044921875,2.085908448922634,-1.449637667298317,1.0043886392235755
1772563757480208400,5.11120849609375,1.2649448245093227,-1.7030062791675329,1.0194897622436285
1772563757490206500,5.12120654296875,0.43097354222387074,-1.6764637246787548,1.761520427456498
1772563757500204500,5.13120458984375,0.24941855906918645,-1.5018968468457459,1.9954665459752081
1772563757510202400,5.141202392578125,0.16013415559381244,-1.2770324449270962,2.768774977505207
1772563757520200400,5.151200439453125,0.14303601353764533,-1.5271908625781536,2.827128966796398
1772563757530198500,5.161198486328125,0.12416633176431059,-1.642635689356923,3.4717467210054394
1772563757540197400,5.171197265625,0.44473450268134473,-1.7302280480921268,3.442200308525562
1772563757550195500,5.181195556640625,0.5216705889761447,-1.8942904830455778,3.0139176128208636
1772563757560193500,5.191193603515625,0.36975466502085325,-1.9109201308071613,2.3922031798154113
1772563757570191400,5.20119140625,0.30538331513628364,-1.7241788310557602,1.5354174236536025
1772563757580189400,5.211189453125,0.5632438315972685,-1.2693746236503123,0.5501584323137998
1772563757590187500,5.2211875,0.3958323784768581,-0.571872251471877,-0.052855391874909396
1772563757600185300,5.231185302734375,0.2590145088016987,0.05594225197434425,-0.4672323118239641
1772563757610184000,5.241183837890625,0.40795185533761974,0.4202601327687502,-0.7528145095556974
1772563757620182000,5.25118212890625,0.5412894086163491,0.4410252728998661,-1.3678478573620318
1772563757630180000,5.26118017578125,0.6943535527586937,0.19495909299850464,-2.07823250746727
1772563757640178000,5.271177978515625,1.0569908600550144,-0.19993746593296527,-2.4033090957194565
1772563757650176000,5.281176025390625,1.6734170504592358,-0.02539163088798523,-1.6540870576977729
1772563757660174000,5.291174072265625,2.692652691811323,1.2425000607281922,-0.720325029361248
1772563757670172000,5.301171875,3.4962697523653503,2.508330143639445,-1.7440543288707733
1772563757680170000,5.311169921875,3.5141081913948056,3.1020600066542623,-2.8799393504858015
1772563757690169000,5.321169189453125,3.2263387127518652,3.398501452052593,-2.6071634428352115
1772563757700167000,5.3311669921875,2.764604706083238,3.353495020112395,-2.098549903830886
1772563757710165000,5.3411650390625,1.5442133090496062,3.078287501400709,-1.3459277019768952
1772563757720163000,5.3511630859375,0.3230851221740246,2.684159588754177,-0.6415870082110167
1772563757730161000,5.361160888671875,-0.3261187907814979,2.513847445756197,-0.4055056312292814
1772563757740159000,5.371158935546875,-0.9952116455554961,2.2789976563960312,-0.4360965843260288
1772563757750157000,5.381156982421875,-1.2571394114553929,1.8732891960710285,-0.6657891370534896
1772563757760156000,5.391156005859375,-1.244003012637049,1.431349146413803,-0.7148942364841699
1772563757770154000,5.401154052734375,-1.1824256773851811,1.059149572458863,-0.37112113106846806
1772563757780152000,5.411152099609375,-1.3554476638637483,0.6654208882629871,-0.02592296128571033
1772563757790150000,5.42114990234375,-1.5205962866187095,0.2515530868798494,0.14099310953319072
1772563757800148000,5.43114794921875,-1.5769652395725249,-0.1761333964973688,0.16388357125520706
1772563757810146000,5.44114599609375,-1.5559773966014385,-0.5279688123375177,0.1568751537978649
1772563757820143900,5.451143798828125,-1.6274539023160934,-0.5668102919071912,0.1309767424315214
1772563757830142000,5.461141845703125,-1.5983178242027758,-0.3485048101127147,0.07108429152667523
1772563757840141000,5.47114111328125,-1.6465736133277415,0.004888941085338592,-0.038085692766308785
1772563757850139100,5.48113916015625,-1.7539046917557715,0.4064584019094705,-0.12487901007831095
1772563757860137000,5.491136962890625,-1.9386580325603484,0.7490379136264324,-0.19555121367275713
1772563757870135000,5.501135009765625,-2.0542261934578416,0.9343734382331371,-0.20729425843656063
1772563757880132900,5.5111328125,-2.1383330481648444,1.004393315398693,-0.20423077921271324
1772563757890131000,5.521130859375,-2.120224560022354,0.9697890350073576,-0.1403624104142189
1772563757900129000,5.53112890625,-2.063230168646574,0.7484627440869808,0.051661213654279704
1772563757910126800,5.541126953125,-1.9958511613786218,0.3948351841330528,0.2811825014680624
1772563757920126000,5.5511259765625,-1.9306477445840835,0.0574912349820137,0.4613461763948202
1772563757930124000,5.5611240234375,-1.8919956501066684,-0.30837036812305446,0.6258797359913587
1772563757940122000,5.5711220703125,-1.8631214377999306,-0.6413806719839572,0.8650023803651332
1772563757950120000,5.581119873046875,-1.7945827391028404,-0.9738660751879215,1.0964654498964548
1772563757960118000,5.591117919921875,-1.639186571816355,-1.3150643616795539,1.3353092773288489
1772563757970116000,5.6011162109375,-1.510190627938509,-1.6393313871145248,1.6135627396076917
1772563757980114000,5.611114013671875,-1.4059458250880241,-1.8871669147759675,1.8909540320992468
1772563757990112000,5.621112060546875,-1.2981449371911584,-2.0449644441157577,2.1253636764764785
1772563758000111000,5.631111083984375,-1.194801320964098,-2.180119349014759,2.3345482787042853
1772563758010109000,5.64110888671875,-1.0899871937930583,-2.2839789519399405,2.504835287261009
1772563758020107000,5.65110693359375,-0.9887200185138731,-2.3485697897940874,2.6212498358547687
1772563758030105000,5.66110498046875,-0.8968810351848602,-2.385094809114933,2.677100317892432
1772563758040103000,5.67110302734375,-0.8196388055503367,-2.357112577211857,2.65502175707519
1772563758050101000,5.68110107421875,-0.7422551216185093,-2.2658728018850085,2.5905162594169377
1772563758060099000,5.69109912109375,-0.658306087821722,-2.1351871513545513,2.4544296266257764
1772563758070097000,5.701096923828125,-0.5923100228121504,-1.965401078057289,2.251177921578288
1772563758080096000,5.711095947265625,-0.545687387846969,-1.753206188097596,1.9674130024015903
1772563758090094000,5.721093994140625,-0.5203109545281157,-1.5066127694517373,1.5730600488275288
1772563758100093200,5.73109326171875,-0.5140472544908523,-1.2571633768528698,1.120406297454238
1772563758110092000,5.741092041015625,-0.5331166966199875,-0.9993693497568368,0.6723024644702672
1772563758120090000,5.751090087890625,-0.5491431543240324,-0.7527811918079853,0.2014081230074167
1772563758130088200,5.761088134765625,-0.5725637408673763,-0.5008429050028324,-0.27202245893478394
1772563758140086000,5.7710859375,-0.6103051502406597,-0.22232348526418208,-0.7331926942408085
1772563758150084000,5.781083984375,-0.7273661800444126,0.0619657500475645,-1.2013064650744198
1772563758160082200,5.791082275390625,-0.9112170190513134,0.3489081302165985,-1.749455895653367
1772563758170080000,5.801080078125,-0.9273486541628837,0.6350251654773951,-2.2888982881635425
1772563758180078000,5.811078125,-0.8816320281267166,0.8274351585149764,-2.697498378276825
1772563758190077200,5.8210771484375,-0.8088988003492354,0.8445482058793305,-3.020458412766456
1772563758200075000,5.831074951171875,-0.5395207184433937,0.6277741714358329,-3.092676676759124
1772563758210073000,5.841072998046875,-0.2744534854739904,0.2174123323470354,-2.95295782494545
1772563758220071200,5.8510712890625,-0.07668634931743144,-0.20214578963220117,-2.727412455025315
1772563758230069000,5.861069091796875,0.15177110865712165,-0.32278467792272564,-2.7525498188912865
1772563758240067000,5.871067138671875,1.7834926052898168,-0.3058598466068506,-3.2405537005871534
1772563758250065200,5.881065185546875,11.40507303814292,-1.902104956188798,-6.008133330827951
1772563758260063000,5.89106298828125,13.631686427307129,-2.757058820748329,-9.6383509503901
1772563758270062000,5.90106201171875,9.640670333248377,-2.3813801725059744,-10.536343746209145
1772563758280060200,5.91106005859375,5.060649651131033,-0.3773901283353567,-7.837293462315201
1772563758290058200,5.921058349609375,1.1402414632588624,1.7229945897072552,-5.08065082115233
1772563758300056000,5.93105615234375,-0.37918227244913577,2.8231816904753444,-4.193863894480467
1772563758310054100,5.94105419921875,-0.9957125808149576,2.9992431907802817,-4.079637795841694
1772563758320052200,5.95105224609375,-1.6605892791986465,2.6293390342861414,-3.083251845809817
1772563758330050000,5.961050048828125,-1.7950000877320766,1.73331783080101,-1.8654653705775737
1772563758340048100,5.971048095703125,-1.7365736177265643,0.781817901200056,-0.9057622607767581
1772563758350047200,5.981047119140625,-1.6375602857887743,0.06870411839187145,-0.29608488704562186
1772563758360045000,5.991045166015625,-1.5217057091653345,-0.36587504710853097,0.07389525729417801
1772563758370043100,6.001043212890625,-1.3244354166150092,-0.5360165097147226,0.29531857884824275
1772563758380041200,6.011041259765625,-1.1022341694910078,-0.3462672603189945,0.4852215575009584
1772563758390039000,6.0210390625,-0.8711888869803398,0.3536696455299854,0.7904588882952928
1772563758400037000,6.031037109375,-0.3332710371563211,1.550739495947957,1.5423638817906378
1772563758410035200,6.04103515625,0.2547439918756485,2.598996502992511,2.3241899662971495
1772563758420033000,6.051032958984375,0.38207156414985655,2.9939924306452275,1.9919635062903165
1772563758430032100,6.0610322265625,0.9570984802603721,3.39817178170681,2.238076447942853
1772563758440030200,6.0710302734375,0.9075416184742003,3.296407105234265,2.360430323457718
1772563758450028000,6.081028076171875,0.3289876972813159,2.6855197711914776,2.196523955848813
1772563758460026000,6.091026123046875,-0.33601701139621437,2.0005670839846132,2.066969355174899
1772563758470024200,6.101024169921875,-0.7282311993759125,1.3581114762455224,1.846268502676487
1772563758480022000,6.11102197265625,-0.9073732031047343,0.8003367237091064,1.6843740594118832
1772563758490020000,6.12102001953125,-1.04979313057065,0.3464239121854305,1.6002759725332258
1772563758500018200,6.13101806640625,-1.1508347534656524,-0.01973696612715721,1.7145739673644302
1772563758510017000,6.14101708984375,-1.1956104453898966,-0.4007008612960577,1.9982295809477566
1772563758520015000,6.15101513671875,-1.1318355270285159,-0.7743640780627727,2.2747470132142302
1772563758530013200,6.16101318359375,-0.9133224668979644,-1.028280386942625,2.3350971447587012
1772563758540011000,6.171010986328125,-0.592644332800433,-1.2653420071333645,2.2195909431815144
1772563758550009000,6.181009033203125,-0.3109470136780292,-1.5579051497936247,1.9089011922001837
1772563758560007200,6.191007080078125,-0.19223989716768264,-1.809626578977704,1.6232704791516064
1772563758570005000,6.2010048828125,-0.24932320893593132,-1.9450193842858075,1.4519400990217923
1772563758580004000,6.211004150390625,-0.35859131984114645,-1.8985335274428128,1.6225485946178435
1772563758590002200,6.221002197265625,-0.4645242949742824,-1.6991040110319853,2.0976380496829745
1772563758599999700,6.230999755859375,-0.6118379127658903,-1.3522066361159086,2.348180498215556
1772563758609997800,6.240997802734375,-0.676767627185583,-0.9578747253298759,2.3552193108111616
1772563758619996000,6.250995849609375,-0.6903963395655155,-0.5637620102524757,2.308091648933291
1772563758629993700,6.26099365234375,-0.7211282355029136,-0.23712825568616389,2.1060160019278524
1772563758639991800,6.27099169921875,-0.7565349913835525,0.07481880187988281,1.6483692645728587
1772563758649990000,6.280989990234375,-0.6973815222777426,0.3750105397224426,0.9382774599343537
1772563758659988700,6.29098876953125,-0.6387596758306026,0.671396455541253,0.36660803755819793
1772563758669986800,6.30098681640625,-0.7517604704581201,1.0158119505137204,-0.02664718390703201
1772563758679985000,6.31098486328125,-0.8067666106261312,1.2956652492046354,-0.3797352301567793
1772563758689982700,6.320982666015625,-0.7764159690912813,1.3098381514638662,-0.45310032609701156
1772563758699980800,6.330980712890625,-0.6010393823105842,0.9433955336004495,-0.3396136476486921
1772563758709979000,6.340978759765625,-0.11267594658732413,0.3106581867992878,-0.1308937403231859
1772563758719976700,6.350976806640625,0.9218751181226224,-0.40587855619490143,-0.053764323413372034
1772563758729974800,6.360974853515625,2.4750983206450936,-1.283681965944171,-0.15323650503456593
1772563758739974000,6.370973876953125,4.031441627949476,-2.0396686757951974,0.20429449209868908
1772563758749971700,6.3809716796875,6.459704547661542,-2.2592039916455744,0.669994187527895
1772563758759969800,6.3909697265625,9.035157093459366,-0.7736375173538923,0.2019926448971033
1772563758769967900,6.4009677734375,8.191280503231287,1.8472429006665945,0.3332400209635496
1772563758779965700,6.410965576171875,4.003473132310807,2.7191099061042068,0.379972546043992
1772563758789963800,6.4209638671875,0.01576791636571288,2.277964806216955,0.5570148740798234
1772563758799961900,6.4309619140625,-1.963680391744524,1.6281413000583649,1.4416782327264546
1772563758809959700,6.440959716796875,-2.2276234429895876,1.772585426828265,1.127401855430007
1772563758819958800,6.450958740234375,-2.280618535596132,2.0013146874815226,-0.16066694729626177
1772563758829956900,6.460956787109375,-2.5165654725432396,2.522033090299368,-1.4330623800724744
1772563758839955000,6.470954833984375,-2.9307670359253883,3.040520957586169,-2.266307101649046
1772563758849952800,6.480952880859375,-3.2735154744684696,2.9411095662415025,-2.612463302809
1772563758859950800,6.490950927734375,-3.499396652214229,2.556389533409476,-2.305087790942192
1772563758869948700,6.50094873046875,-3.7757758450537917,2.03220374674201,-1.7275971150666474
1772563758879946800,6.51094677734375,-3.9760917889103293,1.698600737684965,-1.5071177963644264
1772563758889944800,6.52094482421875,-4.159738337516784,1.2999287518680094,-1.4284960950702428
1772563758899944000,6.53094384765625,-4.343590930089354,1.10945469532907,-1.6365858877986668
1772563758909941800,6.540941650390625,-4.493252791507542,1.091024720147252,-2.0904092674732206
1772563758919939800,6.55093994140625,-4.647303535534441,0.9217033417522906,-2.435675241795182
1772563758929938000,6.56093798828125,-4.655249526102841,0.42814357949495313,-2.3332331044524905
1772563758939935700,6.570935791015625,-4.527932475222647,-0.229423672658205,-1.8747464091420172
1772563758949933800,6.580933837890625,-4.3489357982486485,-0.8326888412594795,-1.2490367690205573
1772563758959932000,6.590931884765625,-4.146467352533341,-1.2065659930378199,-0.6843669962733984
1772563758969930800,6.6009306640625,-3.9147430017173286,-1.4266355618953703,-0.32460955526232715
1772563758979928800,6.6109287109375,-3.6801612156435843,-1.5549685118198393,-0.1988210291236639
1772563758989927000,6.620927001953125,-3.4882720316097138,-1.378008016848564,-0.4717284541994333
1772563758999924700,6.6309248046875,-3.3022739514410495,-1.248518882626295,-0.879501445838809
1772563759009922800,6.6409228515625,-3.1474893401816484,-1.1546470052301883,-1.2394710682958363
1772563759019921000,6.6509208984375,-3.021277912455797,-0.9978519309312105,-1.6044026970744132
1772563759029918700,6.660918701171875,-2.9481182759597897,-0.9639777183800935,-1.9159435119271278
1772563759039916800,6.670916748046875,-2.951125641082227,-1.108787171331048,-2.1173183171868324
1772563759049916000,6.680916015625,-2.9132185197532174,-1.3206120589345693,-2.1295880161732432
1772563759059913700,6.690913818359375,-2.83100434692502,-1.4403893619596957,-2.125408684661984
1772563759069911800,6.700911865234375,-2.7308453520834446,-1.5558283435195683,-2.1004940236359833
1772563759079910000,6.710909912109375,-2.5911545573204755,-1.5463888995230197,-2.1341572237849236
1772563759089907700,6.72090771484375,-2.4293840326964853,-1.6616273900747298,-1.9813775226071475
1772563759099905800,6.73090576171875,-2.246866195859015,-1.4249158984959125,-2.10750331787616
1772563759109904000,6.74090380859375,-1.9891338358223436,-0.664106298533082,-2.553084646645188
1772563759119901700,6.750901611328125,-1.8219116216637192,-0.0726753601104021,-2.400432371239364
1772563759129900800,6.76090087890625,-1.860434975194931,-0.3902735753059387,-1.6954481188729404
1772563759139899000,6.77089892578125,-1.958014913328737,-1.0839748016357422,-0.6281278071790933
1772563759149896700,6.780896728515625,-1.7674794819913804,-1.471335119843483,0.17575170370340346
1772563759159894800,6.790894775390625,-1.2877614903427659,-1.8970190312266348,0.9746762225270271
1772563759169892900,6.800892822265625,0.3713173842929303,-2.1450492046773433,2.0380115562379357
1772563759179890700,6.810890625,2.981508212125301,-1.9795640434443948,3.0073791509628296
1772563759189888800,6.820888671875,4.359714966416359,-1.6212638155043124,3.0670822167754173
1772563759199886800,6.830886962890625,4.070869967496395,-1.1124094534814357,2.166435691577196
1772563759209886000,6.840885986328125,3.2336241935849186,-0.5312240147411823,0.7059270861744881
1772563759219883800,6.8508837890625,2.1741081259012223,-0.040782676765322684,-0.1634153692215681
1772563759229881900,6.8608818359375,0.6976174499254674,0.4550234031140804,-0.4420663063853979
1772563759239880000,6.8708798828125,-0.997398780336231,0.7322130355536938,-0.7466770297139883
1772563759249877800,6.880877685546875,-1.6730886952877044,1.0087380666047334,-1.2175398069947958
1772563759259875800,6.890875732421875,-1.799343085372448,1.6071733308315277,-1.9610271007567643
1772563759269873700,6.900873779296875,-2.0582105869188903,2.1583833180248737,-2.8456153483405706
1772563759279871700,6.910871826171875,-2.3527172648623584,2.409192308539152,-3.313521029381454
1772563759289870800,6.920870849609375,-2.6257106146559117,2.2972779939740895,-3.41766091055274
1772563759299869000,6.930868896484375,-2.8405928440034387,1.8048422673106193,-3.460026764856279
1772563759309866800,6.94086669921875,-2.9345547377705574,1.4725982716470956,-3.5966131638631222
1772563759319864800,6.95086474609375,-2.9117662751182913,1.4286387184113263,-3.760753924749791
1772563759329863000,6.96086279296875,-2.885886276191473,1.130723108807206,-3.950210036417842
1772563759339860700,6.97086083984375,-2.8821196171343324,0.509154221752286,-4.071827998873591
1772563759349858800,6.98085888671875,-2.830681983102858,-0.17799743680357932,-4.060701332442462
1772563759359857000,6.99085693359375,-2.735368674726784,-0.6945090355813502,-3.9255560721546408
1772563759369855700,7.000855712890625,-2.287901824472099,-1.361905607831478,-3.597191840533912
1772563759379853800,7.010853759765625,-0.8006056037783622,-2.2789544017761942,-3.026470512662828
1772563759389852000,7.020851806640625,0.2238520100057125,-3.180299430632591,-2.07066967099756
1772563759399849700,7.030849609375,-0.28280367292910813,-3.478673889920115,-1.4211740816190839
1772563759409847800,7.040847900390625,-1.2129276370242237,-3.1229402975976464,-0.991537925478816
1772563759419846000,7.050845947265625,-1.9304756028875707,-2.435582302814722,-0.9994088049843907
1772563759429843700,7.06084375,-2.3929934534102677,-1.6457850932985543,-1.303333007353544
1772563759439841800,7.070841796875,-2.758679407687485,-0.6456260544687509,-1.7239081974208355
1772563759449841000,7.0808408203125,-2.9688664649561045,0.4042313735097646,-2.0156386886492372
1772563759459838700,7.090838623046875,-3.192546625526249,1.189150163334608,-2.1901500369027254
1772563759469836800,7.1008369140625,-3.5045746393740176,1.6180927842527626,-2.51973533475101
1772563759479835000,7.1108349609375,-3.583530979450047,1.6709949378788471,-2.7115122905820606
1772563759489832700,7.120832763671875,-3.514433770087361,1.5475035827666521,-2.7359643025323748
1772563759499830800,7.130830810546875,-3.473812713624537,1.3474936361193657,-2.812809349542856
1772563759509828900,7.140828857421875,-3.4347269039049744,0.9462374790281057,-2.652348153951764
1772563759519826700,7.15082666015625,-3.366898983825743,0.5015466693580151,-2.077847892063856
1772563759529825800,7.16082568359375,-3.35552827950567,0.14770283630490302,-1.4161235202312468
1772563759539823900,7.170823974609375,-3.3965427192002533,0.0006195932030677795,-0.7482803732573986
1772563759549822000,7.180822021484375,-3.4573096148520706,0.08132336146831512,-0.2109989581733942
1772563759559819800,7.19081982421875,-3.498538574080169,0.18390695310831068,-0.1307026016652584
1772563759569817900,7.20081787109375,-3.471015191860497,0.2690852364391088,-0.26326281389594075
1772563759579815700,7.210815673828125,-3.3855466934114693,0.16155717413425444,-0.2532125445246696
1772563759589813800,7.220813720703125,-3.2474680100202558,0.04087912287712097,0.01939677438735962
1772563759599811800,7.230811767578125,-3.126979343855381,-0.3714911334246397,0.356298240467906
1772563759609811000,7.24081103515625,-3.1404362067997456,-1.718728164434433,0.5175082085996866
1772563759619809000,7.25080908203125,-2.9373101739585397,-1.3753940349578857,0.494248913565278
1772563759629807000,7.26080712890625,-2.7659052672877906,-1.3543635218888521,0.47292847763895984
1772563759639805200,7.27080517578125,-2.719976752066612,-1.354695530322194,0.531157379245758
1772563759649803300,7.28080322265625,-2.6107898166388273,-1.2152730311065911,0.27541677754819394
1772563759659801000,7.290801025390625,-2.4061050100482997,-0.7476432443976402,-0.29695465561747547
1772563759669799200,7.300799072265625,-2.2859238023974,-0.011945873859524727,-0.7573539065510034
1772563759679797200,7.31079736328125,-2.2565432480037213,0.7437082430362701,-0.9861346051305532
1772563759689796000,7.320796142578125,-2.2614029629945755,1.155396946814656,-1.1258102023243903
1772563759699794200,7.330794189453125,-2.1728911513268945,1.0971499250292778,-0.8672019362360238
1772563759709792300,7.340792236328125,-2.0090882440924642,1.0748603518098592,-0.3996533980697393
1772563759719790300,7.350790283203125,-1.8508230972409248,1.0098305380165575,-0.056415714704990384
1772563759729788200,7.3607880859375,-1.6322656865119933,0.7793237462967634,0.09466682716608046
1772563759739786200,7.3707861328125,-1.4572915430523454,0.41770694115459917,-0.04876490769088268
1772563759749784300,7.380784423828125,-1.2690962451003491,0.34071079523563386,-0.33164661429226394
1772563759759783000,7.390782958984375,-1.1059177533745765,0.7981453511446714,-0.5681541077315807
1772563759769781000,7.400781005859375,-0.9825075006745755,1.459928759688139,-0.6064736092537641
1772563759779779000,7.410779052734375,-0.7002516708865761,1.828393823289871,-0.29449966368079183
1772563759789777200,7.420777099609375,0.335030557642132,2.2480852162599563,0.33878771821856496
1772563759799775200,7.430775146484375,1.567258815202862,2.6014824745893477,0.9693126496672629
1772563759809773300,7.440773193359375,1.738958613166958,2.36730780801177,1.3355851716607807
1772563759819771100,7.450771240234375,1.9435728387393056,2.2909756789594886,1.3263959030330181
1772563759829769200,7.460769287109375,1.7536249980315566,2.2765444180250167,1.1901795063823462
1772563759839768000,7.47076806640625,1.0036872129559515,1.3906278444468974,1.2357459102928638
1772563759849766100,7.48076611328125,0.1420867499887943,-3.1304362063109874,0.6621037265390157
1772563759859764200,7.49076416015625,-0.7543719681307673,-6.929440951260924,1.7298703206956385
1772563759869762300,7.50076220703125,-0.45606472886055704,-6.805270381712913,1.996017165595293
1772563759879760100,7.510760009765625,-0.31275778942704197,-3.9538416709184645,1.9505992302447557
1772563759889758200,7.52075830078125,-0.011838029570877552,-1.5766396608799695,2.3811545470565556
1772563759899756300,7.53075634765625,-0.12202391290813684,0.6540957766503095,2.6130074926882982
1772563759909754000,7.540754150390625,-0.4570879344284534,2.320555409187078,2.5252222417294976
1772563759919753000,7.5507529296875,-0.5972117137812077,2.846928476765752,2.5871359693288802
1772563759929751000,7.5607509765625,-0.9339302245102822,3.0093934133946894,2.889495114338398
1772563759939749000,7.5707490234375,-0.600057166340202,3.2931431350022553,3.3174031315118073
1772563759949747200,7.580747314453125,0.1438391466140747,2.9719828434109687,2.9563118115484714
1772563759959745300,7.590745361328125,0.6401075833082198,1.874897800311446,1.919284931309521
1772563759969743000,7.6007431640625,1.1150434552468358,0.3587421264886856,0.7497793796434998
1772563759979741200,7.6107412109375,1.7760637704633175,-0.8044242852836847,-0.3675464874520898
1772563759989739300,7.6207392578125,2.237254025644064,-0.6145283208936453,-1.2624302113398909
1772563759999738000,7.630738037109375,2.548289813584089,0.007712766334414482,-1.752839108350873
1772563760009736000,7.64073583984375,2.55349088935852,-0.13211714463829993,-2.231897759307921
1772563760019734300,7.650734375,2.39194423661828,-0.013550970968604087,-3.027104134391248
1772563760029732400,7.660732421875,1.720970536533743,-0.29530864197611806,-3.2745164682045576
1772563760039730200,7.670730224609375,0.9462310492873192,-0.6646662705034018,-2.864790588931739
1772563760049728300,7.680728271484375,0.5398784458398819,-0.6457569873720407,-2.337941428273916
1772563760059726000,7.69072607421875,0.6769792971748858,-1.101412843170762,-1.7032903568059206
1772563760069724200,7.70072412109375,1.110579973031953,-1.5426087964624167,-1.0296633657336234
1772563760079723000,7.710722900390625,1.012819856025651,-1.669948643696308,-1.3095759933963418
1772563760089721000,7.72072119140625,0.14217212671730667,-1.0645166524499654,-3.764961897833645
1772563760099719200,7.73071923828125,-0.072779989528656,0.6901064167082309,-4.831281800313294
1772563760109717200,7.74071728515625,-0.13137538636028767,1.868581456771493,-4.49902816003859
1772563760119715300,7.75071533203125,0.732650842449069,1.6568144368350506,-3.136922937981784
1772563760129713200,7.760713134765625,1.7915362110137938,1.3677455660313367,-1.3405802034690975
1772563760139711200,7.770711181640625,2.164012848344445,2.6138649863004684,0.5465522245153784
1772563760149709300,7.780709228515625,1.3735697421401738,3.481889929357171,1.2848968946918844
1772563760159708000,7.7907080078125,0.06251987679898738,4.642291552591324,0.5941103867650032
1772563760169706000,7.8007060546875,-0.9003799101512878,2.6583634687185285,-1.1552616299971938
1772563760179704000,7.8107041015625,-1.8378262530237435,1.057247538229823,-3.242799433687329
1772563760189702100,7.8207021484375,-2.7067653883159157,0.09185703044235706,-4.5903135280728335
1772563760199700200,7.8307001953125,-3.0345559117019176,-0.12279168241024016,-5.097758607819676
1772563760209698300,7.8406982421875,-2.9380536858022213,-0.8123428033232688,-4.4436949798733
1772563760219696000,7.850696044921875,-2.5839059013664722,-1.095719015443325,-2.9081910469800234
1772563760229694200,7.860694091796875,-2.3067997094266115,-0.36107962952554223,-1.2690753484427928
1772563760239693000,7.870693115234375,-2.078797155612707,0.40229368344545363,0.19289017776995895
1772563760249691100,7.880691162109375,-1.6491759047806263,0.9941659358948468,1.3220797933995723
1772563760259689200,7.890689208984375,-1.1004980664134025,1.1542314101666211,2.1292665291339157
1772563760269687300,7.900687255859375,-0.4215037030890584,0.8077630743175744,2.765190104755759
1772563760279685000,7.91068505859375,0.050393677936494345,0.22379005068540572,3.1183827804237603
1772563760289683200,7.92068310546875,-0.3743003456264734,-0.5974456686675548,2.842763173779845
1772563760299681300,7.930681396484375,-1.0219313101768492,-1.081006014958024,2.42419055570662
1772563760309679000,7.94067919921875,0.1250555356889963,-1.702875346264243,2.7328298038989303
1772563760319678000,7.950677978515625,0.14393676176965237,-2.709545958945155,2.5548966645032167
1772563760329676000,7.960676025390625,0.9389823933333158,-2.710006562194228,2.368311432096362
1772563760339674000,7.970674072265625,1.2334113298654557,-2.517691261702776,2.670384745901823
1772563760349672200,7.980672119140625,0.5456675506353378,-1.6832839260876178,2.8996961903572083
1772563760359670300,7.990670166015625,0.49894963860213754,-1.1154425375670194,2.901065725144744
1772563760369668000,8.000668212890625,0.5399141016751527,-0.9080699531972408,2.5945190653175114
1772563760379666200,8.010666259765625,0.44856911240816116,-0.930028102505207,2.2523072178691623
1772563760389664300,8.020664306640626,0.3390159740164876,-0.6779974612414836,1.9170353988170623
1772563760399663000,8.0306630859375,0.4123837003052234,-0.32750469218194483,1.569147259297967
1772563760409661000,8.040660888671875,0.6441115582525729,0.17051555661559104,1.3361466049358248
1772563760419659300,8.0506591796875,0.7774705196455121,0.8702911344230174,1.27945967207402
1772563760429657300,8.0606572265625,1.1660720700860023,1.3579215066313743,1.1236150303676724
1772563760439655200,8.0706552734375,1.4640516848370433,1.0573141737252474,1.085672253203392
1772563760449653200,8.0806533203125,1.93345169608891,0.7154208907067775,0.849890735951066
1772563760459651000,8.090651123046875,2.329814235919714,0.78703242097795,0.6868626124814152
1772563760469649200,8.100649169921875,2.661450913339853,1.717355122515559,0.6069406422436237
1772563760479647200,8.110647216796876,2.87611891541481,2.9095097283631564,0.5439250908821821
1772563760489646000,8.12064599609375,2.870642529830336,2.543168817308545,0.3205529733479023
1772563760499644200,8.13064404296875,2.2669746256470678,2.0636714826732874,-0.38796296027600763
1772563760509642200,8.140642333984376,2.399434884634614,2.3385434858202934,-0.5402598463729024
1772563760519640300,8.150640380859375,2.298811779412627,2.518525958961248,-0.5831894720390439
1772563760529638100,8.16063818359375,1.4778110378593206,1.8935417105048893,-0.8224035940885543
1772563760539636200,8.17063623046875,0.8601730605125427,0.6742348938375711,-1.0726961595132947
1772563760549634300,8.18063427734375,0.39635961722135543,-0.5610533358156681,-1.395677236790955
1772563760559633000,8.1906328125,0.5115484234124422,-0.9312316330760717,-1.7355533347681165
1772563760569631000,8.200630859375,0.13403905261158944,-0.7345470314592123,-1.7006179227262734
1772563760579629000,8.210629150390625,-0.4563280559718609,1.0041969160437583,-1.4539786191120743
1772563760589627100,8.220627197265625,-0.3432768463313579,1.4333219077914952,-1.5488155421480536
1772563760599625200,8.230625244140626,-0.2763625339657068,0.4283849870353937,-1.9959169200912117
1772563760609622500,8.24062255859375,-0.15579320378005504,-1.1950386368513106,-2.5778181058853864
1772563760619620600,8.25062060546875,0.8811860379248857,-1.7088544206738472,-2.2121792056202887
1772563760629618700,8.26061865234375,1.191619183796644,-2.5220932960540057,-2.3005638837769626
1772563760639617500,8.270617431640625,1.4260422721773385,-2.577674898022413,-2.1311489818796514
1772563760649615600,8.28061572265625,1.4939011719167232,-2.0004320594280958,-1.6075331040546297
1772563760659613700,8.29061376953125,0.8326303890705108,-1.4291794011592864,-1.571396499529481
1772563760669611500,8.300611572265625,0.24285014046430586,-0.5588029265403748,-1.4640964007616042
1772563760679609600,8.310609619140624,0.46106677493155,0.9280155936390161,-0.9356991338789462
1772563760689607700,8.320607666015626,0.477187888649106,1.589117449659109,-0.913524711471796
1772563760699605500,8.33060546875,0.22479133668243884,1.824882600298524,-1.368836283877492
1772563760709603600,8.340603515625,-0.041921909928321836,1.8027526015549897,-1.9563120549336075
1772563760719602700,8.350602783203126,-0.48502808075547216,1.5236796395868062,-2.5693749794498086
1772563760729600500,8.3606005859375,-1.4456716862767933,0.7736129674345255,-2.9845123623773455
1772563760739598600,8.3705986328125,-2.498237204170227,0.3740864106148481,-2.901841093431413
1772563760749596700,8.3805966796875,-3.1939480167567726,0.671051587626338,-2.2249439946472642
1772563760759594500,8.390594482421875,-3.41089097802639,1.0315127929925918,-1.0925520758450031
1772563760769592600,8.400592529296874,-3.0402070693314074,1.2160849320113658,0.1711903871372342
1772563760779590700,8.410590576171876,-2.063351164677739,1.4492892922520637,1.609237277624011
1772563760789588500,8.42058837890625,-1.0070224948585034,1.3951280784755944,2.27699479214102
1772563760799586600,8.430586669921874,0.5584896228075027,1.2110673961102962,2.6984076020762324
1772563760809585700,8.440585693359376,1.9142694412350654,0.7283709731727838,2.9911905249670148
1772563760819583500,8.45058349609375,2.2744623510539532,0.25816812110543247,3.0017741705626246
1772563760829581600,8.46058154296875,1.9192472296476364,0.11899579725861549,2.9734809730142353
1772563760839579600,8.47057958984375,0.9850216754525899,0.2445832478672266,2.961536560459435
1772563760849577500,8.480577392578125,0.006844166806340217,0.4426929138511419,2.615864635685086
1772563760859575600,8.490575439453124,-1.1321879206627607,0.1999965026438236,1.848690761387348
1772563760869573600,8.50057373046875,-2.0679010830670594,0.2624818926513195,1.0424223095417022
1772563760879571500,8.510571533203125,-2.406801614010334,0.4293979634702205,0.4828317397549748
1772563760889570600,8.520570556640624,-1.8507921175807713,0.3445283076971769,-0.08654986394494771
1772563760899568600,8.530568603515626,-0.8308885138392448,0.06435293744504451,-0.35865152559578417
1772563760909566700,8.540566650390625,0.18212649943232534,-0.9792232183068991,-0.5526990567073226
1772563760919564500,8.550564453125,1.017049383354187,-1.8276719387561082,-0.5502525403380394
1772563760929562600,8.560562744140626,2.6077532254219054,0.9227245014935731,-0.4893874450087547
1772563760939560400,8.570560546875,3.207463916411996,1.9912270087093114,-0.9971107571750879
1772563760949558500,8.58055859375,3.316650267317891,1.2276789236932992,-1.1073016089484096
1772563760959556600,8.590556640625,3.288065393346548,-0.552424039158225,-0.42171500775218007
1772563760969555700,8.6005556640625,2.961538021764159,-1.9135124853879213,0.46202626761347054
1772563760979553500,8.610553466796874,2.618824070012569,-2.521927876359224,1.0085729391708969
1772563760989551600,8.620551513671876,2.33319744861722,-3.1348148597866294,1.1991922493994236
1772563760999549700,8.6305498046875,2.143673824670911,-3.430425115057826,1.216976035632193
1772563761009547500,8.640547607421874,2.098366363957524,-3.3504683657675978,0.8042208716660737
1772563761019545600,8.650545654296875,2.011217072814703,-3.0603561233907937,0.7886807727068662
1772563761029543700,8.660543701171875,2.100709127691388,-2.49364344663918,0.4329967186145484
1772563761039541500,8.67054150390625,2.015532013404369,-1.714651124253869,0.06384981022849678
1772563761049540600,8.68054052734375,2.3227502888828515,-1.1165671576827765,-0.543671700643003
1772563761059538700,8.69053857421875,2.6230560084939003,-0.21636954529583452,-1.6798843467772007
1772563761069536500,8.70053662109375,2.1130524764358998,-0.6548562396287918,-1.0626146182209253
1772563761079534600,8.71053466796875,1.3400824830800293,0.46283261556029315,-0.7825554216943681
1772563761089532700,8.72053271484375,1.0449480286270378,1.0647247422426938,-0.8323449962578714
1772563761099530500,8.730530517578124,0.9819920984983443,1.1975965046405792,-0.5156739789098501
1772563761109528600,8.740528564453125,1.3701625640451907,1.2533055323809386,0.09545198619440197
1772563761119526700,8.750526611328125,1.2340168945431709,1.602465007010102,0.9394660851970315
1772563761129525500,8.760525390625,1.0704325984954834,2.042698252749443,1.4665231895171105
1772563761139523600,8.770523681640626,0.6835574334561825,1.9061714749753473,2.0605420986063776
1772563761149521700,8.780521728515625,0.1373380941569805,1.5207061767339705,2.5884035050466654
1772563761159519500,8.79051953125,-0.012484803041815757,2.253720007276535,1.8364362599700688
1772563761169517600,8.800517578125,0.05208557654619217,3.8826170941382645,0.2878158020026982
1772563761179515600,8.810515625,-0.35266894405484195,3.328000513371825,-1.2983030503623187
1772563761189513500,8.820513427734374,-0.8127420317739248,2.4960224507302042,-1.7529709180369972
1772563761199511600,8.830511474609375,-1.037377885633707,1.8055799339354037,-1.7474787503615021
1772563761209510700,8.8405107421875,-1.0735434239923953,0.7665116109967232,-1.164790359712392
1772563761219508700,8.8505087890625,-0.6272317351222038,0.41637072411477566,-0.21177622615620492
1772563761229506600,8.860506591796875,-0.41440965317487716,0.18010230012834072,0.7269882866427302
1772563761239504600,8.870504638671875,-0.7474620426118374,0.005347790768742561,1.423347480135411
1772563761249502500,8.88050244140625,-1.0232657736510038,-0.2864981435328722,1.5303439197815953
1772563761259500500,8.89050048828125,-1.352948102132976,-1.4707780704826117,1.1208680697470903
1772563761269498600,8.90049853515625,-2.188364614790678,-2.2154151188015936,0.7449820623643696
1772563761279496400,8.910496337890624,-2.7689766375571487,-3.043529491752386,0.0721311702311039
1772563761289495600,8.92049560546875,-3.100484720161557,-2.837369790303707,-0.0956242740213871
1772563761299493600,8.93049365234375,-3.5005762173876165,-2.356179680275917,-0.2124247531928122
1772563761309491700,8.94049169921875,-4.110352667579055,-1.8951140743881463,-0.8696770941779017
1772563761319489500,8.950489501953125,-4.548899567666649,-1.4287965393215416,-2.45441296775192
1772563761329487600,8.960487548828125,-3.7159061905026434,-1.3550322149306535,-4.724515662291646
1772563761339485700,8.970485595703124,-4.03495022059232,-1.5408406177461147,-5.457033233749867
1772563761349483500,8.9804833984375,-3.8052152900278564,-1.8542706073462962,-5.437540597772598
1772563761359481600,8.990481689453125,-3.259868057388067,-1.9766917028784752,-5.150016033801436
1772563761369479400,9.0004794921875,-2.3786624379798766,-1.788190407717228,-4.510327552688121
1772563761379478500,9.010478515625,-1.691213257782161,-1.364936353829503,-3.738107793177664
1772563761389476600,9.0204765625,-1.5667062958866358,-1.1209995871722698,-2.6984301061689853
1772563761399474700,9.030474609375,-0.7823965778708457,-2.1558786417275666,-1.6709097438134253
1772563761409472500,9.040472412109375,0.18172668645977974,-2.7135885123342276,-1.1928928569942712
1772563761419470600,9.050470703125,0.707275578173995,-2.180708547079563,-0.737924983459711
1772563761429468700,9.06046875,1.2684662766337393,-0.9913777664810418,-0.125559685818851
1772563761439466500,9.070466552734375,1.3044979594796895,-0.17789046929776667,0.33779169291853905
1772563761449464600,9.080464599609375,1.2260852247610687,0.08488602238595486,-0.4492027341365814
1772563761459463700,9.090463623046874,1.297566698911786,-0.2654477567195892,-0.8019868290036917
1772563761469461500,9.10046142578125,0.09157733671814203,1.20664022731781,-1.8556690759673713
1772563761479459600,9.11045947265625,-0.8811401529565454,1.198969546559453,-2.446386020901799
1772563761489457700,9.120457763671874,-1.1385580402165651,1.4226643201768396,-3.1929455617159603
1772563761499455500,9.13045556640625,-1.565605056646466,1.1872066280514002,-3.2244822712302206
1772563761509453600,9.14045361328125,-1.3512833837911487,0.7951461693286895,-2.1983783515438438
1772563761519451600,9.15045166015625,-0.8483508130326867,0.23488193806409835,-1.2876163827836513
1772563761529449500,9.160449462890625,-0.014670038126409053,-0.4143851032555103,-0.1232145839974284
1772563761539448600,9.170448486328125,0.934254195767641,-0.37447277958393094,0.9946835300281643
1772563761549446700,9.18044677734375,1.6044523814350367,-0.11939502570927142,1.8623665277794001
1772563761559444500,9.190444580078125,2.4864678559213873,0.711492319086194,2.78772663847357
1772563761569442600,9.200442626953125,2.6039701997518536,0.9206500333070754,2.9751801781475544
1772563761579440600,9.210440673828124,2.732649771156907,1.0024679002940655,3.0336306135505438
1772563761589438500,9.2204384765625,2.8555303008943795,0.1185246726155281,2.741361485400796
1772563761599436500,9.2304365234375,2.9887545299917457,0.19353519767522812,2.0140660325050352
1772563761609435000,9.240434814453126,1.7639970467031,-0.7464420519143342,0.9613076223880052
1772563761619434000,9.25043408203125,1.052545644149184,-1.709233190858364,0.09830138427615165
1772563761629432000,9.26043212890625,0.2776671868234873,-1.6281810475468634,-0.394303269213438
1772563761639430000,9.270429931640624,0.10639029044657945,-1.054078845065832,-0.3643342474073171
1772563761649428000,9.280427978515625,0.3852899416744709,-0.29204642530977726,-0.2583428931504488
1772563761659426000,9.290426025390625,0.19825550419539212,0.4203203385233879,-0.4629302307158708
1772563761669423900,9.300423828125,-0.024157120656967162,1.5370686979919672,-1.113152965325117
1772563761679422000,9.310421875,-0.9352508055895566,0.6722592098504304,-1.615253761434555
1772563761689419800,9.320419677734375,-1.3811539136588573,1.4333756838053464,-2.2558143492072817
1772563761699417900,9.33041796875,-1.3948507228389382,2.7234242621719837,-2.5960405757963656
1772563761709415000,9.340414794921875,-2.0467837684974075,3.254232097327709,-2.2728835574299096
1772563761719412700,9.350412841796874,-2.4436326305404306,4.5839732191354035,-1.6121826834261417
1772563761729410800,9.360410888671876,-2.1594874798744916,5.509635527646541,0.17235037082731722
1772563761739409000,9.370408935546875,-1.1916519170224666,2.4157705178856848,2.6131834337770936
1772563761749407700,9.38040771484375,-1.152348080638051,1.3746873479932546,3.476916232597828
1772563761759405800,9.39040576171875,-1.8101425656758248,0.42611236592829227,4.031130662304163
1772563761769404000,9.40040380859375,-2.79131706418097,0.6706055974245071,3.9003456430524586
1772563761779401700,9.410401611328124,-3.3459798221766945,1.7132681454628704,3.3656022220134734
1772563761789399800,9.42039990234375,-3.647263446909189,2.063870220115781,3.0882687971889973
1772563761799398000,9.43039794921875,-3.3756770413041113,1.516126447728276,3.097413057631254
1772563761809395700,9.440395751953124,-3.2264556171298024,-0.1487064603894949,3.970985113421082
1772563761819393800,9.450393798828125,-3.82300112208724,-5.1768952728986735,4.526079833093285
1772563761829393000,9.460392822265625,-4.1264328647643325,-5.704198899325728,3.21599735147953
1772563761839390700,9.470390625,-4.094823674535751,-1.6684300558269023,0.19622516741156576
1772563761849388800,9.480388916015626,-4.167647503206133,-0.7337292853355407,-0.17806114968955516
1772563761859387000,9.490386962890625,-3.5250995410084722,0.7050847901314496,0.10651917752325535
1772563761869384700,9.500384765625,-2.8800568393856287,2.094925868114829,-0.1098977140456438
1772563761879382800,9.5103828125,-2.2767433015979823,2.0912562396913765,0.27472236554324625
1772563761889380900,9.520380859375,-1.77680976652503,1.980856421342492,0.968029624119401
1772563761899378700,9.530378662109374,-2.1357978305988015,3.469196452000737,1.8178356043964623
1772563761909376800,9.540376708984375,-2.932268672659993,4.785278466290236,1.3858651600897312
1772563761919376000,9.5503759765625,-2.826110437403619,7.971358818411827,1.650686893865466
1772563761929374000,9.5603740234375,-2.2424746829017996,9.999055901384352,1.4977262831628322
1772563761939371800,9.570371826171876,-1.570829513296485,10.767300035262107,0.8301385722547769
1772563761949369900,9.580369873046875,-0.9484384962037206,8.0574396035403,0.8148761211931705
1772563761959367700,9.59036767578125,0.06713584616184234,4.559575859981775,1.0626713168442248
1772563761969365800,9.60036572265625,1.8574615123420952,1.8837375248491763,0.38257717558443544
1772563761979363800,9.61036376953125,3.477764373859763,-0.6364882237672805,-0.595464723983407
1772563761989361700,9.620361572265624,3.6994302719980476,-0.6650789429575205,-1.8739532129377126
1772563761999360800,9.63036083984375,3.2792332675933835,-0.6104448509722947,-2.2660037347882986
1772563762009358800,9.64035888671875,3.403292193460464,0.6304618030846119,-1.8803519740641117
1772563762019357000,9.65035693359375,3.3868016619086263,1.6282155343383549,-1.4205606258958576
1772563762029354800,9.660354736328125,3.446933766788244,1.6093617807865142,-1.624752242141962
1772563762039352800,9.670352783203125,3.8507051215708255,1.2220984932124614,-1.9420470904767513
1772563762049351000,9.680350830078124,3.9371342817455526,1.3177473171532152,-2.0114993968874213
1772563762059348700,9.6903486328125,3.4349878929287194,1.0215268210291861,-2.14087805647254
1772563762069346800,9.700346923828125,2.8937235456883905,-0.05466740973293781,-1.8992115728348493
1772563762079346000,9.710345947265624,2.1574679567456245,-0.8181096962869167,-1.5385750109016894
1772563762089343700,9.72034375,1.2970505660831928,0.17482757459580897,-1.3012269749850034
1772563762099341800,9.730341796875,0.8240607136458158,0.956028220680356,-0.8780611839026212
1772563762109341000,9.7403408203125,-0.01988894181847572,0.8634072201281785,-0.6310749665468931
1772563762119338800,9.7503388671875,-0.8146639397472143,0.7717541878253221,-0.5988374152868986
1772563762129336800,9.7603369140625,-1.3583277493447063,0.736750094461441,0.03504559441804886
1772563762139335000,9.7703349609375,-1.5449106436640023,0.16988251940906046,0.8422849371224641
1772563762149332700,9.780332763671876,-1.562002063718438,-0.3389168975561857,1.343964292949438
1772563762159330800,9.790330810546875,-1.2290648250937461,-0.5272457587599754,2.166132909238338
1772563762169329000,9.800328857421874,-1.542524040788412,-0.46534430612027644,2.8108114537239075
1772563762179326700,9.81032666015625,-1.597979970550537,-0.3526362108290195,3.4355338363736867
1772563762189325800,9.820325927734375,-1.6644009464412928,-0.4154436723977327,3.4498791725903746
1772563762199324000,9.830323974609374,-1.877301938843727,-0.7287702016234398,3.3304724564433097
1772563762209322000,9.840322021484376,-2.1267162601292133,-0.5947223811835051,2.4824019216567277
1772563762219319800,9.85031982421875,-2.652332956382632,0.2686076820552349,1.0259420071229337
1772563762229318000,9.86031787109375,-3.0220529884815215,1.8111264621466396,-0.04176379675716162
1772563762239315700,9.870315673828125,-2.9314824907183645,3.012306670492887,-0.5215618679046631
1772563762249313800,9.880313720703125,-2.2616098837435246,2.5164573359936475,-0.5165177362576127
1772563762259311900,9.890311767578124,-1.2003449265658854,0.028698271217942235,-0.16119272473603485
1772563762269311000,9.90031103515625,-0.6602648206740618,-1.824389848345518,0.10132686957716941
1772563762279308800,9.910308837890625,0.262926713809371,-2.535593413618207,1.806607231156528
1772563762289307000,9.920306884765624,0.3918804259806871,-2.9647873789489267,1.3857710520654916
1772563762299305000,9.930304931640626,0.5368202273130417,-3.497807629457116,0.9468331068336963
1772563762309302800,9.940302734375,0.9765911162376403,-4.337312580472231,2.210287985046208
1772563762319300900,9.95030078125,1.5687731652885675,-4.711000931680203,2.9919813830837607
1772563762329299000,9.960298828125,2.245145655676722,-3.913030352580547,3.6379414918124673
1772563762339296800,9.970296875,2.193063001739979,-2.8372417800098657,3.5162688765600323
1772563762349295900,9.9802958984375,1.5703753397881983,-2.303172312709689,3.241386644279957
1772563762359294000,9.9902939453125,1.124272325232625,-2.6400229253858325,3.3209143545031545
1772563762369291800,10.000291748046875,-3.3681127435296774,-2.4541385347247124,8.717040407347678
1772563762379289900,10.010289794921874,-2.6545196527719495,-2.81106747431159,5.926954930788278
1772563762389288000,10.020287841796875,-5.203750546598434,-2.407393150162697,4.472223447482287
1772563762399285800,10.03028564453125,-3.295982742342353,-1.969750505438447,2.7503043780520557
1772563762409283800,10.040283935546874,-2.7024101157158613,-1.509362360420823,1.3157514671608805
1772563762419282000,10.050281982421875,-1.8854899214744567,-1.331714759968221,-0.23003742064237592
1772563762429279700,10.06027978515625,0.320544205519557,-0.6984089656293392,-1.9740284750185906
1772563762439278800,10.07027880859375,2.168949720224738,-0.9389099126189947,-2.634809574651718
1772563762449277000,10.08027685546875,3.628671559163928,-0.9457999643936753,-4.634029043419659
1772563762459274800,10.090274658203125,4.110841327878832,-0.1299012221544981,-9.424389050757885
1772563762469272800,10.10027294921875,4.2014504040867084,2.843890131983161,-10.070659832870959
1772563762479271000,10.11027099609375,3.2149650858223437,4.075593488886952,-2.561966456758976
1772563762489268700,10.120268798828125,1.2981973980307577,3.338371685260534,0.03933890769779682
1772563762499266800,10.130266845703124,-1.8828215790480374,2.476888418932259,-1.3462909823313354
1772563762509265000,10.140264892578125,-1.9965467424273489,2.6624197583720086,-2.4189599615767596
1772563762519263700,10.150263671875,-2.1288678852051497,3.232166688252985,-1.495691854725778
1772563762529261800,10.16026171875,-1.186322830954194,2.2472180780366062,-0.38886224720329043
1772563762539260000,10.170260009765625,-0.8930190990597009,0.6372244290873408,-0.17715192589014767
1772563762549257700,10.1802578125,-0.7571119144886732,-0.17738398108035325,-0.2276636772483587
1772563762559255800,10.190255859375,-0.4905570733100176,-1.0167927782446144,-0.16194675797373057
1772563762569254000,10.20025390625,0.2466138769119978,-1.603679643496871,-0.044646366456151006
1772563762579251700,10.210251708984375,0.6307540640294551,-1.6871221890762447,0.31394816825538874
1772563762589249800,10.220249755859374,0.8934697654366492,-1.6061816894456744,0.585205195775628
1772563762599248000,10.230247802734375,0.8509206635206937,-1.501662161307037,0.8123542015001177
1772563762609246500,10.24024658203125,0.8605307879090308,-1.1262225825175642,1.6128788489967583
1772563762619244300,10.250244384765624,-1.032457964888215,-0.6187488611981272,1.467664322376251
1772563762629242400,10.260242431640625,0.3050637277930975,-0.24949878469854592,-0.1143351119711995
1772563762639240400,10.270240478515625,0.2796785266458988,-0.08012304576784372,-0.10772066226750612
1772563762649238300,10.28023828125,0.671325728392601,-0.5424199470162391,-0.48836014778763054
1772563762659236400,10.290236328125,1.2765379394084215,-0.38106443293392656,-0.41511692466139793
1772563762669234400,10.300234375,0.629564561983943,0.4789283025756478,-0.24146599262952803
1772563762679232300,10.310232177734376,-0.5048083015024661,0.6980784185007214,-0.23628420607745645
1772563762689231400,10.3202314453125,-1.01797643507123,0.41462095783799885,-0.3512617076054215
1772563762699229400,10.3302294921875,-0.40823885558545586,0.41846623508930203,-0.34793986970633267
1772563762709227300,10.340227294921876,0.17797931662499902,0.607529255786538,-0.09818477215915918
1772563762719225300,10.350225341796875,0.06138824242055416,0.31068887419849633,0.27254239115566015
1772563762729223400,10.360223388671875,0.03553659280538559,0.19238631990104912,0.23703473218381405
1772563762739221200,10.37022119140625,-0.13011223455667495,-0.0051049219235777855,-0.024807401259243488
1772563762749219300,10.38021923828125,-0.0420978510171175,-0.2615434427574277,-0.10806669922620057
1772563762759217400,10.390217529296875,-0.09986556485295295,-0.2913514287829399,-0.1178144785195589
1772563762769215200,10.40021533203125,-0.08930091621875762,-0.3557929212942719,-0.03694499829858541
1772563762779214300,10.41021435546875,-0.17233517325818537,-0.44985184569507836,0.07165799976140261
1772563762789212400,10.42021240234375,-0.07888999684154988,-0.3667462769851088,0.09611118075549602
1772563762799210200,10.430210205078126,0.046508653196692465,-0.1457847277238965,-0.020966800183057785
1772563762809208300,10.440208251953125,0.01080196452140808,-0.15757628780454397,-0.1101595798522234
1772563762819206400,10.450206298828125,0.05832184058725833,-0.40263270614147184,-0.16722995907366275
1772563762829204200,10.460204345703126,0.28112288023531434,-0.25081483573317526,-0.06709872902184724
1772563762839202300,10.470202392578125,0.26530454885661603,0.04509966318160295,-0.06338935310989618
1772563762849200400,10.480200439453125,0.34019583145081994,-0.08374912731051444,-0.2273679091721773
1772563762859199200,10.49019921875,0.369280471637845,-0.17447686146199703,-0.34450901847481724
1772563762869197300,10.500197265625,0.14053835150301455,-0.035250177079439164,-0.20979221273213625
1772563762879195400,10.5101953125,0.1530588103801012,0.21105331870913505,-0.03693506142646074
1772563762889193200,10.520193115234376,0.10610884315669536,0.039675884567201135,0.023529051886498925
1772563762899191300,10.53019140625,-0.15767887139618394,-0.14257365672290323,-0.07430617618262768
1772563762909189400,10.540189453125,-0.23442601099014282,-0.1856251552030444,-0.18417144926339388
1772563762919187200,10.550187255859376,-0.24020693247914313,-0.104802144472301,-0.2235591645389795
1772563762929185300,10.560185302734375,-0.254045488217473,0.11053893455862998,-0.22746961598098275
1772563762939184400,10.570184326171875,-0.4284966307163238,-0.1652814553543925,-0.1799085311219096
1772563762949182500,10.580182373046876,-0.5055430455178022,-0.4829071430787444,-0.18202946879863738
