time,seconds_elapsed,z,y,x
1772563752441146600,0.072146728515625,0.1823313981294632,-0.5032938718795776,-0.05824614688754082
1772563752451144700,0.082144775390625,0.16874873638153076,-0.5328850150108337,-0.15011748671531677
1772563752461142500,0.092142578125,0.15568946301937103,-0.5827439427375793,-0.23897528648376465
1772563752471140600,0.102140625,0.1432274729013443,-0.6393893957138062,-0.3613171875476837
1772563752481139700,0.1121396484375,0.12447363138198853,-0.6859076619148254,-0.4712035059928894
1772563752491137500,0.122137451171875,0.10348925739526749,-0.7174200415611267,-0.5498669147491455
1772563752501135600,0.132135498046875,0.06967009603977203,-0.7427698373794556,-0.6064842343330383
1772563752511133700,0.1421337890625,0.004817334469407797,-0.8118860125541687,-0.6095484495162964
1772563752521131500,0.152131591796875,-0.09494723379611969,-0.8581569194793701,-0.540798008441925
1772563752531129600,0.162129638671875,-0.2193852961063385,-0.8397936224937439,-0.4570262134075165
1772563752541127700,0.172127685546875,-0.3573523461818695,-0.7509027719497681,-0.39811861515045166
1772563752551126800,0.182126708984375,-0.46428439021110535,-0.6193487048149109,-0.3592868149280548
1772563752561124600,0.19212451171875,-0.4917287528514862,-0.4211348593235016,-0.3402062654495239
1772563752571122700,0.202122802734375,-0.47696682810783386,-0.27389082312583923,-0.3617384433746338
1772563752581120800,0.212120849609375,-0.44438230991363525,-0.16840258240699768,-0.43843114376068115
1772563752591118600,0.22211865234375,-0.421012282371521,-0.142226904630661,-0.5373913049697876
1772563752601116400,0.232116455078125,-0.3994801342487335,-0.09218155592679977,-0.6176146268844604
1772563752611114500,0.242114501953125,-0.4174969494342804,0.020559903234243393,-0.6631773114204407
1772563752621113600,0.252113525390625,-0.4996412992477417,0.1033773347735405,-0.6792768239974976
1772563752631111400,0.262111328125,-0.6045147180557251,0.12738972902297974,-0.6786872148513794
1772563752641109500,0.272109619140625,-0.702071487903595,0.10275984555482864,-0.6517624855041504
1772563752651107600,0.282107666015625,-0.788438081741333,0.06699811667203903,-0.5945186018943787
1772563752661105400,0.29210546875,-0.8580816388130188,0.05495324730873108,-0.49460938572883606
1772563752671103500,0.302103515625,-0.8904113173484802,0.0716123878955841,-0.3563114404678345
1772563752681101600,0.3121015625,-0.8934337496757507,0.09715745598077774,-0.2006329894065857
1772563752691100700,0.3221005859375,-0.8679137229919434,0.04461727663874626,-0.004399028606712818
1772563752701098500,0.332098388671875,-0.704071044921875,-0.13372953236103058,0.16724534332752228
1772563752711096600,0.3420966796875,-0.509202241897583,-0.3798580765724182,0.3191419541835785
1772563752721094400,0.352094482421875,-0.2992594242095947,-0.6179933547973633,0.4636220932006836
1772563752731092500,0.362092529296875,-0.05168716236948967,-0.8596757650375366,0.5902569890022278
1772563752741090600,0.372090576171875,0.24047209322452545,-1.0211700201034546,0.7131142020225525
1772563752751088400,0.38208837890625,0.44655337929725647,-1.1767446994781494,0.7897751927375793
1772563752761087500,0.39208740234375,0.6580153703689575,-1.3532828092575073,0.8141757845878601
1772563752771085600,0.40208544921875,0.8217459321022034,-1.5169404745101929,0.7597461342811584
1772563752781083600,0.412083740234375,0.9217485785484314,-1.580129861831665,0.6892455220222473
1772563752791081500,0.42208154296875,1.0007376670837402,-1.5534868240356445,0.6688726544380188
1772563752801079600,0.43207958984375,1.0863678455352783,-1.4874639511108398,0.6755960583686829
1772563752811077600,0.44207763671875,1.2133132219314575,-1.5417653322219849,0.6620834469795227
1772563752821075500,0.452075439453125,1.334276556968689,-1.6648197174072266,0.6388605237007141
1772563752831074600,0.462074462890625,1.4509809017181396,-1.8048782348632812,0.6062106490135193
1772563752841072600,0.47207275390625,1.5609418153762817,-1.9278382062911987,0.5120992660522461
1772563752851070500,0.482070556640625,1.6312655210494995,-1.7371907234191895,0.4722048044204712
1772563752861068500,0.492068603515625,1.5895005464553833,-1.4310451745986938,0.4393438696861267
1772563752871066600,0.502066650390625,1.2532761096954346,-1.3491817712783813,0.2741730213165283
1772563752881064400,0.512064453125,0.8864166736602783,-1.4478332996368408,0.05480337515473366
1772563752891062500,0.5220625,0.6588349342346191,-1.2754740715026855,-0.05830240994691849
1772563752901061600,0.5320615234375,0.31493499875068665,-1.6028674840927124,-0.41095709800720215
1772563752911059500,0.5420595703125,-0.060818132013082504,-1.9530625343322754,-0.5590754747390747
1772563752921057500,0.5520576171875,-0.36087700724601746,-2.173957347869873,-0.5650891661643982
1772563752931055600,0.5620556640625,-0.5452214479446411,-2.3253188133239746,-0.4329577088356018
1772563752941053400,0.572053466796875,-0.570624828338623,-2.4514312744140625,-0.2621613144874573
1772563752951051500,0.582051513671875,-0.5554424524307251,-2.5733461380004883,-0.15921200811862946
1772563752961049600,0.592049560546875,-0.5709348320960999,-2.65132474899292,-0.14272575080394745
1772563752971048700,0.602048583984375,-0.6682355403900146,-2.6061668395996094,-0.18010294437408447
1772563752981046500,0.612046630859375,-0.7548995614051819,-2.4292941093444824,-0.24403798580169678
1772563752991044600,0.622044677734375,-0.8292809724807739,-2.1730988025665283,-0.281674325466156
1772563753001042700,0.632042724609375,-0.8983065485954285,-1.829410195350647,-0.25804221630096436
1772563753011040500,0.64204052734375,-0.9762447476387024,-1.5149213075637817,-0.23393449187278748
1772563753021038600,0.65203857421875,-1.0327653884887695,-1.2075819969177246,-0.17246896028518677
1772563753031036400,0.662036376953125,-1.0308442115783691,-0.9017608165740967,-0.06610125303268433
1772563753041035500,0.672035400390625,-0.9766274094581604,-0.6267500519752502,0.08559758961200714
1772563753051033600,0.68203369140625,-0.9194546937942505,-0.39797523617744446,0.2794797122478485
1772563753061031700,0.69203173828125,-0.8938295245170593,-0.24789124727249146,0.49033066630363464
1772563753071029500,0.702029541015625,-0.8140436410903931,-0.27494633197784424,0.7238006591796875
1772563753081027600,0.712027587890625,-0.5857645273208618,-0.8467793464660645,0.8086963295936584
1772563753091025700,0.722025634765625,-0.2810245752334595,-1.9068524837493896,0.8524534106254578
1772563753101023500,0.7320234375,-0.009570758789777756,-2.5374231338500977,1.1147414445877075
1772563753111022600,0.742022705078125,0.11625668406486511,-2.3926632404327393,1.5059363842010498
1772563753121020700,0.752020751953125,0.1903446912765503,-2.2349066734313965,1.9020483493804932
1772563753131018500,0.7620185546875,0.3522361218929291,-2.1438534259796143,2.199032783508301
1772563753141016600,0.7720166015625,0.5303946137428284,-2.135591506958008,2.417900323867798
1772563753151014700,0.7820146484375,0.5930348634719849,-2.075118064880371,2.629101514816284
1772563753161012500,0.792012451171875,0.5597125887870789,-2.1208813190460205,2.793534517288208
1772563753171010600,0.802010498046875,0.6628962159156799,-2.3535056114196777,2.778324604034424
1772563753181009400,0.812009521484375,0.8681095242500305,-2.330580949783325,2.7160096168518066
1772563753191007500,0.822007568359375,1.1309210062026978,-2.138965368270874,2.565328598022461
1772563753201005600,0.832005615234375,1.4028600454330444,-2.013313055038452,2.356827974319458
1772563753211003600,0.842003662109375,1.362160563468933,-1.9075855016708374,2.232250452041626
1772563753221001500,0.85200146484375,1.1244227886199951,-1.8090728521347046,2.0970330238342285
1772563753230999600,0.86199951171875,0.9631292819976807,-1.7348839044570923,1.9367867708206177
1772563753240997600,0.87199755859375,0.8861182928085327,-1.7942143678665161,1.751112461090088
1772563753250996500,0.88199658203125,0.7771452069282532,-1.9827924966812134,1.4856685400009155
1772563753260994600,0.89199462890625,0.6345476508140564,-2.23218035697937,1.1579779386520386
1772563753270992600,0.90199267578125,0.529220461845398,-2.4020941257476807,0.8378593325614929
1772563753280990700,0.91199072265625,0.5028572678565979,-2.4660394191741943,0.5468645095825195
1772563753290988500,0.921988525390625,0.4980292320251465,-2.305147647857666,0.364696204662323
1772563753300986600,0.931986572265625,0.522216796875,-1.9587510824203491,0.28452929854393005
1772563753310984400,0.941984375,0.5977184772491455,-1.5891286134719849,0.26090681552886963
1772563753320983300,0.9519833984375,0.7096158266067505,-1.3271669149398804,0.2310209721326828
1772563753330981400,0.9619814453125,0.808059573173523,-1.2203664779663086,0.16781191527843475
1772563753340979500,0.9719794921875,0.8742952942848206,-1.1833850145339966,0.07312966883182526
1772563753350977500,0.9819775390625,0.8739445209503174,-1.1914736032485962,-0.07132577896118164
1772563753360975600,0.9919755859375,0.8221825361251831,-1.201517939567566,-0.24369674921035767
1772563753370973700,1.0019736328125,0.7135010957717896,-1.1707167625427246,-0.3680758476257324
1772563753380971500,1.011971435546875,0.5335413217544556,-1.1815582513809204,-0.4451935291290283
1772563753390970400,1.021970458984375,0.3148859441280365,-1.2801871299743652,-0.5022128820419312
1772563753400968400,1.031968505859375,0.09851986169815063,-1.4802106618881226,-0.5181583762168884
1772563753410966300,1.04196630859375,-0.08060915023088455,-1.8319017887115479,-0.3856154978275299
1772563753420964400,1.05196435546875,-0.13001924753189087,-2.1831467151641846,-0.1817135363817215
1772563753430962700,1.061962646484375,-0.036715663969516754,-2.4161102771759033,-0.04513438791036606
1772563753440960500,1.07196044921875,0.14286768436431885,-2.6889474391937256,0.03464566171169281
1772563753450958600,1.08195849609375,0.2850338816642761,-2.8528499603271484,0.20940403640270233
1772563753460956700,1.091956787109375,0.3877313733100891,-2.8767881393432617,0.4517463743686676
1772563753470955300,1.101955322265625,0.5115556120872498,-2.891392946243286,0.6857227087020874
1772563753480953300,1.111953369140625,0.6924057602882385,-2.9439072608947754,0.9361779093742371
1772563753490951400,1.121951416015625,0.8982633352279663,-3.065197467803955,1.2134723663330078
1772563753500949500,1.131949462890625,1.0733413696289062,-3.1611764430999756,1.4695833921432495
1772563753510947600,1.141947509765625,1.1036348342895508,-3.229637384414673,1.6734083890914917
1772563753520945700,1.151945556640625,0.9893094301223755,-3.28959059715271,1.8409136533737183
1772563753530943500,1.161943603515625,0.7897952198982239,-3.329035997390747,1.9578330516815186
1772563753540942300,1.1719423828125,0.5541521906852722,-3.364142894744873,2.0273706912994385
1772563753550940400,1.1819404296875,0.3500373661518097,-3.3667893409729004,2.054680585861206
1772563753560938500,1.1919384765625,0.232954740524292,-3.2465426921844482,2.0603342056274414
1772563753570936300,1.201936279296875,0.15084975957870483,-3.012446403503418,2.0519447326660156
1772563753580934400,1.211934326171875,0.11422489583492279,-2.8240694999694824,2.0020806789398193
1772563753590932500,1.221932373046875,0.15355338156223297,-2.6110634803771973,1.9365408420562744
1772563753600930800,1.231930908203125,0.24604812264442444,-2.3766472339630127,1.8593288660049438
1772563753610929700,1.2419296875,0.37630438804626465,-2.1901228427886963,1.8032314777374268
1772563753620927500,1.251927490234375,0.49783214926719666,-2.071746587753296,1.7666542530059814
1772563753630925600,1.261925537109375,0.5881508588790894,-2.014634609222412,1.736433982849121
1772563753640923600,1.271923583984375,0.6541569828987122,-1.9823601245880127,1.709566354751587
1772563753650921500,1.28192138671875,0.6942024230957031,-1.9300450086593628,1.6789791584014893
1772563753660919600,1.29191943359375,0.690939724445343,-1.836968183517456,1.6423418521881104
1772563753670917600,1.301917724609375,0.643853485584259,-1.7094523906707764,1.6156142950057983
1772563753680916500,1.31191650390625,0.5404422283172607,-1.5972033739089966,1.5864167213439941
1772563753690914600,1.32191455078125,0.29419833421707153,-1.5586820840835571,1.5829402208328247
1772563753700912600,1.33191259765625,0.06363755464553833,-1.3499999046325684,1.6204555034637451
1772563753710910500,1.341910400390625,-0.12092163413763046,-1.0627247095108032,1.6790891885757446
1772563753720908500,1.351908447265625,-0.22603058815002441,-0.7223482131958008,1.7279236316680908
1772563753730906600,1.36190673828125,-0.2479497492313385,-0.3365783989429474,1.7556953430175781
1772563753740904400,1.371904541015625,-0.189527690410614,0.00976533442735672,1.7557358741760254
1772563753750903600,1.381903564453125,-0.04362615570425987,0.2415064126253128,1.7192425727844238
1772563753760901600,1.391901611328125,0.14548850059509277,0.3490745425224304,1.634879469871521
1772563753770899700,1.401899658203125,0.3532520830631256,0.2907896637916565,1.4937807321548462
1772563753780897500,1.4118974609375,0.5535293817520142,0.033402249217033386,1.3375837802886963
1772563753790895600,1.4218955078125,0.7262087464332581,-0.3481754660606384,1.1665632724761963
1772563753800893400,1.4318935546875,0.8480289578437805,-0.8342289924621582,0.9843540787696838
1772563753810891500,1.4418916015625,0.9139363765716553,-1.3444381952285767,0.7573025822639465
1772563753820890600,1.451890625,0.8988357186317444,-1.7616475820541382,0.4656813442707062
1772563753830888700,1.461888671875,0.8121708631515503,-2.0016260147094727,0.21282751858234406
1772563753840886500,1.471886474609375,0.7094698548316956,-1.9193265438079834,-0.0023357472382485867
1772563753850884600,1.481884521484375,0.5838776230812073,-1.8094890117645264,-0.15456469357013702
1772563753860882700,1.491882568359375,0.407843679189682,-1.843493938446045,-0.23325668275356293
1772563753870880500,1.501880615234375,0.2258184850215912,-1.8450947999954224,-0.27336737513542175
1772563753880878600,1.511878662109375,0.05409333109855652,-1.7287768125534058,-0.30019140243530273
1772563753890877700,1.521877685546875,-0.11669012904167175,-1.5532273054122925,-0.3231164216995239
1772563753900875500,1.53187548828125,-0.31525105237960815,-1.4076318740844727,-0.3442572355270386
1772563753910873600,1.54187353515625,-0.5262432098388672,-1.2229267358779907,-0.3967641294002533
1772563753920871700,1.55187158203125,-0.7549614310264587,-0.9642791152000427,-0.4987611472606659
1772563753930869500,1.561869384765625,-1.0290462970733643,-0.5946843028068542,-0.6483940482139587
1772563753940867600,1.57186767578125,-1.3235567808151245,-0.1384027600288391,-0.8216498494148254
1772563753950865700,1.58186572265625,-1.5815727710723877,0.30180737376213074,-0.9698970913887024
1772563753960863500,1.591863525390625,-1.7862704992294312,0.7335367202758789,-1.087280035018921
1772563753970862600,1.601862548828125,-1.9423027038574219,1.137235164642334,-1.1508808135986328
1772563753980860700,1.611860595703125,-2.0461528301239014,1.4755284786224365,-1.1624864339828491
1772563753990858500,1.6218583984375,-2.1502861976623535,1.770476222038269,-1.1713762283325195
1772563754000856600,1.631856689453125,-2.2510063648223877,2.0405309200286865,-1.1936900615692139
1772563754010854700,1.641854736328125,-2.3332111835479736,2.2771897315979004,-1.236340880393982
1772563754020852500,1.6518525390625,-2.3859171867370605,2.4605841636657715,-1.2955902814865112
1772563754030850600,1.6618505859375,-2.400946617126465,2.5733282566070557,-1.3622562885284424
1772563754040849700,1.671849609375,-2.3394877910614014,2.453228235244751,-1.4336388111114502
1772563754050847700,1.68184765625,-2.2174015045166016,2.1544835567474365,-1.5413106679916382
1772563754060845600,1.691845458984375,-2.107628345489502,1.791534662246704,-1.6284356117248535
1772563754070843600,1.70184375,-2.018582820892334,1.4307442903518677,-1.6229444742202759
1772563754080841500,1.711841552734375,-1.9297914505004883,1.2187482118606567,-1.501400113105774
1772563754090839600,1.721839599609375,-1.7924091815948486,1.1282881498336792,-1.319821834564209
1772563754100837600,1.731837646484375,-1.6801910400390625,0.8790408372879028,-1.1726229190826416
1772563754110836700,1.741836669921875,-1.6278913021087646,0.4490862786769867,-0.941809892654419
1772563754120834600,1.75183447265625,-1.3505710363388062,-0.42865630984306335,-0.8602619171142578
1772563754130832600,1.76183251953125,-1.0049148797988892,-1.2718852758407593,-0.715451180934906
1772563754140830700,1.771830810546875,-0.7612705230712891,-1.988517165184021,-0.47970741987228394
1772563754150828500,1.78182861328125,-0.4138944149017334,-2.753852605819702,-0.23687292635440826
1772563754160826600,1.79182666015625,-0.08188847452402115,-3.3640077114105225,0.02574479952454567
1772563754170824700,1.80182470703125,0.1874106377363205,-3.612323760986328,0.2961438000202179
1772563754180823600,1.811823486328125,0.37100929021835327,-3.5478620529174805,0.5572364330291748
1772563754190821600,1.821821533203125,0.3279813826084137,-3.4100964069366455,0.7851636409759521
1772563754200819700,1.83181982421875,0.3516235649585724,-3.1505002975463867,0.9775789380073547
1772563754210817500,1.841817626953125,0.37509238719940186,-2.7166078090667725,1.0617071390151978
1772563754220815600,1.851815673828125,0.3139197528362274,-2.3538529872894287,1.1209053993225098
1772563754230813700,1.861813720703125,0.2779468297958374,-2.135427236557007,1.149879813194275
1772563754240811500,1.8718115234375,0.2645731270313263,-1.8581697940826416,1.0713914632797241
1772563754250809600,1.8818095703125,0.25798606872558594,-1.704230785369873,0.9238539934158325
1772563754260808700,1.89180859375,0.13654069602489471,-1.8701096773147583,0.6750025749206543
1772563754270806500,1.901806640625,0.0448635034263134,-2.128819227218628,0.4494285583496094
1772563754280804600,1.9118046875,-0.009457308799028397,-2.1246752738952637,0.18806421756744385
1772563754290802700,1.921802734375,-0.14600129425525665,-2.341266632080078,-0.08127430081367493
1772563754300800500,1.931800537109375,-0.1715412437915802,-2.2887115478515625,-0.3395319879055023
1772563754310798600,1.941798583984375,-0.1894179731607437,-2.214348793029785,-0.7240902781486511
1772563754320796700,1.951796630859375,-0.2213800549507141,-2.120427370071411,-1.1031997203826904
1772563754330795800,1.961795654296875,-0.4081736207008362,-2.2244110107421875,-1.3275476694107056
1772563754340793600,1.971793701171875,-0.37844255566596985,-1.4679956436157227,-1.0747036933898926
1772563754350791700,1.981791748046875,-0.3192814886569977,-0.23931704461574554,-0.7686401605606079
1772563754360789500,1.99178955078125,-0.31741172075271606,0.80301433801651,-0.44079071283340454
1772563754370787600,2.00178759765625,-0.3690629303455353,1.499290108680725,-0.1689048707485199
1772563754380785700,2.01178564453125,-0.4912737309932709,1.7460418939590454,0.00650561461225152
1772563754390783500,2.021783447265625,-0.603905975818634,1.6852664947509766,0.1062798798084259
1772563754400782600,2.031782470703125,-0.6066952347755432,1.3288249969482422,0.1636032611131668
1772563754410780700,2.04178076171875,-0.5288206934928894,0.6894180774688721,0.17971698939800262
1772563754420778800,2.05177880859375,-0.5196070671081543,0.2806774973869324,0.15880416333675385
1772563754430776600,2.061776611328125,-0.4896411597728729,0.2945016920566559,0.11137859523296356
1772563754440774700,2.071774658203125,-0.4237772226333618,0.09529227018356323,-0.01722949743270874
1772563754450772700,2.081772705078125,-0.31023600697517395,-0.01188291609287262,-0.11663571745157242
1772563754460770600,2.0917705078125,-0.14184698462486267,0.11243335157632828,-0.15759128332138062
1772563754470769700,2.101769775390625,0.07272151112556458,0.4007676839828491,-0.15268494188785553
1772563754480767700,2.111767822265625,0.312120646238327,0.7759705185890198,-0.09852241724729538
1772563754490765600,2.121765625,0.49142012000083923,1.09297513961792,0.00440502492710948
1772563754500763600,2.131763671875,0.5870310068130493,1.2164783477783203,0.1291968822479248
1772563754510761700,2.14176171875,0.5883082747459412,1.1091634035110474,0.28320586681365967
1772563754520759600,2.151759521484375,0.481027215719223,0.781460165977478,0.4675109386444092
1772563754530757600,2.161757568359375,0.36168670654296875,0.45177868008613586,0.6344961524009705
1772563754540755700,2.171755615234375,0.2998431622982025,0.21556061506271362,0.7592625021934509
1772563754550754600,2.181754638671875,0.28442347049713135,0.12063810229301453,0.8414625525474548
1772563754560752600,2.191752685546875,0.2858985960483551,0.09709566831588745,0.8950974345207214
1772563754570750700,2.201750732421875,0.3016919493675232,0.12889941036701202,0.9373548626899719
1772563754580748500,2.21174853515625,0.3062930703163147,0.2006373256444931,0.9860697984695435
1772563754590746600,2.22174658203125,0.29184702038764954,0.27755075693130493,1.011411190032959
1772563754600745000,2.231744873046875,0.27018076181411743,0.2991665303707123,1.0005502700805664
1772563754610743000,2.241742919921875,0.2358294576406479,0.24492831528186798,0.9509661197662354
1772563754620742100,2.2517421875,0.19975769519805908,0.12278955429792404,0.8723717331886292
1772563754630740000,2.261739990234375,0.1615661084651947,-0.07087577879428864,0.7770326733589172
1772563754640738000,2.271738037109375,0.1424632966518402,-0.33069896697998047,0.6869339346885681
1772563754650736000,2.281736083984375,0.15301713347434998,-0.639019787311554,0.6140953898429871
1772563754660734000,2.29173388671875,0.20717576146125793,-0.9542965292930603,0.5664319396018982
1772563754670732000,2.30173193359375,0.27883395552635193,-1.1923472881317139,0.5603469014167786
1772563754680730000,2.311730224609375,0.3321830630302429,-1.298061490058899,0.608474612236023
1772563754690729200,2.321729248046875,0.365987628698349,-1.283395767211914,0.7098219990730286
1772563754700727000,2.33172705078125,0.3697173297405243,-1.2113333940505981,0.8619316220283508
1772563754710725000,2.34172509765625,0.34372618794441223,-1.1209243535995483,1.0469858646392822
1772563754720723000,2.351722900390625,0.2845745086669922,-1.0151032209396362,1.2347885370254517
1772563754730721000,2.361720947265625,0.20800811052322388,-0.9044150114059448,1.4230308532714844
1772563754740719000,2.371718994140625,0.13175739347934723,-0.790169358253479,1.5890997648239136
1772563754750717000,2.381717041015625,0.05438164621591568,-0.6694120764732361,1.728206753730774
1772563754760715000,2.391715087890625,0.008841801434755325,-0.5282862782478333,1.835566759109497
1772563754770714000,2.401714111328125,-0.018910203129053116,-0.4288768768310547,1.9242998361587524
1772563754780712200,2.411712158203125,-0.0332181379199028,-0.3833751678466797,1.9925545454025269
1772563754790710000,2.4217099609375,-0.020001402124762535,-0.3949410319328308,2.0251376628875732
1772563754800708000,2.4317080078125,0.009730600751936436,-0.43264204263687134,2.0244295597076416
1772563754810706200,2.4417060546875,0.0505259670317173,-0.5044875144958496,1.991875171661377
1772563754820704000,2.4517041015625,0.09883762896060944,-0.5932911038398743,1.9309438467025757
1772563754830702000,2.4617021484375,0.16463182866573334,-0.6877001523971558,1.842392086982727
1772563754840701200,2.471701171875,0.24001696705818176,-0.7672786116600037,1.738276720046997
1772563754850699000,2.481698974609375,0.316845178604126,-0.8230228424072266,1.6266908645629883
1772563754860697000,2.491697021484375,0.3852044939994812,-0.8489720821380615,1.523630142211914
1772563754870695200,2.501695068359375,0.4246602952480316,-0.8793854117393494,1.427976131439209
1772563754880693000,2.51169287109375,0.4488193988800049,-0.8902187943458557,1.3388934135437012
1772563754890691000,2.521691162109375,0.46157994866371155,-0.8819084167480469,1.2488106489181519
1772563754900689200,2.531689208984375,0.46339380741119385,-0.855371356010437,1.1638920307159424
1772563754910688000,2.54168798828125,0.44560471177101135,-0.8178372979164124,1.0870896577835083
1772563754920686000,2.55168603515625,0.39543893933296204,-0.6480960845947266,0.9863739013671875
1772563754930684200,2.56168408203125,0.18995662033557892,0.1225108653306961,0.2680426836013794
1772563754940682000,2.571681884765625,-0.22787034511566162,1.411944031715393,-1.270233154296875
1772563754950680000,2.58168017578125,-0.5362377166748047,1.945428490638733,-2.2836291790008545
1772563754960678100,2.59167822265625,-0.740760862827301,2.1062495708465576,-2.830970048904419
1772563754970676000,2.601676025390625,-0.8315954208374023,2.259793758392334,-3.089909791946411
1772563754980674000,2.611674072265625,-0.8545111417770386,2.3894433975219727,-3.1376755237579346
1772563754990673200,2.621673095703125,-0.8224714994430542,2.330536127090454,-3.0336692333221436
1772563755000671200,2.631671142578125,-0.7833321690559387,1.8530155420303345,-2.8636255264282227
1772563755010669000,2.6416689453125,-0.7171614170074463,1.1853281259536743,-2.6015639305114746
1772563755020667100,2.651667236328125,-0.5740311741828918,0.6640965342521667,-2.2461578845977783
1772563755030665000,2.6616650390625,-0.35434627532958984,0.273814857006073,-1.8711260557174683
1772563755040663000,2.6716630859375,-0.1092657744884491,0.022092018276453018,-1.5201362371444702
1772563755050661000,2.6816611328125,0.05281767249107361,-0.1924213469028473,-1.2082324028015137
1772563755060660200,2.69166015625,-0.041539452970027924,-0.42585498094558716,-0.9277880191802979
1772563755070658000,2.701657958984375,-0.2708227038383484,-0.5887663960456848,-0.6705133318901062
1772563755080656100,2.71165625,-0.511010468006134,-0.6555516719818115,-0.4343375563621521
1772563755090654200,2.721654296875,-0.7570753693580627,-0.6252097487449646,-0.23070213198661804
1772563755100652000,2.731652099609375,-0.9925214648246765,-0.5256831645965576,-0.05380818992853165
1772563755110650000,2.741650146484375,-1.199502944946289,-0.3616015315055847,0.08701550215482712
1772563755120648200,2.751648193359375,-1.3399813175201416,-0.14410388469696045,0.20138517022132874
1772563755130647000,2.76164697265625,-1.4228849411010742,0.15423327684402466,0.27448415756225586
1772563755140645000,2.77164501953125,-1.4585213661193848,0.5148569941520691,0.3228500187397003
1772563755150643200,2.781643310546875,-1.4778937101364136,0.8933941721916199,0.309426873922348
1772563755160641000,2.79164111328125,-1.5154486894607544,1.2028899192810059,0.26680317521095276
1772563755170639000,2.80163916015625,-1.5909661054611206,1.3938721418380737,0.18357057869434357
1772563755180637200,2.81163720703125,-1.6946258544921875,1.4510266780853271,0.06709162145853043
1772563755190635000,2.821635009765625,-1.7690479755401611,1.4272409677505493,-0.12410710006952286
1772563755200634000,2.831634033203125,-1.7696623802185059,1.354536533355713,-0.3932850658893585
1772563755210632200,2.841632080078125,-1.6684765815734863,1.225937843322754,-0.688574492931366
1772563755220630000,2.851630126953125,-1.459921956062317,1.064128041267395,-0.9990980625152588
1772563755230628000,2.861628173828125,-1.1004809141159058,0.8087713718414307,-1.1432993412017822
1772563755240626200,2.871626220703125,-0.7133913040161133,0.7592581510543823,-1.2742440700531006
1772563755250624000,2.8816240234375,-0.3986349403858185,0.6514555215835571,-1.4008095264434814
1772563755260622000,2.8916220703125,-0.1502121388912201,0.4565907120704651,-1.4558753967285156
1772563755270620200,2.9016201171875,0.00368714751675725,0.2224205732345581,-1.4760993719100952
1772563755280619300,2.911619384765625,0.06614930182695389,-0.03955943137407303,-1.4693912267684937
1772563755290617000,2.9216171875,0.02782801166176796,-0.3861972689628601,-1.4244024753570557
1772563755300615200,2.931615234375,-0.1087024062871933,-0.846275806427002,-1.3379710912704468
1772563755310613000,2.941613037109375,-0.34078705310821533,-1.4104712009429932,-1.2088360786437988
1772563755320611000,2.951611083984375,-0.6549521684646606,-2.0297482013702393,-1.024734377861023
1772563755330609200,2.961609130859375,-0.9741628766059875,-2.526244640350342,-0.801392674446106
1772563755340607000,2.97160693359375,-1.166452407836914,-2.690361499786377,-0.6243981719017029
1772563755350606000,2.981606201171875,-1.2040308713912964,-2.627861738204956,-0.501469075679779
1772563755360604200,2.991604248046875,-1.1191794872283936,-2.4868500232696533,-0.35438963770866394
1772563755370602200,3.001602294921875,-0.8090345859527588,-2.2859201431274414,-0.16540667414665222
1772563755380600000,3.01160009765625,-0.49070441722869873,-2.1502251625061035,0.014876620844006538
1772563755390598100,3.02159814453125,-0.14013256132602692,-2.2122247219085693,0.3076229989528656
1772563755400596200,3.03159619140625,0.18979890644550323,-2.4077565670013428,0.7605445384979248
1772563755410594000,3.041593994140625,0.4602956473827362,-2.760573625564575,1.2854094505310059
1772563755420592000,3.051592041015625,0.6251091957092285,-2.9393463134765625,1.7954450845718384
1772563755430591200,3.06159130859375,0.628665030002594,-3.010798931121826,2.1756341457366943
1772563755440589000,3.071589111328125,0.5811741948127747,-2.8483667373657227,2.4535627365112305
1772563755450587100,3.081587158203125,0.5685814619064331,-2.446007013320923,2.6722331047058105
1772563755460585200,3.091585205078125,0.5640237927436829,-1.9719796180725098,2.7909536361694336
1772563755470583000,3.1015830078125,0.49828633666038513,-1.9406509399414062,2.766490936279297
1772563755480581000,3.1115810546875,0.29814857244491577,-2.938508987426758,2.51558780670166
1772563755490579200,3.1215791015625,0.11195763945579529,-4.1116204261779785,2.0848073959350586
1772563755500578000,3.131578125,-0.03983764350414276,-4.372312068939209,1.6061365604400635
1772563755510576000,3.141576171875,-0.19453002512454987,-3.7534091472625732,1.1477758884429932
1772563755520574200,3.15157421875,-0.24795201420783997,-2.330471992492676,0.8388659358024597
1772563755530572000,3.161572021484375,-0.31185322999954224,-0.4291658401489258,0.4965517520904541
1772563755540570000,3.171570068359375,-0.4935944676399231,1.1216599941253662,-0.06492717564105988
1772563755550568200,3.181568115234375,-0.6678906679153442,2.2424685955047607,-0.5608799457550049
1772563755560566000,3.19156591796875,-0.651987612247467,2.849684476852417,-0.9062845706939697
1772563755570564900,3.20156494140625,-0.4728386700153351,2.9191718101501465,-1.1835401058197021
1772563755580563000,3.21156298828125,-0.16949975490570068,2.786698818206787,-1.3805370330810547
1772563755590561000,3.22156103515625,0.22891660034656525,2.646960735321045,-1.5163776874542236
1772563755600559400,3.231559326171875,0.6421844363212585,2.6083035469055176,-1.6136560440063477
1772563755610557400,3.241557373046875,0.9672600030899048,2.688803195953369,-1.6651034355163574
1772563755620555300,3.25155517578125,1.1367743015289307,2.741910457611084,-1.6783772706985474
1772563755630553300,3.26155322265625,1.1087794303894043,2.680203914642334,-1.6303099393844604
1772563755640551400,3.271551513671875,0.9363332390785217,2.4637837409973145,-1.5289108753204346
1772563755650550000,3.281550048828125,0.6910723447799683,2.111898899078369,-1.3922199010849
1772563755660548000,3.291548095703125,0.44355401396751404,1.6850881576538086,-1.2587110996246338
1772563755670546200,3.301546142578125,0.2849121689796448,1.3073028326034546,-1.1458503007888794
1772563755680544300,3.311544189453125,0.2195492833852768,1.0045182704925537,-1.0110032558441162
1772563755690542300,3.321542236328125,0.21376250684261322,0.6486494541168213,-0.8475700616836548
1772563755700540400,3.33154052734375,0.2714208960533142,0.2538447976112366,-0.6904875040054321
1772563755710538200,3.341538330078125,0.3966480791568756,-0.08986862003803253,-0.5423283576965332
1772563755720537000,3.351537109375,0.547997772693634,-0.3618606925010681,-0.3952282667160034
1772563755730535200,3.36153515625,0.7010144591331482,-0.5804433226585388,-0.2505810558795929
1772563755740533200,3.371533203125,0.8365886211395264,-0.7336673736572266,-0.09644411504268646
1772563755750531000,3.381531005859375,0.9411552548408508,-0.8174461722373962,0.06818584352731705
1772563755760529200,3.391529052734375,1.017325520515442,-0.8456364274024963,0.24463418126106262
1772563755770527200,3.40152734375,1.0649398565292358,-0.8604941964149475,0.4316677153110504
1772563755780525300,3.411525390625,1.0879449844360352,-0.8426616787910461,0.6198729872703552
1772563755790523400,3.4215234375,1.0870342254638672,-0.814295768737793,0.8079962730407715
1772563755800522200,3.431522216796875,1.0721712112426758,-0.7998667359352112,0.999034583568573
1772563755810520000,3.44152001953125,1.0485433340072632,-0.8067049384117126,1.1882593631744385
1772563755820518100,3.45151806640625,1.0187146663665771,-0.8255110383033752,1.3725612163543701
1772563755830516200,3.46151611328125,0.9863045811653137,-0.8598352074623108,1.549360752105713
1772563755840514300,3.471514404296875,0.9563425183296204,-0.926189661026001,1.715074896812439
1772563755850512400,3.481512451171875,0.9359402656555176,-1.0599937438964844,1.8730924129486084
1772563755860510500,3.491510498046875,0.9121297597885132,-1.2887392044067383,2.019510507583618
1772563755870509000,3.501509033203125,0.8653212189674377,-1.6061468124389648,2.155097246170044
1772563755880507100,3.511507080078125,0.7931004166603088,-1.9534552097320557,2.2756569385528564
1772563755890505200,3.521505126953125,0.689236581325531,-2.2841715812683105,2.380357503890991
1772563755900503000,3.5315029296875,0.6023980975151062,-2.5616698265075684,2.478694438934326
1772563755910501000,3.541501220703125,0.554293692111969,-2.7690863609313965,2.5760879516601562
1772563755920499200,3.551499267578125,0.5516644716262817,-2.907310724258423,2.6824710369110107
1772563755930497300,3.561497314453125,0.6400721073150635,-2.9934659004211426,2.8111658096313477
1772563755940495400,3.571495361328125,0.7898106575012207,-3.0632553100585938,2.9477031230926514
1772563755950494200,3.581494140625,0.9543564319610596,-3.1297199726104736,3.0991203784942627
1772563755960492000,3.591491943359375,1.0784800052642822,-3.1897635459899902,3.243436574935913
1772563755970490000,3.601489990234375,1.151564359664917,-3.20863938331604,3.3734145164489746
1772563755980488200,3.61148828125,1.178036093711853,-3.195080041885376,3.47068190574646
1772563755990486300,3.621486328125,1.164757251739502,-3.170660972595215,3.53446364402771
1772563756000484400,3.631484375,1.1057416200637817,-3.161283493041992,3.5675525665283203
1772563756010482400,3.641482421875,1.0008269548416138,-3.1553955078125,3.5624167919158936
1772563756020481300,3.651481201171875,0.8655160665512085,-3.130427837371826,3.5243730545043945
1772563756030479000,3.66147900390625,0.7179745435714722,-3.0314924716949463,3.433776617050171
1772563756040477200,3.671477294921875,0.5816205143928528,-2.7816596031188965,3.246661901473999
1772563756050475000,3.68147509765625,0.49100276827812195,-2.293148994445801,2.9313557147979736
1772563756060473000,3.69147314453125,0.3913946747779846,-0.8994687795639038,2.1378040313720703
1772563756070471200,3.70147119140625,0.14410869777202606,1.7823517322540283,0.518117368221283
1772563756080469200,3.71146923828125,-0.11106553673744202,3.672091245651245,-1.0169073343276978
1772563756090467300,3.72146728515625,-0.2187725454568863,4.0410614013671875,-2.030864953994751
1772563756100466200,3.731466064453125,-0.2948268949985504,3.6962575912475586,-2.6359097957611084
1772563756110464300,3.74146435546875,-0.3473566770553589,2.8881523609161377,-3.078240156173706
1772563756120462000,3.751462158203125,-0.45457589626312256,2.1877548694610596,-3.2847442626953125
1772563756130460200,3.761460205078125,-0.73795485496521,1.4517841339111328,-3.0636212825775146
1772563756140458200,3.771458251953125,-1.1536400318145752,0.6846064925193787,-2.581545114517212
1772563756150456000,3.7814560546875,-1.5398753881454468,0.12183820456266403,-2.11677622795105
1772563756160454400,3.791454345703125,-1.718755841255188,-0.15195637941360474,-1.716353178024292
1772563756170453200,3.801453369140625,-1.7299551963806152,-0.24259252846240997,-1.3748708963394165
1772563756180451000,3.811451171875,-1.6415584087371826,-0.22285252809524536,-1.0844697952270508
1772563756190449200,3.82144921875,-1.5339767932891846,-0.12065345793962479,-0.827285647392273
1772563756200447200,3.831447265625,-1.4181389808654785,0.025451792404055595,-0.5992955565452576
1772563756210445000,3.841445068359375,-1.2855721712112427,0.19751331210136414,-0.3906956911087036
1772563756220443100,3.851443115234375,-1.1526848077774048,0.3433086574077606,-0.21027801930904388
1772563756230441200,3.861441162109375,-1.046032428741455,0.40618616342544556,-0.07348556071519852
1772563756240439300,3.871439208984375,-0.9717475771903992,0.35414499044418335,0.004972787573933601
1772563756250438100,3.881438232421875,-0.9205674529075623,0.17668019235134125,0.03126884251832962
1772563756260436200,3.891436279296875,-0.8611981272697449,-0.09532292187213898,0.0275700856000185
1772563756270434000,3.90143408203125,-0.7914310693740845,-0.4317006766796112,0.0344301201403141
1772563756280432000,3.91143212890625,-0.7276901006698608,-0.802187442779541,0.05233708396553993
1772563756290430200,3.92143017578125,-0.680382251739502,-1.175703763961792,0.09175612777471542
1772563756300428000,3.931427978515625,-0.6475075483322144,-1.510359764099121,0.17277757823467255
1772563756310426000,3.941426025390625,-0.6233428120613098,-1.7908295392990112,0.2864532768726349
1772563756320425200,3.95142529296875,-0.5962337851524353,-1.9954307079315186,0.40045416355133057
1772563756330423300,3.96142333984375,-0.5659640431404114,-2.101923942565918,0.4980539381504059
1772563756340421000,3.971421142578125,-0.5319539904594421,-2.111729621887207,0.5875821709632874
1772563756350419200,3.981419189453125,-0.4918457269668579,-2.0546858310699463,0.7043132781982422
1772563756360417000,3.9914169921875,-0.4606896936893463,-1.9626576900482178,0.8580401539802551
1772563756370415000,4.0014150390625,-0.4532245695590973,-1.8762085437774658,1.0223666429519653
1772563756380413200,4.0114130859375,-0.46355220675468445,-1.8406349420547485,1.1899980306625366
1772563756390411300,4.021411376953125,-0.4577321410179138,-1.8595433235168457,1.3454922437667847
1772563756400410000,4.03141015625,-0.4233022630214691,-1.9074196815490723,1.4722291231155396
1772563756410408200,4.041408203125,-0.3808927536010742,-1.9866293668746948,1.5717229843139648
1772563756420406300,4.05140625,-0.3360368013381958,-2.0916812419891357,1.6452783346176147
1772563756430404000,4.061404052734375,-0.2963208258152008,-2.186835289001465,1.6978685855865479
1772563756440402200,4.071402099609375,-0.24521616101264954,-2.25504994392395,1.7251163721084595
1772563756450400300,4.081400146484375,-0.1926243156194687,-2.298276901245117,1.7337610721588135
1772563756460398000,4.091398193359375,-0.14507542550563812,-2.338658094406128,1.7206933498382568
1772563756470397200,4.101397216796875,-0.11185622215270996,-2.3881804943084717,1.6959680318832397
1772563756480395300,4.111395263671875,-0.0876542180776596,-2.4438281059265137,1.664832592010498
1772563756490393000,4.12139306640625,-0.07462789863348007,-2.4902143478393555,1.647066354751587
1772563756500391200,4.13139111328125,-0.060504890978336334,-2.498401641845703,1.6468045711517334
1772563756510389200,4.14138916015625,-0.045454829931259155,-2.4503841400146484,1.6606367826461792
1772563756520387000,4.151386962890625,-0.038301046937704086,-2.343585968017578,1.68501615524292
1772563756530385200,4.16138525390625,-0.03662645444273949,-2.1866226196289062,1.6955881118774414
1772563756540383200,4.17138330078125,-0.0318913571536541,-2.0326263904571533,1.6963661909103394
1772563756550382000,4.181382080078125,-0.03609462454915047,-1.9176698923110962,1.7149816751480103
1772563756560380200,4.191380126953125,-0.03310500830411911,-1.8025647401809692,1.768690824508667
1772563756570378200,4.201378173828125,-0.03208821266889572,-1.6692692041397095,1.8481703996658325
1772563756580376000,4.2113759765625,-0.02858908660709858,-1.5299545526504517,1.9328800439834595
1772563756590374100,4.2213740234375,-0.028366180136799812,-1.410885214805603,2.0086183547973633
1772563756600372500,4.23137255859375,-0.037061240524053574,-1.3405177593231201,2.0599758625030518
1772563756610370300,4.241370361328125,-0.05014535039663315,-1.3096623420715332,2.0880415439605713
1772563756620369400,4.251369384765625,-0.06166123226284981,-1.3062913417816162,2.087292194366455
1772563756630367500,4.261367431640625,-0.048350486904382706,-1.31251859664917,2.0644378662109375
1772563756640365600,4.271365478515625,-0.0443970263004303,-1.3351640701293945,2.018423318862915
1772563756650363400,4.28136328125,-0.06312703341245651,-1.401017189025879,1.9477124214172363
1772563756660361500,4.291361572265625,-0.08941589295864105,-1.5087374448776245,1.8593242168426514
1772563756670359300,4.301359375,-0.11446826159954071,-1.6497083902359009,1.7644586563110352
1772563756680357400,4.311357421875,-0.1191675066947937,-1.809838891029358,1.6781808137893677
1772563756690355500,4.32135546875,-0.10040739923715591,-1.9461402893066406,1.6193736791610718
1772563756700354600,4.3313544921875,-0.0689353346824646,-2.023123025894165,1.6009458303451538
1772563756710352400,4.341352294921875,-0.05034434050321579,-2.0542914867401123,1.623108983039856
1772563756720350500,4.3513505859375,-0.03377580642700195,-2.054781913757324,1.6729611158370972
1772563756730348500,4.3613486328125,-0.01803678832948208,-2.0495991706848145,1.740899920463562
1772563756740346400,4.371346435546875,-0.007063552737236023,-2.0189895629882812,1.8172273635864258
1772563756750344400,4.381344482421875,-0.0072422511875629425,-1.9534218311309814,1.895915150642395
1772563756760342500,4.391342529296875,-0.01340592373162508,-1.8668439388275146,1.9605361223220825
1772563756770341400,4.40134130859375,-0.0035058893263339996,-1.789650797843933,2.0018882751464844
1772563756780339500,4.41133935546875,0.028416994959115982,-1.731145977973938,2.008148193359375
1772563756790337500,4.421337646484375,0.0714733898639679,-1.691037654876709,1.9826260805130005
1772563756800335400,4.43133544921875,0.11404327303171158,-1.661960482597351,1.929107904434204
1772563756810333400,4.44133349609375,0.14844278991222382,-1.6236833333969116,1.8606619834899902
1772563756820331500,4.45133154296875,0.19089581072330475,-1.5728892087936401,1.7762101888656616
1772563756830329300,4.461329345703125,0.2271970957517624,-1.5532622337341309,1.690038800239563
1772563756840327400,4.471327392578125,0.23963144421577454,-1.5903100967407227,1.5969536304473877
1772563756850326500,4.481326416015625,0.22434596717357635,-1.643040418624878,1.5048466920852661
1772563756860324400,4.491324462890625,0.19901350140571594,-1.6564313173294067,1.4080313444137573
1772563756870322400,4.501322509765625,0.17146682739257812,-1.626313328742981,1.3112245798110962
1772563756880320500,4.511320556640625,0.14099381864070892,-1.5575717687606812,1.2159703969955444
1772563756890318300,4.521318359375,0.11037279665470123,-1.4720426797866821,1.1328976154327393
1772563756900316400,4.53131640625,0.07626920193433762,-1.37091863155365,1.0674786567687988
1772563756910314500,4.541314453125,0.04752570390701294,-1.2807048559188843,1.0307968854904175
1772563756920313600,4.551313720703125,0.02232181839644909,-1.2277662754058838,1.0246913433074951
1772563756930311400,4.5613115234375,0.013501960784196854,-1.2378066778182983,1.0449151992797852
1772563756940309500,4.5713095703125,0.02854115143418312,-1.3041702508926392,1.0896756649017334
1772563756950307300,4.581307373046875,0.07147743552923203,-1.4115004539489746,1.1483123302459717
1772563756960305400,4.591305419921875,0.12205645442008972,-1.5343286991119385,1.2154505252838135
1772563756970303500,4.601303466796875,0.16977843642234802,-1.6612565517425537,1.2931287288665771
1772563756980301300,4.61130126953125,0.2084776759147644,-1.7774739265441895,1.368348240852356
1772563756990299400,4.62129931640625,0.23424988985061646,-1.8477568626403809,1.4333977699279785
1772563757000298500,4.631298583984375,0.2398616522550583,-1.8808757066726685,1.4774723052978516
1772563757010296600,4.641296630859375,0.2257746011018753,-1.90092134475708,1.5161248445510864
1772563757020294400,4.65129443359375,0.19775813817977905,-1.9261207580566406,1.543470859527588
1772563757030292500,4.66129248046875,0.16774298250675201,-1.94830322265625,1.5750298500061035
1772563757040290600,4.67129052734375,0.13282090425491333,-1.9603058099746704,1.6007170677185059
1772563757050288400,4.681288330078125,0.09942406415939331,-1.9576743841171265,1.617976188659668
1772563757060286500,4.691286376953125,0.08277717232704163,-1.9315189123153687,1.628355860710144
1772563757070285600,4.70128564453125,0.05008287727832794,-1.9336131811141968,1.6262346506118774
1772563757080283400,4.711283447265625,0.00005811173468828201,-1.9757663011550903,1.6181122064590454
1772563757090281500,4.721281494140625,-0.028072591871023178,-2.025635242462158,1.6001667976379395
1772563757100279600,4.731279541015625,-0.042616963386535645,-2.1086528301239014,1.5802772045135498
1772563757110277400,4.74127734375,-0.045751772820949554,-2.1919970512390137,1.5566903352737427
1772563757120275500,4.751275390625,-0.06279472261667252,-2.2621538639068604,1.5504755973815918
1772563757130273500,4.7612734375,-0.07343831658363342,-2.259167432785034,1.572635531425476
1772563757140271400,4.771271240234375,-0.04560071974992752,-2.1750011444091797,1.612151861190796
1772563757150270500,4.7812705078125,-0.021236255764961243,-2.066394567489624,1.678551435470581
1772563757160268500,4.7912685546875,-0.024170685559511185,-1.967464566230774,1.7504072189331055
1772563757170266400,4.801266357421875,-0.04304610937833786,-1.8725789785385132,1.7989119291305542
1772563757180264400,4.811264404296875,-0.0830913633108139,-1.7674058675765991,1.823312759399414
1772563757190262500,4.821262451171875,-0.1428990364074707,-1.6490172147750854,1.8110102415084839
1772563757200260400,4.83126025390625,-0.214939683675766,-1.5365798473358154,1.769818663597107
1772563757210258400,4.841258544921875,-0.31953930854797363,-1.4475922584533691,1.6936136484146118
1772563757220256500,4.851256591796875,-0.44255784153938293,-1.4046210050582886,1.5831687450408936
1772563757230255600,4.861255615234375,-0.580367386341095,-1.3897581100463867,1.438553810119629
1772563757240253400,4.87125341796875,-0.7098697423934937,-1.3664541244506836,1.2737135887145996
1772563757250251500,4.88125146484375,-0.8285987377166748,-1.333394169807434,1.10409414768219
1772563757260249300,4.891249267578125,-0.9220107197761536,-1.267939805984497,0.9318012595176697
1772563757270247400,4.901247314453125,-0.9672687649726868,-1.1637507677078247,0.7805238366127014
1772563757280245500,4.91124560546875,-0.9752631783485413,-1.0216064453125,0.6523891687393188
1772563757290243300,4.921243408203125,-0.9454285502433777,-0.8410922884941101,0.5494646430015564
1772563757300242400,4.931242431640625,-0.8890289664268494,-0.6200158596038818,0.4666186571121216
1772563757310240500,4.941240478515625,-0.8162059187889099,-0.38928353786468506,0.39844706654548645
1772563757320238600,4.951238525390625,-0.7403201460838318,-0.11956272274255753,0.3357264995574951
1772563757330236400,4.961236328125,-0.6911070942878723,0.1333065629005432,0.28827452659606934
1772563757340234500,4.971234375,-0.6923413872718811,0.33605942130088806,0.26339250802993774
1772563757350232600,4.981232666015625,-0.7342275381088257,0.4612756669521332,0.2516535818576813
1772563757360230400,4.99123046875,-0.7885751724243164,0.39007508754730225,0.18770618736743927
1772563757370228500,5.001228515625,-0.6834191679954529,-0.756743848323822,-0.2965209484100342
1772563757380227600,5.0112275390625,-0.4913145899772644,-2.3459830284118652,-0.8267969489097595
1772563757390225400,5.021225341796875,-0.17924486100673676,-3.7611160278320312,-1.3723907470703125
1772563757400223500,5.031223388671875,0.06006621569395065,-4.217750072479248,-1.7242162227630615
1772563757410221600,5.0412216796875,0.12309551984071732,-4.247198104858398,-1.9001374244689941
1772563757420219400,5.051219482421875,0.12621620297431946,-4.330374240875244,-1.9054864645004272
1772563757430217500,5.061217529296875,0.11739794909954071,-4.416788578033447,-1.7392592430114746
1772563757440215600,5.071215576171875,0.08330991864204407,-4.408934593200684,-1.3688410520553589
1772563757450213400,5.08121337890625,-0.10152705013751984,-4.320862293243408,-0.6572917699813843
1772563757460212500,5.09121240234375,-0.44452545046806335,-3.7333106994628906,0.1011820137500763
1772563757470210600,5.10121044921875,-0.7387813329696655,-2.640439033508301,0.6115747094154358
1772563757480208400,5.11120849609375,-0.9065436124801636,-1.3487026691436768,0.9456754922866821
1772563757490206500,5.12120654296875,-1.0138205289840698,-0.3647163212299347,1.1565486192703247
1772563757500204500,5.13120458984375,-0.9986457228660583,0.3334396779537201,1.2406058311462402
1772563757510202400,5.141202392578125,-1.0195695161819458,0.8074893355369568,1.1979830265045166
1772563757520200400,5.151200439453125,-0.9450843930244446,1.1326344013214111,1.0881015062332153
1772563757530198500,5.161198486328125,-0.8463013172149658,1.3335182666778564,0.8908690214157104
1772563757540197400,5.171197265625,-0.7513775825500488,1.4748022556304932,0.6409245133399963
1772563757550195500,5.181195556640625,-0.6784514784812927,1.5985699892044067,0.416949987411499
1772563757560193500,5.191193603515625,-0.6262632012367249,1.6661221981048584,0.2160915583372116
1772563757570191400,5.20119140625,-0.5600512027740479,1.589465618133545,0.008084822446107864
1772563757580189400,5.211189453125,-0.44217556715011597,1.506887674331665,-0.16398310661315918
1772563757590187500,5.2211875,-0.2560829222202301,1.4312305450439453,-0.3031812012195587
1772563757600185300,5.231185302734375,-0.035314951092004776,1.2726296186447144,-0.42663872241973877
1772563757610184000,5.241183837890625,0.1126374900341034,0.9442517161369324,-0.512985110282898
1772563757620182000,5.25118212890625,0.15017692744731903,0.46320009231567383,-0.5427030920982361
1772563757630180000,5.26118017578125,0.09713954478502274,-0.08963404595851898,-0.5077651143074036
1772563757640178000,5.271177978515625,0.11554348468780518,-0.715786337852478,-0.3538636863231659
1772563757650176000,5.281176025390625,0.25254979729652405,-1.417412281036377,-0.06709849834442139
1772563757660174000,5.291174072265625,0.3286290168762207,-1.564059853553772,0.28157204389572144
1772563757670172000,5.301171875,0.28737637400627136,-0.9728354215621948,0.4726666510105133
1772563757680170000,5.311169921875,0.20783719420433044,-0.30954769253730774,0.3999652564525604
1772563757690169000,5.321169189453125,0.12422671914100647,0.08308801800012589,0.16462330520153046
1772563757700167000,5.3311669921875,0.11974701285362244,0.4042922258377075,-0.04614170640707016
1772563757710165000,5.3411650390625,0.22930680215358734,0.6544895172119141,-0.18514060974121094
1772563757720163000,5.3511630859375,0.4010966122150421,0.8523116111755371,-0.2947389781475067
1772563757730161000,5.361160888671875,0.5654682517051697,1.1363118886947632,-0.38615837693214417
1772563757740159000,5.371158935546875,0.6431961059570312,1.4954779148101807,-0.49760764837265015
1772563757750157000,5.381156982421875,0.6133332848548889,1.7361674308776855,-0.6023551225662231
1772563757760156000,5.391156005859375,0.5248500108718872,1.7671200037002563,-0.667969822883606
1772563757770154000,5.401154052734375,0.40537765622138977,1.6487133502960205,-0.6573746204376221
1772563757780152000,5.411152099609375,0.2530524432659149,1.396448016166687,-0.5896576046943665
1772563757790150000,5.42114990234375,0.10410850495100021,1.1074857711791992,-0.4951370060443878
1772563757800148000,5.43114794921875,-0.018091488629579544,0.8809846043586731,-0.40340131521224976
1772563757810146000,5.44114599609375,-0.08248485624790192,0.7176497578620911,-0.32143348455429077
1772563757820143900,5.451143798828125,-0.11058761179447174,0.6031373143196106,-0.2741476595401764
1772563757830142000,5.461141845703125,-0.13209156692028046,0.5279759764671326,-0.244439035654068
1772563757840141000,5.47114111328125,-0.15674667060375214,0.4617941975593567,-0.2261998951435089
1772563757850139100,5.48113916015625,-0.16815565526485443,0.4024166166782379,-0.20083408057689667
1772563757860137000,5.491136962890625,-0.1666346788406372,0.2973767817020416,-0.1590484082698822
1772563757870135000,5.501135009765625,-0.1421823352575302,0.14106307923793793,-0.10592925548553467
1772563757880132900,5.5111328125,-0.09401768445968628,-0.06452179700136185,-0.04319543018937111
1772563757890131000,5.521130859375,-0.021945884451270103,-0.28399157524108887,0.023993195965886116
1772563757900129000,5.53112890625,0.06238225847482681,-0.4718863368034363,0.10163246095180511
1772563757910126800,5.541126953125,0.1146334782242775,-0.6151028871536255,0.19732782244682312
1772563757920126000,5.5511259765625,0.12023597210645676,-0.7133991122245789,0.3139897286891937
1772563757930124000,5.5611240234375,0.08356291055679321,-0.7516024112701416,0.4403873682022095
1772563757940122000,5.5711220703125,0.018833551555871964,-0.748351514339447,0.5648810863494873
1772563757950120000,5.581119873046875,-0.043501462787389755,-0.7437522411346436,0.6850039958953857
1772563757960118000,5.591117919921875,-0.07919255644083023,-0.7290009260177612,0.8023489713668823
1772563757970116000,5.6011162109375,-0.0783318281173706,-0.6959316730499268,0.9165104031562805
1772563757980114000,5.611114013671875,-0.05766313895583153,-0.6116892099380493,1.0085114240646362
1772563757990112000,5.621112060546875,-0.02374058961868286,-0.49114924669265747,1.079942226409912
1772563758000111000,5.631111083984375,0.027292288839817047,-0.35773465037345886,1.1384810209274292
1772563758010109000,5.64110888671875,0.08167776465415955,-0.2502042055130005,1.1759878396987915
1772563758020107000,5.65110693359375,0.1420491337776184,-0.18047483265399933,1.2022457122802734
1772563758030105000,5.66110498046875,0.21047718822956085,-0.1568230390548706,1.2142728567123413
1772563758040103000,5.67110302734375,0.27702566981315613,-0.17081351578235626,1.211190938949585
1772563758050101000,5.68110107421875,0.35183653235435486,-0.23475441336631775,1.1871851682662964
1772563758060099000,5.69109912109375,0.426475465297699,-0.32527047395706177,1.1375060081481934
1772563758070097000,5.701096923828125,0.5013933777809143,-0.4100082814693451,1.0709266662597656
1772563758080096000,5.711095947265625,0.5703730583190918,-0.48069047927856445,0.995918869972229
1772563758090094000,5.721093994140625,0.6370852589607239,-0.5350127816200256,0.9231554865837097
1772563758100093200,5.73109326171875,0.6902104020118713,-0.5746020674705505,0.854003369808197
1772563758110092000,5.741092041015625,0.7342942357063293,-0.612004280090332,0.8029055595397949
1772563758120090000,5.751090087890625,0.7742645144462585,-0.651320219039917,0.7619749307632446
1772563758130088200,5.761088134765625,0.8095915913581848,-0.6974296569824219,0.743340253829956
1772563758140086000,5.7710859375,0.8401396870613098,-0.7137534022331238,0.7471569776535034
1772563758150084000,5.781083984375,0.854550302028656,-0.6872488260269165,0.7892959117889404
1772563758160082200,5.791082275390625,0.852219820022583,-0.676813006401062,0.8536227345466614
1772563758170080000,5.801080078125,0.8274129629135132,-0.6701977252960205,0.9302536249160767
1772563758180078000,5.811078125,0.7715744376182556,-0.6621207594871521,1.022238850593567
1772563758190077200,5.8210771484375,0.6920610070228577,-0.6255918145179749,1.100565791130066
1772563758200075000,5.831074951171875,0.5816892385482788,-0.5661720037460327,1.1788263320922852
1772563758210073000,5.841072998046875,0.44773223996162415,-0.49498409032821655,1.2579530477523804
1772563758220071200,5.8510712890625,0.29416602849960327,-0.42251843214035034,1.3284921646118164
1772563758230069000,5.861069091796875,0.14397171139717102,0.30425024032592773,1.2601314783096313
1772563758240067000,5.871067138671875,-0.14535027742385864,4.483266353607178,0.20257018506526947
1772563758250065200,5.881065185546875,-0.8402597904205322,6.120517253875732,-1.0984654426574707
1772563758260063000,5.89106298828125,-1.5654634237289429,4.665129661560059,-2.2417776584625244
1772563758270062000,5.90106201171875,-1.7196623086929321,2.483065366744995,-2.957772970199585
1772563758280060200,5.91106005859375,-1.3782744407653809,0.6898970603942871,-3.2380642890930176
1772563758290058200,5.921058349609375,-0.9657565951347351,-0.31375348567962646,-3.275083065032959
1772563758300056000,5.93105615234375,-0.7144986391067505,-0.7907029390335083,-3.1130402088165283
1772563758310054100,5.94105419921875,-0.5777631998062134,-0.9058058261871338,-2.817532539367676
1772563758320052200,5.95105224609375,-0.4959107041358948,-0.8089247941970825,-2.4560136795043945
1772563758330050000,5.961050048828125,-0.47736576199531555,-0.5555468797683716,-2.057375431060791
1772563758340048100,5.971048095703125,-0.554524838924408,-0.20689967274665833,-1.651694893836975
1772563758350047200,5.981047119140625,-0.7196581363677979,0.21228134632110596,-1.2629886865615845
1772563758360045000,5.991045166015625,-0.9460369944572449,0.609631359577179,-0.9061649441719055
1772563758370043100,6.001043212890625,-1.1652247905731201,0.9740734696388245,-0.5845595002174377
1772563758380041200,6.011041259765625,-1.3238118886947632,1.3174220323562622,-0.3224720060825348
1772563758390039000,6.0210390625,-1.315889835357666,1.4422030448913574,-0.1557815670967102
1772563758400037000,6.031037109375,-1.1539759635925293,1.1795865297317505,-0.06603603065013885
1772563758410035200,6.04103515625,-0.9725978970527649,0.5617057681083679,0.010380711406469345
1772563758420033000,6.051032958984375,-0.7237498164176941,-0.2758427560329437,0.03372327238321304
1772563758430032100,6.0610322265625,-0.4963555335998535,-1.0141386985778809,0.056724198162555695
1772563758440030200,6.0710302734375,-0.3651215136051178,-1.4172132015228271,0.13084283471107483
1772563758450028000,6.081028076171875,-0.2901069223880768,-1.5373244285583496,0.27999502420425415
1772563758460026000,6.091026123046875,-0.26560941338539124,-1.4905004501342773,0.4646467864513397
1772563758470024200,6.101024169921875,-0.27002331614494324,-1.3453307151794434,0.6588327884674072
1772563758480022000,6.11102197265625,-0.2933891713619232,-1.1772891283035278,0.8412291407585144
1772563758490020000,6.12102001953125,-0.31979599595069885,-1.0279525518417358,1.0121387243270874
1772563758500018200,6.13101806640625,-0.3222832977771759,-0.908094584941864,1.1610947847366333
1772563758510017000,6.14101708984375,-0.30390214920043945,-0.823296308517456,1.2696563005447388
1772563758520015000,6.15101513671875,-0.2672155201435089,-0.803739607334137,1.3284506797790527
1772563758530013200,6.16101318359375,-0.2600305676460266,-0.8699116706848145,1.323673963546753
1772563758540011000,6.171010986328125,-0.305329293012619,-0.9868701100349426,1.2585978507995605
1772563758550009000,6.181009033203125,-0.4037991464138031,-1.0785542726516724,1.14971125125885
1772563758560007200,6.191007080078125,-0.5187510251998901,-1.0982520580291748,1.0268319845199585
1772563758570005000,6.2010048828125,-0.5781014561653137,-1.0727509260177612,0.9021875262260437
1772563758580004000,6.211004150390625,-0.5441201329231262,-0.9994868040084839,0.7854519486427307
1772563758590002200,6.221002197265625,-0.4502282440662384,-0.904129683971405,0.685227632522583
1772563758599999700,6.230999755859375,-0.3388984203338623,-0.843699038028717,0.6076194047927856
1772563758609997800,6.240997802734375,-0.19828778505325317,-0.8735059499740601,0.5576483607292175
1772563758619996000,6.250995849609375,-0.05207981914281845,-0.9670285582542419,0.5441976189613342
1772563758629993700,6.26099365234375,0.07605524361133575,-1.0978952646255493,0.5799577832221985
1772563758639991800,6.27099169921875,0.1393386572599411,-1.2738497257232666,0.641947329044342
1772563758649990000,6.280989990234375,0.1645481437444687,-1.377084493637085,0.7170830965042114
1772563758659988700,6.29098876953125,0.15552663803100586,-1.2647215127944946,0.8091391921043396
1772563758669986800,6.30098681640625,0.07590238004922867,-1.0136224031448364,0.9152193069458008
1772563758679985000,6.31098486328125,-0.041823193430900574,-0.7534273862838745,1.056295394897461
1772563758689982700,6.320982666015625,-0.1824234575033188,-0.5927993655204773,1.1909615993499756
1772563758699980800,6.330980712890625,-0.29629287123680115,-0.5882567167282104,1.2416962385177612
1772563758709979000,6.340978759765625,-0.32903751730918884,-0.7709596753120422,1.123146414756775
1772563758719976700,6.350976806640625,-0.28197821974754333,-1.187446117401123,0.8206700682640076
1772563758729974800,6.360974853515625,-0.14992882311344147,-1.7835259437561035,0.43823668360710144
1772563758739974000,6.370973876953125,0.02141954004764557,-2.676138401031494,0.06937307864427567
1772563758749971700,6.3809716796875,0.14499527215957642,-3.7020692825317383,-0.22781093418598175
1772563758759969800,6.3909697265625,0.2961500585079193,-3.5279104709625244,-0.07327279448509216
1772563758769967900,6.4009677734375,0.38023003935813904,-1.6634130477905273,0.5439528822898865
1772563758779965700,6.410965576171875,0.5115002989768982,0.2566108703613281,1.0773680210113525
1772563758789963800,6.4209638671875,0.7803874611854553,1.1902294158935547,1.2392545938491821
1772563758799961900,6.4309619140625,1.0907472372055054,1.3491352796554565,1.160170078277588
1772563758809959700,6.440959716796875,1.2662724256515503,0.794789731502533,0.9911943078041077
1772563758819958800,6.450958740234375,1.2235920429229736,-0.13447535037994385,0.8354415893554688
1772563758829956900,6.460956787109375,1.0675547122955322,-1.2280384302139282,0.6976068019866943
1772563758839955000,6.470954833984375,0.9029789566993713,-2.3128225803375244,0.5470489859580994
1772563758849952800,6.480952880859375,0.8219789266586304,-3.0370185375213623,0.3484501540660858
1772563758859950800,6.490950927734375,0.8341203927993774,-3.270892381668091,0.16628777980804443
1772563758869948700,6.50094873046875,0.9104186296463013,-3.1495680809020996,0.03683418035507202
1772563758879946800,6.51094677734375,1.0205594301223755,-2.928452253341675,-0.0004490981809794903
1772563758889944800,6.52094482421875,1.1042858362197876,-2.7040627002716064,0.05730261281132698
1772563758899944000,6.53094384765625,1.0645757913589478,-2.514129400253296,0.17275486886501312
1772563758909941800,6.540941650390625,0.8447091579437256,-2.3837177753448486,0.34479641914367676
1772563758919939800,6.55093994140625,0.5185019969940186,-2.2764015197753906,0.5474697947502136
1772563758929938000,6.56093798828125,0.17555451393127441,-2.12624192237854,0.7577639222145081
1772563758939935700,6.570935791015625,-0.0754985362291336,-1.8963524103164673,0.960090160369873
1772563758949933800,6.580933837890625,-0.17149190604686737,-1.5965094566345215,1.1551942825317383
1772563758959932000,6.590931884765625,-0.107594795525074,-1.2575713396072388,1.3407683372497559
1772563758969930800,6.6009306640625,0.06241234764456749,-0.9448323249816895,1.527552843093872
1772563758979928800,6.6109287109375,0.27190065383911133,-0.6955785751342773,1.7152601480484009
1772563758989927000,6.620927001953125,0.415835440158844,-0.5308005213737488,1.8884114027023315
1772563758999924700,6.6309248046875,0.501490592956543,-0.5349114537239075,2.026067018508911
1772563759009922800,6.6409228515625,0.5633294582366943,-0.7457041144371033,2.1374728679656982
1772563759019921000,6.6509208984375,0.5897865891456604,-1.1414233446121216,2.2324697971343994
1772563759029918700,6.660918701171875,0.554608941078186,-1.6340948343276978,2.318190097808838
1772563759039916800,6.670916748046875,0.46292227506637573,-2.124453544616699,2.394413948059082
1772563759049916000,6.680916015625,0.32327595353126526,-2.5697827339172363,2.458273410797119
1772563759059913700,6.690913818359375,0.16122739017009735,-2.9374470710754395,2.5284242630004883
1772563759069911800,6.700911865234375,-0.03035588189959526,-3.2199180126190186,2.605820417404175
1772563759079910000,6.710909912109375,-0.2121465504169464,-3.4022486209869385,2.67765736579895
1772563759089907700,6.72090771484375,-0.44337764382362366,-3.492025375366211,2.733229398727417
1772563759099905800,6.73090576171875,-0.7942606210708618,-3.6123924255371094,2.726094961166382
1772563759109904000,6.74090380859375,-1.187679409980774,-3.722219467163086,2.6343472003936768
1772563759119901700,6.750901611328125,-1.5568784475326538,-3.7191457748413086,2.531750202178955
1772563759129900800,6.76090087890625,-1.6571662425994873,-3.5977706909179688,2.476470708847046
1772563759139899000,6.77089892578125,-1.5314898490905762,-3.3676061630249023,2.4375953674316406
1772563759149896700,6.780896728515625,-1.2527985572814941,-2.9314143657684326,2.413490056991577
1772563759159894800,6.790894775390625,-0.8665938377380371,-1.765777826309204,2.374265432357788
1772563759169892900,6.800892822265625,-0.5009130835533142,-0.10389324277639389,2.218276262283325
1772563759179890700,6.810890625,-0.1973857283592224,0.8267723917961121,1.795072317123413
1772563759189888800,6.820888671875,0.008685952052474022,0.7082542777061462,1.2690892219543457
1772563759199886800,6.830886962890625,0.04052319377660751,-0.2874559462070465,0.7133023142814636
1772563759209886000,6.840885986328125,0.005388908088207245,-1.5498629808425903,0.1889578402042389
1772563759219883800,6.8508837890625,0.047366440296173096,-2.570188283920288,-0.19521407783031464
1772563759229881900,6.8608818359375,0.13248638808727264,-2.9600014686584473,-0.34875649213790894
1772563759239880000,6.8708798828125,0.240608811378479,-2.9641337394714355,-0.39379391074180603
1772563759249877800,6.880877685546875,0.34700530767440796,-2.9217331409454346,-0.35521748661994934
1772563759259875800,6.890875732421875,0.4208974242210388,-2.9050662517547607,-0.25520288944244385
1772563759269873700,6.900873779296875,0.4401704668998718,-2.8787269592285156,-0.11241189390420914
1772563759279871700,6.910871826171875,0.3908693194389343,-2.8192756175994873,0.047913260757923126
1772563759289870800,6.920870849609375,0.24174456298351288,-2.804534912109375,0.22732402384281158
1772563759299869000,6.930868896484375,0.01683751679956913,-2.7920048236846924,0.40443184971809387
1772563759309866800,6.94086669921875,-0.18616725504398346,-2.7343766689300537,0.5516428351402283
1772563759319864800,6.95086474609375,-0.34684625267982483,-2.6494290828704834,0.6743062138557434
1772563759329863000,6.96086279296875,-0.4572491943836212,-2.542283296585083,0.7829685211181641
1772563759339860700,6.97086083984375,-0.5399460196495056,-2.4472925662994385,0.8910959959030151
1772563759349858800,6.98085888671875,-0.6215333342552185,-2.3856256008148193,1.0021476745605469
1772563759359857000,6.99085693359375,-0.7218273282051086,-2.3522942066192627,1.0516204833984375
1772563759369855700,7.000855712890625,-0.8399041891098022,-2.461165189743042,0.8724435567855835
1772563759379853800,7.010853759765625,-0.9224724173545837,-2.625664710998535,0.5419917702674866
1772563759389852000,7.020851806640625,-0.944811224937439,-2.652217149734497,0.2671806812286377
1772563759399849700,7.030849609375,-0.9285597205162048,-2.4809837341308594,0.12130427360534668
1772563759409847800,7.040847900390625,-0.9491137266159058,-2.1462156772613525,0.07658367604017258
1772563759419846000,7.050845947265625,-1.0108665227890015,-1.824938178062439,0.1222696527838707
1772563759429843700,7.06084375,-1.1068955659866333,-1.5760124921798706,0.23800796270370483
1772563759439841800,7.070841796875,-1.218757152557373,-1.458855390548706,0.4037629961967468
1772563759449841000,7.0808408203125,-1.31632661819458,-1.4710694551467896,0.6200055480003357
1772563759459838700,7.090838623046875,-1.3835301399230957,-1.542587399482727,0.8680246472358704
1772563759469836800,7.1008369140625,-1.3944989442825317,-1.6241790056228638,1.095587968826294
1772563759479835000,7.1108349609375,-1.394370675086975,-1.7622061967849731,1.2777386903762817
1772563759489832700,7.120832763671875,-1.4301947355270386,-1.924475073814392,1.4031203985214233
1772563759499830800,7.130830810546875,-1.530760407447815,-2.056870937347412,1.4926464557647705
1772563759509828900,7.140828857421875,-1.628028392791748,-2.0871622562408447,1.538028359413147
1772563759519826700,7.15082666015625,-1.6743992567062378,-2.0096094608306885,1.5553035736083984
1772563759529825800,7.16082568359375,-1.6170341968536377,-1.8160148859024048,1.5582267045974731
1772563759539823900,7.170823974609375,-1.4905121326446533,-1.537143588066101,1.5472835302352905
1772563759549822000,7.180822021484375,-1.3963112831115723,-1.325324296951294,1.5553691387176514
1772563759559819800,7.19081982421875,-1.3833903074264526,-1.289771318435669,1.594859004020691
1772563759569817900,7.20081787109375,-1.4314130544662476,-1.42044198513031,1.6686173677444458
1772563759579815700,7.210815673828125,-1.4430456161499023,-1.621806025505066,1.7520869970321655
1772563759589813800,7.220813720703125,-1.4161885976791382,-1.8503711223602295,1.867870569229126
1772563759599811800,7.230811767578125,-1.3982256650924683,-2.1338462829589844,2.090956449508667
1772563759609811000,7.24081103515625,-1.443363070487976,-2.4457204341888428,2.268366575241089
1772563759619809000,7.25080908203125,-1.4406158924102783,-2.688162326812744,2.4309756755828857
1772563759629807000,7.26080712890625,-1.3022606372833252,-2.803798198699951,2.615737199783325
1772563759639805200,7.27080517578125,-1.170937418937683,-2.842557430267334,2.785810708999634
1772563759649803300,7.28080322265625,-1.1224801540374756,-2.851334571838379,2.887967109680176
1772563759659801000,7.290801025390625,-1.1399948596954346,-2.8561949729919434,2.943072557449341
1772563759669799200,7.300799072265625,-1.1547024250030518,-2.838148355484009,2.96234130859375
1772563759679797200,7.31079736328125,-1.2117118835449219,-2.7891106605529785,2.9715449810028076
1772563759689796000,7.320796142578125,-1.2602453231811523,-2.5919127464294434,2.903061628341675
1772563759699794200,7.330794189453125,-1.2371435165405273,-2.285061836242676,2.7694551944732666
1772563759709792300,7.340792236328125,-1.1627081632614136,-1.927834153175354,2.595336675643921
1772563759719790300,7.350790283203125,-1.0625351667404175,-1.6476926803588867,2.4221973419189453
1772563759729788200,7.3607880859375,-0.956638753414154,-1.5525165796279907,2.3222005367279053
1772563759739786200,7.3707861328125,-0.8400498032569885,-1.5827354192733765,2.2811050415039062
1772563759749784300,7.380784423828125,-0.7617180347442627,-1.6898776292800903,2.27526593208313
1772563759759783000,7.390782958984375,-0.7310636639595032,-1.8262490034103394,2.2832958698272705
1772563759769781000,7.400781005859375,-0.7009412050247192,-1.9703813791275024,2.256359338760376
1772563759779779000,7.410779052734375,-0.6373826265335083,-2.335448980331421,2.0773189067840576
1772563759789777200,7.420777099609375,-0.5389828085899353,-2.8404998779296875,1.7863805294036865
1772563759799775200,7.430775146484375,-0.39520442485809326,-3.004368543624878,1.477982521057129
1772563759809773300,7.440773193359375,-0.24673320353031158,-2.9148197174072266,1.1538734436035156
1772563759819771100,7.450771240234375,-0.1108383759856224,-2.727586030960083,0.8673765659332275
1772563759829769200,7.460769287109375,-0.007554594427347183,-2.565718173980713,0.7919411659240723
1772563759839768000,7.47076806640625,-0.05879508703947067,-2.605306625366211,1.2074885368347168
1772563759849766100,7.48076611328125,0.09625282138586044,-2.672374963760376,1.9281638860702515
1772563759859764200,7.49076416015625,0.18519514799118042,-2.5024640560150146,2.2799570560455322
1772563759869762300,7.50076220703125,0.2038085162639618,-2.0295212268829346,2.1588423252105713
1772563759879760100,7.510760009765625,0.30912312865257263,-1.5791707038879395,1.786058783531189
1772563759889758200,7.52075830078125,0.5162333846092224,-1.2805628776550293,1.5304962396621704
1772563759899756300,7.53075634765625,0.7212426066398621,-1.2087208032608032,1.4877660274505615
1772563759909754000,7.540754150390625,0.9733579158782959,-1.0976142883300781,1.4435487985610962
1772563759919753000,7.5507529296875,1.3177324533462524,-1.3766595125198364,1.8657119274139404
1772563759929751000,7.5607509765625,1.677689552307129,-1.681237816810608,2.2610740661621094
1772563759939749000,7.5707490234375,1.9462485313415527,-1.8221122026443481,2.2761640548706055
1772563759949747200,7.580747314453125,2.084500312805176,-1.8671246767044067,2.1143243312835693
1772563759959745300,7.590745361328125,2.0187466144561768,-1.9242587089538574,1.9846264123916626
1772563759969743000,7.6007431640625,1.7494254112243652,-1.9424781799316406,1.8187646865844727
1772563759979741200,7.6107412109375,1.3582826852798462,-2.0789012908935547,1.6238110065460205
1772563759989739300,7.6207392578125,0.9545709490776062,-1.951648235321045,1.2995107173919678
1772563759999738000,7.630738037109375,0.6404918432235718,-1.915035605430603,1.2043901681900024
1772563760009736000,7.64073583984375,0.2928805947303772,-1.8195147514343262,1.1998223066329956
1772563760019734300,7.650734375,0.03001462109386921,-1.6141259670257568,1.270687460899353
1772563760029732400,7.660732421875,-0.16761350631713867,-1.3193819522857666,1.3425360918045044
1772563760039730200,7.670730224609375,-0.36021438241004944,-0.8595346212387085,1.3117482662200928
1772563760049728300,7.680728271484375,-0.4913276433944702,-0.3647634983062744,1.2307803630828857
1772563760059726000,7.69072607421875,-0.5910261869430542,0.13420139253139496,1.1955102682113647
1772563760069724200,7.70072412109375,-0.7496296763420105,0.6064099073410034,1.337597131729126
1772563760079723000,7.710722900390625,-0.9977872371673584,0.8892704844474792,1.6068371534347534
1772563760089721000,7.72072119140625,-1.0949708223342896,0.8972711563110352,1.8311402797698975
1772563760099719200,7.73071923828125,-1.1773710250854492,0.5915268063545227,2.0193288326263428
1772563760109717200,7.74071728515625,-1.2495520114898682,0.19372673332691193,2.0803399085998535
1772563760119715300,7.75071533203125,-1.1515719890594482,-0.1680774837732315,1.9933011531829834
1772563760129713200,7.760713134765625,-0.7265040874481201,-0.2204568088054657,1.8337018489837646
1772563760139711200,7.770711181640625,-0.12208760529756546,0.14693382382392883,1.859160304069519
1772563760149709300,7.780709228515625,0.3287823498249054,0.9529286026954651,1.9010467529296875
1772563760159708000,7.7907080078125,0.7055491209030151,1.7935755252838135,1.8560649156570435
1772563760169706000,7.8007060546875,0.6949779987335205,2.1336636543273926,1.7315765619277954
1772563760179704000,7.8107041015625,0.5095783472061157,1.774160623550415,1.6969815492630005
1772563760189702100,7.8207021484375,0.06728588044643402,1.0005598068237305,1.6620899438858032
1772563760199700200,7.8307001953125,-0.46469706296920776,0.30067887902259827,1.6745226383209229
1772563760209698300,7.8406982421875,-0.8701061010360718,0.054885365068912506,1.6770520210266113
1772563760219696000,7.850696044921875,-1.082703948020935,0.15031030774116516,1.7042282819747925
1772563760229694200,7.860694091796875,-1.1189639568328857,0.43240591883659363,1.807962417602539
1772563760239693000,7.870693115234375,-1.0241607427597046,0.6022309064865112,1.9519203901290894
1772563760249691100,7.880691162109375,-0.8820264935493469,0.569507360458374,2.0522992610931396
1772563760259689200,7.890689208984375,-0.6897386312484741,0.4510776698589325,2.014784574508667
1772563760269687300,7.900687255859375,-0.48263171315193176,0.5581352114677429,1.9040712118148804
1772563760279685000,7.91068505859375,-0.37241387367248535,0.9789099097251892,1.843611240386963
1772563760289683200,7.92068310546875,-0.305123507976532,1.172836422920227,1.797298789024353
1772563760299681300,7.930681396484375,-0.34540873765945435,1.2798179388046265,1.7296708822250366
1772563760309679000,7.94067919921875,-0.34812089800834656,1.196969747543335,1.5955479145050049
1772563760319678000,7.950677978515625,-0.37721988558769226,0.4593553841114044,1.3536702394485474
1772563760329676000,7.960676025390625,-0.32803449034690857,-0.012084588408470154,1.100541353225708
1772563760339674000,7.970674072265625,-0.17327618598937988,0.017766177654266357,1.002902626991272
1772563760349672200,7.980672119140625,0.006505033932626247,0.043818552047014236,0.9451439380645752
1772563760359670300,7.990670166015625,0.18012210726737976,0.12535814940929413,0.9164283871650696
1772563760369668000,8.000668212890625,0.31451770663261414,0.20727619528770447,0.9099755883216858
1772563760379666200,8.010666259765625,0.4106352925300598,0.1517591029405594,0.9658123254776001
1772563760389664300,8.020664306640626,0.4363992512226105,0.05484561249613762,1.0383844375610352
1772563760399663000,8.0306630859375,0.47596701979637146,-0.0035720611922442913,1.0851868391036987
1772563760409661000,8.040660888671875,0.5239958167076111,0.03446107357740402,1.2001222372055054
1772563760419659300,8.0506591796875,0.6416900753974915,-0.1599745750427246,1.2532389163970947
1772563760429657300,8.0606572265625,0.6790124177932739,-0.0719594955444336,1.3033201694488525
1772563760439655200,8.0706552734375,0.8086035847663879,-0.2673526704311371,1.233690619468689
1772563760449653200,8.0806533203125,0.8469597697257996,-0.4541797935962677,1.2175688743591309
1772563760459651000,8.090651123046875,0.9924535751342773,-0.9442106485366821,1.155286431312561
1772563760469649200,8.100649169921875,1.08534574508667,-1.5377229452133179,1.1307164430618286
1772563760479647200,8.110647216796876,1.152550220489502,-1.2239735126495361,1.0698314905166626
1772563760489646000,8.12064599609375,1.2685662508010864,-0.520973265171051,0.9835676550865173
1772563760499644200,8.13064404296875,1.3964639902114868,-0.28666189312934875,0.8267155885696411
1772563760509642200,8.140642333984376,1.5945872068405151,-0.449677973985672,0.6201578974723816
1772563760519640300,8.150640380859375,1.731790542602539,-0.8126794099807739,0.4886906147003174
1772563760529638100,8.16063818359375,1.7908376455307007,-0.9221662282943726,0.4140810966491699
1772563760539636200,8.17063623046875,1.7740892171859741,-0.4272260367870331,0.4504470229148865
1772563760549634300,8.18063427734375,1.8054084777832031,-0.297635555267334,0.33483201265335083
1772563760559633000,8.1906328125,1.8334245681762695,-0.9754331111907959,0.3783227205276489
1772563760569631000,8.200630859375,1.598413109779358,-1.8359379768371582,0.6750310659408569
1772563760579629000,8.210629150390625,1.5155339241027832,-1.852893590927124,0.9338251948356628
1772563760589627100,8.220627197265625,1.3690643310546875,-1.2584917545318604,1.1131025552749634
1772563760599625200,8.230625244140626,1.1958869695663452,-0.7811371088027954,1.2567487955093384
1772563760609622500,8.24062255859375,1.1365504264831543,-0.5575224161148071,1.1905887126922607
1772563760619620600,8.25062060546875,0.9691195487976074,-0.47653403878211975,1.1264969110488892
1772563760629618700,8.26061865234375,0.7841691374778748,-0.6951853632926941,0.9900432825088501
1772563760639617500,8.270617431640625,0.7500276565551758,-0.888984739780426,0.7986429333686829
1772563760649615600,8.28061572265625,0.5694844722747803,-0.9749566316604614,0.7188767194747925
1772563760659613700,8.29061376953125,0.25598442554473877,-0.9862277507781982,0.8706930875778198
1772563760669611500,8.300611572265625,0.0441824272274971,-0.7287959456443787,0.9250692129135132
1772563760679609600,8.310609619140624,0.0708189383149147,-0.1704525351524353,0.7905693650245667
1772563760689607700,8.320607666015626,0.15175825357437134,0.19909489154815674,0.5816845893859863
1772563760699605500,8.33060546875,0.2722671926021576,0.4484974443912506,0.285690039396286
1772563760709603600,8.340603515625,0.40096205472946167,0.5983284711837769,-0.06759904325008392
1772563760719602700,8.350602783203126,0.4378446042537689,0.5778824687004089,-0.33469030261039734
1772563760729600500,8.3606005859375,0.41009339690208435,0.33549565076828003,-0.4603539705276489
1772563760739598600,8.3705986328125,0.3715652823448181,0.1399323046207428,-0.4470655620098114
1772563760749596700,8.3805966796875,0.3563714325428009,0.1780834197998047,-0.32604485750198364
1772563760759594500,8.390594482421875,0.30827784538269043,0.20901213586330414,-0.12825095653533936
1772563760769592600,8.400592529296874,0.2421904057264328,0.19835257530212402,0.10676101595163345
1772563760779590700,8.410590576171876,0.16548952460289001,0.4221482276916504,0.3383685052394867
1772563760789588500,8.42058837890625,0.15156039595603943,0.6075657606124878,0.41930198669433594
1772563760799586600,8.430586669921874,0.19791936874389648,0.6765755414962769,0.3862174153327942
1772563760809585700,8.440585693359376,0.27817264199256897,0.8161217570304871,0.3197347819805145
1772563760819583500,8.45058349609375,0.3899090886116028,0.9142544269561768,0.2766348719596863
1772563760829581600,8.46058154296875,0.5372136235237122,0.9266945719718933,0.27099189162254333
1772563760839579600,8.47057958984375,0.6832370162010193,0.7206149101257324,0.3116771876811981
1772563760849577500,8.480577392578125,0.7544227838516235,0.41066235303878784,0.42304474115371704
1772563760859575600,8.490575439453124,0.780125617980957,0.15630677342414856,0.5987721085548401
1772563760869573600,8.50057373046875,0.7321434617042542,-0.02306831255555153,0.80194491147995
1772563760879571500,8.510571533203125,0.6005004644393921,-0.17965368926525116,0.9700077176094055
1772563760889570600,8.520570556640624,0.4625529944896698,-0.3082076907157898,1.0408297777175903
1772563760899568600,8.530568603515626,0.28103819489479065,-0.3488152027130127,1.0518282651901245
1772563760909566700,8.540566650390625,0.03601270169019699,-0.13366851210594177,1.0862523317337036
1772563760919564500,8.550564453125,0.14385651051998138,-0.21381163597106934,0.7398117780685425
1772563760929562600,8.560562744140626,0.19350315630435944,-0.08866516500711441,0.38511601090431213
1772563760939560400,8.570560546875,0.10369069874286652,0.0880327895283699,0.14305375516414642
1772563760949558500,8.58055859375,0.0011613992974162102,0.18087217211723328,-0.0358523428440094
1772563760959556600,8.590556640625,-0.01649295538663864,0.25171443819999695,-0.1842418760061264
1772563760969555700,8.6005556640625,0.07659517228603363,0.3103753328323364,-0.3129361867904663
1772563760979553500,8.610553466796874,0.19949643313884735,0.3257102966308594,-0.3612961173057556
1772563760989551600,8.620551513671876,0.28354498744010925,0.2911027669906616,-0.3578944504261017
1772563760999549700,8.6305498046875,0.28187668323516846,0.16918756067752838,-0.3255043923854828
1772563761009547500,8.640547607421874,0.3346754312515259,0.1561143696308136,-0.26713109016418457
1772563761019545600,8.650545654296875,0.34164953231811523,0.10713747888803482,-0.24048656225204468
1772563761029543700,8.660543701171875,0.425763338804245,0.04561712592840195,-0.1563008576631546
1772563761039541500,8.67054150390625,0.5234725475311279,0.11015992611646652,-0.1427878439426422
1772563761049540600,8.68054052734375,0.1961820274591446,0.1043076291680336,-0.26176801323890686
1772563761059538700,8.69053857421875,-0.009095708839595318,-0.08021476119756699,-0.3722909688949585
1772563761069536500,8.70053662109375,-0.03784612938761711,-0.06845317780971527,-0.3654799461364746
1772563761079534600,8.71053466796875,-0.024122165516018867,0.09562528878450394,-0.356932133436203
1772563761089532700,8.72053271484375,0.0025624423287808895,0.2668955624103546,-0.3753300607204437
1772563761099530500,8.730530517578124,0.08125708997249603,0.3064013123512268,-0.496437668800354
1772563761109528600,8.740528564453125,0.21612302958965302,0.2323465347290039,-0.6426739692687988
1772563761119526700,8.750526611328125,0.3436557948589325,0.06947336345911026,-0.7841755747795105
1772563761129525500,8.760525390625,0.4719224274158478,-0.18864473700523376,-0.8660606145858765
1772563761139523600,8.770523681640626,0.6769302487373352,-0.31719866394996643,-0.8955531716346741
1772563761149521700,8.780521728515625,0.8371899724006653,-0.3610481321811676,-0.930596113204956
1772563761159519500,8.79051953125,0.820663571357727,-0.3263082504272461,-0.9430838227272034
1772563761169517600,8.800517578125,0.5626607537269592,-0.2059735804796219,-0.8963317275047302
1772563761179515600,8.810515625,0.27447327971458435,-0.10713251680135727,-0.8480693101882935
1772563761189513500,8.820513427734374,0.05039648339152336,-0.07357215881347656,-0.8420188426971436
1772563761199511600,8.830511474609375,-0.06990323960781097,-0.12080201506614685,-0.8855912685394287
1772563761209510700,8.8405107421875,-0.08028396964073181,-0.30555588006973267,-1.0414012670516968
1772563761219508700,8.8505087890625,0.0506693460047245,-0.4046269655227661,-1.2094686031341553
1772563761229506600,8.860506591796875,0.2358352094888687,-0.31647685170173645,-1.394834280014038
1772563761239504600,8.870504638671875,0.3909945785999298,-0.32206013798713684,-1.5569416284561157
1772563761249502500,8.88050244140625,0.5477549433708191,-0.27437570691108704,-1.6379778385162354
1772563761259500500,8.89050048828125,0.7108663320541382,-0.3901282250881195,-1.6539841890335083
1772563761269498600,8.90049853515625,0.8342887163162231,-0.7559922337532043,-1.6341867446899414
1772563761279496400,8.910496337890624,0.8436974883079529,-1.1611140966415405,-1.5692347288131714
1772563761289495600,8.92049560546875,0.9214860200881958,-1.4635655879974365,-1.362443208694458
1772563761299493600,8.93049365234375,1.2360808849334717,-1.4110314846038818,-0.9685851335525513
1772563761309491700,8.94049169921875,1.5797266960144043,-1.0051969289779663,-0.31818336248397827
1772563761319489500,8.950489501953125,1.345690131187439,-1.037182092666626,-0.03426804766058922
1772563761329487600,8.960487548828125,0.7810721397399902,-1.0917539596557617,0.22838488221168518
1772563761339485700,8.970485595703124,0.22304703295230865,-0.9850642085075378,0.48064854741096497
1772563761349483500,8.9804833984375,-0.22558268904685974,-0.7577532529830933,0.6491824388504028
1772563761359481600,8.990481689453125,-0.6380459666252136,-0.5100105404853821,0.6952941417694092
1772563761369479400,9.0004794921875,-1.0035589933395386,-0.49972274899482727,0.5887780785560608
1772563761379478500,9.010478515625,-1.2365858554840088,-0.5156604051589966,0.703589916229248
1772563761389476600,9.0204765625,-1.2262202501296997,-0.7175053358078003,0.7149307131767273
1772563761399474700,9.030474609375,-1.312645435333252,-0.7333871722221375,0.5583094358444214
1772563761409472500,9.040472412109375,-1.4582228660583496,-0.7448510527610779,0.41916221380233765
1772563761419470600,9.050470703125,-1.539139986038208,-0.8043415546417236,0.14561237394809723
1772563761429468700,9.06046875,-1.450832724571228,-0.42940574884414673,-0.18537648022174835
1772563761439466500,9.070466552734375,-1.4254052639007568,-0.16255784034729004,-0.4465039372444153
1772563761449464600,9.080464599609375,-1.5558831691741943,0.33903416991233826,-0.7984665036201477
1772563761459463700,9.090463623046874,-1.6737968921661377,0.6153510808944702,-0.7297860383987427
1772563761469461500,9.10046142578125,-1.849006175994873,0.6931460499763489,-0.32589825987815857
1772563761479459600,9.11045947265625,-2.2916901111602783,0.6400347352027893,-0.03760450333356857
1772563761489457700,9.120457763671874,-2.6758761405944824,0.4916098415851593,0.26154041290283203
1772563761499455500,9.13045556640625,-2.9562594890594482,0.7122059464454651,0.5189756751060486
1772563761509453600,9.14045361328125,-3.1396114826202393,1.1186892986297607,0.696841299533844
1772563761519451600,9.15045166015625,-3.2522928714752197,1.3454856872558594,0.7097229957580566
1772563761529449500,9.160449462890625,-3.21919584274292,1.367893099784851,0.5901158452033997
1772563761539448600,9.170448486328125,-3.0169284343719482,1.3382844924926758,0.4556140601634979
1772563761549446700,9.18044677734375,-2.6490936279296875,1.0776265859603882,0.2055017203092575
1772563761559444500,9.190444580078125,-2.2096002101898193,0.9422056674957275,0.029968347400426865
1772563761569442600,9.200442626953125,-1.7472045421600342,0.7448657155036926,-0.16235236823558807
1772563761579440600,9.210440673828124,-1.3166990280151367,0.2980848550796509,-0.563565731048584
1772563761589438500,9.2204384765625,-0.9359085559844971,-0.23537161946296692,-1.3258508443832397
1772563761599436500,9.2304365234375,-0.812042772769928,-0.3351016342639923,-1.713327169418335
1772563761609435000,9.240434814453126,-0.9865131378173828,-0.6018614172935486,-1.7746909856796265
1772563761619434000,9.25043408203125,-1.1979385614395142,-0.8043539524078369,-1.57244074344635
1772563761629432000,9.26043212890625,-1.217746376991272,-0.9831977486610413,-1.4665206670761108
1772563761639430000,9.270429931640624,-1.066956877708435,-1.0163860321044922,-1.6230101585388184
1772563761649428000,9.280427978515625,-0.834065854549408,-0.8569516539573669,-1.8945660591125488
1772563761659426000,9.290426025390625,-0.7071717977523804,-0.5940955281257629,-2.198057174682617
1772563761669423900,9.300423828125,-0.2665454149246216,-0.6319776177406311,-1.9529072046279907
1772563761679422000,9.310421875,-0.08474620431661606,-0.5881460905075073,-1.8789713382720947
1772563761689419800,9.320419677734375,-0.07212814688682556,-0.6261938810348511,-1.8358025550842285
1772563761699417900,9.33041796875,-0.11967127025127411,-0.8203412294387817,-1.6239590644836426
1772563761709415000,9.340414794921875,-0.7200338244438171,-1.090498685836792,-1.2172824144363403
1772563761719412700,9.350412841796874,-1.5788787603378296,-1.1294749975204468,-1.0862680673599243
1772563761729410800,9.360410888671876,-1.6274515390396118,-0.8814048767089844,-1.8583405017852783
1772563761739409000,9.370408935546875,-1.102954387664795,-0.6040917634963989,-2.736907482147217
1772563761749407700,9.38040771484375,-0.3983144462108612,-0.5107439160346985,-3.523493528366089
1772563761759405800,9.39040576171875,0.0002650860697031021,-0.5623720288276672,-3.9112963676452637
1772563761769404000,9.40040380859375,0.03612934425473213,-0.7191646099090576,-3.926652193069458
1772563761779401700,9.410401611328124,-0.12694169580936432,-0.949349045753479,-3.7192916870117188
1772563761789399800,9.42039990234375,-0.31790846586227417,-1.1909456253051758,-3.4904720783233643
1772563761799398000,9.43039794921875,-0.15216876566410065,-1.1048407554626465,-3.082357168197632
1772563761809395700,9.440395751953124,0.798361599445343,-0.43186211585998535,-1.756678581237793
1772563761819393800,9.450393798828125,1.1540273427963257,0.06144668906927109,-0.1632825881242752
1772563761829393000,9.460392822265625,0.10011972486972809,-0.18915969133377075,1.3279647827148438
1772563761839390700,9.470390625,-0.7898983955383301,-0.44361600279808044,2.647904872894287
1772563761849388800,9.480388916015626,-1.2800655364990234,-0.6340150237083435,3.4215362071990967
1772563761859387000,9.490386962890625,-1.8102222681045532,-0.8055667281150818,3.5743420124053955
1772563761869384700,9.500384765625,-2.209517002105713,-1.0198135375976562,3.2673792839050293
1772563761879382800,9.5103828125,-2.3631858825683594,-1.2107988595962524,2.9356353282928467
1772563761889380900,9.520380859375,-2.2230894565582275,-0.9307368993759155,3.1555399894714355
1772563761899378700,9.530378662109374,-1.961702823638916,-0.17842139303684235,3.658662796020508
1772563761909376800,9.540376708984375,-1.1446785926818848,1.0694661140441895,4.0000481605529785
1772563761919376000,9.5503759765625,-0.20340745151042938,2.3102636337280273,4.2112507820129395
1772563761929374000,9.5603740234375,0.31781843304634094,2.6064300537109375,4.204305648803711
1772563761939371800,9.570371826171876,0.8156325817108154,2.3723649978637695,4.475192546844482
1772563761949369900,9.580369873046875,1.34099543094635,1.8769489526748657,4.5910773277282715
1772563761959367700,9.59036767578125,1.7015100717544556,1.3870831727981567,4.285275459289551
1772563761969365800,9.60036572265625,1.8279924392700195,0.9988756775856018,3.703571081161499
1772563761979363800,9.61036376953125,1.5368883609771729,0.9441332817077637,3.294247627258301
1772563761989361700,9.620361572265624,1.1288747787475586,0.8600988388061523,3.094618558883667
1772563761999360800,9.63036083984375,0.8978726267814636,0.4476298689842224,2.774218797683716
1772563762009358800,9.64035888671875,0.8894621133804321,0.21248845756053925,2.359786033630371
1772563762019357000,9.65035693359375,0.834568440914154,0.43061140179634094,1.9650168418884277
1772563762029354800,9.660354736328125,0.634702205657959,0.8419052362442017,1.509157419204712
1772563762039352800,9.670352783203125,0.420367568731308,1.2531789541244507,1.0430376529693604
1772563762049351000,9.680350830078124,0.19135168194770813,1.3648866415023804,0.6186180114746094
1772563762059348700,9.6903486328125,0.015071092173457146,1.3775250911712646,0.19353999197483063
1772563762069346800,9.700346923828125,-0.13752511143684387,1.3130638599395752,-0.17243213951587677
1772563762079346000,9.710345947265624,-0.34519967436790466,1.2596505880355835,-0.3980133831501007
1772563762089343700,9.72034375,-0.45404866337776184,1.1056655645370483,-0.6049903035163879
1772563762099341800,9.730341796875,-0.5843914747238159,1.0654338598251343,-0.6843103170394897
1772563762109341000,9.7403408203125,-0.8115495443344116,1.0095388889312744,-0.6160193681716919
1772563762119338800,9.7503388671875,-0.9387660622596741,1.2056734561920166,-0.505687415599823
1772563762129336800,9.7603369140625,-0.9793896675109863,1.3984532356262207,-0.3918907940387726
1772563762139335000,9.7703349609375,-0.924930214881897,1.3304204940795898,-0.2646268904209137
1772563762149332700,9.780332763671876,-0.734777569770813,1.1139825582504272,-0.25585389137268066
1772563762159330800,9.790330810546875,-0.42420223355293274,1.2494738101959229,-0.2847021818161011
1772563762169329000,9.800328857421874,-0.0456022173166275,1.4842684268951416,-0.34543290734291077
1772563762179326700,9.81032666015625,0.32156768441200256,1.7453962564468384,-0.4683693051338196
1772563762189325800,9.820325927734375,0.7124201655387878,1.8435028791427612,-0.57136070728302
1772563762199324000,9.830323974609374,0.9369200468063354,1.9655612707138062,-0.6020389795303345
1772563762209322000,9.840322021484376,0.9096641540527344,2.3686225414276123,-0.47045642137527466
1772563762219319800,9.85031982421875,0.8085861802101135,2.824479103088379,-0.24479994177818298
1772563762229318000,9.86031787109375,0.6879273653030396,2.614793062210083,0.11923500150442123
1772563762239315700,9.870315673828125,0.6094686388969421,1.923540711402893,0.44279029965400696
1772563762249313800,9.880313720703125,0.45795103907585144,1.0470353364944458,0.5887871384620667
1772563762259311900,9.890311767578124,0.25212347507476807,0.6690009236335754,0.6319833397865295
1772563762269311000,9.90031103515625,0.13721740245819092,0.6548355221748352,0.5701777338981628
1772563762279308800,9.910308837890625,-0.0430884063243866,0.719057559967041,0.4987320601940155
1772563762289307000,9.920306884765624,-0.22741803526878357,0.8944512605667114,0.42304956912994385
1772563762299305000,9.930304931640626,-0.32347536087036133,1.248918056488037,0.35132673382759094
1772563762309302800,9.940302734375,-0.32531747221946716,1.4403090476989746,0.23117153346538544
1772563762319300900,9.95030078125,-0.13818787038326263,1.5174943208694458,-0.028067301958799362
1772563762329299000,9.960298828125,0.05302949249744415,1.5364453792572021,-0.2085459977388382
1772563762339296800,9.970296875,0.234519824385643,1.5149837732315063,-0.22346746921539307
1772563762349295900,9.9802958984375,0.4111441373825073,1.2765570878982544,-0.18677496910095215
1772563762359294000,9.9902939453125,1.069132685661316,0.2824924886226654,0.34258395433425903
1772563762369291800,10.000291748046875,1.3924545049667358,0.32751721143722534,0.7484646439552307
1772563762379289900,10.010289794921874,1.552025318145752,0.2621252238750458,1.5395009517669678
1772563762389288000,10.020287841796875,1.5676831007003784,0.8892056941986084,2.140206813812256
1772563762399285800,10.03028564453125,1.4604003429412842,0.7802738547325134,2.6685540676116943
1772563762409283800,10.040283935546874,1.2934715747833252,0.9478279948234558,3.1737594604492188
1772563762419282000,10.050281982421875,1.0007375478744507,0.7705921530723572,3.385847330093384
1772563762429279700,10.06027978515625,0.7915248870849609,-0.034963417798280716,3.315535545349121
1772563762439278800,10.07027880859375,0.42940887808799744,-0.9798911213874817,2.96171498298645
1772563762449277000,10.08027685546875,-0.26617366075515747,-1.387439489364624,2.6005361080169678
1772563762459274800,10.090274658203125,-0.968632698059082,-0.8300623893737793,1.9817112684249878
1772563762469272800,10.10027294921875,-0.9541147351264954,-0.27488067746162415,1.4676264524459839
1772563762479271000,10.11027099609375,-0.9697923064231873,-0.040904734283685684,1.026741862297058
1772563762489268700,10.120268798828125,-0.9703590273857117,-0.4397362768650055,0.9540591835975647
1772563762499266800,10.130266845703124,-1.0243526697158813,-0.9902396202087402,0.8830921649932861
1772563762509265000,10.140264892578125,-0.9346217513084412,-0.9913456439971924,0.6890798211097717
1772563762519263700,10.150263671875,-0.7525631189346313,-1.0682402849197388,0.39740055799484253
1772563762529261800,10.16026171875,-0.5471803545951843,-1.159017562866211,0.15259374678134918
1772563762539260000,10.170260009765625,-0.35631152987480164,-1.3987116813659668,-0.010238902643322945
1772563762549257700,10.1802578125,-0.1544838547706604,-1.4547456502914429,-0.10269027203321457
1772563762559255800,10.190255859375,0.008827310055494308,-1.1956595182418823,-0.26799246668815613
1772563762569254000,10.20025390625,0.08558759838342667,-0.8243138790130615,-0.40032175183296204
1772563762579251700,10.210251708984375,0.04710764065384865,-0.7118186950683594,-0.46792447566986084
1772563762589249800,10.220249755859374,-0.013839866034686565,-0.7691160440444946,-0.4640447795391083
1772563762599248000,10.230247802734375,-0.023863160982728004,-0.6886401772499084,-0.47907352447509766
1772563762609246500,10.24024658203125,-0.05658382177352905,-0.028207391500473022,-0.39196792244911194
1772563762619244300,10.250244384765624,-0.12121781706809998,0.029856540262699127,-0.46770405769348145
1772563762629242400,10.260242431640625,-0.07595100998878479,-0.008329193107783794,-0.3763938546180725
1772563762639240400,10.270240478515625,-0.006971621885895729,0.06711661070585251,-0.15824489295482635
1772563762649238300,10.28023828125,-0.03397820517420769,0.16006973385810852,-0.07771170884370804
1772563762659236400,10.290236328125,-0.10136828571557999,0.13347819447517395,-0.08688347786664963
1772563762669234400,10.300234375,-0.05519333481788635,0.03369168937206268,-0.052694085985422134
1772563762679232300,10.310232177734376,0.06524206697940826,-0.0908697098493576,-0.007082790601998568
1772563762689231400,10.3202314453125,0.12989722192287445,-0.05094732344150543,-0.030109813436865807
1772563762699229400,10.3302294921875,0.1307118833065033,-0.01097797229886055,-0.04095777869224548
1772563762709227300,10.340227294921876,0.054635755717754364,-0.002025224268436432,0.005610257387161255
1772563762719225300,10.350225341796875,-0.008678820915520191,0.008894219994544983,0.025646992027759552
1772563762729223400,10.360223388671875,0.014714918099343777,0.014014147222042084,0.05338142067193985
1772563762739221200,10.37022119140625,0.07040166854858398,0.03758297860622406,0.03967177867889404
1772563762749219300,10.38021923828125,0.1039218083024025,0.01474450808018446,0.032633308321237564
1772563762759217400,10.390217529296875,0.11797824501991272,0.008795126341283321,0.035810817033052444
1772563762769215200,10.40021533203125,0.11645305901765823,0.016007233411073685,0.05377090722322464
1772563762779214300,10.41021435546875,0.10216710716485977,0.008298447355628014,0.05659088119864464
1772563762789212400,10.42021240234375,0.06716251373291016,-0.0416715107858181,0.019696513190865517
1772563762799210200,10.430210205078126,0.09792287647724152,-0.02722303755581379,-0.009846841916441917
1772563762809208300,10.440208251953125,0.1407126784324646,-0.01350962184369564,0.053286585956811905
1772563762819206400,10.450206298828125,0.1511024832725525,-0.02024233527481556,0.121769979596138
1772563762829204200,10.460204345703126,0.13224543631076813,-0.05441202595829964,0.14356155693531036
1772563762839202300,10.470202392578125,0.15321271121501923,-0.05506611987948418,0.16154173016548157
1772563762849200400,10.480200439453125,0.17050941288471222,-0.037485260516405106,0.11941105872392654
1772563762859199200,10.49019921875,0.16627448797225952,-0.01543332077562809,0.10170429944992065
1772563762869197300,10.500197265625,0.14309780299663544,0.022424845024943352,0.10305985063314438
1772563762879195400,10.5101953125,0.11723208427429199,0.04437222331762314,0.05654538795351982
1772563762889193200,10.520193115234376,0.12776008248329163,0.07125843316316605,0.030817918479442596
1772563762899191300,10.53019140625,0.13963420689105988,0.08330091089010239,0.013621911406517029
1772563762909189400,10.540189453125,0.12713973224163055,0.06081264466047287,0.01838257722556591
1772563762919187200,10.550187255859376,0.09005282074213028,0.020055361092090607,-0.055601369589567184
1772563762929185300,10.560185302734375,0.09932781010866165,-0.007263879757374525,-0.18449783325195312
1772563762939184400,10.570184326171875,0.08831722289323807,-0.045428600162267685,-0.3113776743412018
1772563762949182500,10.580182373046876,0.0297953262925148,-0.21299974620342255,-0.29223886132240295
