time,seconds_elapsed,z,y,x
1772476657999323000,0.071322998046875,0.04166238220930099,0.007270516159362159,-0.005470955924107693
1772476658009320700,0.08132080078125,0.053932665717601774,0.002608983201041701,0.005829286108794622
1772476658019317800,0.09131787109375,0.047048751422762866,0.0025958714160748057,-0.0013669820708455517
1772476658029315600,0.101315673828125,0.04225976358056068,-0.0015167886379640549,-0.009906476986408234
1772476658039313000,0.11131298828125,0.04600070367455482,-0.005783135708150803,-0.0017407107540639117
1772476658049310700,0.121310791015625,0.0461497567564249,0.0011790080509614198,0.006121391790010966
1772476658059308800,0.131308837890625,0.04495324044823646,0.0007444896620378131,-0.006260978357214481
1772476658069305900,0.141305908203125,0.04600128819644451,0.0011420872737886384,-0.004650862579722888
1772476658079303700,0.1513037109375,0.048395489856600755,0.0012043451340839964,0.005073869198188185
1772476658089301800,0.1613017578125,0.05542845723330974,0.0004100352557492442,0.0013173799086129293
1772476658099298800,0.171298828125,0.04764730183780193,-0.0040587995585083265,-0.006018968028575182
1772476658109297000,0.181296875,0.042409985706210136,0.004167598261803505,0.002312409694795497
1772476658119295000,0.191294921875,0.048993455749750135,0.008893635265610647,0.0063080004032934085
1772476658129291800,0.201291748046875,0.05482873777449131,-0.001369952629355248,0.001895750618726015
1772476658139289900,0.211289794921875,0.05408113427758217,0.003345815283831325,-0.0006090307098580524
1772476658149287700,0.22128759765625,0.038519992530345916,0.0066737684006977355,-0.00566286176701542
1772476658159284700,0.23128466796875,0.03851940800845623,-0.0005064602471276885,0.001089279374317266
1772476658169282800,0.24128271484375,0.04585106607079505,0.0007990671101986663,0.0044474763615755366
1772476658179280600,0.25128076171875,0.048394320812821384,0.004118929964621202,-0.002092140840506181
1772476658189278000,0.26127783203125,0.04854395841658115,0.0017621245764952618,-0.009886493644304573
1772476658199275800,0.27127587890625,0.04764613279402256,-0.0011034831420722185,-0.003515839800960384
1772476658209272800,0.28127294921875,0.05138765740990638,-0.0002842249105044175,0.0034272573352092874
1772476658219270700,0.291270751953125,0.053632221466302865,0.0030643925393000243,0.0033098825998138636
1772476658229268700,0.301268798828125,0.0516875171393156,-0.001198929744272027,-0.0013477065482176839
1772476658239265800,0.311265869140625,0.04749766423404216,-0.0010045676536188694,-0.0016803177697584033
1772476658249263900,0.321263916015625,0.04211129502058029,0.0006539703967049717,0.0020265784907387567
1772476658259262000,0.331261962890625,0.0494435376048088,0.008921829884455655,0.00015779807732906192
1772476658269258800,0.3412587890625,0.05647708950340748,0.005140743297274457,0.00011089932883623986
1772476658279256800,0.3512568359375,0.05318564674258232,0.009685345049016176,-0.001138479677750729
1772476658289255000,0.3612548828125,0.05961947918236255,-0.006572622710073483,0.0010270643256837502
1772476658299251700,0.371251708984375,0.05079086056053638,0.005228568282022024,-0.000223721186700277
1772476658309249800,0.381249755859375,0.055579848402738566,-0.0014158661388035396,-0.0015608652417082338
1772476658319247600,0.39124755859375,0.05438216305077076,0.0010317359342239796,-0.0014844527043635025
1772476658329245000,0.401244873046875,0.044805940932035444,0.0074762615854881,-0.004210439035575836
1772476658339242800,0.41124267578125,0.05064239200055599,0.0019557485940982586,0.0035218265837524084
1772476658349240800,0.42124072265625,0.039868484529852866,0.00281449573172722,0.005621831070305779
1772476658359238000,0.43123779296875,0.04854746554791927,-0.000895512080352637,-0.0009998749246587977
1772476658369235700,0.441235595703125,0.058123687666654586,0.00017754738234798423,0.003940800914494321
1772476658379233000,0.45123291015625,0.04734978019595146,0.005103054764299304,0.008278085766709409
1772476658389230000,0.46122998046875,0.04720131163597106,-0.006811374215013347,0.005134764505992644
1772476658399228200,0.471228271484375,0.046453123617172236,-0.002707628690614365,-0.005494318533386103
1772476658409225200,0.48122509765625,0.048996962881088256,-0.0002158952149155084,-0.006372462207940407
1772476658419223000,0.49122314453125,0.05064239200055599,0.010725789446081034,0.001748560700379312
1772476658429221000,0.50122119140625,0.046452539095282554,0.006890838367614196,0.0012772214281605557
1772476658439218000,0.511218017578125,0.053037178182601924,0.006635547861471422,0.00586446245345287
1772476658449216000,0.521216064453125,0.04854805006980896,-0.0034843583881302037,-0.005998528028745204
1772476658459214300,0.53121435546875,0.04211363310813904,0.0003728650292934617,-0.0014950973959639668
1772476658469211100,0.541211181640625,0.041215222963690755,0.010374489507090766,0.0009048124857712537
1772476658479209200,0.551209228515625,0.05348550647199154,0.008175558686463046,0.004784243168425746
1772476658489207000,0.56120703125,0.04899579383730888,0.0006913301361171761,0.008761508202366531
1772476658499204000,0.5712041015625,0.05183890830874443,-0.0025506685802130957,-0.0025153666546801103
1772476658509202200,0.5812021484375,0.04929506904482841,0.004803801248021773,-0.004198538535227999
1772476658519200000,0.591199951171875,0.04944412212669849,0.0025093530432466647,0.0009088265071855858
1772476658529197300,0.601197265625,0.04435702812075615,0.004797631231317064,-0.000642873613955453
1772476658539195100,0.611195068359375,0.05213876803815364,0.0018913358801568392,0.00849770160045009
1772476658549192200,0.621192138671875,0.042861236605048175,0.0024919777875824366,0.0002893931343220174
1772476658559190000,0.63118994140625,0.04929506904482841,-0.002700653243844863,0.005272350912354886
1772476658569188000,0.64118798828125,0.04914601596295833,0.0037301087435480437,0.0058640742943855
1772476658579185200,0.65118505859375,0.051690439748764035,0.003512594676992739,0.004278147676656954
1772476658589183000,0.661182861328125,0.048996962881088256,-0.0009949675665673566,-0.0015060982805909589
1772476658599181000,0.67118115234375,0.051990299478173255,0.0008540424214035738,-0.006871027413802221
1772476658609178000,0.68117822265625,0.05019464823305607,0.004310033802397083,0.0003433107120683417
1772476658619176200,0.69117626953125,0.05348667551577091,0.0012199753864115337,-0.0027729398786323143
1772476658629174300,0.70117431640625,0.04435936620831489,-0.00023271220650931352,-0.0035459472448565064
1772476658639171000,0.711171142578125,0.053637482163310046,0.008682234133544261,0.006551357872225344
1772476658649169200,0.721169189453125,0.05453472326397896,-0.0014107333059597293,0.003195923664211295
1772476658659167000,0.7311669921875,0.055282911282777784,0.002083540833875304,0.004200027239415795
1772476658669164300,0.741164306640625,0.05049450796246528,0.003646446193975862,-0.000216706924024038
1772476658679162000,0.751162109375,0.04495850114524364,-0.0034152632200275547,0.0034378426613053304
1772476658689160200,0.76116015625,0.044509588333964345,0.004511459817254217,0.008587786470120772
1772476658699157200,0.7711572265625,0.03852408418357372,0.0010543376375659135,0.0024929584600497036
1772476658709155000,0.781155029296875,0.04600537984967232,0.0022404278790403623,0.003696831524209119
1772476658719153200,0.791153076171875,0.04929740713238716,0.00039047831779753323,-0.000188444377342239
1772476658729150000,0.80114990234375,0.050046179673075675,0.0005172522108448902,-0.0019065642736852168
1772476658739148000,0.81114794921875,0.0434615405857563,0.002095876871529617,0.013569940530555323
1772476658749145000,0.82114501953125,0.048998716446757316,0.004317101151534007,0.003916904015676118
1772476658759143200,0.83114306640625,0.05184183091819286,-0.001636181229687645,0.00047126620698254555
1772476658769141200,0.841141357421875,0.045406829434633256,0.0007904682452121051,0.005035290753468871
1772476658779138000,0.851137939453125,0.04899813192486763,0.0028512566786957905,-0.0007018600924639031
1772476658789136100,0.86113623046875,0.04869827219545841,0.008170621645619394,0.00939353619532194
1772476658799134000,0.871134033203125,0.04525719183087348,0.005767394716324634,0.007971851095440796
1772476658809131300,0.88113134765625,0.04615501745343208,0.005528937184796086,0.0013954409803496673
1772476658819129300,0.89112939453125,0.046154432931542394,0.004123579311097273,0.00040838443806860594
1772476658829127200,0.901127197265625,0.04735153376162052,0.0010505028543091612,0.0016313914609607308
1772476658839124200,0.911124267578125,0.046602761220932,0.003927190801783581,0.00356165170406457
1772476658849122000,0.9211220703125,0.04390928435325622,-0.00421422187401622,-0.002141030616685748
1772476658859120000,0.9311201171875,0.05692775588035583,-0.00018084330948768182,0.010258569226553663
1772476658869117000,0.941116943359375,0.046602761220932,-0.0017290026207832851,-0.0003334697380661964
1772476658879115000,0.951114990234375,0.04660334574282169,0.008843295030327863,-0.0024887069766176863
1772476658889113000,0.961113037109375,0.048100306302309034,0.0010815852624509715,0.0005593874484300613
1772476658899110100,0.971110107421875,0.04166588934063911,0.006433287304619444,0.0030365455511491743
1772476658909108200,0.981108154296875,0.054235448056459426,0.009745276809018105,0.004979281683336011
1772476658919105000,0.99110498046875,0.05468436086773872,0.00729457916742831,0.011286743230512365
1772476658929103000,1.00110302734375,0.056629649716615674,-0.001954689148173202,-0.0032161125022917986
1772476658939101200,1.01110107421875,0.05019523275494575,-0.006924434105717228,-0.0011250859066378324
1772476658949098000,1.021097900390625,0.041516251736879346,0.0039441436490509655,0.003776696393964812
1772476658959096300,1.031096435546875,0.048100890824198723,0.0036907117398543047,0.0039892340329475695
1772476658969094100,1.04109423828125,0.04570610464215279,-0.0019626555422088132,0.005039884730195627
1772476658979091200,1.05109130859375,0.046753567868471145,0.0008803693101479439,0.010387460869806818
1772476658989089300,1.06108935546875,0.03972060049176216,0.007029287286257022,0.005316372717171907
1772476658999087000,1.071087158203125,0.054683191823959344,0.0048629098824720125,-0.003848263792833313
1772476659009084200,1.081084228515625,0.053337037912011144,0.0043753478445258225,0.005742772302543744
1772476659019082000,1.09108203125,0.04705225855410099,-0.0026837865907233206,0.004991848903964273
1772476659029080000,1.101080078125,0.04420914408266544,0.0013184987200424074,0.003009420082205906
1772476659039077000,1.1110771484375,0.048099721780419345,0.0014403218725143232,-0.0009550128696253523
1772476659049075200,1.1210751953125,0.042263855233788485,0.007379350253631127,-0.00010082545939367264
1772476659059072000,1.131072021484375,0.03478139052391052,-0.003240511153786792,0.0028282822284847495
1772476659069070000,1.141070068359375,0.05333586886823177,-0.005746784611491603,-0.0011120757280150427
1772476659079068200,1.151068115234375,0.05004325706362724,0.002712002329988172,0.006422379464004188
1772476659089065000,1.16106494140625,0.04076631015241146,-0.0033852648031635906,0.005915845580818131
1772476659099063000,1.17106298828125,0.05378478167951107,0.0006341149187646806,-0.0019337810741737484
1772476659109061000,1.18106103515625,0.043160511812567706,0.00530126362547453,0.002812477304576896
1772476659119058200,1.19105810546875,0.056927171358466144,0.0020960966380604074,0.0012224316341569647
1772476659129056300,1.20105615234375,0.04735094923973083,-0.0035111191017145756,-0.0039229866965906695
1772476659139054000,1.21105419921875,0.045405075868964195,0.0012090709707292262,0.003026467115129344
1772476659149051100,1.221051025390625,0.051689855226874346,0.003032166774375946,-0.0031500158629845826
1772476659159049000,1.231049072265625,0.050941082686185836,-0.0012667514081404077,-0.0016960313621209933
1772476659169047000,1.241047119140625,0.04390753078758716,-0.0009366780619136988,0.0036109205061569806
1772476659179044400,1.25104443359375,0.04166296673119068,-0.0007832016791420756,0.0013894496309803798
1772476659189042200,1.261042236328125,0.04794716156721115,-0.00014493973740027286,-0.0030753660244634373
1772476659199039200,1.271039306640625,0.04226151714622974,-0.002505886440281756,0.0004268471099436283
1772476659209037000,1.281037109375,0.05348433742821216,-0.0008238276629417669,0.01004015896921046
1772476659219035100,1.29103515625,0.04884557171165943,-0.007294640245399204,-0.004308414950757287
1772476659229032000,1.301031982421875,0.04794833061099052,-0.0015543864102161022,0.0006058752049691975
1772476659239030000,1.311030029296875,0.05737608416974544,0.0033217831001617014,0.005721756913978606
1772476659249028000,1.321028076171875,0.051091304811835284,0.0024737508652586254,0.00792265992516186
1772476659259025200,1.331025146484375,0.05124094241559505,-0.0024971054830268255,-0.0011964797755703329
1772476659269023200,1.341023193359375,0.051091304811835284,0.007041539983876282,0.002580760041088797
1772476659279021000,1.35102099609375,0.048397827944159505,-0.0011846922980097588,-0.0033957068528980014
1772476659289018000,1.36101806640625,0.04959434425234795,-0.0027795648405968677,-0.0008061835500411689
1772476659299016200,1.37101611328125,0.04854688102602958,0.002593275887722848,-0.000200892866961658
1772476659309014000,1.381013916015625,0.05183890830874443,0.002095434484357247,0.007444192225835286
1772476659319011300,1.39101123046875,0.04675064525902271,0.0011592125093477079,0.0001692556196823716
1772476659329009200,1.401009033203125,0.056177229773998257,0.002594373578732484,0.00017858970360830426
1772476659339006200,1.411006103515625,0.05348316838443279,0.0002071171117713675,-0.003304279409511946
1772476659349004000,1.421004150390625,0.04794599252343178,0.0012886732622922864,-0.000416357681970112
1772476659359002000,1.431002197265625,0.04360708653628826,-0.00013454906166007275,0.001029726640228182
1772476659368999200,1.440999267578125,0.039566871234774585,-0.0023185717199899953,-0.011978839980787597
1772476659378996700,1.450996826171875,0.046749476215243335,-0.00006597391254326793,-0.006505545969121158
1772476659388994800,1.460994873046875,0.05931903493106365,-0.006256235395904514,0.002298760195355862
1772476659398992000,1.470991943359375,0.055278819629549975,-0.005498154458287172,0.005492628899798728
1772476659408990000,1.480989990234375,0.03881926773786545,0.008392545313344452,-0.0012421044490067287
1772476659418988000,1.490988037109375,0.046450201007723804,0.003984912338390131,0.0012230800881283357
1772476659428984800,1.50098486328125,0.044504327636957164,-0.0009434057718666736,0.0015313514528563245
1772476659438983000,1.51098291015625,0.04689852929711342,0.0014081999972229823,0.004486406432744115
1772476659448980700,1.520980712890625,0.046450201007723804,0.0029679641229886328,0.003998590949759818
1772476659458978000,1.53097802734375,0.0460018727183342,0.0033350004872278074,0.00475433208735194
1772476659468975900,1.540975830078125,0.04779752396345138,-0.0026161687103653094,0.0009657123601529747
1772476659478973000,1.550972900390625,0.052286067554354665,-0.008863409090705682,-0.008004972480330616
1772476659488971000,1.560970947265625,0.04600128819644451,-0.0029402056122722568,0.004641861855937168
1772476659498968800,1.57096875,0.048096214649081225,0.0015439106819743755,0.002665972372819669
1772476659508966000,1.5809658203125,0.054230771881341934,-0.0017000990408181677,-0.000698622389184311
1772476659518963700,1.590963623046875,0.06021627603173255,0.0005712411413609516,0.00183671390786767
1772476659528961800,1.6009619140625,0.05078969151675701,0.003151116978927166,-0.0023345210619037968
1772476659538958800,1.610958740234375,0.0491430933535099,0.006302282477737753,-0.003715696054883301
1772476659548957000,1.62095703125,0.043456864410638806,0.0013882743081572698,0.008635667032725176
1772476659558955000,1.630955078125,0.03926701150536537,0.0006164976345055037,0.004862368172244168
1772476659568951800,1.640951904296875,0.04076338754296303,0.0040246324274252395,-0.0019037192960502578
1772476659578950000,1.650949951171875,0.040164837127923965,0.0055498766540142234,0.0012482373622711748
1772476659588947700,1.66094775390625,0.05437982496321201,0.005994228596251924,0.002413700945070013
1772476659598945000,1.670945068359375,0.05497895990014076,0.0008000797487067757,-0.005297800447442568
1772476659608943000,1.680943115234375,0.04929214643537998,0.0006915561816917033,-0.005836770728928968
1772476659618940000,1.69093994140625,0.05108779768049717,0.0010678130362473893,0.0022284988375846295
1772476659628938000,1.70093798828125,0.05647475141584873,0.002001614154485287,-0.0035776484242174772
1772476659638935800,1.710935791015625,0.044354105511307716,0.006562938712164759,-0.0070843322377651926
1772476659648932900,1.720932861328125,0.050040334454178804,0.0026500652717455523,-0.0009344313059002161
1772476659658930700,1.7309306640625,0.051237435284256935,-0.004120529408307629,0.002834972264175303
1772476659668928800,1.7409287109375,0.04001461500227451,0.0022122926256997744,0.0018462352214613927
1772476659678926000,1.750926025390625,0.048991702184081075,0.0021215376108157215,0.004512171061662957
1772476659688924000,1.760923828125,0.042855975908041,0.0014202483405097153,0.004704675126192159
1772476659698922000,1.770921875,0.05737082347273826,-0.0037890798098582307,0.0037955563580617307
1772476659708918800,1.780918701171875,0.04749532614648342,-0.005043238310373272,-0.0011830129392212255
1772476659718916900,1.790916748046875,0.05183423213362694,0.010026994668605039,0.00004915920423809439
1772476659728913700,1.80091357421875,0.04809329203963279,0.003368833116526366,0.007230079117696732
1772476659738911700,1.810911865234375,0.048242345121502876,-0.005146262576719163,-0.0014180227049160748
1772476659748909800,1.820909912109375,0.04689560668766498,0.005141645767106092,0.0007437264728127047
1772476659758907000,1.830906982421875,0.04854045128524303,0.00967188392088865,-0.0015375300318934023
1772476659768905000,1.840905029296875,0.05557283414006233,0.0017509769905736901,-0.005295996649423614
1772476659778902800,1.85090283203125,0.04719254380762577,-0.0014428449064522281,0.002388205744209699
1772476659788899800,1.86089990234375,0.05572188722193241,-0.0008942208806314738,0.004397513439739122
1772476659798898000,1.87089794921875,0.041356092739105225,0.001823300728801405,0.001987086730566807
1772476659808895700,1.880895751953125,0.04210428075790405,0.0030455828075530004,0.005758093169261701
1772476659818893000,1.89089306640625,0.04449789789617061,0.0034990918788476845,-0.0007835698594339191
1772476659828891000,1.900890869140625,0.05197919356226921,0.0017649975244159576,-0.0015902831324376165
1772476659838889000,1.910888916015625,0.05048340204656124,-0.00041781955751648637,-0.0004257556979777291
1772476659848885800,1.9208857421875,0.04659340887069702,0.0020216009215218945,-0.0022762743689119813
1772476659858883800,1.9308837890625,0.05048340204656124,0.002748371692956425,-0.0053042575876927
1772476659868881000,1.940880859375,0.03312544001042843,-0.006147401301635545,0.006059199574263766
1772476659878878700,1.950878662109375,0.04749006544947624,-0.005822201634992962,-0.0005136394774075598
1772476659888876800,1.960876708984375,0.046892099556326866,0.0072137399042490865,0.004325073824613355
1772476659898873900,1.970873779296875,0.04479658858180046,-0.0005644814653671346,0.0011266842086799442
1772476659908872000,1.980871826171875,0.052128831166028976,-0.00043681994386424774,-0.002850991817214526
1772476659918870000,1.9908701171875,0.048986441487073894,-0.00035389375487575303,-0.00041782355327159163
1772476659928866800,2.00086669921875,0.05197919356226921,0.004811252189648803,0.0030597620299551635
1772476659938865000,2.010864990234375,0.04973521402776241,-0.004143044917503721,-0.005059562111622654
1772476659948862700,2.02086279296875,0.04479717310369014,0.009370883117985795,-0.0037270759654231367
1772476659958860000,2.030860107421875,0.05078209273219108,0.011696817302168346,-0.002062037963187322
1772476659968857900,2.04085791015625,0.05497194563746452,-0.0001675916730921017,-0.0019008834515698253
1772476659978856000,2.05085595703125,0.05946165827214717,-0.003998563550296239,-0.0017695897886762393
1772476659988853000,2.06085302734375,0.05332651651799678,-0.0008843216827692231,-0.004248780018277466
1772476659998850800,2.070850830078125,0.053176878914237016,-0.0020457153035822557,-0.003955820387112908
1772476660008848000,2.080847900390625,0.04300093733668327,-0.0021453237701352917,0.0004262580214766785
1772476660018845700,2.090845703125,0.04704173716008663,0.0048896220761729635,0.0051216492960928
1772476660028843800,2.10084375,0.04868775080144405,0.005593642159682349,0.00024335746893193572
1772476660038840800,2.1108408203125,0.04000818526148796,0.002786210922981263,0.004133843835140578
1772476660048839000,2.1208388671875,0.04868716627955436,0.008482868786677136,-0.001345660721603781
1772476660058837000,2.1308369140625,0.04973462950587272,0.009745690084260423,0.0038043607190251347
1772476660068833800,2.140833740234375,0.049584991902112956,-0.00012056620208022649,-0.0005499939989997073
1772476660078831900,2.150831787109375,0.0471913747638464,-0.001002295781430439,-0.0019558878747047855
1772476660088830000,2.160829833984375,0.058713470253348346,0.00023555775496643036,-0.0038110370549838987
1772476660098827000,2.170826904296875,0.05018412683904171,0.0030145266572304532,-0.005398114450182765
1772476660108825000,2.1808251953125,0.040756957802176474,-0.0007392866180685814,-0.004073528482648543
1772476660118822000,2.19082177734375,0.05242869089543819,-0.0006991852198319975,-0.0027052129712421447
1772476660128820000,2.200820068359375,0.05048340204656124,-0.006930845009372569,0.0015982837758027016
1772476660138817800,2.21081787109375,0.051530280750989914,0.004629411653851275,0.001399212973169051
1772476660148814800,2.22081494140625,0.04778875613510608,0.004444200413211365,0.006432645129691809
1772476660158813000,2.23081298828125,0.05646773715317249,0.0028670284949184857,-0.005430285987001843
1772476660168810800,2.240810791015625,0.048536944153904915,-0.0038870243298209967,0.00378267404360231
1772476660178808000,2.25080810546875,0.054522448304295534,0.0016938805042300373,0.006382234683283605
1772476660188806000,2.260805908203125,0.04868658175766468,0.007371748044132254,-0.005558953867969103
1772476660198804000,2.270803955078125,0.0507815082103014,0.0049701405372994485,-0.007077486938447691
1772476660208800800,2.28080078125,0.04973404498398304,0.0027398961255559696,0.000734570485400036
1772476660218798800,2.290798828125,0.0421019426703453,0.0003469040375523036,0.004644483071286231
1772476660228795600,2.300795654296875,0.04763853400945663,0.004890936108780442,-0.008143545267381706
1772476660238793700,2.310793701171875,0.04599252036809921,0.0024730653078469914,0.004351833967375569
1772476660248791800,2.320791748046875,0.04928513217270374,0.0016067884551332098,0.005138079841085709
1772476660258788900,2.330788818359375,0.05227788424789905,0.0031357721376785775,-0.003791706733428873
1772476660268787000,2.340786865234375,0.05078209273219108,0.009063407479345914,0.006787070890818722
1772476660278785000,2.350784912109375,0.04704173716008663,0.002605300827301107,0.0004382772528333589
1772476660288781800,2.36078173828125,0.041056233009696005,0.000055842960884911005,-0.0009772475343197585
1772476660298780000,2.37077978515625,0.050633039650321,-0.0027586265130230456,0.003111935175186954
1772476660308777700,2.38077783203125,0.05183014048039913,-0.006726337125684949,-0.008016256492747925
1772476660318775000,2.390775146484375,0.05302782583236694,-0.006982862320155254,-0.007537638096371665
1772476660328772900,2.40077294921875,0.047042321681976314,0.01007822024905472,-0.0030003462931839746
1772476660338770000,2.41077001953125,0.05302782583236694,-0.0007958670811814954,0.003377942867344245
1772476660348768000,2.42076806640625,0.044048985084891315,0.003536910559274838,-0.010061169791198334
1772476660358765800,2.430765869140625,0.043599487751722336,-0.00016719323922588956,-0.008643809239985421
1772476660368763000,2.440762939453125,0.041354339173436165,-0.0030775596940162357,-0.0018748493945924564
1772476660378761200,2.45076123046875,0.048237668946385384,0.0032175047375349094,0.0037550416845828294
1772476660388759000,2.460759033203125,0.044646950978040695,-0.003754088411579141,-0.000419152427255176
1772476660398756400,2.47075634765625,0.04330079706609249,-0.0011144823142327368,-0.0015193641875404864
1772476660408754200,2.480754150390625,0.04330079706609249,-0.0034266282891912848,-0.001951321297441609
1772476660418752300,2.490752197265625,0.05422434214055538,-0.0043297568495967425,0.005935600594058632
1772476660428749000,2.5007490234375,0.040457098072767254,-0.003930813239197596,-0.0022279006159631534
1772476660438747100,2.5107470703125,0.03955927245020866,0.002985672738793073,-0.004399888059915974
1772476660448745200,2.5207451171875,0.05257774397730827,0.0016860436868242686,-0.00544389438724611
1772476660458742000,2.530741943359375,0.046592239826917646,-0.008008794705499894,-0.0012657273531891404
1772476660468740400,2.540740234375,0.053176878914237016,0.0036732462942891285,-0.002733712979941629
1772476660478737200,2.550737060546875,0.04644260222315788,0.0024120586897217436,-0.002757742309500463
1772476660488735200,2.5607353515625,0.046292964619398115,0.003272540555888554,-0.007184089118079282
1772476660498733300,2.5707333984375,0.03701543318629265,0.010447579859476535,-0.0048514723188942295
1772476660508730000,2.580730224609375,0.048238253468275066,0.0015513462114031425,0.00014219864939805119
1772476660518728200,2.590728271484375,0.04704056811630725,0.010314813475415576,-0.003041897579701617
1772476660528726000,2.60072607421875,0.05138005862534046,-0.002416130934996181,0.003086408008285798
1772476660538723300,2.610723388671875,0.04838730655014515,-0.004773467758551123,-0.0087798658429645
1772476660548721200,2.62072119140625,0.04255144000351429,-0.0039149763492488995,-0.009395394792268053
1772476660558718200,2.63071826171875,0.04479541953802108,-0.001966181510678143,-0.011722280536987819
1772476660568716300,2.64071630859375,0.04868599723577499,0.0024853436924633567,-0.006669563724682666
1772476660578714000,2.650714111328125,0.04389700939357281,0.0021803579800762237,0.004852052274206653
1772476660588711200,2.660711181640625,0.055418520361185074,-0.002597690055469866,-0.0010960744412848726
1772476660598709000,2.670708984375,0.045541853991150856,0.0023045751606783596,-0.004123884130129591
1772476660608707000,2.68070703125,0.05646539906561374,0.005666239892545854,0.006223961681919172
1772476660618704100,2.6907041015625,0.05886018524765968,0.001817989228622173,0.003089778142306022
1772476660628702200,2.7007021484375,0.05452127926051616,0.002332995254275738,0.0015813280744245274
1772476660638700300,2.7107001953125,0.04165302985906601,0.003798115353795583,-0.002191861188202165
1772476660648697000,2.720697021484375,0.05616846194565296,0.0057971208510192804,-0.008497961895354091
1772476660658695200,2.730695068359375,0.06140577807724475,0.005940969176453655,-0.003229972064285539
1772476660668692200,2.740692138671875,0.05302607226669788,0.0037674707662488796,0.005312235398171469
1772476660678690300,2.750690185546875,0.04120528609156608,0.0052154302392358656,-0.0015335205770563333
1772476660688688400,2.7606884765625,0.04838730655014515,0.0028534914474439574,-0.000803288340056315
1772476660698685200,2.770685302734375,0.053773675763607025,-0.0016675530446635092,-0.0037795322384452444
1772476660708683300,2.780683349609375,0.05137947410345077,0.005808549852264695,0.0038142930245725435
1772476660718681000,2.79068115234375,0.0473392588019371,0.0027466118482436285,-0.003366759319626726
1772476660728678100,2.80067822265625,0.05586918673813343,-0.0047084893598512275,-0.009296313765388912
1772476660738676000,2.810676025390625,0.053774844807386396,0.0003801099041214911,-0.011973807612643576
1772476660748674000,2.820674072265625,0.06125614047348499,0.005038707124083885,-0.007082135714101605
1772476660758671400,2.83067138671875,0.05392448241114616,0.002298080346165807,0.0012116864778567104
1772476660768669200,2.840669189453125,0.05886252333521843,0.0011574754975212272,-0.0006910281711956486
1772476660778666200,2.850666259765625,0.05018412683904171,-0.0053792990102141626,-0.0022866633321857077
1772476660788664000,2.8606640625,0.03596913900375366,0.0032508122104482023,-0.0023937724018935113
1772476660798662100,2.870662109375,0.052130584731698036,0.005425016156840138,0.0016782902094535528
1772476660808659200,2.8806591796875,0.0497357985496521,0.00137709361455054,0.004964024748699739
1772476660818657300,2.8906572265625,0.03986030122339725,0.0025151645836362147,0.00011665778276510536
1772476660828655400,2.9006552734375,0.04898761053085327,-0.00005583097361959517,-0.005805069549567997
1772476660838652200,2.910652099609375,0.048988195052742954,0.0016494482782814883,0.005079965578834526
1772476660848650200,2.920650146484375,0.051832478567957876,0.0027458326759980988,0.0077060854318784545
1772476660858648000,2.93064794921875,0.04165712151229381,-0.008065300390910125,-0.006701561731565744
1772476660868645000,2.94064501953125,0.044350598379969595,-0.0010630512378062122,-0.007511823235102928
1772476660878643200,2.950643310546875,0.042704584738612175,0.004540113377114176,0.003280181581294164
1772476660888640300,2.96064013671875,0.05048574013411999,0.004800565257208654,0.00011087649594992399
1772476660898638300,2.970638427734375,0.04704349072575569,-0.001551942720558145,0.002267748569161631
1772476660908636200,2.98063623046875,0.0477922632664442,-0.002360537994216429,0.001143087354209274
1772476660918633200,2.99063330078125,0.045697336813807485,0.00179201054139412,-0.003151678097108379
1772476660928631000,3.000631103515625,0.04839081368148326,0.005188688362782704,-0.0012438123489031568
1772476660938629000,3.010629150390625,0.04420096077620983,-0.0008639067991141928,-0.000980914495862089
1772476660948626200,3.020626220703125,0.04554769921004772,0.0004625851436052471,0.0024592388535384087
1772476660958624000,3.0306240234375,0.043751463443040844,0.0056509407170698975,0.0014417049746029077
1772476660968622000,3.0406220703125,0.055872693869471544,-0.005335898830727092,-0.00045357985324226315
1772476660978619100,3.050619140625,0.05946399635970592,-0.0024139812187495406,-0.00023441611065063624
1772476660988617200,3.0606171875,0.05243102898299694,-0.002424112170407898,0.0024376161101972685
1772476660998614000,3.070614013671875,0.0507855998635292,-0.0016958843754153348,0.0005638261615298688
1772476661008612000,3.080612060546875,0.04420154529809951,-0.002068402915658953,-0.005658660515933297
1772476661018610200,3.090610107421875,0.05018704944849014,-0.0011380935165609116,0.004073880109097808
1772476661028607200,3.100607177734375,0.050636546781659124,-0.004714157053056988,0.003538974081375636
1772476661038605300,3.110605224609375,0.04390227009057998,-0.0014968332661461318,0.003319116219040006
1772476661048603100,3.12060302734375,0.043753217008709905,0.003961955012843827,0.006790413625375367
1772476661058600200,3.13060009765625,0.04390227009057998,0.003806168798210274,0.004528820802364498
1772476661068598300,3.140598388671875,0.05991290917098522,-0.0012307759124611038,0.005507657505571842
1772476661078595000,3.150594970703125,0.0482411760777235,-0.001991593942325562,-0.005805813901661895
1772476661088593200,3.16059326171875,0.04719371285140514,-0.0011559876495666685,0.0003859031782019883
1772476661098591000,3.170591064453125,0.042704584738612175,0.003847548267258389,-0.000792935909400694
1772476661108588300,3.18058837890625,0.04884031101465225,-0.0005134128610108746,0.002398402911238372
1772476661118586000,3.190586181640625,0.05318038604557514,-0.0009968324425572064,0.000659203694248572
1772476661128584200,3.200584228515625,0.047943069913983345,0.0030320808656411824,-0.007511311778449453
1772476661138581200,3.210581298828125,0.04988894328474998,0.0032851668566101578,-0.0030744116098154334
1772476661148579000,3.2205791015625,0.048242345121502876,0.00267880045917409,-0.006734559818869456
1772476661158577200,3.2305771484375,0.047644379228353496,-0.0005259718047178467,-0.005294539911276661
1772476661168574200,3.24057421875,0.03866612300276756,0.0028961178774959987,0.010478673684061504
1772476661178572300,3.250572265625,0.04959025259912014,0.0003317458551493473,-0.004152525702724233
1772476661188569000,3.260569091796875,0.06216039583683013,0.005639178355684271,-0.00879578036472667
1772476661198567200,3.270567138671875,0.0527332267999649,0.0067393102008674755,0.00011231496778782457
1772476661208565200,3.280565185546875,0.050938160076737404,-0.0018116157138181733,0.0015090117568848653
1772476661218562000,3.29056201171875,0.047346857586503026,-0.005028271924215368,0.0040767113870009775
1772476661228560100,3.30056005859375,0.0527332267999649,-0.002943299753779138,-0.0027937269383342934
1772476661238558200,3.31055810546875,0.058120180535316465,0.002438029956261744,-0.002118640688364394
1772476661248555300,3.32055517578125,0.04719663546085357,-0.00034499920401140116,0.007814500542683527
1772476661258553300,3.33055322265625,0.05108662863671779,0.0023535830970446113,0.0020258615381084383
1772476661268550100,3.340550048828125,0.05662321997582912,-0.004895226978941355,0.004628472651401534
1772476661278548200,3.35054833984375,0.050936991032958026,-0.001790019799118454,0.008609098686208017
1772476661288546000,3.360546142578125,0.048992286705970764,-0.00040028532788128355,-0.002374432947183959
1772476661298543000,3.370543212890625,0.043755555096268654,0.008070910431077936,0.001930022781086154
1772476661308541200,3.380541259765625,0.0461497567564249,-0.0009055528421100461,0.0067818330266978585
1772476661318539300,3.390539306640625,0.04809504560530185,0.0023297104581681194,-0.006992744964174926
1772476661328536300,3.400536376953125,0.06305880598127842,-0.0023119227834948104,0.0069407818814972416
1772476661338534100,3.4105341796875,0.051237435284256935,-0.0009370548045379109,0.004885520718968473
1772476661348532200,3.4205322265625,0.04345627988874912,0.008774747851496794,0.0006394532475853339
1772476661358529000,3.430529052734375,0.042558454266190524,0.0011620215251867193,0.0012137003384297713
1772476661368527000,3.440527099609375,0.04420446790754795,-0.0032417632521901394,0.0072125799936242395
1772476661378524200,3.450524169921875,0.04959142164289951,-0.0029554014689376342,0.001955924407322891
1772476661388522200,3.460522216796875,0.04824468320906162,-0.00030926488069380864,-0.0007649153913138434
1772476661398520000,3.47052001953125,0.04734627306461334,0.003326846292702248,-0.00502348615124356
1772476661408517000,3.48051708984375,0.05587561647891998,0.00003005806777946418,-0.004582884510583244
1772476661418515000,3.490514892578125,0.047644963750243186,0.0060075104862218716,-0.0037750843921909106
1772476661428513000,3.500512939453125,0.050937575554847715,-0.00018707468957436502,-0.00022041955133900046
1772476661438509800,3.510509765625,0.05407996523380279,-0.0024014619471825426,-0.0003063123030820861
1772476661448508000,3.5205078125,0.05497837537825107,0.0033800771713926223,-0.005955958395497873
1772476661458505200,3.530505126953125,0.04480301832258701,-0.000607375040189072,0.0007943880809703841
1772476661468503000,3.5405029296875,0.04749649519026279,0.005754848616116214,0.0025184764937963336
1772476661478501000,3.550501220703125,0.044354105511307716,0.003165161487300065,0.003879636178631335
1772476661488498000,3.560497802734375,0.044354105511307716,-0.005312888418720104,0.00007352646051440387
1772476661498496000,3.57049609375,0.05363163694441318,0.00419018341130286,0.0008741890186443924
1772476661508494000,3.580494140625,0.05363163694441318,0.00040010922924557234,0.00035517011322081085
1772476661518491100,3.5904912109375,0.04929214643537998,0.0009078150103217921,0.0007216333720134571
1772476661528489200,3.6004892578125,0.04674889169335365,0.0011820111463341162,0.0029486024062149226
1772476661538487000,3.610487060546875,0.05542845723330974,-0.001481017496617278,-0.0016089513002894818
1772476661548484000,3.620484130859375,0.053632805988192554,0.0018622964445181422,0.0038799147398443892
1772476661558482000,3.63048193359375,0.036275428473949434,-0.0018600651007029227,-0.007091442398563959
1772476661568479000,3.64047900390625,0.05049100083112716,-0.0028183185277186567,0.003708426063880324
1772476661578477000,3.65047705078125,0.05258651180565357,0.00035880739201093093,-0.007880725046154112
1772476661588475000,3.660474853515625,0.05183832378685474,0.0020152168465079738,0.0002081034924602136
1772476661598472200,3.67047216796875,0.06006839199364185,-0.0004543356217793189,-0.004719041578262113
1772476661608470000,3.680469970703125,0.052287236598134036,-0.0013984161054366266,0.002760897814389318
1772476661618468000,3.690468017578125,0.047648470881581306,0.0045317799444310365,0.0014687482451554387
1772476661628465000,3.70046484375,0.04794774608910084,0.0007692239569616503,0.00008062292158138006
1772476661638463000,3.710462890625,0.05408347236514091,-0.004702124692790676,0.0031353845494333653
1772476661648460000,3.7204599609375,0.0590203442454338,-0.0029599166722066,0.007866185064148157
1772476661658458000,3.7304580078125,0.05049041630923748,-0.0027101825489487964,-0.00020018961406312883
1772476661668456200,3.740456298828125,0.05078969151675701,-0.0025875237128377194,-0.0017712017904501407
1772476661678453000,3.750452880859375,0.04465454976260662,-0.001269344653203734,0.0024263275312026962
1772476661688451000,3.760451171875,0.04555237538516521,-0.0009903273532458116,-0.0012506439484888687
1772476661698449200,3.77044921875,0.04659983861148357,-0.002314869938296033,-0.006932562042423524
1772476661708446000,3.780446044921875,0.0430085361212492,-0.0011013322841812623,0.0018212697435636073
1772476661718444000,3.790444091796875,0.050040918976068494,-0.0009847778202267364,0.0039425864462042225
1772476661728441000,3.800441162109375,0.04869301149845123,0.007298233570883167,0.001807108787470497
1772476661738439200,3.810439208984375,0.04300619803369045,0.0035229111458524127,0.007770734466193243
1772476661748437200,3.820437255859375,0.04240764761865139,0.004675961630005622,0.0053292504650540645
1772476661758434000,3.83043408203125,0.051534956926107406,-0.00752316090480308,-0.0005284351877402514
1772476661768432000,3.84043212890625,0.050935821989178655,-0.0038346810795861527,-0.005485313243023119
1772476661778430000,3.850429931640625,0.03971358622908592,0.0014922415727080078,-0.003011744470032863
1772476661788427000,3.860427001953125,0.05347966125309467,-0.0012024819705606204,0.006791167110623791
1772476661798424800,3.8704248046875,0.0519838697373867,-0.0035635377004742622,0.005743886547395959
1772476661808423200,3.880423095703125,0.041209962266683574,-0.0009626710196956992,0.007915074840327725
1772476661818420000,3.890419921875,0.05378010550439358,0.00015305568684125317,-0.0036479782806476575
1772476661828418000,3.90041796875,0.048094461083412164,0.000921822415254428,0.0003760530710453167
1772476661838415000,3.9104150390625,0.0479448234796524,-0.005988511241518426,-0.0067763714002910995
1772476661848413000,3.920412841796875,0.050938160076737404,-0.002919052084744908,0.00018202833628747612
1772476661858411000,3.930410888671875,0.045400984215736385,0.0012787569397652986,0.0049467767863767215
1772476661868408000,3.940407958984375,0.046448447442054744,0.0018398043390305246,0.0014743240359937771
1772476661878406100,3.95040625,0.04989011232852936,0.0033811908454226794,-0.0002293061106931418
1772476661888404200,3.960404296875,0.051685179051756854,-0.000052404328205739145,0.0041406663015717635
1772476661898401000,3.970401123046875,0.04001344595849514,-0.002585633149850764,-0.0003206285228021443
1772476661908399000,3.980399169921875,0.0483937362909317,-0.005233508176976465,0.011284117448586038
1772476661918396000,3.99039599609375,0.04749532614648342,-0.0044184032474295235,-0.001896138777793385
1772476661928394000,4.00039404296875,0.047944238957762716,-0.0013489064163935837,-0.0009315086964517831
1772476661938392000,4.01039208984375,0.04420329886376857,0.008367349223294877,-0.00029711978305131193
1772476661948389000,4.02038916015625,0.05931728136539459,-0.0031098159979257613,0.00022128720101900398
1772476661958387200,4.03038720703125,0.04495207140445709,0.002206698568552383,0.00615903408639133
1772476661968385000,4.040385009765625,0.055126843938231467,-0.004805945826868992,0.0046922175034182145
1772476661978382000,4.050382080078125,0.054527709001302715,-0.00676810874955554,0.0010574320644838734
1772476661988380000,4.0603798828125,0.04809329203963279,-0.011409311305900336,0.0059282712375512345
1772476661998377000,4.070376953125,0.04135959987044334,-0.00036239472386223495,0.001990223969146609
1772476662008375000,4.080375,0.05153437240421772,-0.0004444826605118578,0.0034665755654452366
1772476662018373000,4.090373046875,0.048691842454671855,-0.0036764120739768255,0.003221738525480032
1772476662028370200,4.1003701171875,0.04420271434187889,-0.003270576927665388,-0.008889536762516945
1772476662038368000,4.110367919921875,0.0563233602464199,-0.002243617062436533,-0.006582008738815784
1772476662048366000,4.120365966796875,0.05063713130354881,0.005472006807700381,-0.004942785597848705
1772476662058363000,4.13036279296875,0.04794365443587303,-0.0003359922011819435,-0.004811898360331543
1772476662068361000,4.14036083984375,0.047045828813314435,0.003315924181533046,-0.0049802132650977
1772476662078358000,4.15035791015625,0.05183364761173725,0.002163061497869785,0.004161170233483426
1772476662088356000,4.160356201171875,0.049289808347821235,0.0042358075139170975,0.0020124084014911205
1772476662098354200,4.170354248046875,0.05437690235376358,0.0016531446371649508,-0.0014889325166586786
1772476662108351000,4.18035107421875,0.06096095691919327,0.00028021003285684856,-0.0009136807788163423
1772476662118349000,4.19034912109375,0.0519838697373867,0.005535894936078693,-0.005307874316885136
1772476662128347100,4.20034716796875,0.05467734660506248,0.0013081579912410234,-0.001810442388872616
1772476662138344000,4.210343994140625,0.03821779471337795,-0.0008307209113205317,-0.0025143437413731587
1772476662148342000,4.220342041015625,0.04884206458032131,0.0005434666476241545,-0.0011679706337163224
1772476662158339000,4.230339111328125,0.04689619120955467,-0.005004217478481587,0.01216570888897404
1772476662168337200,4.240337158203125,0.051534956926107406,-0.00036279544101707866,0.0010019481507362797
1772476662178335000,4.2503349609375,0.05108662863671779,0.0014444643289141823,-0.0012224270675797015
1772476662188332000,4.26033203125,0.047046997857093806,0.0020742681133313454,0.008067420424404554
1772476662198330000,4.270330078125,0.04031389020979404,0.006819568937912118,0.0016517446958227082
1772476662208328000,4.280327880859375,0.04465279619693756,0.0013112387184271938,0.0010075650407699868
1772476662218325200,4.2903251953125,0.04989011232852936,-0.0022168315180882926,-0.004244163208664394
1772476662228323000,4.300322998046875,0.048842649102211,-0.0037890078862663355,-0.0035945082274731247
1772476662238320000,4.310320068359375,0.055277066063880914,-0.007162198659146087,-0.001658156170300208
1772476662248318000,4.32031787109375,0.04465279619693756,-0.0011508048697840422,0.006451400062511675
1772476662258316000,4.33031591796875,0.0549772063344717,0.003219722952440497,0.005286621466302313
1772476662268312800,4.340312744140625,0.05392974310815334,0.0001647210084600374,0.004328667720919475
1772476662278311000,4.350310791015625,0.051685179051756854,-0.00009770648712292312,-0.002712747823726386
1772476662288309000,4.36030908203125,0.05123626624047756,0.001232649350783322,0.010360673327581026
1772476662298306000,4.37030615234375,0.05602466956079006,0.0037536574408499287,0.0004427387988194823
1772476662308304100,4.38030419921875,0.050338440617918964,0.00013866126448556314,0.0037759337755618617
1772476662318302200,4.39030224609375,0.05153612596988678,-0.002528000090678688,-0.001965116927353665
1772476662328299000,4.400299072265625,0.04914192430973053,-0.0013136027783941244,-0.0009138406090205535
1772476662338297000,4.410297119140625,0.0479448234796524,-0.002601787416919251,-0.00499969428370241
1772476662348294100,4.420294189453125,0.054529462566971776,-0.004527626071588019,-0.008330117348046041
1772476662358292200,4.430292236328125,0.05018997205793857,0.0023381326536968117,-0.0010337589279515668
1772476662368290000,4.4402900390625,0.042108956933021545,0.0012885853556799701,-0.003863086902629584
1772476662378287000,4.450287109375,0.05812076505720615,0.0017819766295026056,0.005852689817268401
1772476662388285200,4.46028515625,0.056923664227128024,0.006993803839277825,-0.005395438435906544
1772476662398282000,4.470281982421875,0.05018997205793857,0.008388874356047018,0.0056431295866612345
1772476662408280000,4.480280029296875,0.05437982496321201,-0.0025284847186907424,-0.0007131989038083702
1772476662418278100,4.490278076171875,0.04495207140445709,-0.0006983854979887837,-0.00028551154364831746
1772476662428275200,4.500275146484375,0.04689736025333404,-0.0005075625047145876,-0.001523031149082817
1772476662438273300,4.510273193359375,0.04809387656152248,0.0009600064218626357,0.002364952732785605
1772476662448271000,4.52027099609375,0.054826984208822246,-0.0069559469137660925,0.0007677421026397496
1772476662458268200,4.53026806640625,0.04929039286971092,-0.006701154164545005,0.004764122829004191
1772476662468266200,4.540266357421875,0.05467676208317279,-0.005641370883592753,0.008033993078838102
1772476662478264000,4.55026416015625,0.050336687052249904,0.0001575103829614818,0.0009420803228160366
1772476662488261000,4.56026123046875,0.048991117662191386,-0.0019654017676104555,0.0001133561474038288
1772476662498259000,4.570259033203125,0.048392567247152324,-0.0037307634765631516,0.011369462211057543
1772476662508256300,4.58025634765625,0.044053076738119125,-0.002787535515798663,-0.007362961949477903
1772476662518254000,4.590254150390625,0.04659633148014545,0.009224121887079672,0.00046226548319682474
1772476662528252200,4.600252197265625,0.04779343231022358,-0.0020032398559909777,-0.001019351376686245
1772476662538249000,4.6102490234375,0.05482639968693256,-0.0030250982835947067,-0.0018802105562994256
1772476662548247000,4.6202470703125,0.055873278391361234,0.006095816103226389,0.0032863007948268205
1772476662558245000,4.6302451171875,0.04913958622217178,0.0007333900251775048,-0.0061404892161255695
1772476662568242200,4.6402421875,0.04719488189518451,0.001680074884930218,-0.0008430906274821609
1772476662578240300,4.650240234375,0.046296471750736236,0.0024791865192572,-0.011219514080043881
1772476662588237000,4.660237060546875,0.05482639968693256,-0.006009777791833039,-0.00974774276074022
1772476662598235100,4.670235107421875,0.048392567247152324,0.0031235043132721327,-0.00864405126858037
1772476662608233200,4.680233154296875,0.05033785609602928,0.0005979921509686392,0.003795405661012046
1772476662618230000,4.69022998046875,0.054228433793783185,-0.004237768858851632,0.0007254053648328408
1772476662628228000,4.70022802734375,0.048991702184081075,-0.0018886064940088544,0.003475571722653694
1772476662638226000,4.710225830078125,0.047046413335204124,0.004152508578059496,0.0019875205554068087
1772476662648223200,4.72022314453125,0.04884206458032131,-0.0024291582382837077,0.004262603047653101
1772476662658221300,4.73022119140625,0.055875031957030294,-0.0029425031714577924,0.0057870224362239235
1772476662668218000,4.740218017578125,0.047345688542723655,-0.0013342508429006557,0.0002234334923326969
1772476662678216200,4.75021630859375,0.04465221167504787,-0.0014852327328422688,-0.008306174783455208
1772476662688214000,4.760214111328125,0.0449514868825674,-0.005518666381709045,0.002271474896208383
1772476662698211000,4.770211181640625,0.04824351416528225,0.003123779734963318,-0.0008281807527178898
1772476662708209200,4.780209228515625,0.05003799636662006,-0.00460277109833114,-0.006436631751642562
1772476662718207200,4.790207275390625,0.042705753782391546,-0.007430207082966808,-0.0021195814032806083
1772476662728204300,4.800204345703125,0.04135959987044334,0.0010044449268549215,0.0031801918055396525
1772476662738202000,4.8102021484375,0.04749532614648342,0.004521377852247679,-0.00495643509728834
1772476662748199200,4.82019921875,0.05108721315860748,-0.00019011660085379843,-0.006609426468703896
1772476662758197000,4.830197021484375,0.04525076209008693,-0.002414611406411859,-0.004842110835504718
1772476662768195000,4.840195068359375,0.04555062181949615,-0.005697431898541981,0.004193574665742926
1772476662778192100,4.850192138671875,0.0479448234796524,-0.0013797365211416035,-0.00036018878163304177
1772476662788190200,4.860190185546875,0.04734627306461334,0.0022976599356465156,0.002427565073641017
1772476662798187000,4.87018701171875,0.042108372411131856,0.0018458804554902597,0.010106191676435991
1772476662808185000,4.88018505859375,0.053480830296874046,-0.0033531783188460395,0.0020953694106312466
1772476662818183200,4.89018310546875,0.04659750052392483,-0.003405589211506594,-0.005302755183773115
1772476662828180000,4.900179931640625,0.056474166893959045,0.0017064814033656147,-0.00039864849534351375
1772476662838178000,4.910177978515625,0.05512742846012115,0.0018671567097815567,-0.004589875940373167
1772476662848176000,4.920176025390625,0.048842649102211,-0.0007003314307250548,0.0013254444840596988
1772476662858173200,4.930173095703125,0.05078735342919826,-0.003148335077140655,-0.0014081862974911928
1772476662868171300,4.940171142578125,0.05437865591943264,0.0025896463150318592,-0.012935058426810428
1772476662878168000,4.95016796875,0.04465279619693756,-0.00836797826931288,-0.00026935955986846235
1772476662888166100,4.960166259765625,0.04046352781355381,0.0009073178242222638,-0.0018267587694339453
1772476662898164000,4.9701640625,0.043455695366859434,0.007075438828545157,-0.0038961078228196126
1772476662908161300,4.980161376953125,0.053480830296874046,0.0026295205260496004,-0.005166264755954034
1772476662918159400,4.990159423828125,0.05183423213362694,-0.0036935301742589215,0.005779355152999051
1772476662928157200,5.0001572265625,0.047045828813314435,-0.004682678779748675,0.00574493686016649
1772476662938154200,5.010154296875,0.047045828813314435,-0.001206289068942715,-0.005337022779555991
1772476662948152000,5.020152099609375,0.05078676890730858,0.010307557184144387,-0.0077263930009678
1772476662958150100,5.030150146484375,0.04689619120955467,-0.0012964641285143443,0.0021018402506131676
1772476662968147000,5.04014697265625,0.053929158586263654,-0.002826167046978662,-0.005794543588976376
1772476662978145000,5.05014501953125,0.05886719951033592,-0.003599978416212252,-0.002398608407215215
1772476662988142000,5.06014208984375,0.04555003729760647,-0.0004252054254175164,-0.0011415118850534782
1772476662998140200,5.07014013671875,0.05183481665551662,-0.00989587567729177,0.0005859101291745901
1772476663008138200,5.08013818359375,0.04914133978784084,-0.0030483284621324854,0.0022239961924031375
1772476663018135000,5.090135009765625,0.043005613511800767,0.0026930102205617004,0.006996754419011994
1772476663028133000,5.100133056640625,0.047046413335204124,0.006679307658917969,0.004632395341270603
1772476663038130000,5.1101298828125,0.04614917223453521,0.001729385927862313,-0.0013766358151799066
1772476663048128300,5.120128173828125,0.05138648836612701,-0.0023454234797085517,0.0027164239184232428
1772476663058126300,5.130126220703125,0.04749532614648342,0.005614273384935222,-0.0032395390436518933
1772476663068123100,5.140123046875,0.056773442101478576,0.0032366389816786975,-0.013172424546373076
1772476663078121200,5.150121337890625,0.04854278937280178,0.0006857300853371271,-0.00916418898543343
1772476663088119000,5.160119140625,0.04285714495182037,-0.00009328489868785254,0.002987381780333817
1772476663098116000,5.1701162109375,0.05138590384423732,-0.00020019161194068146,0.008938038379629141
1772476663108114200,5.1801142578125,0.057819736284017556,-0.0006552113640762399,0.0036888628468848762
1772476663118111200,5.190111328125,0.04824292964339256,-0.001020383993969881,-0.0014094832054339348
1772476663128109300,5.200109375,0.04854162032902241,-0.00013769086681713816,0.0026187356976093723
1772476663138107100,5.210107177734375,0.04854162032902241,-0.004819959510845365,0.003006460940139368
1772476663148104200,5.220104248046875,0.04554945277571678,-0.005633997573779197,0.0000063932081684470174
1772476663158102000,5.23010205078125,0.047345104020833965,-0.0060059258839115495,-0.00024319307215046136
1772476663168100000,5.24010009765625,0.04614800319075584,0.0036744147672463437,-0.007028478431259281
1772476663178097200,5.25009716796875,0.0519838697373867,-0.0004762240828349604,0.006464665969461202
1772476663188095000,5.260094970703125,0.04554945277571678,-0.005654749813329545,0.006317768312059342
1772476663198092300,5.27009228515625,0.05602466956079006,0.004981441674381494,0.002152725621056743
1772476663208090000,5.280090087890625,0.06395546256005763,0.004223602194536943,-0.002326068327389657
1772476663218088200,5.290088134765625,0.05138590384423732,0.005818003238021629,-0.001579145250492729
1772476663228085000,5.3000849609375,0.0593166968435049,0.0019255352626918465,0.008903487656055949
1772476663238083000,5.3100830078125,0.05662263545393943,-0.002209798703691922,-0.004974441111437045
1772476663248078000,5.320078125,0.04794365443587303,-0.000912323934547021,-0.0009063559888862073
1772476663258076200,5.330076171875,0.04255611617863178,-0.004659339859589818,0.000006493672868236899
1772476663268074000,5.340073974609375,0.05018763397037983,-0.0030499695758364393,-0.0002255660839146003
1772476663278071000,5.350071044921875,0.049589083555340766,0.00950590938696987,-0.003218194861523807
1772476663288069400,5.3600693359375,0.04614683414697647,-0.0025444548956133073,-0.0009079177583102136
1772476663298067200,5.370067138671875,0.042106618845462795,-0.0009488682545066694,-0.004913943095854484
1772476663308064300,5.380064208984375,0.045099955442547794,0.004300757086098019,-0.007125997688714415
1772476663318062000,5.39006201171875,0.053179801523685455,-0.002805323475883051,-0.004621312258252874
1772476663328059100,5.40005908203125,0.04854103580713272,0.00008734977530111791,-0.0032741765321930866
1772476663338057000,5.410056884765625,0.05078618438541889,-0.004050214964075712,-0.005867727556196041
1772476663348055000,5.420054931640625,0.0446510426312685,-0.003578998418620904,-0.008658381188032216
1772476663358052000,5.430052001953125,0.053929158586263654,0.007647315865790006,-0.009338422174332664
1772476663368050200,5.44005029296875,0.047345104020833965,0.001878061410874943,0.0022862888728501273
1772476663378048300,5.45004833984375,0.051235681718587875,-0.005070639486418804,0.000706490601808764
1772476663388045000,5.460045166015625,0.05123626624047756,-0.008213499522831989,-0.010828418703493662
1772476663398043100,5.470043212890625,0.05243336707055568,0.002529757652102853,-0.005369924968737177
1772476663408040000,5.4800400390625,0.053480830296874046,0.0021386043371036064,0.004662055260594934
1772476663418038000,5.4900380859375,0.05153554144799709,-0.0015586769949659355,-0.0001918556105578318
1772476663428036000,5.5000361328125,0.04914192430973053,-0.0020784924827108625,0.00447035491366405
1772476663438033200,5.510033203125,0.04614917223453521,0.001137648275277752,0.0037272768948227166
1772476663448031200,5.52003125,0.047046997857093806,-0.002750885022917646,-0.0034525013743201267
1772476663458028000,5.530028076171875,0.05467851564884185,0.0032627986195308037,0.004413231598678976
1772476663468026000,5.540026123046875,0.050938160076737404,0.0013900370069808558,0.013616332388971931
1772476663478024200,5.550024169921875,0.04584989702701568,0.0050756627214082976,0.004386704351357184
1772476663488021200,5.560021240234375,0.04644903196394443,-0.0048006976879492866,0.004756738673569634
1772476663498019300,5.570019287109375,0.04166121316552162,-0.0028371842000371543,-0.0004873451255261898
1772476663508017200,5.58001708984375,0.04989069685041904,0.009696264876896748,0.008209217215003445
1772476663518014200,5.59001416015625,0.05018938753604889,-0.0022758568125034796,0.006121400923165493
1772476663528012000,5.600011962890625,0.054826984208822246,-0.006068919533968437,-0.0006686976083787158
1772476663538009000,5.610009033203125,0.039563364103436464,0.004086577477178071,-0.002159698784537613
1772476663548007200,5.620007080078125,0.05243219802677631,-0.0009132018590258667,-0.005192696105153299
1772476663558005000,5.6300048828125,0.04629588722884655,0.0011159553208111902,-0.011255886867945082
1772476663568002300,5.640002197265625,0.04809153847396373,-0.0045891898121393744,0.004891160441888496
1772476663578000100,5.650000244140625,0.049588499033451076,0.0028247014610882615,0.0040680988222826266
1772476663587998200,5.659998291015625,0.042405894052982326,0.0001255243633437203,0.00018032956954557448
1772476663597995000,5.6699951171875,0.03866495395898819,-0.00032676429017737974,-0.0006718896458856761
1772476663607993000,5.6799931640625,0.04914017074406147,-0.0020398326958340476,0.005567886093095876
1772476663617992200,5.6899921875,0.04509937092065811,-0.0003532798356449348,-0.005702604688936844
1772476663627989000,5.699989013671875,0.04719488189518451,-0.005758292386194807,-0.00471107290093787
1772476663637987000,5.709987060546875,0.039862639310956,-0.002631473023240687,0.0028826792968437076
1772476663647985200,5.719985107421875,0.03776829738020897,-0.0014251648317556828,-0.006761648755194619
1772476663657982200,5.729982177734375,0.051235097196698186,-0.0031017890967414133,-0.00397991821533069
1772476663667980300,5.739980224609375,0.056022915995121,0.00009787259637087117,-0.0014573363685747608
1772476663677977000,5.74997705078125,0.04809270751774311,-0.005838869071181398,0.008310873791459016
1772476663687975200,5.75997509765625,0.03761807525455951,-0.007014996753534069,0.002767396053834818
1772476663697973000,5.769972900390625,0.05063713130354881,-0.006317989791056607,-0.00041951318685896693
1772476663707970000,5.779969970703125,0.052582420152425764,0.0004317350600817008,-0.0013019631437724455
1772476663717968100,5.789968017578125,0.039863223832845684,-0.0030259924765050528,-0.0036193549743620676
1772476663727966000,5.799966064453125,0.04824292964339256,0.004229850413877284,0.004613644975028
1772476663737963300,5.80996337890625,0.052582420152425764,0.003278868119508843,0.010289736116374843
1772476663747961000,5.819961181640625,0.053179801523685455,0.0032713278442141015,-0.00004508125074207783
1772476663757958100,5.829958251953125,0.04839081368148326,0.0009655057225318159,-0.005715153643256053
1772476663767956000,5.8399560546875,0.04509878639876842,-0.00010428150214866035,0.010532056972268037
1772476663777954000,5.8499541015625,0.050934652945399284,-0.0036673990775147104,0.004441485012206248
1772476663787951000,5.859951171875,0.04494914879500866,0.0015916699448702274,-0.00045927894166670737
1772476663797949200,5.86994921875,0.04674480004012584,-0.005523456721258117,-0.0011296387841692194
1772476663807947300,5.879947265625,0.0555740031838417,-0.0005396193062799284,-0.0018323482600040733
1772476663817944000,5.889944091796875,0.04644552483260631,0.0024423339553322873,-0.005835807181126438
1772476663827942100,5.899942138671875,0.04719254380762577,0.0029414377319000777,-0.006305064094113186
1772476663837939000,5.90993896484375,0.05332768556177616,-0.007456057335209334,-0.00726864842926152
1772476663847937000,5.91993701171875,0.04285246877670288,0.0009140934832365019,0.00001945361914113164
1772476663857935000,5.92993505859375,0.05048457109034061,-0.0021692523495832573,-0.0017242893422255291
1772476663867932200,5.93993212890625,0.053178047958016395,-0.008152781169896478,-0.0011206060943426564
1772476663877930200,5.94993017578125,0.05153203431665897,-0.0036578278169821714,0.0014183332321699709
1772476663887928300,5.95992822265625,0.04883855744898319,0.00012843241682712687,-0.0027684144005645063
1772476663897925000,5.969925048828125,0.05018529588282108,-0.003068836389799253,0.0018448287156643344
1772476663907923200,5.979923095703125,0.04285305329859256,-0.0038245975061669013,0.0023211957894498482
1772476663917920000,5.989919921875,0.056170800033211704,-0.0018183850937886744,-0.005037715605995617
1772476663927918000,5.99991796875,0.04973638307154178,-0.0006380701454967493,0.0004660603089025244
1772476663937916200,6.009916259765625,0.0447989266693592,-0.0023736429293174295,-0.00012754906953778118
1772476663947913200,6.019913330078125,0.05018588040471077,-0.0059496919098484796,0.004717520908033475
1772476663957911000,6.0299111328125,0.05317863247990608,-0.006867873050557682,0.004233678347268142
1772476663967909000,6.0399091796875,0.04420096077620983,-0.007044320458607398,0.007659976701252162
1772476663977906200,6.04990625,0.05572305626571178,-0.005251379477095907,-0.006774206842668354
1772476663987904000,6.059904052734375,0.05033610253036022,-0.005788456912306719,-0.007779420096147805
1772476663997901300,6.0699013671875,0.04420037625432014,0.0024695978486488457,0.002533865859173238
1772476664007899100,6.079899169921875,0.05033610253036022,-0.000379267656027514,-0.0013148454582318663
1772476664017897200,6.089897216796875,0.04809153847396373,-0.002436075746604183,-0.005962858493742533
1772476664027894000,6.09989404296875,0.04913900170028209,-0.0007668536179509829,0.0012364099271595477
1772476664037892000,6.10989208984375,0.04629588722884655,0.006398125230515143,-0.0037031562337186187
1772476664047889200,6.11988916015625,0.04854045128524303,0.004204036408841785,-0.0000811206785030663
1772476664057887000,6.129886962890625,0.04285363782048225,-0.003645608227048069,-0.0020799526457907632
1772476664067885000,6.139885009765625,0.047643210184574125,-0.006603165691276081,0.0030463819585740564
1772476664077882000,6.149882080078125,0.057819151762127874,-0.003001142019272083,-0.004289084629202261
1772476664087880200,6.159880126953125,0.04629705627262592,0.0033998487384757025,0.003811292783310637
1772476664097878300,6.169878173828125,0.04165887507796287,0.004013446881830168,-0.0006995311380596831
1772476664107875000,6.179875,0.05108604411482811,0.0032325416202293126,0.0028947441939730194
1772476664117873200,6.189873046875,0.0433048887193203,0.006487769996302086,-0.008539316819049417
1772476664127870200,6.1998701171875,0.04420271434187889,0.0030742563461884855,0.0002128116336185485
1772476664137868300,6.209868408203125,0.0471954664170742,0.0010792614454461728,0.006174934908421709
1772476664147866400,6.219866455078125,0.045698505857586856,0.0011281206826402922,-0.003019589849771
1772476664157863200,6.22986328125,0.05018763397037983,-0.0006212859761770232,0.005432578408787958
1772476664167861200,6.239861328125,0.049439445951581,0.004915983214246807,0.007364688115683384
1772476664177858000,6.249858154296875,0.046745969083905214,0.0025493063131332744,0.0034461492653470485
1772476664187856100,6.259856201171875,0.05003741184473037,-0.002215150732244365,0.003693822149792686
1772476664197854000,6.26985400390625,0.04480009571313858,-0.0036715338278154376,-0.005155368902604095
1772476664207851300,6.279851318359375,0.05407821166813373,-0.0010532273884688037,0.00017928382335230707
1772476664217849000,6.28984912109375,0.05063537773787975,-0.007364639595799962,-0.003450017156288959
1772476664227847200,6.29984716796875,0.046446109354496,0.0011599343139663688,-0.00130940209813416
1772476664237844200,6.30984423828125,0.04854162032902241,0.002394906625521253,0.0073215933260507874
1772476664247842000,6.319842041015625,0.048690673410892484,-0.0030244349882472305,0.002628613204229623
1772476664257839000,6.329839111328125,0.048690673410892484,-0.001205539008627238,0.00018998788045719264
1772476664267837000,6.3398369140625,0.04405190769433975,0.000010262526165752205,-0.0008871946306899189
1772476664277835000,6.3498349609375,0.05407704262435436,-0.0018000248844909947,-0.0010968781588831917
1772476664287832000,6.35983203125,0.048690088889002794,0.005098971673403866,0.000548665125016123
1772476664297830100,6.369830078125,0.050186464926600456,-0.0039058235013580997,-0.002992249751696363
1772476664307827200,6.3798271484375,0.05108370602726936,0.0011390487874421524,-0.004671562874456867
1772476664317825000,6.389824951171875,0.04854045128524303,-0.00097026837720623,-0.00949256242327392
1772476664327823000,6.399822998046875,0.05168225644230842,0.0012454454710969002,-0.004510262232366949
1772476664337820200,6.409820068359375,0.059463411837816234,0.0007244309714093105,-0.002037625041138381
1772476664347818200,6.419818359375,0.05512275228500366,-0.0005912321895637433,-0.004052759689255617
1772476664357816300,6.42981640625,0.04524667043685913,-0.00240668240122759,0.0011111806788714602
1772476664367813000,6.439813232421875,0.04898761053085327,0.0018384303700964663,-0.0018311472501838578
1772476664377811200,6.449811279296875,0.05227963781356811,0.002120225005263637,-0.0021574200624832882
1772476664387808500,6.45980859375,0.046593993392586706,-0.0017440015438041881,-0.0014669764131773262
1772476664397806600,6.469806640625,0.04360124131739139,-0.006539910604670876,-0.0014252287638373672
1772476664407804700,6.4798046875,0.05467442399561405,-0.0037849487699015295,-0.0000989348964067176
1772476664417801700,6.4898017578125,0.05003565827906131,0.004188358207452984,-0.001958974880934693
1772476664427799800,6.4997998046875,0.04659457791447639,0.000045724567314027805,-0.000015809490485116837
1772476664437798000,6.5097978515625,0.04524842400252819,-0.003107856365457701,-0.0023414120269939303
1772476664447794700,6.519794677734375,0.048989364096522325,0.00041595810645958406,0.0019303607078036292
1772476664457792800,6.529792724609375,0.056619712844491,0.0015461069202268845,-0.004460285610798746
1772476664467789600,6.53978955078125,0.05916296758651733,-0.001941191487427568,-0.004942776464694179
1772476664477787600,6.54978759765625,0.04809036943018436,-0.0065064935339032666,0.0025713802913902325
1772476664487785500,6.559785400390625,0.04390051652491092,-0.0003481387258798349,0.000634539610450156
1772476664497782800,6.56978271484375,0.05168225644230842,0.0018289167626018752,0.0003237383619183674
1772476664507780900,6.57978076171875,0.05347790768742561,-0.008361965228701591,-0.005813367020455189
1772476664517777700,6.589777587890625,0.04509761735498905,-0.008049432676564902,-0.0012365377913229167
1772476664527775700,6.599775634765625,0.0452478394806385,0.003313765617542958,-0.0013104843769455327
1772476664537773600,6.609773681640625,0.04809036943018436,-0.00008761663465993478,0.005299517480493523
1772476664547770600,6.6197705078125,0.045696167770028114,-0.00482545481575944,-0.0006890508432406932
1772476664557768700,6.629768798828125,0.05826572648584842,0.000735796040573041,-0.0008060693856095895
1772476664567766800,6.639766845703125,0.058116088882088655,-0.007093424293096177,0.009786165941832587
1772476664577763600,6.649763671875,0.04868950436711311,0.002196417490666499,-0.0006058067063102498
1772476664587761700,6.65976171875,0.054524786391854284,-0.0026424042675644156,-0.0010821509472094476
1772476664597758700,6.6697587890625,0.05332827008366584,-0.005512019728502491,-0.0009749551125336438
1772476664607756500,6.679756591796875,0.055123921328783035,0.005428315508912783,0.0023027468173066152
1772476664617754600,6.689754638671875,0.05362754529118537,-0.004243007864616811,0.00295410513181705
1772476664627751700,6.699751708984375,0.04524842400252819,-0.004725544098873797,-0.005092372969258577
1772476664637749800,6.709749755859375,0.04255436261296272,-0.0029831251595023784,0.005222616319381632
1772476664647747800,6.719747802734375,0.0522802223354578,-0.0006293425601135822,0.001159933457733132
1772476664657744600,6.72974462890625,0.05078501534163952,-0.003862282043386949,-0.005514219677099026
1772476664667742700,6.73974267578125,0.05168284096419811,-0.004633274407393764,-0.0004023885221220553
1772476664677739500,6.749739501953125,0.049587914511561394,-0.0075348262264218644,0.0012591377821983768
1772476664687737600,6.759737548828125,0.044350598379969595,-0.004855200929229613,-0.0026639037133194504
1772476664697735700,6.769735595703125,0.04839081368148326,0.0017415264589275465,-0.003597782463370822
1772476664707732700,6.779732666015625,0.04973755211532116,-0.0007191320293175522,-0.006600494243577122
1772476664717730800,6.789730712890625,0.04644552483260631,-0.0010574617472360842,-0.007327721672737971
1772476664727727600,6.7997275390625,0.05662029736638069,-0.0016252548373522585,0.0027727069831918923
1772476664737725700,6.8097255859375,0.04913900170028209,0.0029889030213846126,-0.0009382763639558106
1772476664747723500,6.8197236328125,0.04719312832951546,-0.000549247078206099,0.004007180681591853
1772476664757720800,6.829720947265625,0.04824000703394413,-0.0014145404043418238,0.0027771639626007526
1772476664767719000,6.839718994140625,0.0413572617828846,0.002705528350484383,-0.0015833647678839041
1772476664777716700,6.849716796875,0.04270516926050186,0.0007530554193392162,0.00010163374356925487
1772476664787713800,6.8597138671875,0.06036299102604389,-0.0025581617626798106,-0.002078290411666967
1772476664797711600,6.869711669921875,0.06021393794417381,-0.000749158416467253,0.004284723547915928
1772476664807708700,6.879708740234375,0.05572480983138084,0.0019587362772726918,-0.0005418746246257796
1772476664817706500,6.88970654296875,0.052582420152425764,-0.0004819160359824309,-0.00020471509213093668
1772476664827704600,6.89970458984375,0.045399815171957014,-0.001382983072164643,0.0011082169702276586
1772476664837701600,6.90970166015625,0.04495090236067772,-0.000029776367044541985,0.005319249660847708
1772476664847699700,6.91969970703125,0.05048690917789936,0.0010175033399500535,-0.0022360839224187658
1772476664857696800,6.92969677734375,0.055125674894452095,-0.0005583808035546098,0.006677199041866697
1772476664867694600,6.939694580078125,0.04929039286971092,-0.005620295558701036,0.00019664138352964072
1772476664877692700,6.949692626953125,0.0419581502854824,-0.003972793783977977,-0.003671249558380805
1772476664887689500,6.959689453125,0.048990533140301704,-0.005986285605924786,-0.005960616304306313
1772476664897687600,6.9696875,0.044053076738119125,-0.006679269984655548,0.005465576496091671
1772476664907684600,6.9796845703125,0.05991407821476459,0.0009506552132719662,0.005358239097520708
1772476664917682700,6.9896826171875,0.059016252592206,-0.004237730613767053,0.0019296939875232055
1772476664927680800,6.9996806640625,0.0507855998635292,-0.0033765329366142395,-0.002780703059979714
1772476664937677600,7.009677490234375,0.04450140502750873,-0.0005694330621758126,0.0024687145013595
1772476664947675600,7.019675537109375,0.05497603729069232,-0.00490463641139213,0.000022714155307039618
1772476664957673700,7.029673828125,0.04435176742374897,0.004192533486126922,-0.0034098358429502694
1772476664967670800,7.0396708984375,0.047943069913983345,0.003559283362931455,0.0030362943893996997
1772476664977668900,7.0496689453125,0.048991117662191386,-0.009851265925652114,-0.005576279462105594
1772476664987665700,7.059665771484375,0.04614800319075584,-0.003711405470133468,-0.004967719109705649
1772476664997663700,7.069663818359375,0.05273205775618553,0.0017501116241823182,0.003403442634781822
1772476665007661600,7.07966162109375,0.05467793112695217,0.000904239380324725,-0.0000786181941628456
1772476665017658600,7.08965869140625,0.05213350734114647,0.0034473910889515533,0.0007853736574528738
1772476665027656400,7.099656494140625,0.04929039286971092,-0.0030535574785099016,0.005341603056550957
1772476665037654500,7.109654541015625,0.046745969083905214,0.0004354428354083211,0.0003029878348344937
1772476665047651800,7.11965185546875,0.042855975908041,-0.005276805608475115,-0.00379489420435857
1772476665057649700,7.129649658203125,0.053180970567464826,-0.0034668772449556852,0.0031830915821017694
1772476665067646700,7.139646728515625,0.053181555089354515,-0.0027752782516021397,-0.004838886831956915
1772476665077644500,7.14964453125,0.049290977391600606,0.006535747598673333,-0.0003299078078009188
1772476665087642600,7.159642578125,0.05213350734114647,-0.0018595276716412625,-0.0008511734692379832
1772476665097639700,7.1696396484375,0.045399815171957014,-0.0018290357790217966,0.0011572254774160683
1772476665107637800,7.1796376953125,0.0471954664170742,0.004034562735095096,0.00028475349182263015
1772476665117634800,7.189634765625,0.05647299785017967,-0.0023506778976719943,-0.00018449885458685458
1772476665127632600,7.199632568359375,0.045699090379476545,-0.004208711156903883,-0.0029558586974861097
1772476665137630700,7.209630615234375,0.04285539138615131,0.005987572809890844,-0.000518900174414739
1772476665147627500,7.21962744140625,0.05198328521549701,-0.0011999600782670312,0.0018899464990245177
1772476665157625600,7.22962548828125,0.052881110838055606,0.00020093624944565817,0.0036643768595997243
1772476665167622700,7.23962255859375,0.05332943912744522,0.007584682404514751,0.0005734114072052761
1772476665177620700,7.249620849609375,0.04794190087020397,-0.004042095018879627,-0.0003049834290985018
1772476665187618800,7.259618896484375,0.049587914511561394,0.005631110355304554,-0.001670348931592889
1772476665197615600,7.26961572265625,0.054226095706224435,0.004975826496814261,0.0005996144275413826
1772476665207613700,7.27961376953125,0.05497428372502327,-0.0043476467014363146,0.001603676903550513
1772476665217611800,7.28961181640625,0.04868891984522342,0.0003456850468341145,-0.008697904914245009
1772476665227608600,7.299608642578125,0.04105681753158569,0.0045101352244368165,-0.0007378401547204703
1772476665237606700,7.309606689453125,0.04554653016626835,0.0030329793397177126,-0.0037445431234547867
1772476665247603700,7.319603759765625,0.06080956574976444,0.0020372032035636946,0.005420367381186224
1772476665257601800,7.329601806640625,0.049586745467782016,0.003219359338725917,0.0071258789577055715
1772476665267599600,7.339599609375,0.04509761735498905,0.006814461221243255,0.004174180412106216
1772476665277596700,7.3495966796875,0.051233928152918815,0.0025079944865108697,0.00633063236020971
1772476665287594500,7.359594482421875,0.05841711765527725,0.0002119976412213873,-0.003701740594767034
1772476665297591800,7.369591796875,0.05138473480045795,-0.0021100141385031745,-0.0029112523707794024
1772476665307590000,7.37958984375,0.05527531249821186,-0.0003990746140843839,0.004747477654879912
1772476665317587700,7.389587646484375,0.054527124479413026,0.00007481823105772492,0.0014841102110687643
1772476665327584800,7.399584716796875,0.05078618438541889,0.010760530824254965,-0.000868174836388789
1772476665337582600,7.40958251953125,0.047045244291424745,0.0018364413402872741,-0.0007523481706855818
1772476665347580700,7.41958056640625,0.053180970567464826,-0.002799070975376526,0.0027377498342422766
1772476665357577500,7.429577392578125,0.04345452632308006,-0.00470352406331076,0.0030126349525991824
1772476665367575600,7.439575439453125,0.05168401000797748,-0.0010372169685841071,0.005030281218211166
1772476665377572900,7.44957275390625,0.05183364761173725,0.004008928539039334,0.0012400768887018785
1772476665387570700,7.45957080078125,0.04839139820337295,-0.0022861304697013108,-0.00437421932911966
1772476665397568500,7.469568603515625,0.04973813663721084,0.00302103659853019,0.002807819395768456
1772476665407565600,7.479565673828125,0.043752632486820216,0.0010008242019073803,0.00025942268774379045
1772476665417563400,7.4895634765625,0.04225684097111225,-0.0035585064739745574,-0.007922308298712596
1772476665427560400,7.499560546875,0.05138473480045795,0.007895559001571382,0.0052661403672769665
1772476665437558500,7.50955859375,0.03806640354394913,-0.0000562316907744389,0.0004967111754929646
1772476665447556600,7.519556640625,0.04943886142969131,0.003071509264553606,0.0018557337021688
1772476665457553700,7.5295537109375,0.060362406504154205,0.0010291729427350218,0.0006505134977167472
1772476665467551500,7.539551513671875,0.05437631783187389,0.003601968016843602,-0.0023014042435912413
1772476665477549600,7.549549560546875,0.05946399635970592,0.0011693931225338018,0.0008539499482139944
1772476665487546400,7.55954638671875,0.04390110104680061,0.004773073320440017,-0.0028181033277651295
1772476665497544400,7.56954443359375,0.05662029736638069,0.004881847478382406,0.0034701694617513567
1772476665507541500,7.57954150390625,0.04330313515365124,0.0027855199427591288,0.002674530138610862
1772476665517539600,7.58953955078125,0.04390227009057998,0.005176466489559971,-0.0034758868164848533
1772476665527537700,7.59953759765625,0.050636546781659124,-0.0013221519818529485,0.0017745810576248913
1772476665537534500,7.609534423828125,0.051235097196698186,0.0009800388546718749,0.004503996888361871
1772476665547532500,7.619532470703125,0.04913958622217178,0.00583719085403718,-0.001998325077211484
1772476665557529300,7.629529296875,0.042705753782391546,0.004472025424709136,0.00017165307274553924
1772476665567527400,7.63952734375,0.03956277958154678,0.005064829658495727,-0.00020694358183536677
1772476665577525500,7.649525390625,0.04524900852441788,0.0010419761983255739,-0.0002260318747954443
1772476665587522600,7.6595224609375,0.052581835630536075,0.003042353666605777,-0.00011459825641941278
1772476665597520600,7.669520751953125,0.05931494327783584,-0.004750888602684427,0.0020683672392740843
1772476665607518500,7.6795185546875,0.05243161350488663,0.0036801389718457357,-0.004051485614199191
1772476665617515500,7.689515625,0.04809212299585342,0.002431164107346558,-0.011503011763119138
1772476665627513300,7.699513427734375,0.04494914879500866,0.004661259249095747,0.0027538424525177106
1772476665637510700,7.7095107421875,0.04360241036117077,-0.0037916876108865833,0.0034878284160280598
1772476665647508700,7.7195087890625,0.052580082064867015,0.0026727540254665653,-0.0040904293850995595
1772476665657506600,7.729506591796875,0.052580082064867015,-0.0021171454197217825,-0.00044952929920982564
1772476665667503600,7.739503662109375,0.04180617459416389,0.00009524681444454471,-0.002984513969812542
1772476665677501400,7.74950146484375,0.04689443764388561,-0.004221058325590274,-0.002629626984382048
1772476665687498500,7.75949853515625,0.050935237467288966,0.00677032639363897,0.004376087059220299
1772476665697496300,7.769496337890625,0.046893853121995926,-0.001700241175535484,-0.001746053649461828
1772476665707494400,7.779494384765625,0.055123921328783035,-0.0057406574064487355,-0.002998697758791968
1772476665717491500,7.789491455078125,0.046593993392586706,-0.0048540238939400295,-0.010012101918505505
1772476665727489500,7.799489501953125,0.0513823967128992,-0.0020684705580846638,-0.0019145101181231438
1772476665737487600,7.809487548828125,0.05736848538517952,0.0013431613767854286,0.0015705874847015365
1772476665747484400,7.819484375,0.05048457109034061,0.0018697402508681988,0.0011733226622687653
1772476665757482500,7.829482421875,0.05377601385116577,-0.00028349539978662506,0.00016847473497036845
1772476665767479300,7.839479248046875,0.04853869771957397,-0.002673427024790726,0.007545565674500539
1772476665777477400,7.849477294921875,0.05392623597681522,0.002380781916635169,-0.0034617532598553223
1772476665787475700,7.859475830078125,0.04943710786402225,-0.0017861330710453329,-0.009464519072300753
1772476665797472500,7.869472412109375,0.047940731826424596,0.0016620437546065658,0.002655948735726997
1772476665807470600,7.879470703125,0.045695583248138424,0.004013549058996432,-0.004172285282541997
1772476665817467400,7.88946728515625,0.04315232850611209,0.0004969649059421499,0.002228640401479788
1772476665827465500,7.899465576171875,0.050932314857840534,-0.006338905285744112,0.001431722436705604
1772476665837463600,7.909463623046875,0.049884851631522176,-0.0073241951334464825,-0.00113408206384629
1772476665847460600,7.919460693359375,0.0444984824180603,-0.002629133508626546,-0.001024187382007949
1772476665857458700,7.929458740234375,0.04778992517888546,-0.0074795226924761656,-0.0008190841308096423
1772476665867455500,7.93945556640625,0.048238837990164755,-0.002188749351208389,-0.005412371304398402
1772476665877453600,7.94945361328125,0.04150573034286499,-0.000868707128051028,0.0025621695050504056
1772476665887451400,7.959451416015625,0.03656768941879272,0.001686107904317032,-0.002057128892629407
1772476665897448400,7.969448486328125,0.04868775080144405,0.010254564338293857,-0.00005069814077578485
1772476665907446500,7.979446533203125,0.051530865272879596,-0.004295129635854391,-0.005708532106224447
1772476665917444400,7.9894443359375,0.053176878914237016,-0.0007719302248122403,-0.0020417943261796605
1772476665927441700,7.999441650390625,0.051231590065360065,0.001955337031322415,-0.0016655722917756064
1772476665937439500,8.009439453125,0.05601940886378288,0.002036264771936112,0.00431920120625291
1772476665947436500,8.0194365234375,0.03881166895329952,-0.0027187229046641732,-0.004455627701990306
1772476665957434400,8.029434326171875,0.04255260904729366,-0.0018943797893138253,0.0005467151965247467
1772476665967432400,8.039432373046875,0.05602057790756225,0.003484645226264547,-0.0033499543152982368
1772476665977429500,8.049429443359376,0.04539689256250858,0.0029033384923823177,0.002409974618023261
1772476665987427600,8.059427490234375,0.04659340887069702,-0.006224471996928332,-0.0014356222936883567
1772476665997424600,8.069424560546874,0.03941080389022827,0.0005681401499881758,-0.0006044275999767706
1772476666007422500,8.07942236328125,0.04180442102849483,0.005127907790231984,-0.003542504045600071
1772476666017420500,8.089420654296875,0.05332651651799678,-0.002194356251854333,-0.0036516041429946198
1772476666027417300,8.099417236328126,0.05661912832260132,0.0014950979667861246,-0.006886494410992599
1772476666037415400,8.10941552734375,0.05048398656845093,-0.0007275810534876654,-0.001337797075556591
1772476666047413500,8.11941357421875,0.045695583248138424,0.0014001422716421075,0.00185359197743237
1772476666057410600,8.12941064453125,0.050184711360931396,0.003085095688144793,-0.006929114276589825
1772476666067408600,8.13940869140625,0.04719195928573608,-0.004186092899719369,-0.0006538288328098133
1772476666077405400,8.149405517578124,0.046294133663177486,-0.0068450435891747475,0.007775406074733473
1772476666087403500,8.159403564453125,0.04853869771957397,-0.002881034472795727,-0.00040921555513050406
1772476666097401600,8.169401611328125,0.04419920721054077,0.00042662677259068,-0.0003708426063880324
1772476666107398400,8.1793984375,0.04075754232406616,0.002132719160655688,-0.004045941789401695
1772476666117396500,8.189396484375,0.05018529588282108,0.003940083961864002,0.0049350635156966745
1772476666127393500,8.1993935546875,0.05108312150537967,0.004214586343964038,-0.000099670115346089
1772476666137391600,8.2093916015625,0.04180617459416389,0.0015457130529379355,-0.0022391343960305675
1772476666147389400,8.219389404296875,0.04809153847396373,-0.004715539584323415,-0.006881667538825422
1772476666157386500,8.229386474609376,0.05243102898299694,0.003996823684358969,-0.002159429356479086
1772476666167384600,8.239384521484375,0.05138356575667858,-0.004914134892099536,-0.0009812204565387219
1772476666177382400,8.24938232421875,0.056171969076991075,0.004454913032648619,0.0008493651046417653
1772476666187379700,8.259379638671875,0.042405894052982326,0.0062595455935981585,-0.0009998246923089028
1772476666197377500,8.26937744140625,0.05422726475000381,0.004599617876730917,-0.004884858565265313
1772476666207374600,8.27937451171875,0.05662088188827037,-0.001903673915688705,0.006020296902558766
1772476666217372400,8.289372314453125,0.047642625662684436,-0.0014609391126243281,0.0016797789136413484
1772476666227370500,8.29937060546875,0.04330313515365124,0.0021803017540936707,-0.0016174907997716218
1772476666237367300,8.3093671875,0.04884031101465225,0.0012881909175688634,0.004746833767485805
1772476666247365400,8.319365478515625,0.05243161350488663,0.006388722647930262,0.0044435445385519416
1772476666257362700,8.32936279296875,0.03926350437402725,0.003857180605761823,-0.0006419465987710282
1772476666267360500,8.339360595703125,0.05048632465600967,-0.0017083936575945698,0.0022549758525565265
1772476666277358600,8.349358642578125,0.05332943912744522,0.004159506857715314,-0.004331882591312751
1772476666287355400,8.35935546875,0.04450082050561904,0.002698385367411538,-0.0052421658366452895
1772476666297353500,8.369353515625,0.047643210184574125,-0.0014323977193183963,-0.001136228355159983
1772476666307350300,8.379350341796876,0.048690673410892484,0.007416136316774645,-0.0015792137491516768
1772476666317348600,8.3893486328125,0.05078618438541889,-0.005945266896480461,-0.00674241433176212
1772476666327346700,8.3993466796875,0.04689560668766498,-0.0019266926046169828,-0.009833050990593619
1772476666337343500,8.409343505859376,0.04345452632308006,-0.0016247390995325986,0.0017653794044395908
1772476666347341600,8.419341552734375,0.048991702184081075,0.006504175995942205,-0.0009396920029073954
1772476666357339600,8.429339599609374,0.04959025259912014,0.002864017978857737,-0.002225640160217881
1772476666367336400,8.43933642578125,0.04136076891422272,-0.0012532286312198265,-0.003179767113854177
1772476666377334500,8.44933447265625,0.054230187359452245,-0.004650941353180678,-0.0027126199595630166
1772476666387331600,8.45933154296875,0.04106207822859287,0.0034420581829414003,0.0005269145175116136
1772476666397329700,8.46932958984375,0.05018997205793857,0.0006768312533065909,-0.00048507553662639107
1772476666407327500,8.479327392578124,0.051835985699296,0.004071007161177112,0.00965938405727502
1772476666417324500,8.489324462890625,0.04764613279402256,-0.005712800714321202,-0.008607746979338117
1772476666427322400,8.499322265625,0.0552776505857706,-0.004189948232573806,-0.00029179058738518503
1772476666437319400,8.5093193359375,0.04914250883162021,0.0003077148131240392,-0.005526106477715074
1772476666447317500,8.5193173828125,0.05737316156029701,0.0035711655969702404,0.003060291752917692
1772476666457315300,8.5293154296875,0.04794599252343178,-0.000981108575395774,-0.003369681929075159
1772476666467312600,8.539312744140625,0.0400151995241642,-0.0036473954712244448,0.004844216027623042
1772476666477310500,8.549310546875,0.04585106607079505,0.008215670359498472,0.0032026091333245857
1772476666487307500,8.5593076171875,0.04854454293847084,-0.0038040130883309755,0.0016143763940781354
1772476666497305300,8.569305419921875,0.04615034127831459,0.00097103927253047,-0.00399786029739771
1772476666507303400,8.579303466796874,0.046152094843983645,0.0034036515556916127,0.003937170485570096
1772476666517300500,8.589300537109375,0.055579263880848884,0.0057062168515520165,0.003988562746089883
1772476666527298600,8.599298583984375,0.051688686183094974,-0.0004979858213715487,0.005491628819378092
1772476666537296600,8.609296630859374,0.04719955807030201,0.001341295644562342,-0.004959111111564562
1772476666547293400,8.61929345703125,0.0524368742018938,-0.00276747425647045,0.005035194855346344
1772476666557291500,8.62929150390625,0.04989361945986748,-0.010072591942577855,0.006203398384503089
1772476666567288300,8.639288330078125,0.04794833061099052,-0.000060428946101455945,-0.001277102697151713
1772476666577286400,8.649286376953125,0.046451370051503175,0.0034528861084545497,0.005141797034977935
1772476666587284500,8.659284423828124,0.05348433742821216,0.002145133686356712,-0.00008219839073717593
1772476666597281500,8.669281494140625,0.04824702129662037,-0.0022869966923259196,-0.004647757307183928
1772476666607279600,8.679279541015624,0.04779752396345138,0.0007390902552462649,-0.007293540841923095
1772476666617276400,8.6892763671875,0.05572890148460865,0.0015235454598470824,-0.000025997524359263477
1772476666627274500,8.6992744140625,0.05079086056053638,-0.004574996890005422,0.00906677475925535
1772476666637272600,8.7092724609375,0.05707563991844654,0.006814398430805886,-0.004310026952531188
1772476666647269400,8.719269287109375,0.057524552729725835,0.002982356262055691,-0.0053304606080288065
1772476666657267500,8.729267333984374,0.04944412212669849,0.0028060047521285014,-0.0060195982162375
1772476666667264500,8.739264404296875,0.06066635788679123,-0.0036872913734841855,0.0036652171098161485
1772476666677262600,8.7492626953125,0.04854571198225021,0.0001705964809312718,0.0010989468183834105
1772476666687260400,8.759260498046874,0.041812604334950446,0.003411746384712751,0.0013406603195006027
1772476666697257500,8.769257568359375,0.05438216305077076,0.003097414601134369,-0.004012984801293351
1772476666707255600,8.779255615234375,0.04196224193871021,0.00028054710334108674,-0.00029959943450521675
1772476666717253400,8.78925341796875,0.05273556488752365,0.0018548437904246384,0.0006337495925836264
1772476666727250700,8.799250732421875,0.05303425557315349,-0.0005574609236471587,0.003690045590396039
1772476666737248500,8.80924853515625,0.04854512746036052,-0.002142122599473805,0.00765062891759444
1772476666747245600,8.81924560546875,0.0468991138190031,0.013097614877647719,-0.0027313018271466717
1772476666757243400,8.829243408203125,0.04944236856102943,0.0022702122375951148,-0.0020193404657766222
1772476666767241500,8.839241455078126,0.04868775080144405,-0.005739983265480259,-0.0021230291691143066
1772476666777238500,8.849238525390625,0.046294718185067175,0.0022885835779248736,0.006994343266217037
1772476666787236400,8.859236328125,0.04898877957463264,-0.007227124542207457,0.0029487805027281866
1772476666797233700,8.869233642578125,0.04839022915959358,-0.0019509068805549758,0.004489306209306232
1772476666807231500,8.8792314453125,0.05392623597681522,-0.01030167771591805,0.003806223882548511
1772476666817229600,8.8892294921875,0.0497357985496521,0.012843621850269845,0.001574793302360922
1772476666827226400,8.899226318359375,0.04749064997136593,-0.004472569132814533,-0.007903772561601363
1772476666837224400,8.909224365234374,0.04554536112248897,0.008570687492380966,0.01846129276868887
1772476666847222500,8.919222412109375,0.04524667043685913,-0.0008391867747443029,-0.005790780729311518
1772476666857219600,8.929219482421875,0.046292964619398115,0.0028547558185236994,-0.0017880981263238935
1772476666867217700,8.9392177734375,0.052876434662938114,-0.005323195183603093,-0.00926071272904519
1772476666877214500,8.94921435546875,0.04135492369532585,0.0040891130692034495,0.004713511453196406
1772476666887212500,8.959212646484374,0.051529696229100225,-0.007012893844704376,-0.0009909153000684456
1772476666897210600,8.969210693359376,0.05138064314723015,0.0009801632939022964,-0.0007295289841014891
1772476666907207400,8.97920751953125,0.053475569599866865,0.0017741032794787314,-0.0050417341939872126
1772476666917205500,8.98920556640625,0.042701077607274054,-0.0007563193804380717,-0.001340902348095551
1772476666927202600,8.99920263671875,0.04704056811630725,-0.0013151040406693937,-0.009110577368363737
1772476666937200600,9.00920068359375,0.05257715945541858,0.00117345166807645,0.008055752819497138
1772476666947198500,9.019198486328126,0.04808803134262561,-0.0005421366319962544,-0.0010893478729762137
1772476666957195500,9.029195556640625,0.043599487751722336,-0.002197343364206608,0.001538895438495092
1772476666967193600,9.039193603515624,0.0428512997329235,-0.0011617600886384024,-0.0009911481955088674
1772476666977190400,9.0491904296875,0.04748948092758655,0.001275551202526549,-0.008439240278326906
1772476666987188500,9.0591884765625,0.04389759391546249,-0.002410165843446157,-0.0007973883222322911
1772476666997186300,9.069186279296876,0.04374737178981304,-0.0012709172682487406,-0.00505373515903484
1772476667007183600,9.07918359375,0.04389759391546249,0.004373502376489341,-0.0005191376364324241
1772476667017181400,9.089181396484374,0.04180208294093608,0.003996472628731863,0.001215065745031461
1772476667027179500,9.099179443359375,0.03925765915513038,0.004966496979465591,-0.0012663575408514587
1772476667037176600,9.109176513671875,0.046291211053729055,-0.0004973544920649146,-0.004979318215954117
1772476667047174400,9.11917431640625,0.04928337860703468,0.00302070009886811,-0.0024909628657856955
1772476667057171500,9.12917138671875,0.044345337682962414,0.007268175788514781,-0.0019174966596532611
1772476667067169500,9.13916943359375,0.048535190588235855,0.008683838143807951,0.002420674108550884
1772476667077167600,9.149167724609375,0.052126493078470226,0.0027744805276364785,-0.0030835219314554706
1772476667087164400,9.159164306640625,0.03746142338812351,-0.0034582050293218342,-0.0017744760263478383
1772476667097162500,9.16916259765625,0.046588732695579525,0.0032175150123337514,-0.005149633281561546
1772476667107159600,9.17915966796875,0.05122749841213226,0.0013655070663895457,-0.0030602369539905337
1772476667117157400,9.189157470703124,0.05272387444972992,-0.0016475611402274807,-0.001119067157804966
1772476667127155500,9.199155517578125,0.037760114073753355,0.004636162196690566,-0.005021568188793026
1772476667137152500,9.209152587890625,0.04090308827459812,-0.00012640228782256598,-0.0010685973458923399
1772476667147150600,9.219150634765626,0.04254910191595554,0.00340854635569558,0.00048421245352365074
1772476667157147400,9.2291474609375,0.045242578783631325,0.0044251555027352875,-0.002638034053123556
1772476667167145500,9.2391455078125,0.04524316330552101,0.002594100154918851,0.006563450168818235
1772476667177143600,9.2491435546875,0.04150222321152687,0.0014045324648584937,-0.0015476769665721804
1772476667187140400,9.259140380859375,0.0465899017393589,0.00039320342277933374,-0.0028349220318254083
1772476667197138400,9.269138427734376,0.0513783050596714,0.005140117676189402,0.0029858245774870736
1772476667207136500,9.279136474609375,0.050181204229593275,0.0022123080378980376,-0.00972116071449127
1772476667217133600,9.289133544921874,0.04359714966416359,0.0022267241514957277,-0.008000341970985755
1772476667227131600,9.299131591796876,0.04913374100327492,0.0087388345754327,-0.008252115641813725
1772476667237128400,9.30912841796875,0.04838613750636577,0.005817863386592944,-0.0020895698575070128
1772476667247126500,9.31912646484375,0.04793664017319679,-0.0030973341152101055,0.0008370399126084521
1772476667257122600,9.32912255859375,0.04898410339951515,0.005264824051380856,0.004994730414217338
1772476667267120600,9.33912060546875,0.055717795568704605,0.001237008148781024,-0.007848571775644086
1772476667277117400,9.349117431640625,0.055418520361185074,0.0020311073937395122,0.006962153463088907
1772476667287115500,9.359115478515625,0.05122925197780132,0.002936317171732662,0.00630590434432961
1772476667297113300,9.36911328125,0.049882513543963426,-0.004578506875454332,0.009428963701729662
1772476667307110700,9.379110595703125,0.042101358148455614,-0.001457501907000551,-0.0009771379364654422
1772476667317108500,9.3891083984375,0.05227671520411968,-0.0034455282108392564,-0.003924342970037833
1772476667327105500,9.39910546875,0.049883098065853115,0.004515909375975025,0.003608386055775918
1772476667337103600,9.409103515625,0.05063070156276226,-0.0015930967148538912,-0.012193619809206574
1772476667347101400,9.419101318359376,0.052426352807879446,-0.0006228925551404245,-0.005794854116230271
1772476667357098500,9.429098388671875,0.05407178192734718,0.0016563129855523583,-0.004239213038911112
1772476667367096300,9.439096435546874,0.0458405446767807,0.011790653615060728,-0.004881109405332245
1772476667377093600,9.44909375,0.0480845242112875,-0.0032042125727661185,0.006654571651527658
1772476667387091500,9.459091552734375,0.04733575167059898,-0.0026587548974552192,-0.003349808184825815
1772476667397089300,9.46908935546875,0.04957914668321609,0.007203500496380729,0.0005672967602498829
1772476667407086000,9.479086181640625,0.04449088363349438,0.0005168212401156779,0.001468291587429121
1772476667417084200,9.489084228515624,0.04927928695380687,0.002007205928344047,0.002300066236453131
1772476667427081200,9.499081298828125,0.03895370777249336,0.001598404219278018,-0.0001901751101249829
1772476667437079300,9.509079345703125,0.043293782803416246,-0.00041625093822658524,0.0012492420092690736
1772476667447077000,9.5190771484375,0.04254559478461742,0.004384570618130965,0.003462474779062904
1772476667457074200,9.52907421875,0.04643617248237133,-0.0012867747077951208,-0.0027836622020462527
1772476667467072300,9.539072265625,0.05586334151923656,-0.0001785971242963569,0.001257667344319634
1772476667477070000,9.549070068359375,0.04703530741930008,0.0011356329876492962,0.004434763010474853
1772476667487067100,9.559067138671875,0.040751112583279604,-0.0002370613005303312,-0.0009325590092223137
1772476667497065000,9.56906494140625,0.04838204585313797,-0.0030570551912824156,-0.00534347535322886
1772476667507062300,9.579062255859375,0.0525718987584114,-0.005215603769171866,0.0025814176282146946
1772476667517060000,9.58906005859375,0.04509001857042312,-0.00040835703860502687,0.003492911016521975
1772476667527058200,9.59905810546875,0.04733458262681961,0.00006876751618401613,0.0037190707554807883
1772476667537055000,9.609054931640625,0.05257248328030109,-0.0029923787575040477,-0.0043924902047496285
1772476667547053000,9.619052978515626,0.04957973120510578,-0.00002075395201682113,-0.0028394246770069003
1772476667557050000,9.629050048828125,0.050776832035183905,0.0011662735794408944,0.00045715548323933033
1772476667567048200,9.639048095703124,0.04913140291571617,0.006471854903717758,-0.00630959870533552
1772476667577046300,9.64904638671875,0.04778466448187828,0.0089175070482539,-0.010114849906926975
1772476667587043000,9.65904296875,0.059605450657010076,0.000241886460231035,-0.0069120992097072296
1772476667597041200,9.669041259765624,0.04419277746975422,0.00413039606930688,0.004877136483113281
1772476667607038000,9.679037841796875,0.0530208115696907,0.005548959342806483,-0.0008074393587885424
1772476667617036000,9.6890361328125,0.04344342040717602,0.006114312453608726,-0.000027897220500744878
1772476667627034000,9.6990341796875,0.048531098935008045,0.0005255091533588711,-0.0007961142471758648
1772476667637031200,9.70903125,0.052121816903352734,0.00037213323528703765,-0.0031545915734022853
1772476667647030000,9.719030029296874,0.04030044620633125,0.0002904331722937059,-0.0038520768848480653
1772476667657028000,9.729028076171875,0.04538754021227359,0.0013641730550065403,0.0026891340526985002
1772476667667026000,9.73902587890625,0.042843116426467896,-0.0015092509313690242,-0.005429861295316368
1772476667677023200,9.749023193359376,0.04404021725654602,0.0019025787933787796,-0.006946668199589476
1772476667687021000,9.75902099609375,0.049876083803176874,0.0028913580769323742,-0.0041041930489707735
1772476667697018000,9.76901806640625,0.04299392307400703,-0.00022023745907063128,0.003592142740450799
1772476667707016200,9.77901611328125,0.04119885635077953,0.0055803026166744525,0.0011075685162562877
1772476667717014000,9.789013916015625,0.05137362888455391,0.0033131922266853506,0.006777412579907104
1772476667727011300,9.79901123046875,0.040301615250110626,-0.00026864888628188053,-0.000861238205526024
1772476667737009200,9.809009033203125,0.050776247513294216,-0.007619481435726629,-0.007098342496808618
1772476667747006200,9.819006103515624,0.057360302078723904,0.0029135350885888325,0.0022099859333597122
1772476667757004000,9.829004150390626,0.05541501322984695,0.00257684505731886,-0.0055411076840246095
1772476667767002000,9.839002197265625,0.054068859317898746,0.003991021277123945,0.0005225123370299115
1772476667776999200,9.848999267578124,0.05317161821722984,-0.005987822829996003,-0.001195443162531592
1772476667786997000,9.8589970703125,0.05017828162014484,0.0016434360939034376,-0.002509736064914614
1772476667796994300,9.868994384765625,0.05032733470201492,-0.0101095389775699,0.0021341533513274044
1772476667806992100,9.8789921875,0.04673544768989086,-0.0046424007120542225,-0.000455205554747954
1772476667816990200,9.888990234375,0.04673544768989086,0.000025573403495945966,-0.0030375045323744413
1772476667826987000,9.898987060546874,0.055114568978548044,-0.0032059804089891258,-0.007897973008477128
1772476667836985000,9.908985107421875,0.04763268879055976,0.0028250188382080523,-0.005493957773782312
1772476667846983200,9.918983154296875,0.041946459847688675,-0.002664964871710981,-0.0008276510297553614
1772476667856980000,9.92897998046875,0.04778232639431953,-0.004627413205476477,0.0048255752592347555
1772476667866978000,9.93897802734375,0.04030044620633125,0.003135740742459893,-0.00749605484381318
1772476667876975000,9.94897509765625,0.05780804584622383,-0.00087074239445501,-0.0004620782535290345
1772476667886973200,9.95897314453125,0.06110007312893867,0.002673588567461411,0.0017936419511213897
1772476667896971300,9.96897119140625,0.044191608425974846,0.0022801999128918395,0.0015707610146375372
1772476667906968000,9.978968017578126,0.040301030728220937,-0.0028660483932733765,-0.0019182273120153695
1772476667916966100,9.988966064453125,0.051823710739612575,0.00043074982103717045,-0.0027381334267323836
1772476667926963200,9.998963134765624,0.04449146815538406,0.003994336041394854,-0.00004468852509744465
1772476667936961300,10.008961181640625,0.050177697098255154,-0.00039990715820167677,-0.0032992744408315046
1772476667946959000,10.018958984375,0.05332008677721023,-0.0012666954675689338,-0.0058945470644626765
1772476667956956200,10.0289560546875,0.05092588511705398,0.0005597202377481153,-0.0025947292009368536
1772476667966954200,10.038954345703125,0.05451660308539867,0.00036673896589491047,-0.0020541058184811844
1772476667976951000,10.048950927734374,0.048231823727488514,0.004081159233255312,-0.0053759802501881495
1772476667986949000,10.05894921875,0.042995092117786404,-0.0023135022484057116,-0.0004272946345154196
1772476667996947000,10.068947021484375,0.04733516714870929,0.0011167650320421671,0.0007150346678681672
1772476668006944300,10.0789443359375,0.046287703922390934,-0.0019913239434448766,-0.003965816624742001
1772476668016942000,10.088942138671875,0.05062719443142414,-0.006659202160872519,0.00453033233943861
1772476668026939100,10.098939208984374,0.04987900641262531,0.003094282214542909,0.002006375952926464
1772476668036937200,10.108937255859376,0.037758360508084295,0.004798892748286016,-0.0024918442151974883
1772476668046935000,10.11893505859375,0.05227320807278156,0.00964744017444318,-0.0030473181069130078
1772476668056932000,10.12893212890625,0.045240240696072576,0.007233694705244852,-0.00013191015082411467
1772476668066930200,10.13893017578125,0.04778466448187828,-0.004379260830418207,-0.001135063877957873
1772476668076928300,10.14892822265625,0.048832127708196636,0.0043235029220348225,0.0031055921993684023
1772476668086925000,10.158925048828126,0.04643792604804039,0.0027707918748521476,-0.0008437619143398478
1772476668096923100,10.168923095703125,0.04643792604804039,0.005973193228911259,-0.0076813254499575115
1772476668106920200,10.178920166015626,0.04808335516750812,-0.005540697833715239,-0.002400695333024487
1772476668116918000,10.18891796875,0.052422845676541326,0.0037778648669220274,-0.0023803968970896676
1772476668126916000,10.198916015625,0.05361936198472976,-0.0028891050418751547,-0.00041042113152798263
1772476668136913200,10.2089130859375,0.054068274796009064,0.0001234756826190278,-0.0105060685810633
1772476668146911200,10.2189111328125,0.04568915350735187,0.0038596242954197805,-0.0018033961601555347
1772476668156908000,10.228907958984376,0.046886838859319685,0.0010999269200285197,-0.002708615071303211
1772476668166906000,10.238906005859375,0.049880175456404684,0.005050431240384933,-0.00033896333051379766
1772476668176904200,10.248904296875,0.05556698892116546,0.0030763261473330202,-0.006867246287828311
1772476668186901000,10.25890087890625,0.04703764550685882,-0.0004986434084974462,0.002143382403976284
1772476668196899000,10.268899169921875,0.04554126946926117,0.002291825847781729,0.0017390713528264313
1772476668206896000,10.278896240234374,0.04629004200994968,0.0026419955588993615,-0.002687412453070283
1772476668216894200,10.288894287109375,0.0549684385061264,0.0007362766728299902,0.0008717367666540666
1772476668226892300,10.298892333984375,0.059009238329529756,-0.00008465977588202804,-0.0008591330134076997
1772476668236889000,10.30888916015625,0.05407002836167812,0.004790256779859192,-0.004334280044375918
1772476668246887200,10.31888720703125,0.04733633619248867,-0.007665086701209656,0.002470787727436982
1772476668256885000,10.328885009765624,0.050179450663924215,0.0015053676282288505,-0.00019619842553511262
1772476668266882300,10.33888232421875,0.05526771371364593,-0.0009898393003008096,-0.0007216470717452466
1772476668276880100,10.348880126953125,0.04943184716701507,0.001781303059356287,-0.00017910116026178
1772476668286877200,10.358877197265626,0.056464814543724054,0.0016944342017231975,0.0018700407887343317
1772476668296875300,10.368875244140625,0.04898293435573577,-0.0034627236575237473,0.0005366915594320744
1772476668306873000,10.378873046875,0.050778585600852966,-0.004754086063001887,-0.0002210680053103715
1772476668316870100,10.3888701171875,0.0545195256948471,-0.00725007387624355,-0.003219797730143182
1772476668326868000,10.398867919921875,0.045241994261741636,0.0007754293646401492,0.0006589296996127814
1772476668336865300,10.408865234375,0.05302314965724945,0.00043024578507174736,-0.00247482458173763
1772476668346863000,10.418863037109375,0.05392097527980804,-0.004524844740623666,0.005877075339853763
1772476668356861200,10.428861083984375,0.05167641122341156,-0.005128744044693303,0.00023573585147969423
1772476668366858200,10.438858154296875,0.053471477946639055,0.0013307565550610889,-0.00005189915059600025
1772476668376856000,10.44885595703125,0.049282209563255304,0.004102345868467819,0.0003055177186382934
1772476668386853600,10.458853515625,0.05212590855658054,-0.0020429887715450604,-0.0025571371369063852
1772476668396851500,10.4688515625,0.05287409657537937,0.007960073892679064,-0.0034989297653548416
1772476668406849500,10.478849609375,0.0458405446767807,0.00032627623723237775,0.0002955991128226742
1772476668416846600,10.4888466796875,0.043595980620384216,-0.004306338014335779,-0.0006507555263116955
1772476668426844700,10.4988447265625,0.05855915647447109,-0.0024940621446919975,0.0019663773026783017
1772476668436841700,10.508841796875,0.048533437022566794,-0.007621657409792533,0.0015506132757524028
1772476668446839600,10.518839599609375,0.057063364958763116,-0.007971812850356218,0.0031191366675309834
1772476668456837600,10.528837646484375,0.05032967278957367,-0.0038755759206222135,0.005798881837376393
1772476668466834400,10.53883447265625,0.04973112237453461,-0.002253204876811651,0.0018078988053370265
1772476668476832500,10.54883251953125,0.046888592424988745,0.007625500184559496,-0.0057482156626414505
1772476668486830600,10.55883056640625,0.052424599242210386,0.00621177462884807,-0.005034523568488657
1772476668496827600,10.56882763671875,0.04643909509181976,0.004413609482947504,0.007151579654542729
1772476668506825700,10.57882568359375,0.05332184034287929,0.002880157689961197,-0.00020314418955240398
1772476668516822500,10.588822509765626,0.049131987437605856,0.0031923748628556493,0.007456887310626916
1772476668526820600,10.598820556640625,0.04419453103542328,0.001734271309300675,-0.0026933079043170434
1772476668536818700,10.608818603515624,0.044642859324812885,0.00023014978584251364,0.0021321349241770803
1772476668546815700,10.618815673828125,0.05107727628648281,0.00006091072000272106,0.0025661926596192643
1772476668556813800,10.628813720703125,0.042697570475935934,-0.0017091597009304678,-0.006267056471551768
1772476668566810600,10.638810546875,0.05317161821722984,-0.0009435616063157795,-0.0038751381000271066
1772476668576808700,10.64880859375,0.05855915647447109,-0.0036965643794392234,-0.007149095436511561
1772476668586806500,10.658806640625,0.05451835665106773,-0.003171583807398565,-0.002971138465008698
1772476668596803600,10.668803466796875,0.045540100425481796,-0.0024199114901479334,0.003923192192567512
1772476668606801700,10.6788017578125,0.05137596697211265,0.005498533484200015,0.0019837896617827936
1772476668616798700,10.688798828125,0.053770168632268904,-0.0013693224416929297,0.005702951748808845
1772476668626796800,10.698796875,0.051526189097762104,0.0022935948256490517,0.00012392777376808226
1772476668636794600,10.708794677734375,0.04554126946926117,0.00667571090850106,-0.0011734550930093974
1772476668646791700,10.718791748046876,0.04539221638739109,0.0008004536372201983,0.0016954651065403594
1772476668656789500,10.72878955078125,0.03626432255804538,0.0032763131195300953,0.0008383916194783524
1772476668666787600,10.73878759765625,0.05077917012274265,0.001404420012893388,-0.0013195353330811485
1772476668676784600,10.74878466796875,0.05107902985215187,-0.001994717481173575,0.0037651840526843443
1772476668686782700,10.75878271484375,0.05751344681382179,-0.00047862867117510176,-0.0027478876357665285
1772476668696779800,10.76877978515625,0.052425183764100075,-0.00633486158157757,-0.0010033089907607064
1772476668706777600,10.778777587890625,0.04958265381455421,-0.0024848310941655654,-0.0037839892178541047
1772476668716775700,10.788775634765624,0.05167758026719093,-0.0016410651840706122,-0.001314808925613761
1772476668726772500,10.7987724609375,0.057064534002542494,0.0010866564465017291,-0.0010601035121828317
1772476668736770600,10.8087705078125,0.05676525879502296,0.000872278476881911,0.0077147071297513315
1772476668746767600,10.818767578125,0.04778641804754734,0.0040814606273546815,0.003155874781613238
1772476668756765700,10.828765625,0.04913315648138523,-0.0015233839171763974,0.004326274834433571
