time,seconds_elapsed,z,y,x
1772561187366197800,0.08019775390625,-0.006876900032162666,-0.04974705059602856,-0.032372721946984526
1772561187376227800,0.090227783203125,0.008775427129864692,0.017556845609098672,-0.07465659705549478
1772561187386258000,0.1002578125,-0.057122401669621466,0.02731200449131429,-0.05640373200625181
1772561187396287000,0.110286865234375,-0.007286065354943275,0.027702318983152507,-0.06685995182991028
1772561187406316800,0.12031689453125,0.060464697834849354,0.08073262903355062,-0.07212634792551398
1772561187416347000,0.130346923828125,0.038303134909272195,0.05016542213857174,-0.08515563310757279
1772561187426376700,0.140376708984375,0.06142389825582504,-0.004378945736587047,-0.05822130282223224
1772561187436406000,0.150406005859375,0.0522410593688488,-0.04485182590037584,-0.04169467704370618
1772561187446435800,0.160435791015625,0.08211889576017856,-0.088628350719437,-0.006491407845914363
1772561187456466000,0.1704658203125,0.07167524315714836,-0.12307700215764343,-0.01834784985631704
1772561187466494700,0.18049462890625,0.06270458571612834,-0.17461188601851463,-0.0037916473679244517
1772561187476524800,0.19052490234375,0.08492050917744635,-0.12968363388106227,0.0069395900048315525
1772561187486555000,0.200554931640625,0.1098281559407711,0.0006370557945221662,-0.0014561901576817034
1772561187496585000,0.2105849609375,0.12952654362320898,-0.053554187794029706,0.005271656792610884
1772561187506614000,0.220614013671875,0.13280337333679199,-0.11310425500199198,0.011132950041443108
1772561187516643800,0.230643798828125,0.15689911919534205,0.09526998069100082,-0.02793240141198039
1772561187526674000,0.240673828125,0.16560381917655467,0.18828984436765311,-0.0937745545014739
1772561187536703700,0.250703857421875,0.1354080028772354,0.15549297872446477,-0.1158162904396653
1772561187546732800,0.26073291015625,0.11637597014904022,0.09293985724300145,-0.11439224898591636
1772561187556763000,0.270762939453125,0.18154665371775627,0.03581402150727808,-0.07659238742366432
1772561187566793000,0.28079296875,0.22602760047912596,0.017859701013192533,-0.06315481370165944
1772561187576822800,0.29082275390625,0.20144611693024633,0.007365487266704439,-0.054176995867490765
1772561187586851800,0.300851806640625,0.25466274333298206,-0.02107479060217738,-0.07876885467991232
1772561187596882000,0.3108818359375,0.24047230541706083,0.044927375354617834,-0.09053308836221695
1772561187606912000,0.320912109375,0.14601882874071598,0.06422397730313241,-0.09733224698305129
1772561187616941800,0.33094189453125,0.07815992900133133,0.034207828419655556,-0.08633885154277086
1772561187626971000,0.340970947265625,0.07923135762512683,0.030864436275884508,-0.08136354734823108
1772561187637000700,0.351000732421875,0.06344225234091282,-0.008290858483314513,-0.0828577314287424
1772561187647030800,0.36103076171875,0.07882453038990497,-0.047059126686304804,-0.07360679574161767
1772561187657060900,0.371060791015625,0.11068740311861038,-0.06720803461521864,-0.052974488209933036
1772561187667090000,0.38108984375,0.15253858589828012,-0.06101824006438255,-0.041879385960847136
1772561187677120000,0.3911201171875,0.1678156500071287,-0.08812376219816505,-0.03173179369494319
1772561187687149800,0.40114990234375,0.16597966675162315,-0.10343823570795356,0.0005886135429143905
1772561187697180000,0.411179931640625,0.15194120452702045,-0.09102481740191579,-0.02622983527779579
1772561187707209000,0.421208984375,0.10987257960438727,-0.05897562832087278,-0.05017813548967242
1772561187717238800,0.43123876953125,0.08788812681138515,-0.05447269087843597,-0.03995207116007805
1772561187727268900,0.441268798828125,0.0755120448410511,-0.0553323033824563,-0.020519348676502704
1772561187737299000,0.451298828125,0.06812485719919205,-0.06541983602419495,-0.0321551336735487
1772561187747327700,0.46132763671875,0.12573708821237087,-0.051261766007915134,-0.058119596013426776
1772561187757362200,0.471362060546875,0.2215373033225536,-0.025702961859479546,-0.07115589545816182
1772561187767392300,0.481392333984375,0.20487959851026533,-0.05370433685444295,-0.05832870871946215
1772561187777422000,0.491422119140625,0.1732838522851467,-0.0982254694957286,-0.013577566714584826
1772561187787451100,0.501451171875,0.18063655313551424,-0.10240772361643612,0.02290624381303787
1772561187797481000,0.51148095703125,0.1691962907105684,-0.09354469126835464,-0.014394728316366671
1772561187807511000,0.521510986328125,0.17701368646323679,-0.08228497304208576,-0.045797436187416316
1772561187817541000,0.531541015625,0.10239362202584743,-0.1250946986556053,-0.03648293374478817
1772561187827570200,0.541570068359375,-0.0010077157378196716,-0.18459946541711686,0.01047521678507328
1772561187837600300,0.551600341796875,-0.04674129290878772,-0.21653956810049713,0.05387026800587773
1772561187847630000,0.561630126953125,-0.09242167858779429,-0.17860906589590012,0.042416269316524265
1772561187857660200,0.57166015625,-0.03587736906707287,-0.10100888966917991,-0.016649229244887827
1772561187867689200,0.581689208984375,0.03754734810590744,-0.07085983512103557,-0.05879997949302196
1772561187877719000,0.591718994140625,0.06897241393923759,-0.10734138062633573,-0.05555339878723025
1772561187887749000,0.6017490234375,0.11460019264817237,-0.09331197849102318,0.0018991116195917128
1772561187897778000,0.61177783203125,0.1226899756014347,-0.043020153493806716,0.03489230355247855
1772561187907808000,0.62180810546875,0.12788403711318969,-0.043186815297603605,0.030468349630385635
1772561187917838000,0.631838134765625,0.12804302706718443,-0.036652445092797276,0.051125499342381954
1772561187927868200,0.6418681640625,0.17521452808678148,-0.046073184388875955,0.056954936148226255
1772561187937897200,0.651897216796875,0.1944195792943239,-0.13717837355062365,0.04489800312966108
1772561187947927300,0.66192724609375,0.12587561990022658,-0.16089249968044458,0.08226970240771769
1772561187957957000,0.67195703125,0.03507131338119507,-0.13643237748891116,0.11979103928953408
1772561187967987000,0.681987060546875,-0.01715980911552906,-0.07013641621731222,0.08417378246337175
1772561187978016300,0.692016357421875,0.02802314843535423,-0.03725158002972603,0.012697422879189253
1772561187988046000,0.702046142578125,0.02644377028942108,-0.01344831431172788,-0.028971389070898294
1772561187998076200,0.712076171875,0.024705986711382865,-0.03481843459866941,-0.054200084482133384
1772561188008106200,0.722106201171875,0.0836596954613924,-0.044923210636153815,-0.04837327802479267
1772561188018135000,0.732135009765625,0.2718289821892977,-0.1329161860615015,-0.017533903124928474
1772561188028165000,0.7421650390625,0.27407939146459104,-0.08356193417534231,0.005761778397113084
1772561188038195200,0.7521953125,0.28089082504510876,0.006500760196149349,0.0000018996961414813994
1772561188048225300,0.762225341796875,0.3133282827913761,0.048313583726808426,0.016515958254039287
1772561188058254000,0.772254150390625,0.2852344072073698,0.003983662808686494,0.01430398129299283
1772561188068284200,0.7822841796875,0.15387538745999335,-0.017234993243589996,0.04000219391211867
1772561188078314000,0.79231396484375,0.04570610464215279,-0.06844612504281103,0.05331453381925821
1772561188088344000,0.802343994140625,-0.02806640305519104,-0.11259893582835794,0.062350219320505856
1772561188098373000,0.812373046875,-0.1307803430765867,-0.09047302873805164,0.03290770560652018
1772561188108403200,0.8224033203125,-0.15185820241868495,-0.07431969325132667,-0.007353139241784811
1772561188118433300,0.832433349609375,-0.1365934132695198,-0.04110862078405916,-0.001137625727802515
1772561188128463000,0.842463134765625,-0.07218436172306537,-0.046489437039569016,-0.017960750234872102
1772561188138492200,0.8524921875,0.020822423276305197,-0.06188399004824459,-0.023214432979375123
1772561188148522200,0.862522216796875,0.12600479923784733,-0.035778804063424464,-0.033939240611344575
1772561188158552000,0.872552001953125,0.19544950686395168,0.014150178970769046,-0.03866159295812249
1772561188168582100,0.88258203125,0.2109165405869484,0.0423537254743278,-0.05299129321426153
1772561188178611000,0.89261083984375,0.27731472012400626,0.06385857805684209,-0.0546808537364006
1772561188188641000,0.90264111328125,0.23299802401363848,0.05609415460042655,-0.038040538450330494
1772561188198671000,0.912671142578125,0.23772271444797513,0.012450462380796671,-0.05828589249104261
1772561188208700200,0.9227001953125,0.25491876392066476,0.03091981972493231,-0.07160816927030682
1772561188218730200,0.932730224609375,0.1903635819017887,0.020901479861885307,-0.0796327780328691
1772561188228760000,0.942760009765625,0.12310440162122249,-0.010395941003784537,-0.08571151342466474
1772561188238790100,0.9527900390625,0.07882102325856685,-0.011898381455987692,-0.06243643629923463
1772561188248819200,0.962819091796875,0.028534605088829993,-0.022942118844017385,-0.05336100330948829
1772561188258849000,0.97284912109375,0.02535188339948654,-0.06000782091282308,-0.03370397055074573
1772561188268879000,0.982879150390625,0.07485504223704338,-0.06550831802524626,-0.03593377542942762
1772561188278909200,0.9929091796875,0.0957943698912859,-0.0671923255894333,-0.04561389631405473
1772561188288938000,1.00293798828125,0.13393383867144584,-0.04552366074733436,-0.0017133797891438006
1772561188298968000,1.012968017578125,0.11220189933478832,-0.06067994802072644,-0.02136836672127247
1772561188308998100,1.022998046875,0.1281535017043352,-0.045666284088417886,-0.025968407862633464
1772561188319028200,1.0330283203125,0.10864859076738356,-0.03560980417206883,-0.02149403892755508
1772561188329057300,1.043057373046875,0.10012333900630474,-0.06339943611249327,-0.03227700648754835
1772561188339087000,1.053087158203125,0.06954524539113044,-0.08677366276346146,-0.03911912746727467
1772561188349117000,1.063116943359375,0.06230009656846523,-0.07646276969462633,-0.02618190448284149
1772561188359147000,1.07314697265625,0.03574409807622433,-0.0508422984868288,-0.025115152034163472
1772561188369176000,1.083176025390625,0.034465748703479765,-0.053922071258351204,-0.0447077412545681
1772561188379206100,1.0932060546875,0.06672726536095142,-0.028323446556180715,-0.051236558501422405
1772561188389236200,1.103236328125,0.09150690183043479,-0.03381269162222743,-0.05798325628265738
1772561188399266000,1.11326611328125,0.07160042435526848,-0.0564725594587624,-0.05677694923281669
1772561188409295000,1.123295166015625,0.074531217110157,-0.055749213620275254,-0.033469431142508985
1772561188419325200,1.1333251953125,0.08947685730755328,-0.037562180348858235,-0.052630643208324904
1772561188429355300,1.143355224609375,0.11357786386311054,0.005997048457711935,-0.059799950315803284
1772561188439385000,1.153385009765625,0.12854454684853553,0.007853928370773791,-0.06235577227845788
1772561188449414000,1.163413818359375,0.16437573868632316,0.012426058591902255,-0.039093846895545716
1772561188459444000,1.17344384765625,0.14554887314140796,0.02655037246905267,-0.028655454989522693
1772561188469474000,1.18347412109375,0.13607728044092654,0.004498699658736586,-0.021034604722261426
1772561188479504100,1.193504150390625,0.10449380917549132,-0.00334141938239336,-0.03222191529944539
1772561188489533200,1.203533203125,0.07088964573740959,0.0009663608141243457,-0.029096622885763642
1772561188499563300,1.213563232421875,0.07975801184773444,-0.01191518646031618,-0.032334581893682476
1772561188509593000,1.223593017578125,0.1006347956597805,-0.026792437596619128,-0.016350830820202826
1772561188519622100,1.2336220703125,0.08639467338323592,-0.03345978653132915,-0.005141162280738353
1772561188529652200,1.24365234375,0.06581541121304035,-0.046210620098188514,0.0021896189987659453
1772561188539682000,1.25368212890625,0.10369067609906196,-0.022810966745018958,0.017147095764428376
1772561188549712100,1.263712158203125,0.08855155915617942,0.01685008557923138,0.01862374418824911
1772561188559741000,1.273740966796875,0.054689037042856214,-0.005425678310543298,0.013718582620471716
1772561188569771000,1.28377099609375,0.09159516463577747,-0.028249869863316415,-0.016167729338258503
1772561188579801000,1.293801025390625,0.09716974989771843,0.0023679712403565645,-0.030626608932018278
1772561188589831200,1.3038310546875,0.0849012199550867,0.006213540752604604,-0.020826368799060583
1772561188599860200,1.313860107421875,0.11970599135458469,-0.030396307307481763,0.006839782892167568
1772561188609890300,1.323890380859375,0.15102584324777124,-0.025491876392066477,-0.000537614008039236
1772561188619920100,1.333920166015625,0.13241466628015042,0.007845306672900915,-0.01577054671421647
1772561188629950000,1.343949951171875,0.154431852298975,0.023674743967503308,-0.0030067806005477904
1772561188639979000,1.35397900390625,0.13719137916266919,0.033359541027247905,0.0032458500534296034
1772561188650009000,1.364009033203125,0.12309212666153907,0.027765958803892134,-0.01163739243224263
1772561188660039200,1.3740390625,0.15484218666553495,0.009906476986408234,-0.012659428956359624
1772561188670069200,1.3840693359375,0.15335633202195167,-0.04914133978784084,-0.011602905640751122
1772561188680098000,1.39409814453125,0.14262918630242347,-0.10722659514024853,-0.017717881389707327
1772561188690128100,1.404128173828125,0.13565817824602125,-0.11895378474779426,-0.0123129536062479
1772561188700158200,1.414158203125,0.09257657688856125,-0.1110717262610793,-0.007502776845544576
1772561188710188000,1.42418798828125,0.05767652842104434,-0.06309402342513203,0.012895721930265426
1772561188720217300,1.43421728515625,0.04472235430181026,-0.028997400294989345,0.018287936362624168
1772561188730247000,1.444246826171875,0.07540858446657657,-0.03891403334923088,0.007417144388705492
1772561188740277000,1.454277099609375,0.11983224808275698,-0.06597608166746795,0.011156623177975415
1772561188750307000,1.46430712890625,0.15441899281740187,-0.09551241114474833,0.001449029764533043
1772561188760331500,1.47433154296875,0.18567454730272293,-0.10323124189376831,0.01710764053687453
1772561188770361600,1.484361572265625,0.20270108542740345,-0.07944193163588642,0.018149404674768447
1772561188780391700,1.4943916015625,0.16986147662103177,-0.04877966686859726,0.021443477784097192
1772561188790420700,1.504420654296875,0.13890928899645805,-0.003158390965685248,0.008453647829592228
1772561188800450600,1.514450439453125,0.11837152788043022,0.01889284345321357,-0.04427212631627917
1772561188810480600,1.524480712890625,0.0810059660822153,-0.007097337849810719,-0.05340104305893183
1772561188820510700,1.5345107421875,0.07436872002482414,-0.04396254891045391,-0.04111278550252318
1772561188830539800,1.544539794921875,0.03312544001042843,-0.06522087938599289,-0.033362171375751495
1772561188840569900,1.55456982421875,0.00018821604847908018,-0.05839103336594999,0.0024421324551105496
1772561188850599700,1.564599609375,0.046647184884548186,-0.036812823286280036,0.01021963458880782
1772561188860629500,1.57462939453125,0.10218377866744995,-0.024048984107375142,0.007108809091895818
1772561188870658600,1.584658447265625,0.1961059249460697,0.007743965190276503,-0.0207252465121448
1772561188880688600,1.594688720703125,0.19607786789536474,0.032732933561503884,-0.044847003594785925
1772561188890718700,1.60471875,0.1470680455327034,0.04494396116323769,-0.04412570358291268
1772561188900748800,1.614748779296875,0.1212479600995779,0.019361776139214634,-0.05695172127783298
1772561188910777600,1.624777587890625,0.08544424079060554,-0.0008408347383141517,-0.04024009432122111
1772561188920807700,1.6348076171875,0.04490121800005436,-0.026885814968496558,-0.02278451712951064
1772561188930837500,1.64483740234375,0.014925181931257248,-0.05408149960376322,-0.01745455427840352
1772561188940867600,1.65486767578125,0.009909399595856665,-0.05121485812626779,-0.016259791535884142
1772561188950896600,1.664896728515625,0.06729366707205772,-0.03532207327187061,-0.03509440199583769
1772561188960926700,1.6749267578125,0.12066986795067787,-0.02573993286900222,-0.047233168078958984
1772561188970956500,1.68495654296875,0.15503507888913154,-0.010535933996364474,-0.040110476592183114
1772561188980986600,1.694986572265625,0.19854981096684932,-0.018342004637420178,-0.030857787339389323
1772561188991015700,1.705015625,0.20520634624660014,-0.03673508187495172,-0.025907179194688795
1772561189001045800,1.715045654296875,0.20703063906431196,-0.05112286899387836,-0.0068003276646137235
1772561189011075800,1.725075927734375,0.2012871269762516,-0.05580255124270916,-0.01932137106359005
1772561189021105700,1.735105712890625,0.16113982550501824,-0.05642031781487167,0.0013834171824157237
1772561189031134700,1.745134765625,0.07191665069758892,-0.05018756090514362,0.018597002311795948
1772561189041164500,1.75516455078125,0.09098726187050342,-0.03467734562754631,-0.0030510581336915493
1772561189051194600,1.765194580078125,0.06334522170722484,-0.007581687300652265,-0.024578999330848453
1772561189061224700,1.775224609375,0.09039864832758902,-0.04266688307672739,-0.04961962482407689
1772561189071253800,1.785253662109375,0.07523615050911903,-0.07655760837122798,-0.06612959172874688
1772561189081283600,1.79528369140625,0.05670388399660587,-0.09662015319094061,-0.04059606815204024
1772561189091313700,1.805313720703125,0.061147419402003286,-0.11142580039575695,-0.027198680309951304
1772561189101342700,1.8153427734375,0.03695990360677242,-0.06070230598300695,0.0010914484985172748
1772561189111372800,1.825372802734375,0.01717033050954342,-0.0302014423225075,-0.014617138895392416
1772561189121402600,1.835402587890625,0.05076338803172111,-0.01681384522207081,-0.035539223153889174
1772561189131432700,1.8454326171875,0.09420330130755901,0.03188829943090677,-0.042014410517364736
1772561189141461500,1.85546142578125,0.145403327190876,0.06110832950063049,-0.05849325163140893
1772561189151491600,1.86549169921875,0.1430897895514965,0.05544869630374014,-0.06703940005004405
1772561189161521700,1.875521728515625,0.13079437160193919,0.042972588025033474,-0.048972266831248994
1772561189171551700,1.8855517578125,0.12958031963706015,0.017809139869734644,-0.03554258415475488
1772561189181580500,1.89558056640625,0.12819617180228232,0.01704458523802459,-0.06445099099203944
1772561189191610600,1.905610595703125,0.12107552614212036,0.04791669336371124,-0.08585515967905522
1772561189201640700,1.915640625,0.131473586037755,0.03606989596448838,-0.10994462192729115
1772561189211670500,1.92567041015625,0.17536942638754843,0.02878112719580531,-0.0924932825192809
1772561189221699800,1.935699951171875,0.07575695951282978,-0.05136610316522419,-0.03654445467367768
1772561189231729700,1.945729736328125,-0.031052725389599797,-0.004055339805409312,0.030317396852374074
1772561189241759700,1.955759765625,-0.026574118670821188,0.003915273747593164,-0.03623071254938841
1772561189251789600,1.96578955078125,0.034084055909514424,0.06517784396186471,-0.06551087530851364
1772561189261818600,1.975818603515625,0.04325052818357944,0.06908551892489194,-0.11427519847750663
1772561189271848700,1.9858486328125,0.10871873339414596,-0.042026977737993,-0.11540624833405017
1772561189281878800,1.995878662109375,0.10022446129322052,-0.060553033705428236,-0.0642353024147451
1772561189291908900,2.005908935546875,0.07989011379480361,-0.004585501159355044,-0.058188715726882216
1772561189301937700,2.015937744140625,0.11035013398826121,0.03302614435441792,-0.04121799944266677
1772561189311967500,2.025967529296875,0.08461480422914028,0.031417174787819385,-0.01623056544139981
1772561189321997600,2.03599755859375,0.023225977286696432,0.08817300816737114,-0.029695903953164814
1772561189332026600,2.046026611328125,0.2052870102673769,-0.10503529564104974,-0.009928688818216323
1772561189342056700,2.056056640625,0.07997077781558036,-0.09427790091373026,-0.02051788737177849
1772561189352086500,2.06608642578125,0.06948913128972053,0.057606093533337115,-0.032209932600706814
1772561189362116600,2.07611669921875,0.21542320435643195,-0.019224413495138287,-0.09671382282376288
1772561189372145700,2.086145751953125,0.18684242203831672,-0.04760879645831883,-0.0494023288115859
1772561189382175700,2.09617578125,0.16587912898659704,-0.052231122496724125,-0.0031239772394299507
1772561189392205800,2.106205810546875,0.1413642809331417,-0.0232149444360286,-0.03933379313126206
1772561189402235600,2.116235595703125,0.24522505290210245,-0.006481690169498324,-0.08943667142763734
1772561189412264700,2.1262646484375,0.31634558478593827,0.010937354404106736,-0.11778569081649183
1772561189422294500,2.13629443359375,0.3024672815591097,-0.030029812082648277,-0.08732844710201025
1772561189432324600,2.14632470703125,0.3185042241245508,0.020678192500025033,-0.0466628208450973
1772561189442354700,2.156354736328125,0.34788521690964697,0.044654403632134194,-0.018585165743529794
1772561189452383700,2.1663837890625,0.2766460270822048,0.012877017229795455,-0.011415858636051416
1772561189462413600,2.17641357421875,0.18816987124979495,-0.025684111028537154,0.010275018037855625
1772561189472443600,2.186443603515625,0.04871346976459026,-0.09179412127397954,0.037950960470736025
1772561189482473700,2.1964736328125,0.012495324435830115,-0.09120711516626179,0.020271803656220434
1772561189492502800,2.206502685546875,-0.057301849889755244,-0.023675401554629206,-0.05401084552034735
1772561189502532600,2.21653271484375,-0.08550853819847107,-0.030333325073868034,-0.040969431509077545
1772561189512562700,2.226562744140625,-0.10846563541591167,-0.10163820054866372,0.028979426246881483
1772561189522592500,2.236592529296875,-0.06633797378242015,-0.14231179091632365,0.06907733561843633
1772561189532621600,2.24662158203125,-0.0013005612045526504,-0.122322019071877,0.07205313655883074
1772561189542651600,2.256651611328125,0.11810323233306408,-0.08217690955772995,0.01787526390850544
1772561189552681700,2.266681640625,0.1549713660031557,-0.05888027818761766,-0.010616524951905012
1772561189562711800,2.2767119140625,0.13884849871993063,-0.0764403386671096,-0.0011728431716561316
1772561189572740600,2.28674072265625,0.11119944429397582,-0.09905096053443849,0.01762245819121599
1772561189582770700,2.296770751953125,0.06542085893750191,-0.12448833026029169,0.023539573280513284
1772561189592800500,2.306800537109375,0.025541268491744994,-0.16809812021031975,0.036301731958985325
1772561189602830600,2.31683056640625,0.04089782757759094,-0.1508628347057849,0.044172465334087606
1772561189612859600,2.326859619140625,0.024184593185782432,-0.11026435540094971,0.01985065563470125
1772561189622889700,2.3368896484375,0.0454658661454916,-0.09356215385980904,0.01896554336324334
1772561189632919600,2.34691943359375,0.09269114317893981,-0.09235562761425971,0.0511440579123795
1772561189642948600,2.356948486328125,0.09619418286383151,-0.08019874135255813,0.07762494534179568
1772561189652978700,2.366978759765625,0.12433715828657149,-0.05392528612874448,0.055940060017257924
1772561189663008800,2.3770087890625,0.15273381620943546,-0.036165246097743506,0.009082593382894992
1772561189673038800,2.387038818359375,0.14082418270707128,-0.030825784765928982,-0.032939123658090826
1772561189683067600,2.397067626953125,0.11851298217773437,-0.049914150791242715,-0.03577653904110193
1772561189693097500,2.407097412109375,0.07251169398128986,-0.06995864849761128,-0.013895546622574329
1772561189703127600,2.41712744140625,0.04659516243636608,-0.07546184902377426,0.020780629961192607
1772561189713157600,2.42715771484375,0.04475859465897083,-0.06506174330152571,0.03503726498112082
1772561189723186700,2.437186767578125,0.07296002227067946,-0.04964103293828666,0.035637568961828944
1772561189733216800,2.447216796875,0.09987141007184981,-0.04322290952429175,-0.0019165011458098888
1772561189743246600,2.45724658203125,0.11467851858139037,-0.03788929341137409,-0.02645005389973521
1772561189753276700,2.467276611328125,0.12575988456606865,-0.07356339499130844,-0.034160189885646106
1772561189763306000,2.477305908203125,0.12702069828212262,-0.09808861830830573,-0.018055881172418593
1772561189773335800,2.487335693359375,0.10624620580077171,-0.08706124753318727,0.004872866733372211
1772561189783366000,2.497365966796875,0.12947042952179907,-0.08222505954839289,0.0453369790688157
1772561189793396000,2.50739599609375,0.11525836429595947,-0.09301365313157439,0.06032850423455238
1772561189803424800,2.5174248046875,0.0992050551176071,-0.08862740087136625,0.059736675821244714
1772561189813454800,2.527454833984375,0.09386310956776142,-0.0783468298755586,0.031000264550000427
1772561189823485000,2.53748486328125,0.10225392129421233,-0.10578954807445407,0.007357377025485039
1772561189833515000,2.547514892578125,0.10221066667437553,-0.10768047638759017,0.02416574235484004
1772561189843544000,2.5575439453125,0.0947743791937828,-0.10973792037405072,0.03437763202860951
1772561189853574000,2.567573974609375,0.08198854737877845,-0.08518010996170342,0.009758300687372684
1772561189863603700,2.577603759765625,0.06520107870697975,-0.06889445333220064,-0.0012160977914929389
1772561189873633800,2.5876337890625,0.027857728740572928,-0.06795169258937239,-0.029637451764196156
1772561189883662800,2.597662841796875,0.03226093213558197,-0.03552877482511103,-0.04037307305112481
1772561189893693000,2.60769287109375,0.0383680168390274,-0.023376053281873463,-0.040282764419168234
1772561189903723000,2.617722900390625,0.046885085293650625,-0.02335888295136392,-0.041394525053352116
1772561189913752800,2.6277529296875,0.08168284243047237,-0.029716435284540054,-0.0250802268512547
1772561189923782000,2.637781982421875,0.1393693077236414,0.007258519760891795,-0.01583455186113715
1772561189933812000,2.64781201171875,0.1424666892170906,0.049172830904647705,-0.02019143189638853
1772561189943842000,2.657842041015625,0.1847778907239437,0.04172068826779723,-0.05318710804730654
1772561189953872000,2.667871826171875,0.237894563883543,0.0326810572437942,-0.09108356185182928
1772561189963901000,2.67790087890625,0.24648469757437705,0.016361352214217185,-0.08894406560510397
1772561189973930800,2.6879306640625,0.23634674991965293,0.010260112729668617,-0.06897679785341024
1772561189983960800,2.6979609375,0.20765607748627662,0.009963540935888885,-0.04437690186500549
1772561189993990000,2.707989990234375,0.19023615612983702,0.015064955728128552,-0.0037378713540732857
1772561190004020000,2.71802001953125,0.09643091422915458,0.03742664433568716,-0.004895955348014831
1772561190014050000,2.728050048828125,0.10859189214408398,-0.00005304536148905754,-0.048506256754696365
1772561190024080000,2.738079833984375,0.08655074072778224,-0.026318901800736785,-0.0598810527279973
1772561190034109000,2.74810888671875,0.05654021786749363,-0.05002637899406254,-0.05924699260815978
1772561190044139000,2.758138916015625,0.07440262229442596,-0.07229965866580605,-0.07130699436664581
1772561190054168800,2.7681689453125,0.05729132849574089,-0.06847257465831935,-0.05936784250885248
1772561190064199000,2.778198974609375,0.06649521017074585,-0.07758760900609195,-0.02973009848371148
1772561190074227700,2.788227783203125,0.11699439430832863,-0.06123590140305459,0.015645897421240805
1772561190084257800,2.7982578125,0.10525076502263546,-0.03434036875814199,0.013596125284582376
1772561190094288000,2.808287841796875,0.10272913759052753,-0.018825988762080668,-0.014306465511023998
1772561190104318000,2.81831787109375,0.11073416486978531,-0.03912387670762837,-0.02011865892112255
1772561190114347000,2.828346923828125,0.07336626498401165,-0.058106955727562304,-0.010783552081882954
1772561190124377000,2.838377197265625,0.03814823660850525,-0.05620696732513606,-0.026584786195307967
1772561190134407000,2.848406982421875,0.051308746954798694,-0.05118292861804366,-0.019914076259732245
1772561190144436700,2.858436767578125,0.05889233395159244,-0.03841265969835222,-0.035005262407660484
1772561190154465800,2.8684658203125,0.08417641281187534,-0.02689933203719556,-0.004791325929760932
1772561190164496000,2.878495849609375,0.10323884067833423,0.001960559483245015,-0.016772563363611697
1772561190174526000,2.88852587890625,0.1559253057271242,0.024380773345008492,-0.033829350496083495
1772561190184556000,2.89855615234375,0.22560206854343412,0.05462064798176288,-0.058009121376276014
1772561190194584800,2.908584716796875,0.24779928730428216,0.0545391071781516,-0.059895958036184305
1772561190204615000,2.918614990234375,0.24582711044847963,0.009358560780063271,-0.046389556861668825
1772561190214645000,2.92864501953125,0.21499884146451947,-0.023859233688935635,-0.017579495832324026
1772561190224674800,2.9386748046875,0.1716623885631561,-0.04016184145323932,0.011259352900087833
1772561190234704100,2.9487041015625,0.13887538672685623,-0.05084039879068732,0.0036038697108626365
1772561190244733700,2.958733642578125,0.12652268563210964,-0.053150867690145966,-0.01327609954997897
1772561190254763800,2.968763671875,0.09559972410202026,-0.05063377030268311,-0.014988018034398556
1772561190264793900,2.9787939453125,0.07368716750144957,-0.07280344346947967,-0.03349208136573434
1772561190274823000,2.988822998046875,0.04409516231417656,-0.10960355340465902,-0.019127309796214104
1772561190284853000,2.99885302734375,0.04061374993920326,-0.17273001779466868,0.003261632144451141
1772561190294883000,3.008883056640625,0.03406476668715477,-0.18053791506662964,0.017524258513748645
1772561190304913000,3.018912841796875,0.006036357554793357,-0.13357457690499722,0.00032777064964175225
1772561190314942000,3.02894189453125,-0.012009586745500563,-0.10269750034324825,0.002362783608585596
1772561190324972000,3.038971923828125,0.01707446891963482,-0.08090835092663765,0.001552197878062725
1772561190335001900,3.049001953125,0.03976794676482677,-0.06961801836639642,-0.0035430794343352316
1772561190345032000,3.059031982421875,0.05880348662436008,-0.06304850378297269,-0.021153262665867804
1772561190355060700,3.069060791015625,0.10389993493556976,-0.055114788174256676,-0.02004778564199805
1772561190365090800,3.0790908203125,0.13506021235287188,-0.0675392393309623,-0.009937164385616778
1772561190375121000,3.089120849609375,0.13029168277680872,-0.08181983974836766,-0.003012333558499813
1772561190385151000,3.09915087890625,0.13814999506175518,-0.09798786134757101,-0.017777941013872624
1772561190395180000,3.109179931640625,0.12301087811887264,-0.05343078061006963,-0.03700914957597851
1772561190405210000,3.119210205078125,0.11211012939810752,-0.03041282005086541,-0.05197407899573445
1772561190415240000,3.129239990234375,0.10835749886631965,-0.05396510668247938,-0.03056727996021509
1772561190425269000,3.13926904296875,0.09125321933031082,-0.06240070739872753,-0.0020037410378456115
1772561190435298800,3.149298828125,0.09625380409657955,-0.060597968825697894,0.031130320670455694
1772561190445329000,3.159328857421875,0.08086042013168335,-0.05205569286458194,0.054086248844116926
1772561190455359000,3.16935888671875,0.06166413675248623,-0.04827127895504236,0.05585661951750517
1772561190465387800,3.1793876953125,0.02760229267477989,-0.0637783524274826,0.001073620580881834
1772561190475417900,3.18941796875,0.0030471126109361648,-0.0517192274518311,-0.02973988922536373
1772561190485448000,3.199447998046875,-0.012879355317354202,-0.03297353738434613,-0.05576850284263491
1772561190495478000,3.20947802734375,0.038564416193962094,-0.003992649832740426,-0.08023483557924628
1772561190505507800,3.2195078125,0.11467501145005225,0.02723565131947398,-0.07589359150454401
1772561190515537000,3.229536865234375,0.12805880915820597,0.04499342632815242,-0.04815218262001872
1772561190525566700,3.239566650390625,0.19144611644148826,0.03473119470663368,-0.03391571360528469
1772561190535596800,3.2495966796875,0.24771628519594668,-0.0006766571525484323,-0.05268602665737271
1772561190545625900,3.2596259765625,0.2695692205637693,0.0140972066745162,-0.08127820715233683
1772561190555656000,3.269656005859375,0.2847247041195631,-0.004074409832060337,-0.07575608272999525
1772561190565686000,3.27968603515625,0.2297778929233551,-0.04733297519162297,-0.0247163619749248
1772561190575716000,3.289716064453125,0.19989888748824594,-0.0487731640625745,-0.004700286645442247
1772561190585745000,3.299744873046875,0.1629629492789507,-0.048070495685935015,-0.040551352227479215
1772561190595775000,3.30977490234375,0.06142798990905284,-0.026736104299500584,-0.0652554392427206
1772561190605804800,3.3198046875,-0.037005496314167975,-0.027487361058220267,-0.05458192340657115
1772561190615835000,3.3298349609375,-0.09219313052892684,-0.08429521688595414,-0.05007832837700844
1772561190625864000,3.339864013671875,-0.09616144963800907,-0.08977686316743493,-0.04851853171437978
1772561190635893800,3.349893798828125,-0.007799860095977783,-0.07533493470847606,-0.03850786370113492
1772561190645923800,3.359923828125,0.1092921493679285,-0.09080679073706269,-0.023021102364361286
1772561190655954000,3.369953857421875,0.16850713940262793,-0.09832973358780145,0.016450199541449547
1772561190665983000,3.37998291015625,0.20542086578011512,-0.09430376600734888,0.05117796018198132
1772561190676013000,3.390012939453125,0.22102467762529848,-0.0698513887308538,0.03770385384187102
1772561190686043100,3.400043212890625,0.1927244658142328,-0.03493424299806356,0.010425094033032656
1772561190696072700,3.41007275390625,0.093088033542037,-0.058810647017508745,0.0022075930468738077
1772561190706102000,3.42010205078125,0.04779635491967201,-0.08967698298953473,0.02450330374613404
1772561190716131800,3.4301318359375,0.04038578640222549,-0.05760302479341626,-0.006928630219399929
1772561190726162000,3.440161865234375,0.04419511555731296,-0.03757394385188818,-0.04697919331789016
1772561190736192000,3.45019189453125,0.028963059633970258,-0.054192997154220934,-0.059862201897054906
1772561190746220800,3.460220703125,0.055202247262001035,-0.06596278379447758,-0.052893239667266605
1772561190756251000,3.4702509765625,0.0801782830864191,-0.06105126555114984,-0.029996055943518875
1772561190766280700,3.48028076171875,0.13313596629202365,-0.028266674867644906,-0.021582155602425334
1772561190776310800,3.490310791015625,0.1289946287035942,-0.003641279111802578,-0.00458338226750493
1772561190786339600,3.500339599609375,0.14558219088912008,0.007644011947140097,-0.01683846820667386
1772561190796369700,3.51036962890625,0.10345219116806983,0.026131051078438758,-0.018390081562846897
1772561190806399500,3.5203994140625,0.08271686165332794,0.05541720518693328,-0.02186579484939575
1772561190816429600,3.5304296875,0.07961655755043029,0.03986607337705791,-0.05896130753457546
1772561190826458600,3.540458740234375,0.09336100526452064,0.014902239447087049,-0.07620017323568463
1772561190836488700,3.55048876953125,0.11316226879954337,-0.003290565977990627,-0.05711582579836249
1772561190846518500,3.5605185546875,0.11944295650422572,-0.01671243067421019,-0.023485943397134543
1772561190856548600,3.570548583984375,0.14581541512310503,-0.014036489463225006,-0.011007570096105337
1772561190866577700,3.58057763671875,0.19127718961536883,-0.01563208809159696,-0.035885113982111215
1772561190876607700,3.590607666015625,0.19475860199034212,-0.003942161754518747,-0.04055909714251756
1772561190886637600,3.600637451171875,0.20034896934330462,-0.013237301909551023,-0.03054156099706888
1772561190896667600,3.610667724609375,0.17663550080060958,-0.03191584502495825,-0.040035511659830804
1772561190906696400,3.620696533203125,0.1510235051602125,-0.04192687836438417,-0.036706805628538126
1772561190916726500,3.6307265625,0.12543313682973384,-0.05608933229483664,-0.009895371070504188
1772561190926756600,3.640756591796875,0.08851999497413635,-0.10953406836502254,-0.01194178220629692
1772561190936786700,3.65078662109375,0.06601005700230599,-0.13877199941761792,-0.0260388427503407
1772561190946815700,3.660815673828125,0.03453998298346996,-0.1187555587619543,-0.01957739165127277
1772561190956845600,3.670845458984375,0.018276245924830434,-0.11376030775792896,-0.03249137989059091
1772561190966875600,3.680875732421875,0.01514028598666191,-0.08692483473718166,-0.009330722925066948
1772561190976905500,3.690905517578125,0.0019938041657209396,-0.041662236078828574,-0.00851779910698533
1772561190986934800,3.700934814453125,0.03696165717244148,-0.03777794199138879,-0.0394062738455832
1772561190996964600,3.710964599609375,0.056952305799722665,-0.04359196203239262,-0.06396583782359958
1772561191006994700,3.72099462890625,0.07710019081532955,-0.06771759157255292,-0.052903030408918854
1772561191017024500,3.7310244140625,0.1141021799981594,-0.03223097538873553,-0.03288023307770491
1772561191027053600,3.741053466796875,0.15297756183743477,0.019047887884452937,-0.029529899736493823
1772561191037083600,3.751083740234375,0.1384235513061285,0.018334771179035304,0.0010308043524622917
1772561191047113700,3.76111376953125,0.13490122239887714,0.0045054947257041926,0.008043167332559824
1772561191057143800,3.771143798828125,0.13355916014015673,0.007990633427724242,0.013665537258982658
1772561191067172600,3.781172607421875,0.09376198728084564,-0.023555428436771032,-0.002757774275541305
1772561191077202400,3.791202392578125,0.08855331272184848,-0.027674261932447552,-0.03552782497704029
1772561191087232500,3.801232421875,0.06067746380269527,-0.006561477407440543,-0.04364142719730735
1772561191097262600,3.8112626953125,0.0654600219041109,-0.014664558233693241,-0.040641806989908213
1772561191107291600,3.821291748046875,0.035198154631257056,-0.030133053261414168,-0.00894917626157403
1772561191117321700,3.83132177734375,0.033711715465784074,-0.040166956019774075,-0.0001477379076182842
1772561191127351600,3.8413515625,0.10100304445028305,-0.030956352343037723,-0.01355214001238346
1772561191137381600,3.851381591796875,0.16075871723294258,-0.03137574679888785,-0.018449410534650088
1772561191147410700,3.86141064453125,0.24793138925135133,-0.06608494886942208,-0.02061930191963911
1772561191157440800,3.871440673828125,0.27717151226103304,-0.043604894579201935,-0.01981426914706826
1772561191167470600,3.881470703125,0.26290742458701133,-0.01603511593453586,-0.025445553032308815
1772561191177500700,3.891500732421875,0.24285130950808523,-0.01068381803445518,-0.027664982647448776
1772561191187529500,3.901529541015625,0.1780336771607399,-0.010517375426366925,-0.01457125392705202
1772561191197559600,3.9115595703125,0.08772796781361103,-0.050713630605861544,-0.016893267133831977
1772561191207589600,3.921589599609375,0.013004443001747131,-0.0919753961250186,0.0025004385136067867
1772561191217619700,3.93161962890625,-0.03988192853331566,-0.11116598041579126,0.03413505544438958
1772561191227648800,3.941648681640625,-0.0031827216893434524,-0.0942309199668467,0.013969488641619681
1772561191237678600,3.9516787109375,0.018776012140512464,-0.07883994715474546,-0.008163140450417996
1772561191247708700,3.961708740234375,0.07270809333622455,-0.06828815800212323,-0.011262421640008687
1772561191257738500,3.971738525390625,0.12488427077531813,-0.07207914778292179,-0.029281477933377025
1772561191267767600,3.981767578125,0.16215747811496256,-0.044913200698792934,-0.03656652037501335
1772561191277797600,3.991797607421875,0.15286533363461494,-0.03350749813057482,-0.01603504286929965
1772561191287827700,4.00182763671875,0.1407160461574793,-0.041419659494608636,-0.013527005571126937
1772561191297857500,4.011857421875,0.1086690490335226,-0.029922406185418367,-0.018903730173408986
1772561191307886600,4.021886474609375,0.10147767622470855,-0.029138854592293498,-0.011601152075082064
1772561191317916700,4.031916748046875,0.05823591586947441,-0.05336502189747989,-0.003417845619469881
1772561191327946800,4.04194677734375,0.01637596526145935,-0.05659830473028123,-0.0064794251471757885
1772561191337976600,4.0519765625,0.06241875451207161,-0.030881022084504363,-0.011182488271594047
1772561191348005600,4.062005615234375,0.04728139113485813,-0.028924700384959576,-0.010076134464889764
1772561191358035500,4.072035400390625,0.09689853174090385,-0.018700681881979108,-0.01438581435754895
1772561191368065500,4.0820654296875,0.15018062459528445,-0.0013850246176123618,-0.017120500018447636
1772561191378095600,4.092095703125,0.1576163275539875,-0.011025544144213199,-0.03956847866997123
1772561191388124700,4.102124755859375,0.1593979502737522,-0.014056728533655404,-0.038570261412858964
1772561191398154800,4.11215478515625,0.15137538733780384,-0.017684490576758978,-0.0418406613856554
1772561191408184600,4.1221845703125,0.15174305160641668,-0.0013749416150152683,-0.016407529443502426
1772561191418214700,4.132214599609375,0.13881635001599787,0.002470993223413825,-0.011962532733380793
1772561191428243700,4.14224365234375,0.08405892391204833,-0.011058642696216701,-0.010434007991850375
1772561191438273800,4.152273681640625,0.09776070152819157,-0.024463044800981878,-0.0071620005838572975
1772561191448303600,4.1623037109375,0.0673988810122013,-0.008840162929147482,-0.019082740002125502
1772561191458333700,4.172333740234375,0.032390111473202705,-0.014446385438367723,-0.04251329995021224
1772561191468362500,4.182362548828125,0.04832184009850025,-0.027573285776004194,-0.03499386423081159
1772561191478392600,4.192392578125,0.05726210240125656,-0.022873072195798157,-0.029988749419897792
1772561191488422700,4.202422607421875,0.0893757350206375,-0.03814728676043451,-0.008845131365209818
1772561191498452700,4.21245263671875,0.08012567611634731,-0.03706263332888484,0.0015245792187750338
1772561191508481500,4.2224814453125,0.1034317329019308,-0.025906667738035318,-0.005310089106857777
1772561191518511600,4.23251171875,0.1162637419462204,0.013646686428040265,-0.020475363404303788
1772561191528541400,4.24254150390625,0.15195523305237293,0.0002823971379548311,-0.04720511102825403
1772561191538571500,4.252571533203125,0.16475450887084006,-0.022818857790529726,-0.05052022692561149
1772561191548600600,4.2626005859375,0.19581834017634392,-0.0017691285643726587,-0.0423820747859776
1772561191558630700,4.272630615234375,0.21461188797354697,0.019134908580780027,-0.03523936342447996
1772561191568660700,4.28266064453125,0.19196283379197118,0.017714301193132994,-0.003787263453751802
1772561191578690600,4.292690673828125,0.16577391504645347,-0.012686828419938683,0.004522153599560261
1772561191588719600,4.3027197265625,0.12390285852253437,-0.010486541896685957,-0.007217968554794788
1772561191598749700,4.312749755859375,0.07829086190462112,-0.006119213532656431,-0.023498364487290382
1772561191608779800,4.32277978515625,0.055256607797741886,0.0028026363305747506,-0.03588262976408005
1772561191618809600,4.3328095703125,0.05256371545195579,0.0021915186949074267,-0.04545987479612231
1772561191628838700,4.342838623046875,0.09112345547080039,-0.011191183034703135,-0.05133417365700006
1772561191638868500,4.352868408203125,0.12909282838106154,-0.010491802593693136,-0.052427375721186394
1772561191648898600,4.362898681640625,0.17837036176919935,-0.013684534220397471,-0.05071472658440471
1772561191658928600,4.3729287109375,0.23910218610763548,0.010770108078420161,-0.041624388286471366
1772561191668957700,4.382957763671875,0.2539297528833151,0.02359495672956109,-0.05461772537231445
1772561191678987500,4.392987548828125,0.23645547099113462,0.0019699118334800003,-0.0416597518607974
1772561191689017600,4.403017578125,0.18963819023668765,-0.013080138586461544,-0.024691812055557965
1772561191699047700,4.413047607421875,0.07655483189225197,-0.04009140656553208,-0.042593525579571724
1772561191709076700,4.42307666015625,0.02426350364089012,-0.0575229452945292,-0.09124752024188637
1772561191719106600,4.4331064453125,-0.17505612265467643,-0.08075330649539827,0.17171105001047252
1772561191729136600,4.44313671875,0.15417583171129226,-0.16722528289854527,-0.027771657892316576
1772561191739166700,4.453166748046875,-0.019464578926563263,0.12160970608405768,-0.050961540952324864
1772561191749195500,4.463195556640625,-0.019227847561240196,-0.024305443086475132,-0.06842807792946697
1772561191759226000,4.47322607421875,0.11575053172707557,-0.11814962875805794,-0.018046967213600874
1772561191769256200,4.483256103515625,0.06858546044826506,-0.015206044699251652,-0.044793227580934764
1772561191779286300,4.493286376953125,0.1483615924745798,-0.032936420244351026,-0.09991817182302475
1772561191789315300,4.5033154296875,0.07099895133078098,-0.06374466935358941,-0.062141106614470476
1772561191799345000,4.513344970703125,0.10119009145498276,-0.054384720334038135,-0.0324751594081521
1772561191809375000,4.523375,0.06286942088901996,-0.01941029145605862,-0.04809256138727069
1772561191819405000,4.533405029296875,0.10110007508397102,-0.02371127658560872,-0.08373919043838977
1772561191829434000,4.54343408203125,0.1434814192175865,-0.02919920647740364,-0.07214037645086646
1772561191839464200,4.553464111328125,0.1775321573793888,-0.023763079838082193,-0.05633490455374121
1772561191849494300,4.563494384765625,0.18268004166185856,-0.036519758623838425,-0.02751636795699596
1772561191859524000,4.573524169921875,0.157924955111742,-0.031964141146093604,-0.01536313495710492
1772561191869553200,4.58355322265625,0.10185527736544608,-0.03463167985491455,-0.025342677179723976
1772561191879583200,4.593583251953125,0.05719429786205291,-0.06362747271470726,-0.037581688766926524
1772561191889613000,4.603613037109375,0.05542027392685413,-0.05397687018550932,-0.030909809787571428
1772561191899643100,4.61364306640625,0.043211949738860125,-0.07790807313211262,-0.019303397015482185
1772561191909672000,4.623671875,0.06000351006388664,-0.08409742929153144,0.006834522195160389
1772561191919702000,4.633701904296875,0.09822364286482334,-0.05441847647316753,0.0004832534722983837
1772561191929732000,4.643732177734375,0.08251520160138606,-0.03546016656830907,0.0008430266954004764
1772561191939762200,4.65376220703125,0.11570610806345939,-0.0332778540931642,0.0032828210629522797
1772561191949791200,4.663791259765625,0.12208967162072658,-0.014136588836833833,-0.01981879919171333
1772561191959821300,4.6738212890625,0.1314034434109926,-0.0058360857423394915,-0.04910758364871144
1772561191969851100,4.68385107421875,0.14657704714536665,0.0005862754553556442,-0.041651860815286636
1772561191979881000,4.693880859375,0.1756242779314518,0.005875248708948492,-0.02856339279189706
1772561191989910000,4.703909912109375,0.20606500890254972,0.007487579276412725,-0.025415888546407223
1772561191999940000,4.713940185546875,0.22616320955753325,0.0037695086013525723,-0.010376140324771403
1772561192009970200,4.72397021484375,0.21028058077096937,-0.01583528251349926,0.003623889585584402
1772561192020000300,4.734000244140625,0.13970716137588024,-0.03136456781774759,-0.008003127583116292
1772561192030029000,4.744029052734375,0.11532499979138373,-0.015860563085228204,-0.03383314988836646
1772561192040059100,4.75405908203125,0.06732640029788017,0.00473871895968914,-0.04647606610134244
1772561192050089200,4.764089111328125,0.026098902374505996,0.007603899132460355,-0.046040889554470776
1772561192060119000,4.774119140625,-0.02487608258128166,0.006292085881531238,-0.0013417699977755545
1772561192070149000,4.784149169921875,-0.05109013576805591,-0.03430522437952459,0.0897138809338212
1772561192080178000,4.794177978515625,0.19439269128739833,-0.021939006216078995,-0.0413147378154099
1772561192090208000,4.8042080078125,0.042589433926343914,0.055563920181244605,-0.061641194268316025
1772561192100238000,4.814238037109375,0.018370353949069974,-0.07558949399143457,-0.004905892220139503
1772561192110268200,4.82426806640625,0.11234510719776153,-0.10981193545833229,0.012284896555542945
1772561192120297200,4.834297119140625,0.1020505076766014,-0.03902808818295598,-0.0243254629611969
1772561192130327300,4.844327392578125,0.09898819749653338,-0.01812923866957426,-0.03467208493053913
1772561192140357000,4.854357177734375,0.1349678578943014,-0.013765490502119063,-0.0019696926377713677
1772561192150387000,4.864386962890625,0.13808043695688246,-0.03930069457925856,0.014678221432864666
1772561192160416000,4.874416015625,0.1585445483148098,-0.05513071639575064,0.006620148792117833
1772561192170446000,4.884446044921875,0.1528530586749315,-0.031990956087782976,-0.0030612872667610644
1772561192180476200,4.89447607421875,0.11644494373202323,-0.03598134089820087,-0.024643881260603667
1772561192190506200,4.90450634765625,0.10154664980769157,-0.03010309651456773,-0.03235489402934909
1772561192200535000,4.91453515625,0.09028174394965172,-0.03535429504103958,-0.03150339176654816
1772561192210565000,4.924565185546875,0.06153320384919643,-0.05305025685988366,-0.034549043072760105
1772561192220595200,4.93459521484375,0.006698620855808257,-0.08077734495811163,-0.0185075704626739
1772561192230625300,4.944625244140625,0.013733341798186301,-0.04269377108365297,-0.004999854113906622
1772561192240654300,4.954654296875,0.09282616773545742,0.0034973405964672565,-0.0073883566856384275
1772561192250684000,4.964683837890625,0.15617022039890288,0.011923296701535581,-0.012406477108597755
1772561192260714000,4.9747138671875,0.1663420703232288,0.025009645833075043,-0.000973667337745428
1772561192270744000,4.984744140625,0.189374570864439,0.029428558253869412,0.016015753646939992
1772561192280773000,4.994773193359375,0.1913473322421312,0.05326353428438305,0.0020437807872891425
1772561192290803200,5.00480322265625,0.14620236861407757,0.01944755472652614,-0.019595511829853057
1772561192300833300,5.014833251953125,0.10735504382550716,-0.009709639240056276,-0.0328727804236114
1772561192310863000,5.024863037109375,0.08421323769092559,0.006404167953878641,-0.04043956241607666
1772561192320892200,5.03489208984375,0.07572188819944858,0.02039111918695271,-0.05465235829427838
1772561192330922200,5.044922119140625,0.09333879343271255,0.014245967495441436,-0.06052694941610098
1772561192340952000,5.0549521484375,0.11862345681488513,0.006377353012189268,-0.049395022287964815
1772561192350982100,5.064982177734375,0.14178162956237791,0.0019030571423470973,-0.018357786728441714
1772561192361011000,5.075010986328125,0.14423603697717188,-0.013972630446776747,-0.00950315688252449
1772561192371041000,5.085041015625,0.15293722982704638,-0.020148615667968987,-0.01397372642531991
1772561192381071000,5.095071044921875,0.12806874603033064,-0.013723843317478895,-0.027163170605152845
1772561192391101200,5.10510107421875,0.11030980197787284,0.005524097183719277,-0.03464256657510996
1772561192401130200,5.115130126953125,0.07642331446707248,0.021993732078000903,-0.03144844670891762
1772561192411160300,5.125160400390625,0.07088087790906429,0.019095380287989974,-0.0356568581841886
1772561192421190100,5.135190185546875,0.10503390740156172,-0.0006820639800280332,-0.04212503128498792
1772561192431220000,5.145219970703125,0.08054653187692165,-0.01392316528186202,-0.040954380070418114
1772561192441249000,5.1552490234375,0.07084931372702122,-0.03770027364529669,-0.04503901903554797
1772561192451279000,5.165279052734375,0.08661211552619934,-0.03909684257023036,-0.04348009915575385
1772561192461309200,5.17530908203125,0.07239946577847003,-0.035288244067505,-0.03714168991446495
1772561192471339300,5.18533935546875,0.09280278685986995,-0.06889043474420904,-0.01560644219368696
1772561192481368000,5.1953681640625,0.09038637336790561,-0.11000826174803077,-0.0037806875824928283
1772561192491398100,5.205398193359375,0.11002338625192641,-0.07997757288254798,-0.021969839745759962
1772561192501428200,5.21542822265625,0.11185293976664543,-0.06346826356500387,-0.019312164843827483
1772561192511458000,5.2254580078125,0.1303711777538061,-0.06022540918625891,-0.03306099647209048
1772561192521487400,5.2354873046875,0.11865034482181072,-0.05486293230503797,-0.026321459084004163
1772561192531517000,5.245516845703125,0.08600304371714591,-0.06990026937387883,-0.017479688719660044
1772561192541547000,5.255547119140625,0.0655687429755926,-0.07308328332416712,-0.010559387937188148
1772561192551577000,5.2655771484375,0.06706161188185214,-0.07598010074421763,-0.009544511806219815
1772561192561606100,5.275606201171875,0.060656421014666555,-0.06499569232799113,-0.012347002006322145
1772561192571636200,5.28563623046875,0.08030278624892234,-0.04667575339190662,-0.011842267354577779
1772561192581666300,5.295666259765625,0.10154606528580189,-0.046365080007538195,-0.006731061820685863
1772561192591696100,5.305696044921875,0.12469547020494937,-0.03648454117998481,0.0012169745743274688
1772561192601726000,5.315725830078125,0.14135902023613453,-0.027646862468868494,0.005395721563696861
1772561192611755000,5.325755126953125,0.11371171937584876,-0.014633213247358797,0.004530336906015873
1772561192621785000,5.33578515625,0.09702771107852458,-0.013653700690716504,0.005324702154099941
1772561192631815200,5.345815185546875,0.07612696186900138,0.016497399684041736,-0.01801817951053381
1772561192641845200,5.35584521484375,0.06578092442154884,0.010682868186384439,-0.030416765573620795
1772561192651874000,5.3658740234375,0.0839689075410366,-0.036276889778673646,-0.033808599968999625
1772561192661904100,5.375904052734375,0.11148586001992225,-0.019001491459459067,-0.025160598611086604
1772561192671934200,5.385934326171875,0.16897358787059782,0.01913432405889034,-0.023740064288675783
1772561192681964000,5.395964111328125,0.1694850445240736,-0.00764167385958135,-0.018502455896139143
1772561192691993300,5.405993408203125,0.22280513130128382,-0.033746932909637685,-0.007109539744257927
1772561192702023000,5.41602294921875,0.2320265486329794,-0.04906513274647295,0.00020487492233514784
1772561192712053000,5.426052978515625,0.242286661362648,-0.04376249629370868,0.0016968670457601547
1772561192722083000,5.4360830078125,0.20593290695548055,-0.024547435148805377,-0.003910159181058407
1772561192732112100,5.446112060546875,0.15552783084213734,-0.02405212591253221,-0.008152326795458794
1772561192742142200,5.45614208984375,0.12249182268083095,-0.03724726918078959,0.005314473021030426
1772561192752172300,5.46617236328125,0.10531038625538348,-0.05953384672552347,-0.0072863576158881185
1772561192762201900,5.476201904296875,0.048745033946633334,-0.04788870937824249,-0.007923632606118917
1772561192772231000,5.48623095703125,0.0024018004447221753,-0.06979220588952302,-0.013426321675628423
1772561192782261000,5.496260986328125,-0.04568447733223438,-0.08548508425764739,-0.005751841524988413
1772561192792290600,5.50629052734375,-0.025386954712867737,-0.08910743947327136,-0.005096007964760065
1772561192802320600,5.516320556640625,0.01619827060699463,-0.09630947980657219,-0.01116144548356533
1772561192812349700,5.526349609375,0.0014618892461061477,-0.06817264186367392,-0.010897679980844259
1772561192822379800,5.5363798828125,0.041833062601089474,-0.07484875862672924,-0.02543547002971172
1772561192832409900,5.546409912109375,0.07036942125558852,-0.09365589655786752,0.004336275638639927
1772561192842440000,5.55643994140625,0.10156360094249248,-0.12962014019079507,0.0059482408799231045
1772561192852468700,5.56646875,0.16548749932050705,-0.11101393165923655,0.025847411831468343
1772561192862498800,5.576498779296875,0.19320552732944488,-0.05673018748164177,0.00914718305170536
1772561192872529000,5.58652880859375,0.1704787317365408,-0.04338884067572653,0.0006457505576312542
1772561192882558700,5.596558837890625,0.14805471848249435,-0.0674792527720332,0.019568331561982632
1772561192892587800,5.606587890625,0.12888883024156092,-0.07982976190969347,0.029659663596004245
1772561192902617600,5.61661767578125,0.16532266414761543,-0.04351750855669379,0.01190013502165675
1772561192912647700,5.626647705078125,0.15907704775631426,-0.022096680995821953,-0.0006897358298301697
1772561192922677800,5.636677734375,0.07293079617619513,-0.031190745620802044,-0.015563479834794997
1772561192932706800,5.646706787109375,0.06885200242996216,-0.025286197752133012,-0.006471387971192598
1772561192942737000,5.65673681640625,0.06690729810297488,0.08330116434730589,-0.028130992724001404
1772561192952767000,5.66676708984375,0.1101110645353794,0.10470613675191998,-0.08491232587099075
1772561192962796800,5.676796875,0.10895429571568965,0.05369805324412882,-0.10509294411242008
1772561192972825900,5.686825927734375,0.11605974380671977,-0.07081497306600212,-0.05264934790879488
1772561192982855700,5.696855712890625,0.12169862647652625,-0.1591603421255946,0.03188596134334802
1772561192992885800,5.7068857421875,0.14104922363460062,-0.1468992648370564,0.08544584822580217
1772561193002915800,5.716915771484375,0.19428747734725474,-0.15805749545022843,0.057531566992402076
1772561193012944600,5.726944580078125,0.12977262733876704,-0.09030015638917684,0.023009411926567552
1772561193022974700,5.736974609375,0.03831540986895561,-0.06692614893391728,-0.02226458490863442
1772561193033004800,5.7470048828125,-0.038385552495718,-0.06261939165070653,-0.05625818605571985
1772561193043035000,5.757034912109375,-0.036550153762102126,0.0445484590396285,-0.02025353734716773
1772561193053064700,5.767064697265625,0.01906593499779701,0.042977264200150966,-0.037800007692724465
1772561193063094000,5.777093994140625,0.060392801642417906,0.004544219300895929,-0.032063071475923056
1772561193073123600,5.78712353515625,0.13117197274267672,0.009980126744508743,-0.022789631696045396
1772561193083153700,5.797153564453125,0.22741057927012442,0.04454290608167648,-0.06483794448301196
1772561193093183700,5.807183837890625,0.21455577387213706,0.09050634648576378,-0.0854627993606031
1772561193103212800,5.817212890625,0.20426058982908724,-0.0076927464596927165,-0.08617796189263463
1772561193113243000,5.827242919921875,0.20202011742591858,-0.12091639005765319,-0.06346285673752426
1772561193123273000,5.83727294921875,0.09399228890538215,-0.14335267827138304,-0.017080606399476526
1772561193133302800,5.847302734375,0.021698621588945387,-0.0989646704904735,0.010372340932488441
1772561193143331800,5.857331787109375,0.06219020645320415,-0.08445610653609037,0.010356851102411746
1772561193153362000,5.86736181640625,0.05483809012472629,-0.0996357016198337,0.014581336929649113
1772561193163391700,5.877391845703125,0.03803951553702354,-0.12821911428645252,0.005256459223479032
1772561193173421800,5.887421875,0.04363865071833133,-0.1701587060019374,0.0021110008046031
1772561193183450600,5.89745068359375,0.10958674840033053,-0.1284187285117805,0.016734861701726913
1772561193193480700,5.907480712890625,0.1334165367990732,-0.057764498965442175,0.03196837892979383
1772561193203510800,5.9175107421875,0.10434884774684905,-0.05473565266355872,0.017279197711497545
1772561193213540900,5.927540771484375,0.12712532770037652,-0.03331862449496984,-0.02517988783344626
1772561193223570000,5.93756982421875,0.14534779761135577,0.00741699825823307,-0.06068520871773362
1772561193233600000,5.94760009765625,0.16373159556388853,-0.0026098902374505997,-0.07940452223494648
1772561193243629600,5.957629638671875,0.11212474244534969,-0.034909546948224304,-0.05804185460209846
1772561193253659600,5.96765966796875,0.06660685385167599,-0.041202509612590074,-0.022328736186027525
1772561193263688700,5.977688720703125,0.04867079966664314,-0.039004853437840936,-0.018297727104276417
1772561193273718800,5.98771875,0.03810264390110969,-0.028008096996694803,-0.037154403265565634
1772561193283748900,5.997748779296875,0.01243453415930271,0.00039879005923867223,-0.04682224919050932
1772561193293779000,6.007779052734375,-0.0002554360657930374,0.0033725451730191704,-0.035510435450822116
1772561193303807700,6.017807861328125,0.06904021847844123,0.03146495945230126,-0.028136984073370692
1772561193313837800,6.027837890625,0.09400982456207276,0.05302461096197367,-0.011149316654354334
1772561193323868000,6.037867919921875,0.1239361762702465,0.009601648820936679,-0.024345336705446242
1772561193333897700,6.047897705078125,0.11744272259771824,0.019011866723001,-0.03869505683630705
1772561193343926800,6.0579267578125,0.13569324955940246,0.06108414490744471,-0.03898585647642612
1772561193353956600,6.06795654296875,0.17485037094950676,0.0133532564394176,-0.08134206616878509
1772561193363986700,6.077986572265625,0.1157756661683321,-0.008752192384749651,-0.04973462950587272
1772561193374016800,6.088016845703125,0.09572598083019256,-0.022122399958968163,0.003349602688848972
1772561193384045800,6.0980458984375,0.042699324041604994,-0.0543845011383295,0.008180091585218907
1772561193394076000,6.108075927734375,0.05956161151528358,-0.03862082255631685,-0.01636558999791741
1772561193404106000,6.11810595703125,0.09981763405799865,-0.011383125410228966,-0.03843947464004159
1772561193414135800,6.1281357421875,0.10443886411786078,-0.021800620658695695,-0.026759412109851836
1772561193424165600,6.13816552734375,0.1017284361153841,-0.02979585719630122,0.013715660011023282
1772561193434194700,6.148194580078125,0.08076046688854693,-0.04960661921203136,0.04701280332654714
1772561193444224800,6.158224853515625,0.09347674059867858,-0.05039762345924973,0.0388986165843904
1772561193454254800,6.1682548828125,0.15900339799821375,-0.005622369926422834,-0.006611673224717379
1772561193464285000,6.178284912109375,0.23272154515981672,0.0017868834167718887,-0.05702624781876802
1772561193474313700,6.188313720703125,0.23741350236833095,-0.02018339472040534,-0.06790230048969388
1772561193484343800,6.19834375,0.19089783490896223,-0.06078209322094917,-0.028939532627910373
1772561193494374000,6.208373779296875,0.14014730635881423,-0.1048595737479627,0.009253127644211052
1772561193504403700,6.21840380859375,0.024810031607747078,-0.12242284909784792,0.0544628270715475
1772561193514432800,6.228432861328125,-0.040241994017362594,-0.11126038070097564,0.03482683710083365
1772561193524462600,6.238462646484375,-0.030503859335184097,-0.08572656486332415,0.005004238028079271
1772561193534492700,6.24849267578125,-0.019608371311426162,-0.09032251435145736,-0.0045600013919174665
1772561193544522800,6.258522705078125,0.016769933015108106,-0.09847849440872669,0.003902122005075216
1772561193554551800,6.2685517578125,0.07928396459519862,-0.08143295932263135,0.011786591644585133
1772561193564582000,6.278581787109375,0.11790507941246033,-0.059577101345360275,0.02797521764039993
1772561193574612000,6.288612060546875,0.1631540879368782,-0.023672698140889403,0.0052465223513543605
1772561193584641800,6.298641845703125,0.21811317409276962,0.001895750618726015,-0.03252265181168914
1772561193594670800,6.3086708984375,0.15767828687429428,-0.007513298239558935,-0.0338935017734766
1772561193604701000,6.318700927734375,0.0930576384037733,-0.06950827438160777,-0.008586918820440768
1772561193614730800,6.328730712890625,0.021563597032427786,-0.0893858180232346,0.037009880228340626
1772561193624760800,6.3387607421875,0.006623802053928375,-0.08259323527365922,0.004454787451773881
1772561193634789600,6.34878955078125,0.08899930292367934,-0.05257336006313562,-0.031219460258632897
1772561193644819700,6.35881982421875,0.1485539001762867,-0.04725640282407403,-0.024806816737353802
1772561193654849800,6.368849853515625,0.1837017859250307,-0.078896280451864,-0.021412644254416226
1772561193664879900,6.3788798828125,0.21350188090503214,-0.06598199995160102,0.012761428026109934
1772561193674909000,6.388908935546875,0.19367256031930447,-0.06112433078736067,0.010180179361253976
1772561193684938800,6.398938720703125,0.14760931280255316,-0.05467617756128311,-0.010460311476886272
1772561193694968600,6.408968505859375,0.13474690861999988,-0.03125876935571432,-0.03407061190605164
1772561193704998700,6.41899853515625,0.09801964472532272,0.000827536865323782,-0.04498845789209008
1772561193715028700,6.42902880859375,0.08787760541737079,0.011355652881413698,-0.04667129641249776
1772561193725057800,6.439057861328125,0.07716624178886414,0.006713087772578,-0.02000599232688546
1772561193735087900,6.449087890625,0.079607789722085,-0.004642857369780541,0.0034912031166255473
1772561193745118000,6.459117919921875,0.07985854961276054,-0.054450259850919246,0.006749328129738569
1772561193755146800,6.469146728515625,0.08034779443442822,-0.07917597417607904,0.021087650083750485
1772561193765177000,6.479177001953125,0.09819967746734619,-0.0649408203355968,-0.017139058588445187
1772561193775207200,6.489207275390625,0.07289689390659332,-0.006708996119350195,-0.04262772011011839
1772561193785237000,6.499237060546875,0.054255906322598454,-0.017864596384018657,-0.01812938480004668
1772561193795267000,6.50926708984375,0.0674380439788103,-0.050732554502040145,0.012443009726703166
1772561193805295900,6.5192958984375,0.06369242770969867,-0.03260097774490714,0.019776421354711055
1772561193815326000,6.529325927734375,0.0383376217007637,0.014276947155594825,0.013464023337513207
1772561193825356000,6.53935595703125,0.09300503143370151,0.07320084528923035,-0.012803951993584632
1772561193835386000,6.54938623046875,0.07984685917496681,0.12689882546812295,-0.06688610918447375
1772561193845415200,6.559415283203125,0.09410100997686385,0.1139955047532916,-0.11026026374772191
1772561193855445200,6.5694453125,0.1559212140738964,0.05594195971339941,-0.09771496269032359
1772561193865474800,6.579474853515625,0.20385726972520352,0.032021132030338045,-0.06090981125384569
1772561193875505000,6.5895048828125,0.23988018474280834,0.04573416169285774,-0.03632321313843131
1772561193885534000,6.599533935546875,0.2573275786280632,0.0661114715501666,-0.012503361611813306
1772561193895564000,6.60956396484375,0.22155366993546485,0.04507730521932244,-0.024374562799930572
1772561193905594000,6.619593994140625,0.1806429828763008,0.018527444206923246,-0.05201587231084704
1772561193915624200,6.629624267578125,0.13050386422276497,-0.00029620646759867666,-0.031216099257767197
1772561193925653000,6.639653076171875,0.03851064018011093,0.000051291795819997785,-0.03677081077545881
1772561193935683000,6.64968310546875,0.055175359255075454,0.02669131530970335,-0.02541223528459668
1772561193945713200,6.659713134765625,0.03889057940840721,0.009223317027837038,-0.045318858890235424
1772561193955743000,6.669742919921875,0.05496610041856766,-0.004289513887465,-0.04652180493921041
1772561193965772000,6.67977197265625,0.04465221167504787,0.0038924773938953873,-0.04374532596319913
1772561193975801900,6.6898017578125,0.10682195986211299,0.0012048457451164722,-0.03004793226122856
1772561193985832000,6.69983203125,0.08288578847944736,-0.0016340309426188468,-0.045882922513782974
1772561193995862000,6.709862060546875,0.127530985891819,-0.022425620689243076,-0.03525602229833603
1772561194005891000,6.71989111328125,0.10616554177999496,-0.03108911187723279,-0.0418298477306962
1772561194015921200,6.729921142578125,0.09834639246165752,-0.049480070222914216,-0.005723784474283456
1772561194025951200,6.739951171875,0.07021160034537315,-0.06376739264205097,-0.005641074626892804
1772561194035981000,6.74998095703125,0.02906535096466541,-0.07498305253088473,-0.02108998817130923
1772561194046010000,6.760010009765625,0.03825637315809727,-0.09120309657827019,-0.013798223727941513
1772561194056040000,6.7700400390625,0.08413549627959728,-0.07119915007799864,-0.016145663636922835
1772561194066070000,6.780070068359375,0.09282967486679554,-0.06762889037579298,-0.02220467141494155
1772561194076100000,6.79010009765625,0.08126666284501552,-0.07937208127006888,-0.01017068088054657
1772561194086130200,6.800130126953125,0.09643266779482364,-0.08995441169142722,-0.012902882323414086
1772561194096159000,6.810158935546875,0.1042728599011898,-0.0728812579460442,0.002174421429634094
1772561194106189000,6.82018896484375,0.08095277459025382,-0.0459580335766077,-0.006747866825014353
1772561194116219100,6.83021923828125,0.10688801083564757,-0.07532485170587896,-0.012870149097591637
1772561194126249000,6.8402490234375,0.07276946813464165,-0.08124445101320743,-0.020483254449814556
1772561194136278300,6.8502783203125,0.06491290941536426,-0.09461144371703266,-0.031952889099717136
1772561194146307800,6.860307861328125,0.07613806778490544,-0.10276625473052263,-0.023782149864733218
1772561194156338000,6.870337890625,0.08265548685491085,-0.07101765603125094,-0.0046980946883559225
1772561194166368000,6.880367919921875,0.11721183645129203,-0.02189677450954914,-0.006322188758850098
1772561194176397000,6.89039697265625,0.10593874728679656,0.018422084136307238,-0.007554945424199104
1772561194186427100,6.90042724609375,0.09140051884651183,-0.007856850980222225,-0.035912001989036796
1772561194196457200,6.910457275390625,0.05459083736538887,-0.06490428771749139,-0.045740153042227026
1772561194206487000,6.920487060546875,0.057283729711174965,-0.07616539418324828,-0.027670389474928378
1772561194216516000,6.93051611328125,0.05544248575866222,-0.08641980782449245,-0.0005878828905522823
1772561194226546200,6.940546142578125,0.04816577275395393,-0.1337878543294966,0.03609145020917058
1772561194236576000,6.950575927734375,0.07047288163006306,-0.12948504256904125,0.023916589899361133
1772561194246606000,6.960606201171875,0.09577508066892623,-0.0888457197971642,0.0020813363187015053
1772561194256635000,6.970634765625,0.10725918223559856,-0.07950593678280711,-0.0006374211207032203
1772561194266665000,6.9806650390625,0.12535364185273645,-0.08124722749218344,-0.008732172510027884
1772561194276695000,6.990695068359375,0.14598492647111416,-0.049027065758407117,-0.01825286504924297
1772561194286725000,7.00072509765625,0.18246493760645388,-0.049054976678639645,-0.047567076208442444
1772561194296754200,7.010754150390625,0.20469956576824186,-0.03749605631008744,-0.036595454208552834
1772561194306784300,7.0207841796875,0.2041056915283203,-0.04758315056040883,-0.036666619748622176
1772561194316813800,7.030813720703125,0.2059013427734375,-0.07907543641105294,-0.034915684428066016
1772561194326844000,7.040843994140625,0.19653554853498933,-0.08397051497623324,-0.018704992730915547
1772561194336873000,7.050873046875,0.18651859691143036,-0.08795476230680942,-0.00957242272645235
1772561194346903000,7.060903076171875,0.16071604713499546,-0.0690589231789112,-0.0013066986843943596
1772561194356933000,7.07093310546875,0.06689619218707084,-0.04702347085103392,-0.004546265127509832
1772561194366963200,7.080963134765625,-0.0012795184165239333,-0.029301790069043633,0.004025456123799086
1772561194376993000,7.090992919921875,-0.047511108237504956,-0.005946487314254045,-0.018460808711498973
1772561194387022000,7.10102197265625,-0.05289689292907714,-0.008136983095854521,-0.054990942598879336
1772561194397052200,7.11105224609375,-0.020305705925822256,-0.0439537080168724,-0.05965045884251594
1772561194407082000,7.12108203125,0.06479308242797852,-0.054363458350300785,-0.04884352588504553
1772561194417112000,7.131112060546875,0.16478899566233157,-0.06416998209357261,-0.03598813596516848
1772561194427140900,7.141140869140625,0.20741174733638762,-0.04423208656683564,-0.005820522847026586
1772561194437171000,7.1511708984375,0.20285364564061165,-0.017378128041326997,0.009909545726329088
1772561194447201000,7.161200927734375,0.1811532704859972,-0.025106968727707863,-0.008053104204684495
1772561194457231000,7.171231201171875,0.061954059609770774,-0.02810717345699668,-0.007401508428156375
1772561194467260200,7.18126025390625,0.05675824453234672,-0.05169949983805418,0.014990063861012457
1772561194477290200,7.191290283203125,0.050720717933773994,-0.07963336255475878,0.03941358036920428
1772561194487320000,7.201320068359375,0.04878361239135265,-0.11288009085729718,0.040258506760746236
1772561194497350000,7.211349853515625,0.09922902051508425,-0.10229878334924578,0.013908406104147434
1772561194507379000,7.22137890625,0.14214227956831454,-0.07591083490028977,0.0051170507527887816
1772561194517409000,7.231408935546875,0.13534487451314925,-0.07605491954609751,-0.013983663297444581
1772561194527439000,7.241439208984375,0.17570143482089043,-0.03603767419531941,-0.025048662669211623
1772561194537469200,7.25146923828125,0.1345195296049118,0.034287323396652934,-0.035829876663535834
1772561194547498000,7.261498046875,0.07474690568745136,0.04496799962595105,-0.03458002273291349
1772561194557528000,7.271528076171875,0.06665946082174777,0.04342164696678519,-0.03198635297790169
1772561194567558100,7.28155810546875,0.06547521947324275,0.032438334529101845,-0.03652750353887677
1772561194577588000,7.291587890625,0.05694821414649486,-0.00881707431450486,-0.04329363667294383
1772561194587617000,7.301616943359375,0.07038754143416881,-0.03750833126977086,-0.026478549341857432
1772561194597646800,7.311646728515625,0.06581073503792285,-0.04395341575592756,-0.03161401253417134
1772561194607677000,7.321677001953125,0.09566811316311359,-0.02010711461380124,-0.03703969084471464
1772561194617707000,7.33170703125,0.10921499247848987,0.00602773585692048,-0.03515402322858572
1772561194627736000,7.341736083984375,0.15972177540063856,0.027498832300305365,-0.049545098283141846
1772561194637766100,7.35176611328125,0.17158581619560717,0.01994227944090962,-0.07802928835898637
1772561194647796200,7.361796142578125,0.16510756009221075,0.012959580946713685,-0.09136296331509947
1772561194657826000,7.371825927734375,0.17281097407639026,-0.028496465035527944,-0.06002674480900168
1772561194667855000,7.381855224609375,0.15573533611297607,-0.042609746062010526,-0.005404489392042159
1772561194677885000,7.391885009765625,0.10348960056900977,-0.03680149817466736,0.010048808066546917
1772561194687915000,7.4019150390625,0.09614917467832565,-0.047992462013661856,-0.00395487510561943
1772561194697945000,7.411945068359375,0.04024959280192852,-0.06499138147905469,-0.01733472729101777
1772561194707975200,7.42197509765625,-0.00042728550136089324,-0.056687225122749804,-0.016007131949067114
1772561194718004000,7.43200390625,0.021406945165991783,-0.03412248822376132,-0.022955489782243967
1772561194728034000,7.442033935546875,0.07258066756427288,-0.009732873985171317,-0.038921266807615755
1772561194738064100,7.452064208984375,0.1376736097216606,0.006619710400700569,-0.04748831188380718
1772561194748094200,7.46209423828125,0.1654366459161043,0.015782383282482625,-0.014682897607982158
1772561194758123000,7.472123046875,0.17321780131161213,-0.025639029777795076,0.014017419436573982
1772561194768154000,7.482154052734375,0.14568506674170492,-0.058309273366630075,-0.008008388280123471
1772561194778184200,7.49218408203125,0.10537409914135933,-0.06931976607218385,-0.02659180045798421
1772561194788214300,7.50221435546875,0.08143032897412776,-0.06263415082842111,-0.02966200168356299
1772561194798243000,7.5122431640625,0.0645844081133604,-0.02260696860551834,-0.04332636989876627
1772561194808273200,7.522273193359375,0.05649462516009807,-0.011626578777283429,-0.03252995833531022
1772561194818303200,7.53230322265625,0.044049569606781004,0.007629764226078987,-0.00018456278666853903
1772561194828333000,7.5423330078125,0.09123509915173053,0.002895136919617653,0.0020491876147687433
1772561194838362000,7.552362060546875,0.08242810783982277,-0.011629501386731862,0.0023261048600077628
1772561194848392200,7.56239208984375,0.08122516179084778,-0.04730535653233528,0.008582681036740541
1772561194858422300,7.57242236328125,0.12245265971422195,-0.06875833279713987,0.029720307742059228
1772561194868452000,7.5824521484375,0.06348433791697025,-0.08415230128392577,0.029117957934737204
1772561194878481200,7.592481201171875,0.024219664499163625,-0.09616685646548867,0.029773499234020707
1772561194888511200,7.60251123046875,0.01028349360525608,-0.048922290209680794,0.00293751475661993
1772561194898541300,7.612541259765625,0.004025602254271507,0.0027171500042080876,-0.00740545395091176
1772561194908571100,7.622571044921875,0.04686754963696003,0.012150164259970187,-0.01765621433034539
1772561194918600200,7.63260009765625,0.12351882764101027,0.019488544324040413,-0.028819705640524624
1772561194928630000,7.642630126953125,0.19369944832623004,0.010024696538597345,-0.045064153476804494
1772561194938660000,7.65266015625,0.2608271111816168,-0.01781739624142647,-0.03811331142559647
1772561194948690200,7.662690185546875,0.28639468315839767,-0.036614305039495226,-0.021172259627282617
1772561194958719200,7.67271923828125,0.2738116804391146,-0.06986980117037891,0.00949789618551731
1772561194968749000,7.6827490234375,0.2278250052899122,-0.07951777335107325,0.022769904082268474
1772561194978779100,7.692779052734375,0.13711889844834804,-0.08275485557615757,0.036085458859801293
1772561194988809200,7.702809326171875,0.0845569365620613,-0.09137976831942796,0.011550883192569016
1772561194998839000,7.712839111328125,0.036734278157353396,-0.08517433780804276,-0.023433920948952434
1772561195008868000,7.7228681640625,0.008720482072234153,-0.09368234617337584,-0.03594283551871776
1772561195018898200,7.732898193359375,-0.02965805616080761,-0.08863909130915999,-0.020800649835914373
1772561195028928300,7.74292822265625,-0.01598550463914871,-0.06365925609245895,-0.0006644552581012248
1772561195038958000,7.7529580078125,-0.027020693394541738,-0.05327741667926311,-0.003668897771090269
1772561195048987100,7.762987060546875,-0.011427402943372725,-0.04501563815996051,0.006034896250069141
1772561195059017200,7.773017333984375,0.02994856353998184,-0.06236380945444107,-0.013545710271596907
1772561195069047300,7.78304736328125,0.10275368750989436,-0.07923004245087503,-0.007213438510149717
1772561195079077000,7.7930771484375,0.17242460510730742,-0.08083499342948197,0.011046294671297073
1772561195089106200,7.803106201171875,0.21376199314594269,-0.09319543943926692,0.04146656737625599
1772561195099136000,7.813135986328125,0.21245967837572097,-0.05570230573862791,0.0742132372021675
1772561195109166000,7.823166015625,0.19942893188893793,-0.006539192510396242,0.07305617612153291
1772561195119196200,7.833196044921875,0.14416472530663013,-0.004834434419125318,0.045889936776459216
1772561195129225200,7.84322509765625,0.12154139008820056,-0.01700710277184844,-0.007637216880172491
1772561195139255000,7.853255126953125,0.07887538379430771,-0.02995470101982355,-0.031107378186285495
1772561195149285000,7.86328515625,0.05505260965824127,-0.09355535879284142,-0.017432050185650586
1772561195159315200,7.873315185546875,0.022944822257757187,-0.12382263289317488,-0.00039542905837297435
1772561195169344300,7.88334423828125,0.05626841518878936,-0.08024024240672588,-0.006854980461299419
1772561195179374300,7.893374267578125,0.042216508960723875,-0.03480813240036368,-0.0028032208524644375
1772561195189404200,7.903404052734375,0.0844090525239706,-0.05197948582321405,0.00002864157259464264
1772561195199434200,7.913434326171875,0.09563187280595302,-0.0077719491757452484,0.016057546962052582
1772561195209463000,7.923463134765625,0.13793606005012987,0.021299831529706714,0.011633593039959669
1772561195219493000,7.9334931640625,0.21319617595672608,0.021664719319343564,-0.014406272623687981
1772561195229523200,7.943523193359375,0.2216863564044237,0.018421938005834818,-0.038320378305017944
1772561195239553300,7.95355322265625,0.21277356663048266,0.004652648111432791,-0.03792275728955865
1772561195249583400,7.963583251953125,0.14583295077979563,0.008090513605624437,-0.04693871517702937
1772561195259612200,7.973612060546875,0.11055004047453403,-0.02250029336065054,-0.06442994820401073
1772561195269642200,7.983642333984375,0.06494973429441452,-0.041249855885654683,-0.05168664035648107
1772561195279672000,7.993672119140625,0.02671557296812534,-0.05039353180602193,-0.027927286845445633
1772561195289702100,8.0037021484375,0.027315876948833463,-0.04313566963225603,-0.002995820815116167
1772561195299731200,8.013731201171876,0.07026829896867275,-0.038541327579319475,0.00018237082958221434
1772561195309761000,8.023760986328124,0.11388239976763724,-0.036572657854855056,-0.007055617599934339
1772561195319791000,8.033791015625,0.15785715057253838,-0.03827624690234661,-0.019354688811302184
1772561195329821200,8.0438212890625,0.1664168891251087,-0.02527574942335486,-0.023656477658450602
1772561195339850200,8.053850341796876,0.16512918740212917,-0.0263001240350306,-0.027802637552469967
1772561195349880300,8.06388037109375,0.11083996333181857,-0.01463511294350028,-0.016261106710135937
1772561195359910100,8.07391015625,0.07613339160978794,-0.000918722280114889,-0.02327536938637495
1772561195369940200,8.083940185546876,0.06740180362164974,0.03421951885744929,-0.0185892573967576
1772561195379969000,8.093968994140624,-0.012803951993584632,0.057146074806153774,-0.022821780399978158
1772561195389999000,8.1039990234375,-0.03387947324812412,0.04929316934868693,-0.035990035661309955
1772561195400029200,8.114029296875,0.013070493975281714,0.03715601070076227,-0.039487083996832366
1772561195410059300,8.124059326171874,0.07692132711708545,0.02096446209549904,-0.04705386598929762
1772561195420088000,8.134088134765625,0.15092822809219358,0.0033792671747505665,-0.05094926599264145
1772561195430118100,8.1441181640625,0.20922318067252635,0.00034355274066329,-0.03314633666798472
1772561195440148200,8.154148193359376,0.2362298455417156,-0.003072977704554796,-0.009049860157072544
1772561195450178000,8.164177978515625,0.19655659132301806,-0.026508798349648713,0.004450111276656389
1772561195460207000,8.17420703125,0.13888123194575308,-0.025654227346926926,-0.002299947505444288
1772561195470237200,8.1842373046875,0.05564122320115566,-0.009272416866570711,-0.025800650080293416
1772561195480267000,8.19426708984375,-0.0026981530427932737,0.035599136647582054,-0.025834113958477973
1772561195490297000,8.204297119140625,-0.023566753548383713,0.020657880364358425,-0.033890433033555746
1772561195500326100,8.214326171875,-0.004125555497407913,-0.0003705868780612945,-0.048263095648586746
1772561195510356200,8.224356201171876,0.011822539740800856,-0.01969429602921009,-0.06463409247398376
1772561195520386300,8.23438623046875,0.04049743008315563,-0.006414835478365421,-0.06849646699056029
1772561195530416000,8.244416015625,0.11218377915620803,-0.015989742422848938,-0.049894350112229584
1772561195540445200,8.254445068359376,0.13494096988737583,-0.017122107453644276,-0.03344955739825964
1772561195550475000,8.26447509765625,0.1713578526586294,-0.03773044958785176,-0.0071329206198453895
1772561195560505000,8.274505126953125,0.1629705480635166,-0.05597410841733217,0.004512216727435589
1772561195570535200,8.28453515625,0.20732757618427275,-0.05238163688331842,-0.0085506784632802
1772561195580564200,8.294564208984376,0.22321721923351287,-0.03682283322364092,-0.03731909230798482
1772561195590594000,8.304593994140625,0.21768413502573966,-0.04893953360542655,-0.05506590753123164
1772561195600624000,8.3146240234375,0.15259353095591066,-0.07397460614070296,-0.039245968717336654
1772561195610654200,8.324654296875,0.126934189042449,-0.0944914705991745,-0.032344664896279574
1772561195620684000,8.33468408203125,0.03617138357758522,-0.10094970682784915,-0.0008813128791749477
1772561195630713300,8.34471337890625,-0.02742225993275642,-0.15487974219694733,0.0055834992207586765
1772561195640743200,8.3547431640625,-0.021805004572868346,-0.13837985829487442,-0.015542437046766281
1772561195650773000,8.36477294921875,-0.0076589903205633155,-0.09456570487916469,-0.026476065123826265
1772561195660803000,8.374802978515625,0.03925181393623352,-0.06635185617730022,-0.03595744856595993
1772561195670832000,8.38483203125,0.08171265304684638,-0.05370236409306526,-0.02293897703886032
1772561195680862200,8.3948623046875,0.16435586494207383,-0.04248290481194854,-0.026238603106141088
1772561195690892300,8.404892333984375,0.20645137787163256,-0.025875322751700878,-0.027576281450688838
1772561195700922400,8.41492236328125,0.23834581478238104,0.02657090380042791,-0.02430003625899553
1772561195710951200,8.424951171875,0.2336293076545,0.032991438367217775,0.009460486784577369
1772561195720981200,8.434981201171874,0.19613865817189216,-0.01717237633615732,0.006008738895505667
1772561195731011000,8.445010986328125,0.14043021495342253,-0.05818301663845777,0.00805792651027441
1772561195741041200,8.455041259765625,0.07798106530308722,-0.0684621263295412,-0.010566840591281651
1772561195751070200,8.4650703125,0.0382809230774641,-0.06125526369065046,-0.007011047805845737
1772561195761100000,8.47510009765625,0.009947393518686294,-0.049293607740104196,0.0021427111171185968
1772561195771129000,8.485129150390625,0.007585340562462807,-0.02560936529189348,-0.002337064645439386
1772561195781159200,8.4951591796875,0.020278233397006986,0.011006401052325964,-0.01667611725181341
1772561195791188200,8.505188232421874,0.052936055895686146,0.03329553588032722,-0.030176234816014766
1772561195801218300,8.51521826171875,0.08299860120415688,0.010493190833181142,-0.048271132824569934
1772561195811248400,8.525248291015625,0.10797639059424399,-0.005776099183410406,-0.033253158043324946
1772561195821278200,8.5352783203125,0.12829144887030125,-0.013146189559996127,-0.006303922449797391
1772561195831307300,8.545307373046874,0.16289456021785736,-0.026784108159691095,0.017464052759110928
1772561195841337000,8.555337158203125,0.17515023067891597,-0.024841011267900465,-0.0035096155561506748
1772561195851367200,8.5653671875,0.16971768423616884,-0.004459609757363796,-0.009797317523509264
1772561195861397200,8.575397216796874,0.20689210737645625,-0.01944835844412446,0.005324702154099941
1772561195871427300,8.58542724609375,0.20240297926366327,-0.045176089418679476,0.0027345395304262635
1772561195881456000,8.5954560546875,0.17790040616989133,-0.041178544215112925,0.00908420081809163
1772561195891486200,8.605486328125,0.11385609628260135,-0.04061141185164451,-0.0038787411294877528
1772561195901516300,8.615516357421875,0.04676993448138237,0.0033119010269641873,-0.018567337825894356
1772561195911546000,8.625546142578125,-0.006983283016085624,0.018775135357677934,-0.032677111721038814
1772561195921576200,8.635576171875,-0.0484457587391138,0.0037310032218694686,-0.052190352094918485
1772561195931606300,8.645606201171875,0.0054985974162817,-0.013962620509415864,-0.05609115892574191
1772561195941636400,8.65563623046875,0.07926409085094928,-0.00023147066831588744,-0.05096607099696993
1772561195951665200,8.6656650390625,0.13634732955396175,-0.01961713913977146,-0.020777853482216595
1772561195961695200,8.6756953125,0.21596388710439204,-0.02147065805196762,0.007478811448067426
1772561195971725300,8.685725341796875,0.20517419754266739,-0.023172639664262532,0.010975567522644995
1772561195981755100,8.695755126953125,0.1749789657652378,-0.03140709178522229,0.01868584963902831
1772561195991784400,8.705784423828124,0.12713058839738367,-0.04000818526148796,-0.0012574527151882648
1772561196001814000,8.71581396484375,0.09932897375822067,-0.004176116640865803,-0.03294453048557043
1772561196011844000,8.725843994140625,0.0792810419857502,0.01498582607731223,-0.05421469752937555
1772561196021874200,8.735874267578126,0.10112520952522754,0.023721797979623076,-0.06506269314959645
1772561196031903200,8.7459033203125,0.1370949330508709,0.01996405288130045,-0.06048617901429534
1772561196041933300,8.755933349609375,0.1722866579413414,0.009355272844433785,-0.04736673133075237
1772561196051963400,8.76596337890625,0.1489981368124485,0.022117723783850667,-0.04542421896085143
1772561196061993500,8.775993408203124,0.12732698775231838,0.03498275831490755,-0.04853036828264594
1772561196072022300,8.786022216796875,0.12639993603527544,0.03354644190147519,-0.042445495411008595
1772561196082052400,8.79605224609375,0.07753156796991825,0.0153204648591578,-0.026411329324543476
1772561196092082200,8.806082275390626,0.05338555322885513,-0.0002684416778385639,-0.008343465453386305
1772561196102112300,8.8161123046875,0.05589373665750026,-0.006937398047745227,0.005355097292363643
1772561196112141000,8.82614111328125,0.08599018423557281,0.001567103186249733,-0.013390811970829962
1772561196122171100,8.836171142578126,0.12277063962221145,-0.012387626277655363,-0.024492343960702417
1772561196132201200,8.846201171875,0.13791443274021148,-0.04518646468222141,-0.025431378376483914
1772561196142231300,8.856231201171875,0.1354910049855709,-0.08348273145928979,-0.014740911405533552
1772561196152260400,8.86626025390625,0.08782324488162994,-0.08630261118561029,-0.00561316370666027
1772561196162290400,8.87629052734375,0.06987316217124462,-0.05490662531629204,-0.008219692943245172
1772561196172320000,8.886320068359375,0.05085632701218128,-0.022296733612567184,-0.009179331755638122
1772561196182350000,8.89635009765625,0.054520694738626474,0.006245908652245998,0.003372399042546749
1772561196192379100,8.906379150390626,0.020388123512268066,0.004369885647296905,0.015289631329476833
1772561196202409200,8.9164091796875,0.06654547905325889,-0.006362813030183315,-0.01834945729151368
1772561196212439300,8.926439208984375,0.12148995216190814,0.0037904783241450783,-0.045359921552985905
1772561196222469400,8.936469482421876,0.15738836401700973,-0.022546324459463356,-0.0463360731087625
1772561196232498200,8.946498291015626,0.20610417186915872,-0.07384075062796473,-0.01742795853242278
1772561196242528300,8.9565283203125,0.2202875955224037,-0.05947773262411356,0.006167582719027996
1772561196252558300,8.966558349609375,0.22873978204727172,-0.03740165602490306,-0.0008237374730408191
1772561196262588200,8.976588134765626,0.16302841573059557,-0.0064107438251376145,-0.0068571724183857435
1772561196272617200,8.9866171875,0.08407236791551112,0.007184212415665388,-0.026604075417667624
1772561196282647000,8.99664697265625,0.04193769201934337,-0.00398147085160017,-0.05697875541523099
1772561196292677000,9.006677001953125,-0.021507482931017875,-0.018162702547758817,-0.05393047376051545
1772561196302707200,9.016707275390624,-0.03995499376952648,-0.02686184957101941,-0.024832827961444853
1772561196312737300,9.0267373046875,0.0007008417457342147,-0.0533421524785459,0.0049989773310720916
1772561196322766300,9.036766357421875,0.05777531262040138,-0.072222355645895,0.0129360539406538
1772561196332796400,9.04679638671875,0.09413666581213474,-0.05191416550204157,0.004433890794217586
1772561196342826200,9.056826171875,0.1100678099155426,-0.02082804929949343,0.005119973362237215
1772561196352856000,9.06685595703125,0.11321078411638737,0.017706117886677385,0.001336217039823532
1772561196362885000,9.076885009765626,0.11577800425589084,0.05275836124122142,-0.02188537633270025
1772561196372915200,9.086915283203124,0.10181026917994022,0.05356609742753207,-0.030986089894175527
1772561196382945300,9.0969453125,0.1012315925091505,0.024755744137242436,-0.02832023168578744
1772561196392975400,9.106975341796876,0.16526596552431583,-0.008456935765221715,-0.034944033739715816
1772561196403004200,9.117004150390626,0.17847966736257076,-0.0049180210493505,-0.011895458846539258
1772561196413034200,9.1270341796875,0.19210078095793723,-0.010742562484368681,0.000608633417636156
1772561196423064300,9.137064208984375,0.18605273296535013,0.02052534002587199,-0.01715644811466336
1772561196433094100,9.14709423828125,0.1673328349262476,0.04259754416756332,-0.0392624814607203
1772561196443123500,9.15712353515625,0.12340543039441108,0.03491685347184539,-0.03799859900474548
1772561196453153000,9.167153076171875,0.08422785073816776,-0.02810563908703625,-0.03370163246318698
1772561196463183000,9.17718310546875,0.07641045498549938,-0.05211480264067649,-0.025768355245888233
1772561196473213200,9.187213134765624,0.1047130048841238,-0.04307714437805116,-0.02066284880042076
1772561196483242200,9.1972421875,0.13973171129524706,-0.060417789953202,0.004822890111804009
1772561196493272300,9.207272216796875,0.1540256095856428,-0.05970635374821722,0.021025983024388552
1772561196503302400,9.217302490234376,0.13867431119680404,-0.03967917250283062,0.003097819884866476
1772561196513332200,9.227332275390625,0.08327975623309612,-0.027925533279776572,-0.01725581683591008
1772561196523361300,9.237361328125,0.028553309789299965,-0.008644786487519741,-0.03942410176321864
1772561196533391400,9.247391357421876,-0.020128011271357535,-0.04296542763188481,-0.052704146835952995
1772561196543421200,9.257421142578124,-0.014528291568160056,-0.05890358599796891,-0.05033171861618757
1772561196553451300,9.267451171875,0.010147884526848793,-0.05074862885400653,-0.04181859568431973
1772561196563480000,9.27747998046875,0.07980418907701968,-0.049741862964257595,-0.011959171732515097
1772561196573510100,9.28751025390625,0.1297831487327814,-0.03177197957485914,0.004052344130724668
1772561196583540200,9.297540283203125,0.18475334080457687,-0.04470065392665565,0.005374094253778458
1772561196593570300,9.3075703125,0.20206512561142442,-0.05342077067270875,0.0007062485732138156
1772561196603599400,9.317599365234376,0.2187941420942545,-0.04460574218481779,-0.013598024980723857
1772561196613629400,9.32762939453125,0.16068565199673174,-0.0294203749474138,-0.028669629645347593
1772561196623659000,9.337658935546875,0.12415186484754084,-0.04138407672457397,-0.03231149327903986
1772561196633689000,9.347689208984375,0.10540624784529208,-0.023935586860775945,-0.022309300833195447
1772561196643719200,9.35771923828125,-0.006228080734610557,0.004733166001737118,0.0019672084197402
1772561196653748200,9.367748291015625,-0.002502338209748268,-0.04083236112594604,0.0001600128673017025
1772561196663778300,9.3777783203125,0.0318108502805233,-0.07321129361800849,-0.014619915374368428
1772561196673808400,9.387808349609376,0.07062193471193313,-0.08394333470836281,-0.02915741316229105
1772561196683838200,9.397838134765625,0.09414543364048003,-0.1141123360659927,-0.004750555527955293
1772561196693867300,9.4078671875,0.13274258306026457,-0.11914550792761146,-0.0005187631770968437
1772561196703897300,9.4178974609375,0.18009996204078196,-0.06608348756469785,-0.008317892620712518
1772561196713927200,9.42792724609375,0.21019056439995765,-0.055349108386784786,-0.011726824281364678
1772561196723957200,9.437957275390625,0.2077788270831108,-0.0947574280589819,0.02114391031563282
1772561196733986000,9.447986083984375,0.17949381284117696,-0.07990626121200621,0.040686084523051974
1772561196744016100,9.45801611328125,0.1732844368070364,-0.03143514883592725,0.022969810568541287
1772561196754046200,9.468046142578125,0.13128595451116562,0.009551379938423633,0.025975714386254546
1772561196764076000,9.478075927734375,0.03117722855210304,-0.032137524951621886,0.023333383183926342
1772561196774104800,9.488104736328125,-0.02077741509079933,-0.0737487614955753,0.008527882109582424
1772561196784135000,9.498135009765624,-0.07578910821676253,-0.09032609454803169,-0.02281491226777434
1772561196794165000,9.5081650390625,-0.07217559389472007,-0.09298150442764162,-0.028387597833573818
1772561196804194800,9.51819482421875,-0.036030513802170754,-0.12326017670482396,-0.007173398760706186
1772561196814224100,9.52822412109375,0.05010346281826496,-0.10372238641157745,0.02328676756322384
1772561196824253700,9.538253662109375,0.16006722783744334,-0.09487952006869017,0.036937837905436754
1772561196834283800,9.54828369140625,0.21147300542593,-0.08423596097938715,0.03738689684718847
1772561196844313900,9.55831396484375,0.28236148211956025,-0.05973382627703249,0.018433190052211283
1772561196854343000,9.568343017578124,0.27315058618187904,-0.04449110282920301,0.0011269582033157349
1772561196864373000,9.578373046875,0.19002222111821174,-0.07660064379535615,0.006121843881160021
1772561196874403000,9.588403076171875,0.16793956864774226,-0.06491970448233186,-0.009539981761574745
1772561196884433200,9.59843310546875,0.1383925716459751,-0.024119418995082378,-0.029805794068425893
1772561196894462000,9.6084619140625,0.03313713044822216,-0.047710576332360505,-0.03592632277533412
1772561196904491800,9.61849169921875,-0.00606850625872612,-0.06745755239687859,-0.02057502438649535
1772561196914521900,9.62852197265625,-0.00006137479841709136,-0.07511544673889875,-0.022421967427432535
1772561196924552000,9.638552001953125,0.003348725906014442,-0.08171294530779123,-0.003319061420112848
1772561196934580700,9.648580810546875,0.03848316765129566,-0.09949490490965544,0.013943915808945894
1772561196944610800,9.65861083984375,0.1097404776573181,-0.08379282032176852,0.02132598888427019
1772561196954641000,9.668640869140624,0.1702852549910545,-0.03022467706762254,0.015880875220894812
1772561196964671000,9.6786708984375,0.17148995460569857,-0.0047055473424494265,-0.0004351765468716621
1772561196974700000,9.688699951171875,0.16108254235982894,0.0028948446586728096,0.003896715177595615
1772561196984730000,9.698730224609376,0.15658932259380817,-0.005808686278760433,0.006758680479973554
1772561196994759700,9.708759765625,0.10268646749258041,-0.000867138223350048,-0.0012270575769245623
1772561197004789800,9.718789794921875,0.05330138207674026,-0.0008083937734365463,-0.005555734430998564
1772561197014818800,9.72881884765625,0.038536943665146824,0.027865619786083696,-0.031548984473943706
1772561197024849000,9.738848876953124,0.05970248129069805,0.05804390042871237,-0.057855830510705704
1772561197034879000,9.74887890625,0.11792261506915092,0.047100773870944974,-0.05214709747508168
1772561197044909000,9.758908935546875,0.11995967385470867,0.027546982290968296,-0.027177345260977745
1772561197054939000,9.76893896484375,0.10595979007482528,0.009458294827491045,-0.0083535484559834
1772561197064968000,9.778968017578125,0.1379091720432043,-0.016947116212919354,0.0005529577076435089
1772561197074998000,9.788998046875,0.1640080744177103,-0.032316607845574614,0.014668576821684836
1772561197085027800,9.79902783203125,0.18073884446620941,-0.035084757384657855,0.016260668318718672
1772561197095058000,9.809057861328125,0.2003454622119665,-0.04472147751897573,0.0061200903154909605
1772561197105086700,9.819086669921875,0.2421551439374685,-0.022926409818232057,0.009248597599565983
1772561197115116800,9.82911669921875,0.21034663174450396,-0.009825155378505587,0.017156594245135784
1772561197125147000,9.83914697265625,0.11209084017574787,-0.004723740586265921,0.004864537296444178
1772561197135177000,9.849177001953125,0.06569090805053711,0.005844049853086471,-0.022218553809821604
1772561197145206000,9.8592060546875,0.046585810086131094,-0.020660949104279278,-0.04359641901180148
1772561197155236000,9.869236083984376,0.010385784935951232,-0.058508156939595934,-0.033781419701129196
1772561197165266000,9.879265869140625,-0.0059796589314937585,-0.10445727655738592,-0.009658639705181122
1772561197175295700,9.889295654296875,-0.00947743791937828,-0.11121186538413166,-0.014023995307832956
1772561197185324800,9.89932470703125,-0.021748890471458435,-0.055571592031046745,-0.026788930465281007
1772561197195355000,9.90935498046875,0.09899754984676837,0.02177811656594276,-0.01599880251213908
1772561197205385000,9.919385009765625,0.2247059964865446,0.0670741060372442,0.016182926907390354
1772561197215415000,9.9294150390625,0.6181511875659227,0.22279797090813516,0.06798164933621884
1772561197225443800,9.93944384765625,-0.010898410633206367,-0.04398198426328599,-0.0959159504443407
1772561197235474000,9.949473876953125,-0.06699088473320007,-0.1988460904996842,-0.07973287740647793
1772561197245504000,9.95950390625,-0.1763946777820587,-0.07383877786658703,-0.04910948334485292
1772561197255533800,9.969533935546876,-0.18559096067249775,-0.09704144734293221,-0.04828691491559148
1772561197265563100,9.979563232421874,-0.2092646817266941,-0.09728161277435719,-0.025348522398620843
1772561197275592700,9.9895927734375,-0.0507376690685749,-0.039606764853745695,0.022903905725479123
1772561197285622800,9.999622802734375,0.20823884581029414,0.008409297231212257,0.05092120894193649
1772561197295652900,10.00965283203125,0.3869967455923557,0.02610650115907192,0.0513465947471559
1772561197305682000,10.019681884765625,0.5453922408252955,-0.037474136739224194,0.041373336134850974
1772561197315712000,10.0297119140625,0.5478285280615091,-0.04168218288831413,-0.017743600352853536
1772561197325742000,10.0397421875,0.3051367930293083,-0.0386933763358742,-0.005640490105003118
1772561197335772000,10.04977197265625,0.007318214058876037,-0.20990984776243565,0.0360598860271275
