time,seconds_elapsed,z,y,x
1772561187366197800,0.08019775390625,0.0690632164478302,-0.0032275673002004623,0.005155173130333424
1772561187376227800,0.090227783203125,0.05636952072381973,-0.024625267833471298,-0.00006169266998767853
1772561187386258000,0.1002578125,0.052144117653369904,-0.05008283257484436,0.0033440785482525826
1772561187396287000,0.110286865234375,0.04743538424372673,-0.06407508254051208,0.014287007041275501
1772561187406316800,0.12031689453125,0.042536791414022446,-0.08187441527843475,0.010265077464282513
1772561187416347000,0.130346923828125,0.03887947276234627,-0.09546852111816406,0.0000832797959446907
1772561187426376700,0.140376708984375,0.04083569347858429,-0.10053302347660065,-0.003925803117454052
1772561187436406000,0.150406005859375,0.04127005487680435,-0.10455785691738129,-0.007546104025095701
1772561187446435800,0.160435791015625,0.04773084074258804,-0.11223798990249634,-0.010421830229461193
1772561187456466000,0.1704658203125,0.05939574912190437,-0.1227196604013443,-0.015617391094565392
1772561187466494700,0.18049462890625,0.0814969539642334,-0.12850280106067657,-0.01583946868777275
1772561187476524800,0.19052490234375,0.08830505609512329,-0.13332311809062958,-0.009551214054226875
1772561187486555000,0.200554931640625,0.08709237724542618,-0.11938996613025665,0.00295210350304842
1772561187496585000,0.2105849609375,0.10103216022253036,-0.10789389908313751,0.010513350367546082
1772561187506614000,0.220614013671875,0.10302700847387314,-0.10636075586080551,0.016206879168748856
1772561187516643800,0.230643798828125,0.08844487369060516,-0.10377562046051025,0.017337657511234283
1772561187526674000,0.240673828125,0.06287252902984619,-0.10632822662591934,0.01147182285785675
1772561187536703700,0.250703857421875,0.04269082844257355,-0.11146599799394608,0.0029438482597470284
1772561187546732800,0.26073291015625,0.027995463460683823,-0.11173322051763535,-0.004389745183289051
1772561187556763000,0.270762939453125,0.018128983676433563,-0.0972493588924408,-0.007038791663944721
1772561187566793000,0.28079296875,0.009369345381855965,-0.08215495198965073,-0.008369695395231247
1772561187576822800,0.29082275390625,0.006065428722649813,-0.06334691494703293,-0.016285941004753113
1772561187586851800,0.300851806640625,0.00036398833617568016,-0.04794475436210632,-0.023636382073163986
1772561187596882000,0.3108818359375,-0.014620020985603333,-0.046986281871795654,-0.043060414493083954
1772561187606912000,0.320912109375,-0.026024313643574715,-0.0595940500497818,-0.060472242534160614
1772561187616941800,0.33094189453125,-0.038111601024866104,-0.056360967457294464,-0.05414430424571037
1772561187626971000,0.340970947265625,-0.04364793375134468,-0.05063484236598015,-0.03425263613462448
1772561187637000700,0.351000732421875,-0.04442424699664116,-0.039716415107250214,-0.01855410262942314
1772561187647030800,0.36103076171875,-0.04403452202677727,-0.03148605674505234,-0.008001524955034256
1772561187657060900,0.371060791015625,-0.0444909892976284,-0.02265022322535515,-0.005055535584688187
1772561187667090000,0.38108984375,-0.04462246596813202,-0.02009180374443531,-0.007853883318603039
1772561187677120000,0.3911201171875,-0.03873954340815544,-0.01888778805732727,-0.007940968498587608
1772561187687149800,0.40114990234375,-0.022175529971718788,-0.02158268541097641,-0.011328733526170254
1772561187697180000,0.411179931640625,-0.01327710971236229,-0.02316167578101158,-0.013004660606384277
1772561187707209000,0.421208984375,-0.01348043791949749,-0.03056129813194275,-0.00479391124099493
1772561187717238800,0.43123876953125,-0.007690459955483675,-0.0291916336864233,0.0012027285993099213
1772561187727268900,0.441268798828125,0.0016053528524935246,-0.03235858678817749,0.0017089452594518661
1772561187737299000,0.451298828125,0.009352754801511765,-0.03392345830798149,0.006785462610423565
1772561187747327700,0.46132763671875,0.012844022363424301,-0.018684057518839836,0.01582428067922592
1772561187757362200,0.471362060546875,0.010078063234686852,0.0027783578261733055,0.01786612719297409
1772561187767392300,0.481392333984375,0.006462708581238985,0.008375464007258415,0.003501324914395809
1772561187777422000,0.491422119140625,0.009173806756734848,0.010794946923851967,-0.014212957583367825
1772561187787451100,0.501451171875,0.018106961622834206,0.01262435968965292,-0.027202025055885315
1772561187797481000,0.51148095703125,0.01879166066646576,0.013838228769600391,-0.03564451262354851
1772561187807511000,0.521510986328125,0.019042231142520905,0.012342991307377815,-0.0420231930911541
1772561187817541000,0.531541015625,0.021684885025024414,-0.0059763602912425995,-0.05363936722278595
1772561187827570200,0.541570068359375,0.031176868826150894,-0.01818833127617836,-0.04591258987784386
1772561187837600300,0.551600341796875,0.05249414220452309,-0.03552577644586563,-0.017662841826677322
1772561187847630000,0.561630126953125,0.0644448846578598,-0.042895056307315826,0.01790056750178337
1772561187857660200,0.57166015625,0.06143738701939583,-0.04045853018760681,0.04335106536746025
1772561187867689200,0.581689208984375,0.05977645143866539,-0.04596149921417236,0.040095992386341095
1772561187877719000,0.591718994140625,0.05796683207154274,-0.05022095888853073,0.026974333450198174
1772561187887749000,0.6017490234375,0.06426332145929337,-0.059628747403621674,0.008088283240795135
1772561187897778000,0.61177783203125,0.06999737024307251,-0.06039653718471527,-0.00542219914495945
1772561187907808000,0.62180810546875,0.08079390227794647,-0.06083144620060921,-0.0054379855282604694
1772561187917838000,0.631838134765625,0.08672396093606949,-0.05099213123321533,-0.0046409014612436295
1772561187927868200,0.6418681640625,0.09971566498279572,-0.04335501417517662,-0.005914255511015654
1772561187937897200,0.651897216796875,0.12461089342832565,-0.04689701646566391,-0.009872511960566044
1772561187947927300,0.66192724609375,0.1433611512184143,-0.059225622564554214,-0.0189041867852211
1772561187957957000,0.67195703125,0.15333601832389832,-0.08026565611362457,-0.02048211172223091
1772561187967987000,0.681987060546875,0.14929065108299255,-0.07058337330818176,0.0027340203523635864
1772561187978016300,0.692016357421875,0.13496604561805725,-0.054479241371154785,0.032384589314460754
1772561187988046000,0.702046142578125,0.1126086413860321,-0.04654499515891075,0.057946041226387024
1772561187998076200,0.712076171875,0.08604281395673752,-0.049155693501234055,0.07835810631513596
1772561188008106200,0.722106201171875,0.07691019028425217,-0.031632184982299805,0.08940652012825012
1772561188018135000,0.732135009765625,0.077072374522686,-0.015160534530878067,0.07300278544425964
1772561188028165000,0.7421650390625,0.06276945769786835,-0.006470312364399433,0.030443213880062103
1772561188038195200,0.7521953125,0.047342561185359955,0.0067514823749661446,-0.014362873509526253
1772561188048225300,0.762225341796875,0.03356412425637245,0.021716739982366562,-0.045417774468660355
1772561188058254000,0.772254150390625,0.025685962289571762,0.03445544093847275,-0.06434619426727295
1772561188068284200,0.7822841796875,0.018475398421287537,0.03518962860107422,-0.07235975563526154
1772561188078314000,0.79231396484375,0.021401945501565933,0.03144761919975281,-0.05725324526429176
1772561188088344000,0.802343994140625,0.02711818553507328,0.024622878059744835,-0.029331721365451813
1772561188098373000,0.812373046875,0.028782660141587257,0.010057518258690834,0.007916579954326153
1772561188108403200,0.8224033203125,0.03004312515258789,-0.007291879970580339,0.04080458730459213
1772561188118433300,0.832433349609375,0.03161119669675827,-0.03352215141057968,0.06752993911504745
1772561188128463000,0.842463134765625,0.03385910019278526,-0.05036742985248566,0.07811687886714935
1772561188138492200,0.8524921875,0.033385854214429855,-0.059274375438690186,0.07326779514551163
1772561188148522200,0.862522216796875,0.028223978355526924,-0.054134972393512726,0.06722432374954224
1772561188158552000,0.872552001953125,0.02212081290781498,-0.04584401845932007,0.053812913596630096
1772561188168582100,0.88258203125,0.009271334856748581,-0.022211426869034767,0.04209677129983902
1772561188178611000,0.89261083984375,-0.0005773021839559078,-0.0030545108020305634,0.028901074081659317
1772561188188641000,0.90264111328125,-0.009538297541439533,0.008117950521409512,0.01821504533290863
1772561188198671000,0.912671142578125,-0.017035629600286484,0.028682880103588104,0.009845527820289135
1772561188208700200,0.9227001953125,-0.029294077306985855,0.04187213256955147,-0.004125594161450863
1772561188218730200,0.932730224609375,-0.039097703993320465,0.041083838790655136,-0.022593550384044647
1772561188228760000,0.942760009765625,-0.04423103109002113,0.034289103001356125,-0.02865712344646454
1772561188238790100,0.9527900390625,-0.051222361624240875,0.034467000514268875,-0.02011769637465477
1772561188248819200,0.962819091796875,-0.050504740327596664,0.027501661330461502,-0.011466245166957378
1772561188258849000,0.97284912109375,-0.04427400976419449,0.02910541743040085,0.006297837942838669
1772561188268879000,0.982879150390625,-0.03636055067181587,0.03313073515892029,0.011057309806346893
1772561188278909200,0.9929091796875,-0.03232239931821823,0.0331973135471344,0.004465453326702118
1772561188288938000,1.00293798828125,-0.0265160221606493,0.027875695377588272,-0.009803730063140392
1772561188298968000,1.012968017578125,-0.019016560167074203,0.025986447930336,-0.01259099505841732
1772561188308998100,1.022998046875,-0.01647713966667652,0.023940227925777435,-0.010832346975803375
1772561188319028200,1.0330283203125,-0.014921586960554123,0.020583312958478928,-0.008942567743360996
1772561188329057300,1.043057373046875,-0.008365974761545658,0.014810741879045963,-0.004904123954474926
1772561188339087000,1.053087158203125,-0.004189339000731707,0.001504257321357727,-0.0011807582341134548
1772561188349117000,1.063116943359375,-0.0026439307257533073,-0.009299295023083687,0.0025684647262096405
1772561188359147000,1.07314697265625,0.00033854367211461067,-0.017954833805561066,0.008661510422825813
1772561188369176000,1.083176025390625,-0.001718804705888033,-0.013987036421895027,0.018987534567713737
1772561188379206100,1.0932060546875,-0.0018136128783226013,-0.013833638280630112,0.028185561299324036
1772561188389236200,1.103236328125,-0.0013368427753448486,-0.013932427391409874,0.025887005031108856
1772561188399266000,1.11326611328125,-0.005646636709570885,-0.023925673216581345,0.021535135805606842
1772561188409295000,1.123295166015625,-0.007392136380076408,-0.027340391650795937,0.019572896882891655
1772561188419325200,1.1333251953125,-0.014610901474952698,-0.03351599723100662,0.013071589171886444
1772561188429355300,1.143355224609375,-0.023075677454471588,-0.037919849157333374,0.011614932678639889
1772561188439385000,1.153385009765625,-0.025701289996504784,-0.031489379703998566,0.006662784144282341
1772561188449414000,1.163413818359375,-0.03531396761536598,-0.024310030043125153,-0.00215920340269804
1772561188459444000,1.17344384765625,-0.03486336022615433,-0.021490007638931274,-0.009934302419424057
1772561188469474000,1.18347412109375,-0.034317389130592346,-0.017416266724467278,-0.006744927726686001
1772561188479504100,1.193504150390625,-0.029001984745264053,-0.021085303276777267,-0.0009560142643749714
1772561188489533200,1.203533203125,-0.025491947308182716,-0.019658617675304413,0.006563518196344376
1772561188499563300,1.213563232421875,-0.019652433693408966,-0.01819654181599617,0.020825546234846115
1772561188509593000,1.223593017578125,-0.016534138470888138,-0.02318224497139454,0.02860650047659874
1772561188519622100,1.2336220703125,-0.008651981130242348,-0.032483600080013275,0.025387272238731384
1772561188529652200,1.24365234375,-0.004439974203705788,-0.03648906946182251,0.024638444185256958
1772561188539682000,1.25368212890625,-0.0060088420286774635,-0.03970617055892944,0.023404866456985474
1772561188549712100,1.263712158203125,-0.002017038408666849,-0.04771240055561066,0.013583227060735226
1772561188559741000,1.273740966796875,0.001105251256376505,-0.04978593811392784,0.012028739787638187
1772561188569771000,1.28377099609375,0.0020893956534564495,-0.04434417933225632,0.026535574346780777
1772561188579801000,1.293801025390625,-0.00472030695527792,-0.03978271782398224,0.04188710078597069
1772561188589831200,1.3038310546875,-0.003238856792449951,-0.04377587139606476,0.04866483062505722
1772561188599860200,1.313860107421875,0.0004506870172917843,-0.03820587322115898,0.0523327998816967
1772561188609890300,1.323890380859375,-0.0030921250581741333,-0.03316900506615639,0.049700893461704254
1772561188619920100,1.333920166015625,-0.01107282005250454,-0.03016948327422142,0.046882469207048416
1772561188629950000,1.343949951171875,-0.019537419080734253,-0.023436717689037323,0.04389583319425583
1772561188639979000,1.35397900390625,-0.027208121493458748,-0.01764087937772274,0.03964756056666374
1772561188650009000,1.364009033203125,-0.03272932767868042,-0.006697905715554953,0.04046739637851715
1772561188660039200,1.3740390625,-0.03467902913689613,0.0064186956733465195,0.035376496613025665
1772561188670069200,1.3840693359375,-0.033600352704524994,0.011260982602834702,0.025473712012171745
1772561188680098000,1.39409814453125,-0.03068765439093113,0.01631965860724449,0.015527073293924332
1772561188690128100,1.404128173828125,-0.03261960670351982,0.009538322687149048,-0.0010885689407587051
1772561188700158200,1.414158203125,-0.035039354115724564,0.007501270622014999,-0.005406884476542473
1772561188710188000,1.42418798828125,-0.03462599217891693,-0.004186171106994152,-0.006095267832279205
1772561188720217300,1.43421728515625,-0.034476056694984436,-0.014666775241494179,-0.0018246229737997055
1772561188730247000,1.444246826171875,-0.025495700538158417,-0.01567949168384075,0.007721486501395702
1772561188740277000,1.454277099609375,-0.01666652411222458,-0.010803776793181896,0.014401228167116642
1772561188750307000,1.46430712890625,-0.013527430593967438,-0.011253413744270802,0.00782718788832426
1772561188760331500,1.47433154296875,-0.0038771997205913067,-0.006125497631728649,-0.0036299964413046837
1772561188770361600,1.484361572265625,-0.003339676186442375,-0.004353811964392662,-0.019403474405407906
1772561188780391700,1.4943916015625,0.00010911794379353523,0.0020460300147533417,-0.021975021809339523
1772561188790420700,1.504420654296875,-0.0016557592898607254,0.003313961438834667,-0.019986439496278763
1772561188800450600,1.514450439453125,-0.0024527073837816715,0.00950392335653305,-0.01927301473915577
1772561188810480600,1.524480712890625,-0.007134713232517242,0.012001319788396358,-0.02032693475484848
1772561188820510700,1.5345107421875,-0.005335215479135513,0.016363047063350677,-0.0025838902220129967
1772561188830539800,1.544539794921875,-0.00098465196788311,0.013144761323928833,0.013395867310464382
1772561188840569900,1.55456982421875,0.003069212194532156,0.01156124658882618,0.028053905814886093
1772561188850599700,1.564599609375,0.004686710890382528,0.011797641403973103,0.028758764266967773
1772561188860629500,1.57462939453125,0.005970886442810297,0.013544674031436443,0.02061029151082039
1772561188870658600,1.584658447265625,0.0027327495627105236,0.01520941685885191,0.005801783874630928
1772561188880688600,1.594688720703125,-0.009304738603532314,0.012905250303447247,-0.013682701624929905
1772561188890718700,1.60471875,-0.015279039740562439,0.013276087120175362,-0.02439274825155735
1772561188900748800,1.614748779296875,-0.016265207901597023,0.013722699135541916,-0.023816972970962524
1772561188910777600,1.624777587890625,-0.020566262304782867,0.015198546461760998,-0.014761374332010746
1772561188920807700,1.6348076171875,-0.017469538375735283,0.006164570339024067,0.0012860354036092758
1772561188930837500,1.64483740234375,-0.01231829822063446,-0.001617254689335823,0.012908348813652992
1772561188940867600,1.65486767578125,-0.016484281048178673,-0.008469568565487862,0.025322940200567245
1772561188950896600,1.664896728515625,-0.01970359869301319,-0.006800215691328049,0.027265191078186035
1772561188960926700,1.6749267578125,-0.0273338221013546,-0.005961852613836527,0.02730194479227066
1772561188970956500,1.68495654296875,-0.028467489406466484,-0.0025832587853074074,0.017253348603844643
1772561188980986600,1.694986572265625,-0.029139669612050056,0.0017363885417580605,0.012224502861499786
1772561188991015700,1.705015625,-0.025983544066548347,0.012310672551393509,0.0029929913580417633
1772561189001045800,1.715045654296875,-0.02466927282512188,0.024342834949493408,-0.005563478451222181
1772561189011075800,1.725075927734375,-0.02075774222612381,0.03562445938587189,-0.0074320887215435505
1772561189021105700,1.735105712890625,-0.017292438074946404,0.03683539852499962,-0.009889653883874416
1772561189031134700,1.745134765625,-0.011102605611085892,0.03879930078983307,-0.0006527779623866081
1772561189041164500,1.75516455078125,-0.0028657144866883755,0.03904431313276291,0.007196090184152126
1772561189051194600,1.765194580078125,-0.004749272018671036,0.03383396938443184,0.00817897543311119
1772561189061224700,1.775224609375,-0.0016019484028220177,0.032665640115737915,0.001790851354598999
1772561189071253800,1.785253662109375,0.004373176489025354,0.021046578884124756,-0.004903949797153473
1772561189081283600,1.79528369140625,0.004906873684376478,0.015480841509997845,-0.0004482152871787548
1772561189091313700,1.805313720703125,0.0102152731269598,0.005552912130951881,0.005097704939544201
1772561189101342700,1.8153427734375,0.017652682960033417,-0.006494162604212761,0.014828363433480263
1772561189111372800,1.825372802734375,0.023214055225253105,-0.014492286369204521,0.020470742136240005
1772561189121402600,1.835402587890625,0.02769722230732441,-0.01367629412561655,0.02970552071928978
1772561189131432700,1.8454326171875,0.02440083585679531,-0.00639949319884181,0.03345783054828644
1772561189141461500,1.85546142578125,0.018748806789517403,-0.006755025126039982,0.03412735089659691
1772561189151491600,1.86549169921875,0.020564017817378044,-0.008167299441993237,0.024653155356645584
1772561189161521700,1.875521728515625,0.022072965279221535,-0.009503673762083054,0.018290329724550247
1772561189171551700,1.8855517578125,0.025840183719992638,-0.010024238377809525,0.018887421116232872
1772561189181580500,1.89558056640625,0.021314406767487526,-0.012978482991456985,0.021611833944916725
1772561189191610600,1.905610595703125,0.01425682008266449,-0.011547788046300411,0.024113722145557404
1772561189201640700,1.915640625,0.004323229659348726,-0.0024288585409522057,0.024905748665332794
1772561189211670500,1.92567041015625,0.0047056847251951694,-0.0013362597674131393,0.027862630784511566
1772561189221699800,1.935699951171875,0.010003246366977692,-0.017188992351293564,0.034103479236364365
1772561189231729700,1.945729736328125,0.024579038843512535,-0.02767833322286606,0.050750330090522766
1772561189241759700,1.955759765625,0.031926169991493225,-0.025602931156754494,0.07998518645763397
1772561189251789600,1.96578955078125,0.024475587531924248,-0.027669042348861694,0.0926118791103363
1772561189261818600,1.975818603515625,0.017133785411715508,-0.02758888155221939,0.09581512957811356
1772561189271848700,1.9858486328125,0.0196594949811697,-0.023497074842453003,0.09098320454359055
1772561189281878800,1.995878662109375,0.022044355049729347,-0.04052665829658508,0.09885790944099426
1772561189291908900,2.005908935546875,0.018849441781640053,-0.050899188965559006,0.09332980960607529
1772561189301937700,2.015937744140625,0.012477561831474304,-0.06795087456703186,0.08708656579256058
1772561189311967500,2.025967529296875,0.008816700428724289,-0.09628499299287796,0.07466655224561691
1772561189321997600,2.03599755859375,0.013370972126722336,-0.09486979246139526,0.07708124071359634
1772561189332026600,2.046026611328125,0.035698771476745605,-0.08416382968425751,0.100174181163311
1772561189342056700,2.056056640625,0.03429075703024864,-0.08620327711105347,0.1207984909415245
1772561189352086500,2.06608642578125,0.029922084882855415,-0.05752735584974289,0.1539977639913559
1772561189362116600,2.07611669921875,0.022762972861528397,-0.03236288204789162,0.17469532787799835
1772561189372145700,2.086145751953125,0.022429659962654114,-0.022255290299654007,0.17633900046348572
1772561189382175700,2.09617578125,0.02638152241706848,-0.02160814218223095,0.14819736778736115
1772561189392205800,2.106205810546875,0.01817157119512558,-0.017711829394102097,0.10658632963895798
1772561189402235600,2.116235595703125,-0.0007925326935946941,0.0036059776321053505,0.06001883000135422
1772561189412264700,2.1262646484375,-0.016523977741599083,0.0166638121008873,0.0069984570145606995
1772561189422294500,2.13629443359375,-0.0320185162127018,0.01973550394177437,-0.049537524580955505
1772561189432324600,2.14632470703125,-0.04858366772532463,0.03187321871519089,-0.09320402145385742
1772561189442354700,2.156354736328125,-0.06098627299070358,0.0456971600651741,-0.12584026157855988
1772561189452383700,2.1663837890625,-0.06810800731182098,0.047149527817964554,-0.15825024247169495
1772561189462413600,2.17641357421875,-0.06712210178375244,0.03817840665578842,-0.18279127776622772
1772561189472443600,2.186443603515625,-0.05550011247396469,0.03450449928641319,-0.17516763508319855
1772561189482473700,2.1964736328125,-0.05243827775120735,0.04544210061430931,-0.12408928573131561
1772561189492502800,2.206502685546875,-0.05623580887913704,0.0518118217587471,-0.051138147711753845
1772561189502532600,2.21653271484375,-0.055369481444358826,0.05007464438676834,0.008729981258511543
1772561189512562700,2.226562744140625,-0.044252362102270126,0.03844878822565079,0.039426349103450775
1772561189522592500,2.236592529296875,-0.031965065747499466,0.023024290800094604,0.041644491255283356
1772561189532621600,2.24662158203125,-0.023661307990550995,0.01795034110546112,0.03096519410610199
1772561189542651600,2.256651611328125,-0.026179859414696693,0.021097667515277863,0.01713433489203453
1772561189552681700,2.266681640625,-0.030179765075445175,0.007776942104101181,-0.001445811241865158
1772561189562711800,2.2767119140625,-0.03021891415119171,-0.010416708886623383,-0.031272947788238525
1772561189572740600,2.28674072265625,-0.027043523266911507,-0.016620418056845665,-0.046232920140028
1772561189582770700,2.296770751953125,-0.008903666399419308,-0.030762337148189545,-0.0496782511472702
1772561189592800500,2.306800537109375,0.007480293978005648,-0.031204136088490486,-0.038011666387319565
1772561189602830600,2.31683056640625,0.015141142532229424,-0.026156380772590637,-0.014109263196587563
1772561189612859600,2.326859619140625,0.0182895977050066,-0.0239158496260643,0.009545485489070415
1772561189622889700,2.3368896484375,0.01991092972457409,-0.026606973260641098,0.019156835973262787
1772561189632919600,2.34691943359375,0.026054907590150833,-0.03584440425038338,0.009662151336669922
1772561189642948600,2.356948486328125,0.03416236862540245,-0.04180482402443886,-0.007156777195632458
1772561189652978700,2.366978759765625,0.03623250871896744,-0.04373640567064285,-0.021770324558019638
1772561189663008800,2.3770087890625,0.025990257039666176,-0.03946389630436897,-0.031185930594801903
1772561189673038800,2.387038818359375,0.01681067794561386,-0.029697319492697716,-0.03574930876493454
1772561189683067600,2.397067626953125,0.0024011130444705486,-0.02112007886171341,-0.030301814898848534
1772561189693097500,2.407097412109375,-0.006235993932932615,-0.014817928895354271,-0.018390975892543793
1772561189703127600,2.41712744140625,-0.013166071847081184,-0.00952010229229927,-0.007659235503524542
1772561189713157600,2.42715771484375,-0.021374475210905075,-0.012253272347152233,-0.0002635400742292404
1772561189723186700,2.437186767578125,-0.019406665116548538,-0.01319549884647131,-0.0032241768203675747
1772561189733216800,2.447216796875,-0.026417452841997147,-0.01523728109896183,-0.006764655001461506
1772561189743246600,2.45724658203125,-0.03220237046480179,-0.018044253811240196,-0.019563807174563408
1772561189753276700,2.467276611328125,-0.03990985080599785,-0.010268792510032654,-0.020339293405413628
1772561189763306000,2.477305908203125,-0.04146833345293999,-0.006113995332270861,-0.023081284016370773
1772561189773335800,2.487335693359375,-0.035965755581855774,-0.003741198219358921,-0.011718856170773506
1772561189783366000,2.497365966796875,-0.02601165883243084,-0.005681843496859074,0.0004627089947462082
1772561189793396000,2.50739599609375,-0.011064521968364716,-0.010374900884926319,0.006906604394316673
1772561189803424800,2.5174248046875,-0.001977550331503153,-0.014509458094835281,0.005304181016981602
1772561189813454800,2.527454833984375,0.0010895389132201672,-0.010343190282583237,0.0009164344519376755
1772561189823485000,2.53748486328125,0.010437235236167908,-0.0034996652975678444,-0.00293769221752882
1772561189833515000,2.547514892578125,0.017232628539204597,0.003756631165742874,-0.0054161082953214645
1772561189843544000,2.5575439453125,0.024380551651120186,0.005132686346769333,-0.003992115613073111
1772561189853574000,2.567573974609375,0.033071279525756836,0.004420430399477482,-0.0015980587340891361
1772561189863603700,2.577603759765625,0.03826151415705681,-0.011617126874625683,-0.0014190943911671638
1772561189873633800,2.5876337890625,0.04074689745903015,-0.03127148374915123,0.00034167803823947906
1772561189883662800,2.597662841796875,0.03857136145234108,-0.047609977424144745,0.0004498027265071869
1772561189893693000,2.60769287109375,0.03840421885251999,-0.05533222481608391,0.0019790558144450188
1772561189903723000,2.617722900390625,0.03346671536564827,-0.060121919959783554,0.008404197171330452
1772561189913752800,2.6277529296875,0.03040335886180401,-0.05396740138530731,0.01989727094769478
1772561189923782000,2.637781982421875,0.020258044824004173,-0.04546152800321579,0.03127589449286461
1772561189933812000,2.64781201171875,0.013349182903766632,-0.03891883045434952,0.032739825546741486
1772561189943842000,2.657842041015625,0.007134430576115847,-0.027966849505901337,0.022578801959753036
1772561189953872000,2.667871826171875,-0.0021377764642238617,-0.014121307991445065,0.008511072024703026
1772561189963901000,2.67790087890625,-0.011162163689732552,0.0035586198791861534,-0.007086796220391989
1772561189973930800,2.6879306640625,-0.015535896643996239,0.019354211166501045,-0.015025407075881958
1772561189983960800,2.6979609375,-0.013651976361870766,0.037715911865234375,-0.0191812701523304
1772561189993990000,2.707989990234375,-0.015938978642225266,0.03911437466740608,-0.01782582700252533
1772561190004020000,2.71802001953125,-0.018352868035435677,0.033710021525621414,-0.02787499874830246
1772561190014050000,2.728050048828125,-0.018060073256492615,0.03196760267019272,-0.029247893020510674
1772561190024080000,2.738079833984375,-0.018114401027560234,0.02763970196247101,-0.030263889580965042
1772561190034109000,2.74810888671875,-0.019808819517493248,0.02954084426164627,-0.0220932774245739
1772561190044139000,2.758138916015625,-0.022627774626016617,0.034728147089481354,-0.015630051493644714
1772561190054168800,2.7681689453125,-0.023630140349268913,0.027700141072273254,-0.00980683509260416
1772561190064199000,2.778198974609375,-0.01837119646370411,0.027577102184295654,-0.004183836281299591
1772561190074227700,2.788227783203125,-0.00829810369759798,0.02622680366039276,-0.0033392971381545067
1772561190084257800,2.7982578125,0.000944929663091898,0.012774379923939705,-0.0014479197561740875
1772561190094288000,2.808287841796875,0.006859883200377226,0.009197736158967018,-0.012803982943296432
1772561190104318000,2.81831787109375,0.010998701676726341,0.002977656200528145,-0.02186485566198826
1772561190114347000,2.828346923828125,0.018134012818336487,-0.004163496196269989,-0.024470388889312744
1772561190124377000,2.838377197265625,0.019731642678380013,-0.01343609020113945,-0.021051421761512756
1772561190134407000,2.848406982421875,0.020571168512105942,-0.01690417155623436,-0.01525409147143364
1772561190144436700,2.858436767578125,0.016428355127573013,-0.020546045154333115,-0.01116960123181343
1772561190154465800,2.8684658203125,0.013752054423093796,-0.025178799405694008,-0.014732636511325836
1772561190164496000,2.878495849609375,0.00788005068898201,-0.023364121094346046,-0.021595072001218796
1772561190174526000,2.88852587890625,-0.0018290518783032894,-0.011607266031205654,-0.022772260010242462
1772561190184556000,2.89855615234375,-0.008573240600526333,0.011524684727191925,-0.02503727748990059
1772561190194584800,2.908584716796875,-0.017778150737285614,0.030983978882431984,-0.03494046628475189
1772561190204615000,2.918614990234375,-0.02226477675139904,0.05188233405351639,-0.04712336137890816
1772561190214645000,2.92864501953125,-0.016794312745332718,0.057012394070625305,-0.06219523400068283
1772561190224674800,2.9386748046875,-0.010700734332203865,0.05790428817272186,-0.07655420154333115
1772561190234704100,2.9487041015625,-0.004440458491444588,0.06340484321117401,-0.08259911835193634
1772561190244733700,2.958733642578125,0.0015015867538750172,0.06593910604715347,-0.0782533660531044
1772561190254763800,2.968763671875,0.019094839692115784,0.06555981934070587,-0.0652112066745758
1772561190264793900,2.9787939453125,0.02792428247630596,0.06118930131196976,-0.06002204120159149
1772561190274823000,2.988822998046875,0.04537999629974365,0.04470716789364815,-0.053412631154060364
1772561190284853000,2.99885302734375,0.06196963042020798,0.02552362158894539,-0.046740081161260605
1772561190294883000,3.008883056640625,0.07504628598690033,0.006069464609026909,-0.05173706263303757
1772561190304913000,3.018912841796875,0.07455173879861832,-0.007509726565331221,-0.05502340942621231
1772561190314942000,3.02894189453125,0.06662856787443161,-0.010379815474152565,-0.056254319846630096
1772561190324972000,3.038971923828125,0.05388427898287773,-0.0059531088918447495,-0.05036260932683945
1772561190335001900,3.049001953125,0.04260128736495972,-0.0023643290624022484,-0.03848893195390701
1772561190345032000,3.059031982421875,0.03201522305607796,0.003893832676112652,-0.02299971878528595
1772561190355060700,3.069060791015625,0.021920865401625633,0.019980011507868767,-0.015740737318992615
1772561190365090800,3.0790908203125,0.015597455203533173,0.024474361911416054,-0.016992157325148582
1772561190375121000,3.089120849609375,0.019199663773179054,0.032275497913360596,-0.016649071127176285
1772561190385151000,3.09915087890625,0.02670285291969776,0.03357911482453346,-0.018527664244174957
1772561190395180000,3.109179931640625,0.0236502755433321,0.026843734085559845,-0.020885389298200607
1772561190405210000,3.119210205078125,0.02310512401163578,0.02211182937026024,-0.021280869841575623
1772561190415240000,3.129239990234375,0.02203116938471794,0.013545629568397999,-0.025615520775318146
1772561190425269000,3.13926904296875,0.027760159224271774,0.00910187978297472,-0.02846137434244156
1772561190435298800,3.149298828125,0.04381801187992096,0.0034682760015130043,-0.027583211660385132
1772561190445329000,3.159328857421875,0.055407289415597916,-0.003276444971561432,-0.027169622480869293
1772561190455359000,3.16935888671875,0.06238538399338722,-0.012062527239322662,-0.023149486631155014
1772561190465387800,3.1793876953125,0.06506452709436417,-0.023941822350025177,-0.01824953779578209
1772561190475417900,3.18941796875,0.0624757781624794,-0.03559891879558563,-0.008620002306997776
1772561190485448000,3.199447998046875,0.060267217457294464,-0.03882187604904175,0.005159192718565464
1772561190495478000,3.20947802734375,0.046580325812101364,-0.03502510115504265,0.025601010769605637
1772561190505507800,3.2195078125,0.038639046251773834,-0.029211686924099922,0.03043225035071373
1772561190515537000,3.229536865234375,0.03140661492943764,-0.028630003333091736,0.024286646395921707
1772561190525566700,3.239566650390625,0.03039807826280594,-0.008329260163009167,0.016940582543611526
1772561190535596800,3.2495966796875,0.02656440995633602,0.01013622060418129,0.01912442222237587
1772561190545625900,3.2596259765625,0.014659281820058823,0.029838019981980324,0.017238371074199677
1772561190555656000,3.269656005859375,0.0031358390115201473,0.03588797152042389,-0.004615406505763531
1772561190565686000,3.27968603515625,-0.009020691737532616,0.033873289823532104,-0.031930916011333466
1772561190575716000,3.289716064453125,-0.015848003327846527,0.04004983976483345,-0.051480017602443695
1772561190585745000,3.299744873046875,-0.023608453571796417,0.042842961847782135,-0.05424943566322327
1772561190595775000,3.30977490234375,-0.041240353137254715,0.030338745564222336,-0.05511840805411339
1772561190605804800,3.3198046875,-0.05005168914794922,0.010324823670089245,-0.047334522008895874
1772561190615835000,3.3298349609375,-0.05485420301556587,-0.0022845417261123657,-0.023389119654893875
1772561190625864000,3.339864013671875,-0.05887504294514656,-0.0011998368427157402,0.011068456806242466
1772561190635893800,3.349893798828125,-0.059493374079465866,0.0016135722398757935,0.03777981176972389
1772561190645923800,3.359923828125,-0.0539097897708416,0.000011947005987167358,0.030348259955644608
1772561190655954000,3.369953857421875,-0.0413341261446476,-0.004579952452331781,0.0011864332482218742
1772561190665983000,3.37998291015625,-0.02310132421553135,-0.0020432909950613976,-0.019540149718523026
1772561190676013000,3.390012939453125,-0.01255268044769764,0.007163519971072674,-0.017140593379735947
1772561190686043100,3.400043212890625,-0.006273745559155941,0.007393083535134792,-0.017000775784254074
1772561190696072700,3.41007275390625,0.0037864823825657368,-0.0035493094474077225,-0.01932762935757637
1772561190706102000,3.42010205078125,0.009892310947179794,-0.007345112506300211,-0.014167223125696182
1772561190716131800,3.4301318359375,0.013916008174419403,-0.006163985468447208,-0.0013264506123960018
1772561190726162000,3.440161865234375,0.012741288170218468,-0.007973603904247284,0.010091320611536503
1772561190736192000,3.45019189453125,0.012821085751056671,-0.014539754949510098,0.010961729101836681
1772561190746220800,3.460220703125,0.009592801332473755,-0.02421368658542633,0.005892402492463589
1772561190756251000,3.4702509765625,0.01349850557744503,-0.023729443550109863,0.00494991522282362
1772561190766280700,3.48028076171875,0.011016970500349998,-0.021918226033449173,0.0003003031015396118
1772561190776310800,3.490310791015625,0.012322697788476944,-0.01914764754474163,0.0017655985429883003
1772561190786339600,3.500339599609375,0.012590877711772919,-0.015442125499248505,-0.0019575003534555435
1772561190796369700,3.51036962890625,0.012079790234565735,-0.01667853631079197,-0.003894925583153963
1772561190806399500,3.5203994140625,0.0043624830432236195,-0.016154160723090172,-0.0075197541154921055
1772561190816429600,3.5304296875,-0.0021174238063395023,-0.01755562610924244,-0.0025064549408853054
1772561190826458600,3.540458740234375,-0.010950064286589622,-0.015055983327329159,0.005549075081944466
1772561190836488700,3.55048876953125,-0.018110746517777443,-0.013549793511629105,0.002696005627512932
1772561190846518500,3.5605185546875,-0.022776605561375618,-0.012188917957246304,0.0001156684011220932
1772561190856548600,3.570548583984375,-0.021846523508429527,-0.00841112993657589,-0.008391187526285648
1772561190866577700,3.58057763671875,-0.02114398218691349,0.002006356604397297,-0.011802163906395435
1772561190876607700,3.590607666015625,-0.024812139570713043,0.0032747751101851463,-0.01957317441701889
1772561190886637600,3.600637451171875,-0.02527925744652748,0.010054117999970913,-0.03021197021007538
1772561190896667600,3.610667724609375,-0.024208085611462593,0.016301438212394714,-0.038196176290512085
1772561190906696400,3.620696533203125,-0.016461482271552086,0.02066103182733059,-0.04183751717209816
1772561190916726500,3.6307265625,-0.010008707642555237,0.020764347165822983,-0.03847316652536392
1772561190926756600,3.640756591796875,-0.0005693999119102955,0.0187589880079031,-0.03237346187233925
1772561190936786700,3.65078662109375,0.006048425566405058,0.014386074617505074,-0.01917249709367752
1772561190946815700,3.660815673828125,0.007372282911092043,0.00008729565888643265,-0.014267753809690475
1772561190956845600,3.670845458984375,0.008869979530572891,-0.011763517744839191,-0.007713733706623316
1772561190966875600,3.680875732421875,0.007664899807423353,-0.02882559224963188,-0.003164521884173155
1772561190976905500,3.690905517578125,0.008872546255588531,-0.03836971893906593,0.001607431098818779
1772561190986934800,3.700934814453125,0.00790288858115673,-0.04266992211341858,0.00994445662945509
1772561190996964600,3.710964599609375,0.0009283446706831455,-0.04277674853801727,0.008576560765504837
1772561191006994700,3.72099462890625,-0.0062081278301775455,-0.0389481857419014,0.004212439991533756
1772561191017024500,3.7310244140625,-0.018952401354908943,-0.028486287221312523,-0.0013534952886402607
1772561191027053600,3.741053466796875,-0.026911791414022446,-0.027439933270215988,-0.01412095595151186
1772561191037083600,3.751083740234375,-0.02636978216469288,-0.026572760194540024,-0.030724316835403442
1772561191047113700,3.76111376953125,-0.022618187591433525,-0.0234195776283741,-0.029999136924743652
1772561191057143800,3.771143798828125,-0.019905265420675278,-0.02177145704627037,-0.024728788062930107
1772561191067172600,3.781172607421875,-0.015752865001559258,-0.015275740064680576,-0.013858562335371971
1772561191077202400,3.791202392578125,-0.01760012097656727,-0.016890868544578552,-0.005717011168599129
1772561191087232500,3.801232421875,-0.022948548197746277,-0.025389283895492554,-0.004363326355814934
1772561191097262600,3.8112626953125,-0.025801463052630424,-0.038485877215862274,-0.008948180824518204
1772561191107291600,3.821291748046875,-0.02871735766530037,-0.05158143863081932,-0.009562038816511631
1772561191117321700,3.83132177734375,-0.033282678574323654,-0.05152898281812668,-0.001549446489661932
1772561191127351600,3.8413515625,-0.0349452905356884,-0.040288046002388,0.013300072401762009
1772561191137381600,3.851381591796875,-0.03760472312569618,-0.02048853412270546,0.012173572555184364
1772561191147410700,3.86141064453125,-0.03556367754936218,-0.007303756196051836,-0.0023073661141097546
1772561191157440800,3.871440673828125,-0.03730035573244095,0.009687629528343678,-0.02502082660794258
1772561191167470600,3.881470703125,-0.03622736781835556,0.021315786987543106,-0.046047013252973557
1772561191177500700,3.891500732421875,-0.03711596876382828,0.03493799269199371,-0.05062533915042877
1772561191187529500,3.901529541015625,-0.03545548766851425,0.037352144718170166,-0.051359571516513824
1772561191197559600,3.9115595703125,-0.030455701053142548,0.02703944593667984,-0.045644842088222504
1772561191207589600,3.921589599609375,-0.02209523878991604,0.009762986563146114,-0.04164211079478264
1772561191217619700,3.93161962890625,-0.007859352044761181,-0.008283236064016819,-0.02803793177008629
1772561191227648800,3.941648681640625,-0.0036536878906190395,-0.011851339600980282,-0.01830700784921646
1772561191237678600,3.9516787109375,0.004170581232756376,-0.012636031024158001,-0.0006709322333335876
1772561191247708700,3.961708740234375,0.002140719909220934,-0.009198956191539764,0.005547015927731991
1772561191257738500,3.971738525390625,0.001480716746300459,-0.0016685845330357552,0.007545262575149536
1772561191267767600,3.981767578125,-0.0011864383704960346,0.0037711886689066887,-0.0022612949833273888
1772561191277797600,3.991797607421875,-0.0028985608369112015,0.0018317792564630508,-0.015586446970701218
1772561191287827700,4.00182763671875,-0.0019696499221026897,-0.000123513862490654,-0.022869393229484558
1772561191297857500,4.011857421875,0.0021627931855618954,0.0030410587787628174,-0.023737778887152672
1772561191307886600,4.021886474609375,0.0050579155795276165,0.003111366182565689,-0.018601607531309128
1772561191317916700,4.031916748046875,0.007739605847746134,-0.0026155896484851837,-0.008177964948117733
1772561191327946800,4.04194677734375,0.010617682710289955,-0.003632650710642338,0.009299828670918941
1772561191337976600,4.0519765625,0.010105244815349579,-0.014791375957429409,0.014966282993555069
1772561191348005600,4.062005615234375,0.01095559261739254,-0.025447748601436615,0.013028567656874657
1772561191358035500,4.072035400390625,0.006727855186909437,-0.03150682896375656,0.004392880946397781
1772561191368065500,4.0820654296875,0.004882283974438906,-0.026256142184138298,-0.00020639877766370773
1772561191378095600,4.092095703125,-0.0008495980873703957,-0.01974566839635372,-0.0023659071885049343
1772561191388124700,4.102124755859375,-0.0093599958345294,-0.005397622007876635,-0.004621604457497597
1772561191398154800,4.11215478515625,-0.017432793974876404,-0.0009119492024183273,-0.007536120712757111
1772561191408184600,4.1221845703125,-0.020872266963124275,0.008494068868458271,-0.007400299422442913
1772561191418214700,4.132214599609375,-0.02404678799211979,-0.0012689540162682533,-0.01871541701257229
1772561191428243700,4.14224365234375,-0.016577687114477158,-0.0036181285977363586,-0.028139278292655945
1772561191438273800,4.152273681640625,-0.017759500071406364,-0.008746156468987465,-0.020980536937713623
1772561191448303600,4.1623037109375,-0.015342415310442448,-0.014858643524348736,-0.01626434549689293
1772561191458333700,4.172333740234375,-0.014868024736642838,-0.015941830351948738,-0.004191601183265448
1772561191468362500,4.182362548828125,-0.018330400809645653,-0.01733226701617241,0.0032841581851243973
1772561191478392600,4.192392578125,-0.01618880033493042,-0.018061768263578415,0.00819478277117014
1772561191488422700,4.202422607421875,-0.01513019297271967,-0.02128099650144577,0.005059443414211273
1772561191498452700,4.21245263671875,-0.016994623467326164,-0.02310921624302864,0.006673538126051426
1772561191508481500,4.2224814453125,-0.012770582921802998,-0.020863639190793037,0.014623605646193027
1772561191518511600,4.23251171875,-0.013912716880440712,-0.011856133118271828,0.019580718129873276
1772561191528541400,4.24254150390625,-0.019726930186152458,-0.010912841185927391,0.018089350312948227
1772561191538571500,4.252571533203125,-0.020517081022262573,-0.007231317926198244,0.0090147964656353
1772561191548600600,4.2626005859375,-0.01905500702559948,-0.00117449089884758,-0.0014871126040816307
1772561191558630700,4.272630615234375,-0.020451761782169342,0.00155629962682724,-0.01397022046148777
1772561191568660700,4.28266064453125,-0.013590926304459572,0.0022865384817123413,-0.031504206359386444
1772561191578690600,4.292690673828125,-0.0073656016029417515,0.0007877573370933533,-0.03623354434967041
1772561191588719600,4.3027197265625,-0.003863012418150902,-0.003475164994597435,-0.037279099225997925
1772561191598749700,4.312749755859375,-0.000037388876080513,-0.003163278102874756,-0.028973668813705444
1772561191608779800,4.32277978515625,-0.00028319889679551125,0.00006287544965744019,-0.012265263125300407
1772561191618809600,4.3328095703125,-0.005525210406631231,0.005336365662515163,0.003911064006388187
1772561191628838700,4.342838623046875,-0.00968746468424797,0.01530431117862463,0.009256560355424881
1772561191638868500,4.352868408203125,-0.01354002021253109,0.02301562950015068,-0.0015116403810679913
1772561191648898600,4.362898681640625,-0.017463654279708862,0.03300301358103752,-0.018019776791334152
1772561191658928600,4.3729287109375,-0.01877087913453579,0.0470096729695797,-0.04043519124388695
1772561191668957700,4.382957763671875,-0.018035046756267548,0.05450567603111267,-0.05637580528855324
1772561191678987500,4.392987548828125,-0.014448883011937141,0.06250200420618057,-0.06791843473911285
1772561191689017600,4.403017578125,-0.00818592682480812,0.05892829969525337,-0.06901378929615021
1772561191699047700,4.413047607421875,0.019892361015081406,0.0270673930644989,-0.059740711003541946
1772561191709076700,4.42307666015625,0.0029309545643627644,0.03698260709643364,-0.07114037126302719
1772561191719106600,4.4331064453125,0.029581859707832336,0.0015328014269471169,-0.04093651846051216
1772561191729136600,4.44313671875,0.04488225281238556,0.032835330814123154,0.00834580883383751
1772561191739166700,4.453166748046875,0.024287110194563866,-0.012370535172522068,-0.00027047283947467804
1772561191749195500,4.463195556640625,0.030046993866562843,-0.007488960400223732,0.0026997504755854607
1772561191759226000,4.47322607421875,0.025411933660507202,-0.023515256121754646,-0.008796741254627705
1772561191769256200,4.483256103515625,0.017060792073607445,-0.010620497167110443,-0.005403608083724976
1772561191779286300,4.493286376953125,0.002252396661788225,-0.006962277460843325,-0.0059367939829826355
1772561191789315300,4.5033154296875,-0.002390824258327484,-0.010484840720891953,-0.002645393367856741
1772561191799345000,4.513344970703125,-0.005354995373636484,-0.013139734975993633,0.008041943423449993
1772561191809375000,4.523375,-0.008727622218430042,-0.013255848549306393,0.017932657152414322
1772561191819405000,4.533405029296875,-0.012836331501603127,-0.011255609802901745,0.02008589543402195
1772561191829434000,4.54343408203125,-0.01989397406578064,-0.002090340480208397,0.012477511540055275
1772561191839464200,4.553464111328125,-0.027215303853154182,0.003308580256998539,0.0015741121023893356
1772561191849494300,4.563494384765625,-0.03173788636922836,0.006725682877004147,-0.012935321778059006
1772561191859524000,4.573524169921875,-0.032895736396312714,0.007540764287114143,-0.021567951887845993
1772561191869553200,4.58355322265625,-0.030206743627786636,0.005964439362287521,-0.019521310925483704
1772561191879583200,4.593583251953125,-0.027272948995232582,0.0031045200303196907,-0.00685093691572547
1772561191889613000,4.603613037109375,-0.020366307348012924,-0.0029557691887021065,0.004841672256588936
1772561191899643100,4.61364306640625,-0.009978058747947216,-0.010161968879401684,0.004814360290765762
1772561191909672000,4.623671875,-0.0017816475592553616,-0.01785956881940365,0.007083640433847904
1772561191919702000,4.633701904296875,0.00605888431891799,-0.024529144167900085,0.006930680014193058
1772561191929732000,4.643732177734375,0.011864574626088142,-0.029634423553943634,0.001720472238957882
1772561191939762200,4.65376220703125,0.019291743636131287,-0.030676815658807755,0.0021565454080700874
1772561191949791200,4.663791259765625,0.018324485048651695,-0.02980250120162964,0.0016428222879767418
1772561191959821300,4.6738212890625,0.015446964651346207,-0.02707369066774845,0.007549162954092026
1772561191969851100,4.68385107421875,0.016215819865465164,-0.017828259617090225,0.015114670619368553
1772561191979881000,4.693880859375,0.01496209017932415,-0.0037239668890833855,0.007037836126983166
1772561191989910000,4.703909912109375,0.01339641772210598,0.011367633938789368,-0.009140334092080593
1772561191999940000,4.713940185546875,0.01508161798119545,0.023351512849330902,-0.02774060331285
1772561192009970200,4.72397021484375,0.016428912058472633,0.023844998329877853,-0.046911366283893585
1772561192020000300,4.734000244140625,0.019560763612389565,0.028294965624809265,-0.04867009446024895
1772561192030029000,4.744029052734375,0.01802198961377144,0.03246733918786049,-0.043431658297777176
1772561192040059100,4.75405908203125,0.010861128568649292,0.023365017026662827,-0.04193711653351784
1772561192050089200,4.764089111328125,0.014497675001621246,0.004261898808181286,-0.04014720395207405
1772561192060119000,4.774119140625,0.0015850677154958248,-0.009284291416406631,-0.07248961180448532
1772561192070149000,4.784149169921875,0.023627785965800285,-0.013321377336978912,-0.06323965638875961
1772561192080178000,4.794177978515625,0.020756257697939873,-0.011790403164923191,-0.05623027682304382
1772561192090208000,4.8042080078125,0.011478336527943611,-0.020629167556762695,-0.058719001710414886
1772561192100238000,4.814238037109375,0.01584167592227459,-0.021276645362377167,-0.04241638630628586
1772561192110268200,4.82426806640625,0.020691292360424995,-0.013672520406544209,-0.01943783462047577
1772561192120297200,4.834297119140625,0.020453577861189842,-0.004287945106625557,0.001537826843559742
1772561192130327300,4.844327392578125,0.01472192257642746,-0.006124727427959442,0.006905428133904934
1772561192140357000,4.854357177734375,0.01826571114361286,-0.009416082873940468,-0.0019211838953197002
1772561192150387000,4.864386962890625,0.018869714811444283,-0.012692304328083992,-0.015292915515601635
1772561192160416000,4.874416015625,0.019579503685235977,-0.013607850298285484,-0.02396324835717678
1772561192170446000,4.884446044921875,0.018321160227060318,-0.014591888524591923,-0.03063872642815113
1772561192180476200,4.89447607421875,0.01462622731924057,-0.01367923989892006,-0.032169271260499954
1772561192190506200,4.90450634765625,0.01546991616487503,-0.005210387520492077,-0.024787520989775658
1772561192200535000,4.91453515625,0.01508457213640213,-0.0037449123337864876,-0.017286919057369232
1772561192210565000,4.924565185546875,0.017639076337218285,-0.004290328361093998,-0.0030592484399676323
1772561192220595200,4.93459521484375,0.02114967815577984,-0.017525266855955124,0.01403848733752966
1772561192230625300,4.944625244140625,0.028964458033442497,-0.019701601937413216,0.026435501873493195
1772561192240654300,4.954654296875,0.03147387504577637,-0.015205077826976776,0.03374498337507248
1772561192250684000,4.964683837890625,0.03243793919682503,-0.012226065620779991,0.020679781213402748
1772561192260714000,4.9747138671875,0.03701384738087654,-0.001873806118965149,0.0060308221727609634
1772561192270744000,4.984744140625,0.037988562136888504,0.002656230702996254,-0.00569374393671751
1772561192280773000,4.994773193359375,0.035961687564849854,0.009445742703974247,-0.01806240901350975
1772561192290803200,5.00480322265625,0.03249025717377663,0.011852706782519817,-0.013774720951914787
1772561192300833300,5.014833251953125,0.02999376319348812,0.014798084273934364,-0.0055239321663975716
1772561192310863000,5.024863037109375,0.029117049649357796,0.016905976459383965,0.0053191278129816055
1772561192320892200,5.03489208984375,0.02115481160581112,0.017456404864788055,0.018332496285438538
1772561192330922200,5.044922119140625,0.013669464737176895,0.015902183949947357,0.020061418414115906
1772561192340952000,5.0549521484375,0.01484166644513607,0.019940268248319626,0.01347074843943119
1772561192350982100,5.064982177734375,0.0067376685328781605,0.012966781854629517,-0.0010264343582093716
1772561192361011000,5.075010986328125,0.002707888837903738,0.015082445926964283,-0.01061411201953888
1772561192371041000,5.085041015625,-0.0002207895740866661,0.015564478002488613,-0.009771487675607204
1772561192381071000,5.095071044921875,-0.004564965609461069,0.020424887537956238,-0.007203903514891863
1772561192391101200,5.10510107421875,-0.011406360194087029,0.01754947379231453,0.0004130033776164055
1772561192401130200,5.115130126953125,-0.01934056170284748,0.018598660826683044,0.0052306875586509705
1772561192411160300,5.125160400390625,-0.021461503580212593,0.01984049379825592,0.012042521499097347
1772561192421190100,5.135190185546875,-0.026307422667741776,0.017950572073459625,0.005139992572367191
1772561192431220000,5.145219970703125,-0.02561073936522007,0.0066451868042349815,-0.003770677838474512
1772561192441249000,5.1552490234375,-0.030192330479621887,0.005665243603289127,-0.002606099471449852
1772561192451279000,5.165279052734375,-0.03248744085431099,0.008647450245916843,0.0011327126994729042
1772561192461309200,5.17530908203125,-0.034842655062675476,0.012185383588075638,0.007156512700021267
1772561192471339300,5.18533935546875,-0.03370761498808861,0.006350398063659668,0.00957945641130209
1772561192481368000,5.1953681640625,-0.03107607178390026,0.0018749013543128967,0.006340981461107731
1772561192491398100,5.205398193359375,-0.03381193429231644,-0.00010808836668729782,0.001035165973007679
1772561192501428200,5.21542822265625,-0.02816549316048622,0.00346983689814806,-0.0013559157960116863
1772561192511458000,5.2254580078125,-0.030107470229268074,0.00419714767485857,0.005292133428156376
1772561192521487400,5.2354873046875,-0.024968799203634262,0.005089703947305679,0.0017565935850143433
1772561192531517000,5.245516845703125,-0.01586158573627472,-0.004695282783359289,-0.005195322446525097
1772561192541547000,5.255547119140625,-0.012544384226202965,-0.008852353319525719,-0.0053981333039700985
1772561192551577000,5.2655771484375,-0.007427653297781944,-0.014805316925048828,-0.0008923308923840523
1772561192561606100,5.275606201171875,-0.0033089779317378998,-0.01563899591565132,0.0071681588888168335
1772561192571636200,5.28563623046875,-0.0033880737610161304,-0.016972705721855164,0.012210322543978691
1772561192581666300,5.295666259765625,0.00111812399700284,-0.01930563896894455,0.005204660817980766
1772561192591696100,5.305696044921875,0.004574374761432409,-0.022663883864879608,-0.002219699788838625
1772561192601726000,5.315725830078125,0.008578533306717873,-0.03052590787410736,-0.014157416298985481
1772561192611755000,5.325755126953125,0.013620961457490921,-0.030607134103775024,-0.0192595012485981
1772561192621785000,5.33578515625,0.016124511137604713,-0.03213917464017868,-0.01909012347459793
1772561192631815200,5.345815185546875,0.013201426714658737,-0.030550334602594376,-0.013843962922692299
1772561192641845200,5.35584521484375,0.006038047838956118,-0.020189275965094566,-0.004355289041996002
1772561192651874000,5.3658740234375,0.00686522526666522,-0.012732957489788532,0.004672827199101448
1772561192661904100,5.375904052734375,0.0004917974583804607,0.0011624330654740334,0.014807704836130142
1772561192671934200,5.385934326171875,-0.0032360958866775036,0.010688826441764832,0.012969324365258217
1772561192681964000,5.395964111328125,-0.0021163569763302803,0.015368196181952953,0.0029093530029058456
1772561192691993300,5.405993408203125,0.0016946266405284405,0.03133704513311386,-0.009670354425907135
1772561192702023000,5.41602294921875,0.006926495116204023,0.04541364312171936,-0.018525097519159317
1772561192712053000,5.426052978515625,0.00860588438808918,0.05738348513841629,-0.02985817939043045
1772561192722083000,5.4360830078125,0.005723270121961832,0.0657743364572525,-0.039818838238716125
1772561192732112100,5.446112060546875,0.0021876576356589794,0.06815573573112488,-0.06291989237070084
1772561192742142200,5.45614208984375,-0.0018897620029747486,0.07053333520889282,-0.07639218121767044
1772561192752172300,5.46617236328125,-0.0017611309885978699,0.07169713824987411,-0.08469032496213913
1772561192762201900,5.476201904296875,-0.0043309214524924755,0.05629705637693405,-0.07485959678888321
1772561192772231000,5.48623095703125,-0.0058854082599282265,0.05063863843679428,-0.06246338039636612
1772561192782261000,5.496260986328125,-0.0049653504975140095,0.03951246663928032,-0.035466939210891724
1772561192792290600,5.50629052734375,-0.0027762320823967457,0.03705862909555435,-0.007995635271072388
1772561192802320600,5.516320556640625,-0.0018258364871144295,0.026597268879413605,0.014862005598843098
1772561192812349700,5.526349609375,-0.00029824720695614815,0.01579469069838524,0.02453860267996788
1772561192822379800,5.5363798828125,0.005502962972968817,0.009173355996608734,0.025653354823589325
1772561192832409900,5.546409912109375,0.010369889438152313,-0.0011698296293616295,0.01043179165571928
1772561192842440000,5.55643994140625,0.017094476148486137,-0.011375995352864265,-0.00414361571893096
1772561192852468700,5.56646875,0.024366239085793495,-0.007876069284975529,-0.011371434666216373
1772561192862498800,5.576498779296875,0.03083975426852703,0.0037774937227368355,-0.005198664963245392
1772561192872529000,5.58652880859375,0.031952422112226486,0.013697502203285694,-0.001161046326160431
1772561192882558700,5.596558837890625,0.03732658177614212,0.021932676434516907,-0.005845981650054455
1772561192892587800,5.606587890625,0.043919503688812256,0.03133496642112732,-0.012386439368128777
1772561192902617600,5.61661767578125,0.043721556663513184,0.046995967626571655,-0.011630826629698277
1772561192912647700,5.626647705078125,0.04410478472709656,0.051786988973617554,-0.012333901599049568
1772561192922677800,5.636677734375,0.039595283567905426,0.050437748432159424,-0.012444979511201382
1772561192932706800,5.646706787109375,0.02829921431839466,0.042305514216423035,-0.019515138119459152
1772561192942737000,5.65673681640625,0.014786241576075554,0.0322713628411293,-0.039746545255184174
1772561192952767000,5.66676708984375,0.004421751480549574,0.010871795937418938,-0.07379426062107086
1772561192962796800,5.676796875,-0.009102943353354931,-0.008633846417069435,-0.13301487267017365
1772561192972825900,5.686825927734375,-0.012518181465566158,-0.044083718210458755,-0.20129060745239258
1772561192982855700,5.696855712890625,-0.0018444238230586052,-0.0568818561732769,-0.265906423330307
1772561192992885800,5.7068857421875,0.017680540680885315,-0.05292040482163429,-0.30001354217529297
1772561193002915800,5.716915771484375,0.03493376448750496,-0.03531746566295624,-0.2881092131137848
1772561193012944600,5.726944580078125,0.04072693735361099,-0.026736227795481682,-0.23334717750549316
1772561193022974700,5.736974609375,0.040566958487033844,-0.014152267947793007,-0.15488651394844055
1772561193033004800,5.7470048828125,0.033596932888031006,0.002748151309788227,-0.05873282626271248
1772561193043035000,5.757034912109375,0.019465409219264984,0.020026974380016327,0.026932712644338608
1772561193053064700,5.767064697265625,0.003976196516305208,0.028636973351240158,0.05733935162425041
1772561193063094000,5.777093994140625,-0.00625561224296689,0.024362653493881226,0.04211737960577011
1772561193073123600,5.78712353515625,-0.013747083954513073,0.027709711343050003,0.017100444063544273
1772561193083153700,5.797153564453125,-0.02841859869658947,0.035942159593105316,-0.0045339446514844894
1772561193093183700,5.807183837890625,-0.0475025437772274,0.038691338151693344,-0.020762182772159576
1772561193103212800,5.817212890625,-0.054540038108825684,0.044544558972120285,-0.035831939429044724
1772561193113243000,5.827242919921875,-0.0558021105825901,0.03432654216885567,-0.046875
1772561193123273000,5.83727294921875,-0.054880741983652115,0.020783644169569016,-0.058943383395671844
1772561193133302800,5.847302734375,-0.046458762139081955,0.02291443943977356,-0.04753520339727402
1772561193143331800,5.857331787109375,-0.0315752848982811,0.021991925314068794,-0.03324579447507858
1772561193153362000,5.86736181640625,-0.017432834953069687,0.01209721527993679,-0.02588587999343872
1772561193163391700,5.877391845703125,-0.0026868460699915886,0.003104225732386112,-0.023323900997638702
1772561193173421800,5.887421875,0.004306614864617586,0.0039527080953121185,-0.020225046202540398
1772561193183450600,5.89745068359375,0.01214168407022953,0.009520662017166615,-0.008880557492375374
1772561193193480700,5.907480712890625,0.01899293251335621,0.012918856926262379,-0.006944705732166767
1772561193203510800,5.9175107421875,0.03364221379160881,0.008534104563295841,-0.011963020078837872
1772561193213540900,5.927540771484375,0.03616262972354889,0.008457672782242298,-0.011556621640920639
1772561193223570000,5.93756982421875,0.03555655851960182,0.02221051976084709,0.003340061753988266
1772561193233600000,5.94760009765625,0.03181321918964386,0.035235777497291565,0.01260306779295206
1772561193243629600,5.957629638671875,0.028561556711792946,0.03338274359703064,0.017451196908950806
1772561193253659600,5.96765966796875,0.032105159014463425,0.02924019657075405,0.01380293257534504
1772561193263688700,5.977688720703125,0.034518491476774216,0.025855202227830887,0.017795845866203308
1772561193273718800,5.98771875,0.03533687815070152,0.022413596510887146,0.02172933518886566
1772561193283748900,5.997748779296875,0.03177756443619728,0.012708771042525768,0.027057785540819168
1772561193293779000,6.007779052734375,0.02647441066801548,0.005494267679750919,0.04101487994194031
1772561193303807700,6.017807861328125,0.02188250795006752,0.00038663484156131744,0.03887173905968666
1772561193313837800,6.027837890625,0.015820886939764023,-0.003917300142347813,0.025634493678808212
1772561193323868000,6.037867919921875,0.005921183619648218,-0.006474980618804693,0.007180944085121155
1772561193333897700,6.047897705078125,-0.01574496366083622,-0.015351829119026661,-0.01751321740448475
1772561193343926800,6.0579267578125,-0.023372402414679527,-0.007738854270428419,-0.03279136121273041
1772561193353956600,6.06795654296875,-0.034606415778398514,-0.0007049134001135826,-0.03118281438946724
1772561193363986700,6.077986572265625,-0.04538438841700554,-0.0004973607137799263,-0.02491578832268715
1772561193374016800,6.088016845703125,-0.04165702685713768,-0.010877030901610851,-0.025592496618628502
1772561193384045800,6.0980458984375,-0.04081764817237854,-0.018640760332345963,-0.022053908556699753
1772561193394076000,6.108075927734375,-0.046078987419605255,-0.015382915735244751,-0.016968335956335068
1772561193404106000,6.11810595703125,-0.04947905242443085,-0.007450659293681383,-0.010999029502272606
1772561193414135800,6.1281357421875,-0.05315634608268738,-0.005453022196888924,-0.008338797837495804
1772561193424165600,6.13816552734375,-0.05194641649723053,-0.004533913917839527,-0.00022721942514181137
1772561193434194700,6.148194580078125,-0.0499437190592289,-0.008793373592197895,-0.00039313454180955887
1772561193444224800,6.158224853515625,-0.051283203065395355,-0.006933497730642557,-0.000492204912006855
1772561193454254800,6.1682548828125,-0.051292791962623596,0.01168412808328867,-0.004850201308727264
1772561193464285000,6.178284912109375,-0.05246388539671898,0.033281438052654266,-0.007913974113762379
1772561193474313700,6.188313720703125,-0.05486765503883362,0.0438094437122345,-0.020487822592258453
1772561193484343800,6.19834375,-0.044695425778627396,0.03939386084675789,-0.041198886930942535
1772561193494374000,6.208373779296875,-0.03212956711649895,0.026417076587677002,-0.056891560554504395
1772561193504403700,6.21840380859375,-0.013091687113046646,0.000019261613488197327,-0.06222037971019745
1772561193514432800,6.228432861328125,-0.004673701710999012,-0.0001826062798500061,-0.03666521981358528
1772561193524462600,6.238462646484375,-0.001263695303350687,-0.002030680887401104,-0.00002261810004711151
1772561193534492700,6.24849267578125,0.0016274326480925083,0.007205961272120476,0.03300297260284424
1772561193544522800,6.258522705078125,0.007870940491557121,0.007492282427847385,0.05150458961725235
1772561193554551800,6.2685517578125,0.009116234257817268,0.008405479602515697,0.047384411096572876
1772561193564582000,6.278581787109375,0.013615395873785019,0.002871900796890259,0.029789511114358902
1772561193574612000,6.288612060546875,0.011956779286265373,0.009902913123369217,0.013328245840966702
1772561193584641800,6.298641845703125,0.008619418367743492,0.007649934850633144,0.00570918433368206
1772561193594670800,6.3086708984375,0.007998902350664139,0.0027784807607531548,-0.0031594084575772285
1772561193604701000,6.318700927734375,0.011190515011548996,-0.0063466159626841545,-0.004549747798591852
1772561193614730800,6.328730712890625,0.015883004292845726,-0.020395589992403984,0.0042778318747878075
1772561193624760800,6.3387607421875,0.014905380085110664,-0.01103733479976654,0.02648164890706539
1772561193634789600,6.34878955078125,0.008275173604488373,-0.0024326611310243607,0.04350137710571289
1772561193644819700,6.35881982421875,0.004849149379879236,0.005448156036436558,0.0429442897439003
1772561193654849800,6.368849853515625,0.0029548429884016514,0.007413568906486034,0.029086533933877945
1772561193664879900,6.3788798828125,0.00453501520678401,0.01277085393667221,0.010391288436949253
1772561193674909000,6.388908935546875,0.007023207377642393,0.011913049966096878,-0.006196742877364159
1772561193684938800,6.398938720703125,0.009814726188778877,0.01705964095890522,-0.0103535745292902
1772561193694968600,6.408968505859375,0.006864741910248995,0.024000635370612144,-0.005137774161994457
1772561193704998700,6.41899853515625,0.006856840569525957,0.02853645384311676,0.005502884276211262
1772561193715028700,6.42902880859375,0.0035840817727148533,0.035241495817899704,0.014682801440358162
1772561193725057800,6.439057861328125,0.007096379529684782,0.03510677069425583,0.018602587282657623
1772561193735087900,6.449087890625,0.014930600300431252,0.03495257347822189,0.015584161505103111
1772561193745118000,6.459117919921875,0.02511601150035858,0.022339515388011932,0.005477221682667732
1772561193755146800,6.469146728515625,0.03788959980010986,0.020113646984100342,0.005532614886760712
1772561193765177000,6.479177001953125,0.04322524741292,0.019405214115977287,0.010275074280798435
1772561193775207200,6.489207275390625,0.04214134067296982,0.012944916263222694,0.024289961904287338
1772561193785237000,6.499237060546875,0.049696337431669235,0.005843297578394413,0.023979922756552696
1772561193795267000,6.50926708984375,0.05852098762989044,-0.00410653930157423,0.017068486660718918
1772561193805295900,6.5192958984375,0.061488520354032516,-0.02063402347266674,-0.001180002000182867
1772561193815326000,6.529325927734375,0.061430465430021286,-0.02368893474340439,-0.0018236879259347916
1772561193825356000,6.53935595703125,0.05156710371375084,-0.022548262029886246,0.015200203284621239
1772561193835386000,6.54938623046875,0.03611810505390167,-0.019531168043613434,0.026963917538523674
1772561193845415200,6.559415283203125,0.01563660427927971,-0.01555800810456276,0.032386042177677155
1772561193855445200,6.5694453125,0.0008025313727557659,-0.0042267898097634315,0.025175003334879875
1772561193865474800,6.579474853515625,-0.008363124914467335,0.0027019288390874863,0.007370026782155037
1772561193875505000,6.5895048828125,-0.018999790772795677,0.012878400273621082,-0.015517445281147957
1772561193885534000,6.599533935546875,-0.02690279483795166,0.017657458782196045,-0.04373942315578461
1772561193895564000,6.60956396484375,-0.028189366683363914,0.024170752614736557,-0.06351099163293839
1772561193905594000,6.619593994140625,-0.02699950523674488,0.030621878802776337,-0.0681055337190628
1772561193915624200,6.629624267578125,-0.029506871476769447,0.03319023177027702,-0.07203155755996704
1772561193925653000,6.639653076171875,-0.03314344957470894,0.03465908765792847,-0.06379082053899765
1772561193935683000,6.64968310546875,-0.0425926148891449,0.025461329147219658,-0.06601402908563614
1772561193945713200,6.659713134765625,-0.04308474808931351,0.01991204172372818,-0.06041785329580307
1772561193955743000,6.669742919921875,-0.04891973361372948,0.0217759869992733,-0.05994248390197754
1772561193965772000,6.67977197265625,-0.05158918723464012,0.02091190032660961,-0.057772908359766006
1772561193975801900,6.6898017578125,-0.057093407958745956,0.01760079339146614,-0.060051243752241135
1772561193985832000,6.69983203125,-0.055341996252536774,0.018246684223413467,-0.05409786105155945
1772561193995862000,6.709862060546875,-0.05867547169327736,0.02011728845536709,-0.0430566631257534
1772561194005891000,6.71989111328125,-0.05670247599482536,0.021286720409989357,-0.032281726598739624
1772561194015921200,6.729921142578125,-0.05410695821046829,0.02460714988410473,-0.019276713952422142
1772561194025951200,6.739951171875,-0.045677948743104935,0.022711865603923798,-0.010384613648056984
1772561194035981000,6.74998095703125,-0.04198121652007103,0.015385773964226246,-0.005956576205790043
1772561194046010000,6.760010009765625,-0.039584629237651825,0.009529185481369495,0.0003614099696278572
1772561194056040000,6.7700400390625,-0.04147760570049286,0.007345925085246563,0.0006807232275605202
1772561194066070000,6.780070068359375,-0.037514302879571915,0.004354457370936871,0.0010295240208506584
1772561194076100000,6.79010009765625,-0.03789832815527916,-0.00694400304928422,-0.004201456904411316
1772561194086130200,6.800130126953125,-0.03840140253305435,-0.010099049657583237,-0.009237760677933693
1772561194096159000,6.810158935546875,-0.037096984684467316,-0.021116813644766808,-0.021576717495918274
1772561194106189000,6.82018896484375,-0.02786524035036564,-0.017789598554372787,-0.02356724813580513
1772561194116219100,6.83021923828125,-0.0239727646112442,-0.010946606285870075,-0.01706939935684204
1772561194126249000,6.8402490234375,-0.019737333059310913,-0.015532032586634159,-0.004070620983839035
1772561194136278300,6.8502783203125,-0.017410261556506157,-0.012575125321745872,0.012621806934475899
1772561194146307800,6.860307861328125,-0.0156378373503685,-0.013504957780241966,0.02102673426270485
1772561194156338000,6.870337890625,-0.015532642602920532,-0.012659404426813126,0.02182275429368019
1772561194166368000,6.880367919921875,-0.015803899616003036,-0.018416818231344223,0.012285061180591583
1772561194176397000,6.89039697265625,-0.018335234373807907,-0.020165983587503433,-0.004003098234534264
1772561194186427100,6.90042724609375,-0.01861376129090786,-0.029393989592790604,-0.010565344244241714
1772561194196457200,6.910457275390625,-0.016643820330500603,-0.026587285101413727,0.00576462596654892
1772561194206487000,6.920487060546875,-0.014484933577477932,-0.021323513239622116,0.01979207620024681
1772561194216516000,6.93051611328125,-0.008774583227932453,-0.023919828236103058,0.0359092615544796
1772561194226546200,6.940546142578125,0.01165454275906086,-0.03179596737027168,0.03278251364827156
1772561194236576000,6.950575927734375,0.023607341572642326,-0.03737768530845642,0.031962525099515915
1772561194246606000,6.960606201171875,0.027689063921570778,-0.044040463864803314,0.03008066862821579
1772561194256635000,6.970634765625,0.03210005536675453,-0.043814897537231445,0.027530957013368607
1772561194266665000,6.9806650390625,0.03027954138815403,-0.04189538210630417,0.03116614557802677
1772561194276695000,6.990695068359375,0.026749255135655403,-0.03801249340176582,0.023778272792696953
1772561194286725000,7.00072509765625,0.017940152436494827,-0.031532373279333115,0.009318272583186626
1772561194296754200,7.010754150390625,0.017040271311998367,-0.019796622917056084,-0.007160569075495005
1772561194306784300,7.0207841796875,0.018606174737215042,-0.009589091874659061,-0.015873510390520096
1772561194316813800,7.030813720703125,0.016818394884467125,0.004827131517231464,-0.020337499678134918
1772561194326844000,7.040843994140625,0.021678002551198006,0.01304960623383522,-0.02431418001651764
1772561194336873000,7.050873046875,0.023699073120951653,0.02737235277891159,-0.020961526781320572
1772561194346903000,7.060903076171875,0.022260701283812523,0.02863016352057457,-0.029543830081820488
1772561194356933000,7.07093310546875,0.018733344972133636,0.019681409001350403,-0.03658842295408249
1772561194366963200,7.080963134765625,0.015410590916872025,0.007958161644637585,-0.03587450087070465
1772561194376993000,7.090992919921875,0.008555881679058075,0.0017599202692508698,-0.015188930556178093
1772561194387022000,7.10102197265625,0.00036689499393105507,-0.0005979165434837341,0.019927632063627243
1772561194397052200,7.11105224609375,-0.010770711116492748,0.00038532260805368423,0.04223053902387619
1772561194407082000,7.12108203125,-0.017367465421557426,0.007390635088086128,0.045029446482658386
1772561194417112000,7.131112060546875,-0.022711630910634995,0.004051564261317253,0.027803324162960052
1772561194427140900,7.141140869140625,-0.025982500985264778,0.0010125385597348213,0.0002856561914086342
1772561194437171000,7.1511708984375,-0.025229891762137413,0.004703148268163204,-0.014609403908252716
1772561194447201000,7.161200927734375,-0.02510974369943142,0.0040992554277181625,-0.019483737647533417
1772561194457231000,7.171231201171875,-0.027423763647675514,0.00865698978304863,-0.004564177244901657
1772561194467260200,7.18126025390625,-0.02286902442574501,0.012596316635608673,0.01937015727162361
1772561194477290200,7.191290283203125,-0.008813925087451935,0.0066904909908771515,0.029365267604589462
1772561194487320000,7.201320068359375,0.005920304451137781,0.003353724256157875,0.02351348102092743
1772561194497350000,7.211349853515625,0.01359713263809681,0.0008807126432657242,0.014657406136393547
1772561194507379000,7.22137890625,0.01743650808930397,-0.0015285192057490349,0.006538946181535721
1772561194517409000,7.231408935546875,0.018079128116369247,-0.0005378229543566704,-0.0051062582060694695
1772561194527439000,7.241439208984375,0.01591864973306656,0.003132794052362442,-0.008152786642313004
1772561194537469200,7.25146923828125,0.010534802451729774,0.003145577386021614,-0.005835037678480148
1772561194547498000,7.261498046875,0.004748593550175428,-0.0006019109860062599,-0.007495203986763954
1772561194557528000,7.271528076171875,-0.002587083261460066,-0.00652984157204628,-0.006141519173979759
1772561194567558100,7.28155810546875,-0.005909842438995838,-0.011389076709747314,-0.005230967421084642
1772561194577588000,7.291587890625,-0.01136825792491436,-0.012157132849097252,-0.003177137579768896
1772561194587617000,7.301616943359375,-0.011354957707226276,-0.007936760783195496,0.008452014997601509
1772561194597646800,7.311646728515625,-0.011017268523573875,-0.004304476082324982,0.021795250475406647
1772561194607677000,7.321677001953125,-0.010486729443073273,0.0006204023957252502,0.021901831030845642
1772561194617707000,7.33170703125,-0.013377324678003788,-0.0020803092047572136,0.021006209775805473
1772561194627736000,7.341736083984375,-0.016971826553344727,0.000010130926966667175,0.01298808865249157
1772561194637766100,7.35176611328125,-0.02570539526641369,0.004209668375551701,0.006803961470723152
1772561194647796200,7.361796142578125,-0.03113992139697075,0.010471603833138943,-0.007833135314285755
1772561194657826000,7.371825927734375,-0.03411946818232536,0.014299632050096989,-0.015249239280819893
1772561194667855000,7.381855224609375,-0.02868158183991909,0.010962518863379955,-0.024650705978274345
1772561194677885000,7.391885009765625,-0.02374168485403061,0.006038866005837917,-0.02516922354698181
1772561194687915000,7.4019150390625,-0.021089572459459305,0.004394368268549442,-0.01914866641163826
1772561194697945000,7.411945068359375,-0.018163291737437248,-0.008381614461541176,-0.008578846231102943
1772561194707975200,7.42197509765625,-0.016728194430470467,-0.014028269797563553,0.005098256282508373
1772561194718004000,7.43200390625,-0.017865365371108055,-0.014993932098150253,0.01780765876173973
1772561194728034000,7.442033935546875,-0.020367169752717018,-0.010400920175015926,0.024223865941166878
1772561194738064100,7.452064208984375,-0.029019514098763466,-0.0027483273297548294,0.017895398661494255
1772561194748094200,7.46209423828125,-0.024886006489396095,0.0004386166110634804,0.0013162288814783096
1772561194758123000,7.472123046875,-0.020438794046640396,-0.0009949635714292526,-0.018511537462472916
1772561194768154000,7.482154052734375,-0.015809718519449234,-0.003233492374420166,-0.026383722200989723
1772561194778184200,7.49218408203125,-0.017443301156163216,-0.000059271231293678284,-0.016585152596235275
1772561194788214300,7.50221435546875,-0.023279482498764992,-0.001237715594470501,-0.0071363081224262714
1772561194798243000,7.5122431640625,-0.02779087796807289,-0.004415133036673069,-0.0001508370041847229
1772561194808273200,7.522273193359375,-0.032962437719106674,-0.010365335270762444,-0.00246924115344882
1772561194818303200,7.53230322265625,-0.03315391764044762,-0.01025481428951025,-0.003047946374863386
1772561194828333000,7.5423330078125,-0.034668441861867905,-0.00902236346155405,0.0003175651654601097
1772561194838362000,7.552362060546875,-0.027137821540236473,-0.013673041947185993,-0.006962185725569725
1772561194848392200,7.56239208984375,-0.019750438630580902,-0.008429432287812233,-0.004167415201663971
1772561194858422300,7.57242236328125,-0.012204105034470558,-0.011833751574158669,-0.0029298439621925354
1772561194868452000,7.5824521484375,-0.003318467643111944,-0.025831859558820724,-0.007009274326264858
1772561194878481200,7.592481201171875,0.005028678569942713,-0.04343641921877861,-0.0008437898941338062
1772561194888511200,7.60251123046875,0.001961014699190855,-0.05324602872133255,0.0160629004240036
1772561194898541300,7.612541259765625,-0.003620438277721405,-0.05523407831788063,0.0294191874563694
1772561194908571100,7.622571044921875,-0.013006669469177723,-0.04713784530758858,0.04308955371379852
1772561194918600200,7.63260009765625,-0.02457011491060257,-0.035148028284311295,0.043777450919151306
1772561194928630000,7.642630126953125,-0.03314194828271866,-0.0156074408441782,0.03131847828626633
1772561194938660000,7.65266015625,-0.04155487194657326,0.006135671399533749,0.012186859734356403
1772561194948690200,7.662690185546875,-0.04598602280020714,0.01893288642168045,-0.011224718764424324
1772561194958719200,7.67271923828125,-0.04551197960972786,0.028845176100730896,-0.025790613144636154
1772561194968749000,7.6827490234375,-0.03941839188337326,0.032540544867515564,-0.03370988368988037
1772561194978779100,7.692779052734375,-0.03291521966457367,0.038446106016635895,-0.032298408448696136
1772561194988809200,7.702809326171875,-0.03095274232327938,0.039902620017528534,-0.02346726879477501
1772561194998839000,7.712839111328125,-0.032065410166978836,0.04162515327334404,-0.007591367699205875
1772561195008868000,7.7228681640625,-0.039235182106494904,0.03472146764397621,-0.0013797148130834103
1772561195018898200,7.732898193359375,-0.039007216691970825,0.02736901491880417,0.007401525974273682
1772561195028928300,7.74292822265625,-0.044041577726602554,0.012934904545545578,0.009308713488280773
1772561195038958000,7.7529580078125,-0.04002126678824425,0.0019461698830127716,0.01799115166068077
1772561195048987100,7.762987060546875,-0.036396369338035583,-0.009737417101860046,0.026124991476535797
1772561195059017200,7.773017333984375,-0.030817048624157906,-0.017073892056941986,0.03683516010642052
1772561195069047300,7.78304736328125,-0.026940835639834404,-0.011683543212711811,0.04614417999982834
1772561195079077000,7.7930771484375,-0.017458917573094368,-0.00815698504447937,0.04083676636219025
1772561195089106200,7.803106201171875,-0.002026221714913845,-0.0020514698699116707,0.02290957421064377
1772561195099136000,7.813135986328125,0.012104244902729988,0.0033526169136166573,0.0011805761605501175
1772561195109166000,7.823166015625,0.020464157685637474,0.005859510973095894,-0.012661541812121868
1772561195119196200,7.833196044921875,0.024302303791046143,0.01005478948354721,-0.013917222619056702
1772561195129225200,7.84322509765625,0.020925214514136314,0.005258186720311642,-0.008771440014243126
1772561195139255000,7.853255126953125,0.01951480284333229,0.0019513405859470367,-0.010105683468282223
1772561195149285000,7.86328515625,0.02360069938004017,-0.008070684038102627,-0.006435922812670469
1772561195159315200,7.873315185546875,0.025480622425675392,-0.0073561579920351505,0.001716812141239643
1772561195169344300,7.88334423828125,0.0236897524446249,-0.009659700095653534,0.012753559276461601
1772561195179374300,7.893374267578125,0.021980803459882736,-0.011493286117911339,0.02334095723927021
1772561195189404200,7.903404052734375,0.025851450860500336,-0.01103232428431511,0.03430482745170593
1772561195199434200,7.913434326171875,0.02119358256459236,-0.016711248084902763,0.03296898677945137
1772561195209463000,7.923463134765625,0.018251385539770126,-0.007212535478174686,0.024261273443698883
1772561195219493000,7.9334931640625,0.015332560986280441,0.00045736879110336304,0.009341711178421974
1772561195229523200,7.943523193359375,0.00714412285014987,0.008758504875004292,-0.008552405051887035
1772561195239553300,7.95355322265625,-0.0020323311910033226,0.013714115135371685,-0.021409081295132637
1772561195249583400,7.963583251953125,-0.0078375693410635,0.023889832198619843,-0.022057924419641495
1772561195259612200,7.973612060546875,-0.012471203692257404,0.02790508046746254,-0.008472607471048832
1772561195269642200,7.983642333984375,-0.010594263672828674,0.024087119847536087,0.0009298259392380714
1772561195279672000,7.993672119140625,-0.0070815542712807655,0.02037094533443451,0.006073455326259136
1772561195289702100,8.0037021484375,-0.0017676129937171936,0.015914950519800186,0.010699852369725704
1772561195299731200,8.013731201171876,0.0062879170291125774,0.012709303759038448,0.011862854473292828
1772561195309761000,8.023760986328124,0.010382251814007759,0.015039600431919098,0.0034023551270365715
1772561195319791000,8.033791015625,0.014650767669081688,0.013626527041196823,-0.006538958754390478
1772561195329821200,8.0438212890625,0.01599087007343769,0.017555223777890205,-0.012884206138551235
1772561195339850200,8.053850341796876,0.01640898548066616,0.012632103636860847,-0.023608222603797913
1772561195349880300,8.06388037109375,0.017843209207057953,0.008054756559431553,-0.02594730630517006
1772561195359910100,8.07391015625,0.017441606149077415,0.015915077179670334,-0.00910254567861557
1772561195369940200,8.083940185546876,0.01753627136349678,0.006637451238930225,0.007864335551857948
1772561195379969000,8.093968994140624,0.01710217446088791,0.0017209900543093681,0.019951358437538147
1772561195389999000,8.1039990234375,0.01421896368265152,-0.004326238296926022,0.030173707753419876
1772561195400029200,8.114029296875,0.01055338978767395,-0.01226165983825922,0.03580336272716522
1772561195410059300,8.124059326171874,0.010115532204508781,-0.017191806808114052,0.027498412877321243
1772561195420088000,8.134088134765625,0.0033516366966068745,-0.01568499021232128,0.014319494366645813
1772561195430118100,8.1441181640625,0.0013802438043057919,-0.01164636854082346,-0.00284871319308877
1772561195440148200,8.154148193359376,-0.0025620339438319206,-0.008157627657055855,-0.022645587101578712
1772561195450178000,8.164177978515625,-0.0012145787477493286,0.0007095020264387131,-0.032418929040431976
1772561195460207000,8.17420703125,0.0018888027407228947,0.001292201690375805,-0.02870754897594452
1772561195470237200,8.1842373046875,-0.0009077899158000946,-0.003764844499528408,-0.023435458540916443
1772561195480267000,8.19426708984375,-0.002412209752947092,-0.0033832136541604996,-0.005531026981770992
1772561195490297000,8.204297119140625,-0.00014054914936423302,-0.007990952581167221,0.018188610672950745
1772561195500326100,8.214326171875,-0.0035078502260148525,-0.0118695804849267,0.03628798574209213
1772561195510356200,8.224356201171876,-0.011952574364840984,-0.025189999490976334,0.033418357372283936
1772561195520386300,8.23438623046875,-0.015304695814847946,-0.032235391438007355,0.031190089881420135
1772561195530416000,8.244416015625,-0.018715493381023407,-0.03717254847288132,0.020351026207208633
1772561195540445200,8.254445068359376,-0.015456849709153175,-0.03925168141722679,0.010895472019910812
1772561195550475000,8.26447509765625,-0.015346216037869453,-0.03761427104473114,0.003587733954191208
1772561195560505000,8.274505126953125,-0.015049006789922714,-0.029991239309310913,-0.002856849692761898
1772561195570535200,8.28453515625,-0.015153085812926292,-0.01609855704009533,-0.00976300984621048
1772561195580564200,8.294564208984376,-0.017391473054885864,0.004034406505525112,-0.01235506497323513
1772561195590594000,8.304593994140625,-0.019198210909962654,0.009813163429498672,-0.014956389553844929
1772561195600624000,8.3146240234375,-0.01617525704205036,0.013333063572645187,-0.01931971311569214
1772561195610654200,8.324654296875,-0.015542925335466862,0.011590675450861454,-0.012444859370589256
1772561195620684000,8.33468408203125,-0.008594205603003502,-0.003799465484917164,-0.009980636648833752
1772561195630713300,8.34471337890625,-0.0002667028456926346,-0.021225040778517723,0.00257859006524086
1772561195640743200,8.3547431640625,-0.0016851024702191353,-0.026590244844555855,0.01683981716632843
1772561195650773000,8.36477294921875,-0.0050379429012537,-0.034654874354600906,0.025546852499246597
1772561195660803000,8.374802978515625,-0.008476350456476212,-0.035973403602838516,0.03361649811267853
1772561195670832000,8.38483203125,-0.010004538111388683,-0.0316559374332428,0.02822791412472725
1772561195680862200,8.3948623046875,-0.015624873340129852,-0.025860898196697235,0.02065495029091835
1772561195690892300,8.404892333984375,-0.021069664508104324,-0.01627284288406372,0.007114340551197529
1772561195700922400,8.41492236328125,-0.025172531604766846,-0.00254904106259346,0.0008700266480445862
1772561195710951200,8.424951171875,-0.021897971630096436,0.010397098958492279,-0.0047354185953736305
1772561195720981200,8.434981201171874,-0.015444332733750343,0.007458033040165901,-0.01562135573476553
1772561195731011000,8.445010986328125,-0.005980144254863262,0.007422443479299545,-0.01770823448896408
1772561195741041200,8.455041259765625,-0.0014330632984638214,0.007359594106674194,-0.013422142714262009
1772561195751070200,8.4650703125,0.0010934681631624699,0.002832784317433834,-0.0036951168440282345
1772561195761100000,8.47510009765625,-0.00034463871270418167,-0.008668076246976852,0.005162290297448635
1772561195771129000,8.485129150390625,0.0011633732356131077,-0.015057272277772427,0.018474949523806572
1772561195781159200,8.4951591796875,-0.002364782150834799,-0.023363672196865082,0.023293672129511833
1772561195791188200,8.505188232421874,-0.009748284704983234,-0.02761504426598549,0.02472669817507267
1772561195801218300,8.51521826171875,-0.014345433562994003,-0.029882458969950676,0.021364722400903702
1772561195811248400,8.525248291015625,-0.014517465606331825,-0.02782147005200386,0.019984040409326553
1772561195821278200,8.5352783203125,-0.008074745535850525,-0.025320494547486305,0.020008809864521027
1772561195831307300,8.545307373046874,0.0007622544653713703,-0.010219188407063484,0.020845212042331696
1772561195841337000,8.555337158203125,0.0031263423152267933,-0.0017412817105650902,0.017271779477596283
1772561195851367200,8.5653671875,0.003291530068963766,0.007390686310827732,0.011410623788833618
1772561195861397200,8.575397216796874,0.0044057960622012615,0.011797153390944004,-0.0063750301487743855
1772561195871427300,8.58542724609375,0.004503630567342043,0.012401583604514599,-0.01787572354078293
1772561195881456000,8.5954560546875,0.005700720939785242,0.00903481524437666,-0.029031969606876373
1772561195891486200,8.605486328125,-0.0013931565918028355,0.010327843017876148,-0.027056243270635605
1772561195901516300,8.615516357421875,-0.004252060316503048,0.008635402657091618,-0.010099629871547222
1772561195911546000,8.625546142578125,-0.005936887580901384,0.003936690278351307,0.00829751044511795
1772561195921576200,8.635576171875,-0.008258365094661713,-0.00016431231051683426,0.029941819608211517
1772561195931606300,8.645606201171875,-0.011586170643568039,0.0032250508666038513,0.0431450717151165
1772561195941636400,8.65563623046875,-0.009534205310046673,-0.0006386628374457359,0.04146860912442207
1772561195951665200,8.6656650390625,-0.009399755857884884,0.00697280652821064,0.03255842626094818
1772561195961695200,8.6756953125,-0.004942156840115786,0.002705889753997326,0.018911054357886314
1772561195971725300,8.685725341796875,0.000139548908919096,0.0003804517909884453,-0.0028567779809236526
1772561195981755100,8.695755126953125,0.008946621790528297,-0.0033919159322977066,-0.00982094369828701
1772561195991784400,8.705784423828124,0.012679534032940865,0.0009348113089799881,0.002811180427670479
1772561196001814000,8.71581396484375,0.012142907828092575,0.0037971781566739082,0.01648411527276039
1772561196011844000,8.725843994140625,0.007145752664655447,0.009708861820399761,0.030451331287622452
1772561196021874200,8.735874267578126,0.005770495627075434,0.01361491996794939,0.02717750519514084
1772561196031903200,8.7459033203125,0.00013796938583254814,0.017351871356368065,0.016033358871936798
1772561196041933300,8.755933349609375,-0.003310025669634342,0.016678357496857643,-0.0022745421156287193
1772561196051963400,8.76596337890625,-0.00700985174626112,0.014542637392878532,-0.01137714833021164
1772561196061993500,8.775993408203124,-0.008703355677425861,0.01277829147875309,-0.0031511769630014896
1772561196072022300,8.786022216796875,-0.010464520193636417,0.014353614300489426,0.003071758896112442
1772561196082052400,8.79605224609375,-0.009749460965394974,0.012044120579957962,0.010810637846589088
1772561196092082200,8.806082275390626,-0.01101275347173214,0.014634676277637482,0.010489704087376595
1772561196102112300,8.8161123046875,-0.007902979850769043,0.0106564462184906,0.012248188257217407
1772561196112141000,8.82614111328125,-0.007262763567268848,0.017119169235229492,0.01738232746720314
1772561196122171100,8.836171142578126,-0.0032674893736839294,0.019006285816431046,0.018124816939234734
1772561196132201200,8.846201171875,-0.0034828553907573223,0.01761149987578392,0.009783091954886913
1772561196142231300,8.856231201171875,0.004434456583112478,0.007763129658997059,-0.0027686534449458122
1772561196152260400,8.86626025390625,0.007395056542009115,-0.00128958560526371,-0.008686339482665062
1772561196162290400,8.87629052734375,0.004556393716484308,-0.015053333714604378,-0.008863972499966621
1772561196172320000,8.886320068359375,0.006501501891762018,-0.02184201404452324,0.0006642621010541916
1772561196182350000,8.89635009765625,0.006268475670367479,-0.026148878037929535,0.01756148785352707
1772561196192379100,8.906379150390626,0.006527044344693422,-0.02763616107404232,0.030707672238349915
1772561196202409200,8.9164091796875,0.0019855559803545475,-0.018682613968849182,0.037698470056056976
1772561196212439300,8.926439208984375,-0.0038950503803789616,-0.006547079421579838,0.03722938895225525
1772561196222469400,8.936469482421876,-0.009000862948596478,-0.0023826947435736656,0.02597327157855034
1772561196232498200,8.946498291015626,-0.00525354640558362,0.004019645042717457,0.00752974022179842
1772561196242528300,8.9565283203125,-0.0002798270434141159,0.015816114842891693,0.00021909642964601517
1772561196252558300,8.966558349609375,0.0011866786517202854,0.022654959931969643,-0.006001946981996298
1772561196262588200,8.976588134765626,0.0025611366145312786,0.02166719175875187,-0.006100750528275967
1772561196272617200,8.9866171875,0.003776928875595331,0.016670309007167816,0.0020084278658032417
1772561196282647000,8.99664697265625,0.004006493370980024,0.010562081821262836,0.008744361810386181
1772561196292677000,9.006677001953125,-0.0024208948016166687,0.003129412420094013,0.020780012011528015
1772561196302707200,9.016707275390624,-0.0008011600002646446,-0.0027058403939008713,0.03832758218050003
1772561196312737300,9.0267373046875,0.003634497057646513,-0.00819794274866581,0.046049609780311584
1772561196322766300,9.036766357421875,0.008058806881308556,-0.013495502062141895,0.04801901802420616
1772561196332796400,9.04679638671875,0.008091030642390251,-0.022774221375584602,0.04035736992955208
1772561196342826200,9.056826171875,0.01337447576224804,-0.0273364819586277,0.02905597910284996
1772561196352856000,9.06685595703125,0.01526251994073391,-0.03097086027264595,0.028476789593696594
1772561196362885000,9.076885009765626,0.010163631290197372,-0.0286208875477314,0.028854425996541977
1772561196372915200,9.086915283203124,0.007197716739028692,-0.023895561695098877,0.030223511159420013
1772561196382945300,9.0969453125,0.0059825158677995205,-0.01374119520187378,0.040387995541095734
1772561196392975400,9.106975341796876,0.004488378297537565,-0.00632814783602953,0.04107368737459183
1772561196403004200,9.117004150390626,0.004669207613915205,-0.002300649881362915,0.027682246640324593
1772561196413034200,9.1270341796875,0.0030122515745460987,-0.0015568109229207039,0.004327681846916676
1772561196423064300,9.137064208984375,-0.00023067928850650787,-0.0026633543893694878,-0.00827945675700903
1772561196433094100,9.14709423828125,-0.010913094505667686,0.0013458169996738434,-0.013476230204105377
1772561196443123500,9.15712353515625,-0.01139059942215681,0.0056683942675590515,-0.004945059306919575
1772561196453153000,9.167153076171875,-0.010567672550678253,0.012056175619363785,0.007680087350308895
1772561196463183000,9.17718310546875,-0.005495681893080473,0.013578172773122787,0.020885106176137924
1772561196473213200,9.187213134765624,0.0011256295256316662,0.01772649586200714,0.025136243551969528
1772561196483242200,9.1972421875,0.0037163528613746166,0.018837833777070045,0.014937667176127434
1772561196493272300,9.207272216796875,0.011797165498137474,0.010084616020321846,-0.00035134609788656235
1772561196503302400,9.217302490234376,0.014453668147325516,0.00328210461884737,-0.009356292895972729
1772561196513332200,9.227332275390625,0.011740537360310555,-0.0040595391765236855,-0.010889306664466858
1772561196523361300,9.237361328125,0.006396637763828039,-0.011381101794540882,0.00035242922604084015
1772561196533391400,9.247391357421876,0.0048422799445688725,-0.017385467886924744,0.016555149108171463
1772561196543421200,9.257421142578124,0.003674750681966543,-0.026584027335047722,0.022836215794086456
1772561196553451300,9.267451171875,0.005216995719820261,-0.031050443649291992,0.033000074326992035
1772561196563480000,9.27747998046875,0.00886978767812252,-0.03109438717365265,0.036535151302814484
1772561196573510100,9.28751025390625,0.013470366597175598,-0.024401474744081497,0.03658667206764221
1772561196583540200,9.297540283203125,0.014839764684438705,-0.018724413588643074,0.02327246591448784
1772561196593570300,9.3075703125,0.012943882495164871,-0.018518909811973572,0.011944152414798737
1772561196603599400,9.317599365234376,0.012344937771558762,-0.019076842814683914,-0.0015652645379304886
1772561196613629400,9.32762939453125,0.007597158197313547,-0.01800745353102684,-0.013289492577314377
1772561196623659000,9.337658935546875,0.0040247938595712185,-0.01118097361177206,-0.006986323278397322
1772561196633689000,9.347689208984375,-0.005948896054178476,-0.016870494931936264,0.0016122004017233849
1772561196643719200,9.35771923828125,-0.003552849870175123,-0.018799424171447754,0.010749506764113903
1772561196653748200,9.367748291015625,0.0010507465340197086,-0.01266105193644762,0.02718692272901535
1772561196663778300,9.3777783203125,-0.0014859149232506752,-0.008672169409692287,0.03525790199637413
1772561196673808400,9.387808349609376,-0.0024893456138670444,-0.012808776460587978,0.03135392442345619
1772561196683838200,9.397838134765625,0.0013565258122980595,-0.019965488463640213,0.0153999924659729
1772561196693867300,9.4078671875,-0.003931173123419285,-0.019982032477855682,0.006657803431153297
1772561196703897300,9.4178974609375,-0.003891225904226303,-0.008164254948496819,0.006990165449678898
1772561196713927200,9.42792724609375,-0.006832662969827652,0.002585234120488167,0.0016885856166481972
1772561196723957200,9.437957275390625,-0.004855265840888023,0.008497185073792934,-0.014924213290214539
1772561196733986000,9.447986083984375,-0.0016810842789709568,0.012536558322608471,-0.020545661449432373
1772561196744016100,9.45801611328125,-0.004966892302036285,0.0276113823056221,-0.018590368330478668
1772561196754046200,9.468046142578125,-0.0038884817622601986,0.02012672647833824,-0.013053755275905132
1772561196764076000,9.478075927734375,-0.0015129423700273037,0.010228288359940052,-0.011825505644083023
1772561196774104800,9.488104736328125,-0.00005679065361618996,-0.0038409410044550896,-0.004425934981554747
1772561196784135000,9.498135009765624,-0.0009798426181077957,-0.022091582417488098,0.010554878041148186
1772561196794165000,9.5081650390625,-0.005239785648882389,-0.030261285603046417,0.0332082100212574
1772561196804194800,9.51819482421875,-0.009627076797187328,-0.03364669531583786,0.04445846751332283
1772561196814224100,9.52822412109375,-0.005769561044871807,-0.03662675619125366,0.04378316178917885
1772561196824253700,9.538253662109375,-0.003314126282930374,-0.03594605252146721,0.029195964336395264
1772561196834283800,9.54828369140625,0.005280387122184038,-0.03285423666238785,0.009835267439484596
1772561196844313900,9.55831396484375,0.00489902263507247,-0.015557004138827324,-0.005326374433934689
1772561196854343000,9.568343017578124,0.008625326678156853,-0.006545164156705141,-0.01871764287352562
1772561196864373000,9.578373046875,0.012434978038072586,0.007596754468977451,-0.015064852312207222
1772561196874403000,9.588403076171875,0.01034683920443058,0.023548103868961334,-0.004773646127432585
1772561196884433200,9.59843310546875,0.006778204347938299,0.022573120892047882,0.002964700572192669
1772561196894462000,9.6084619140625,-0.00040283985435962677,0.012608243152499199,-0.0026600733399391174
1772561196904491800,9.61849169921875,0.00383531441912055,0.004894929006695747,0.0024968720972537994
1772561196914521900,9.62852197265625,0.0072322734631598,-0.003569001331925392,0.018094118684530258
1772561196924552000,9.638552001953125,0.0095050148665905,-0.011567805893719196,0.02862771973013878
1772561196934580700,9.648580810546875,0.022377604618668556,-0.014234481379389763,0.03483559936285019
1772561196944610800,9.65861083984375,0.025142500177025795,-0.014301060698926449,0.026568083092570305
1772561196954641000,9.668640869140624,0.026119794696569443,-0.011198371648788452,0.013698543421924114
1772561196964671000,9.6786708984375,0.02700423076748848,-0.007523476146161556,-0.0008353921584784985
1772561196974700000,9.688699951171875,0.023688767105340958,-0.007672227919101715,-0.008563082665205002
1772561196984730000,9.698730224609376,0.026739686727523804,-0.0035206256434321404,-0.005124409683048725
1772561196994759700,9.708759765625,0.02676255814731121,-0.00901593454182148,-0.003988982178270817
1772561197004789800,9.718789794921875,0.02333427034318447,-0.005992979742586613,0.001094193197786808
1772561197014818800,9.72881884765625,0.020104436203837395,-0.0070291366428136826,0.01052146777510643
1772561197024849000,9.738848876953124,0.005719637963920832,-0.0033534420654177666,0.016318904235959053
1772561197034879000,9.74887890625,-0.00280591519549489,-0.0019830726087093353,0.01822010800242424
1772561197044909000,9.758908935546875,-0.009379396215081215,-0.007698482368141413,0.01193238515406847
1772561197054939000,9.76893896484375,-0.013526251539587975,-0.007347824051976204,0.003994617611169815
1772561197064968000,9.778968017578125,-0.012267641723155975,0.0005154255777597427,-0.0000371420755982399
1772561197074998000,9.788998046875,-0.011110457591712475,0.008428320288658142,-0.0033553936518728733
1772561197085027800,9.79902783203125,-0.0038067386485636234,0.02284907177090645,-0.006950128357857466
1772561197095058000,9.809057861328125,0.004257765132933855,0.04145262762904167,-0.009219236671924591
1772561197105086700,9.819086669921875,0.0053659058175981045,0.049709759652614594,-0.01835015043616295
1772561197115116800,9.82911669921875,0.01404246874153614,0.05019957572221756,-0.02793254517018795
1772561197125147000,9.83914697265625,0.012738319113850594,0.037059005349874496,-0.03624320402741432
1772561197135177000,9.849177001953125,0.012530939653515816,0.030862320214509964,-0.03251734375953674
1772561197145206000,9.8592060546875,0.01183878444135189,0.026097126305103302,-0.018566641956567764
1772561197155236000,9.869236083984376,0.007989967241883278,0.021391114220023155,-0.011274980381131172
1772561197165266000,9.879265869140625,0.010038737207651138,0.014165161177515984,-0.009663235396146774
1772561197175295700,9.889295654296875,0.01049436442553997,0.012877145782113075,-0.0031523872166872025
1772561197185324800,9.89932470703125,0.001141075510531664,0.02463447116315365,0.01948847621679306
1772561197195355000,9.90935498046875,-0.010168982669711113,0.04585699364542961,0.0489538311958313
1772561197205385000,9.919385009765625,-0.02976265922188759,0.11647416651248932,0.10767307132482529
1772561197215415000,9.9294150390625,-0.04285774379968643,0.10030687600374222,0.09502853453159332
1772561197225443800,9.93944384765625,-0.0340551994740963,0.05309408903121948,0.024406293407082558
1772561197235474000,9.949473876953125,-0.03812460973858833,0.004156779497861862,-0.03219553828239441
1772561197245504000,9.95950390625,-0.047521840780973434,-0.021385066211223602,-0.025612205266952515
1772561197255533800,9.969533935546876,-0.05342043191194534,-0.03650827705860138,0.01561028603464365
1772561197265563100,9.979563232421874,-0.05931693688035011,-0.04710898920893669,0.05271903797984123
1772561197275592700,9.9895927734375,-0.051366645842790604,-0.050818055868148804,0.05586826801300049
1772561197285622800,9.999622802734375,-0.045179590582847595,-0.04048552364110947,0.015566656365990639
1772561197295652900,10.00965283203125,-0.038835443556308746,-0.041134946048259735,-0.05123542249202728
1772561197305682000,10.019681884765625,-0.023961152881383896,-0.006262981332838535,-0.1043228730559349
1772561197315712000,10.0297119140625,-0.028602859005331993,0.011687872000038624,-0.13770437240600586
1772561197325742000,10.0397421875,-0.027151169255375862,0.010909696109592915,-0.15268836915493011
1772561197335772000,10.04977197265625,-0.004650791175663471,-0.013179129920899868,-0.15060466527938843
