time,seconds_elapsed,z,y,x
1772623553603915500,0.07591552734375,-0.12494539469480515,0.36365509033203125,-0.3738074004650116
1772623553613944600,0.085944580078125,-0.06598487496376038,0.4223407804965973,-0.4507450759410858
1772623553623974700,0.095974609375,0.005698561668395996,0.4185437560081482,-0.4944661259651184
1772623553634004500,0.10600439453125,0.08179093152284622,0.37307026982307434,-0.5033499002456665
1772623553644033500,0.116033447265625,0.1526828110218048,0.31035730242729187,-0.46698880195617676
1772623553654063400,0.1260634765625,0.21595498919487,0.25911620259284973,-0.40729591250419617
1772623553664093400,0.136093505859375,0.26318347454071045,0.2187262326478958,-0.3387611508369446
1772623553674122500,0.14612255859375,0.2739061713218689,0.17035497725009918,-0.26683396100997925
1772623553684152300,0.15615234375,0.25495532155036926,0.12172049283981323,-0.19702905416488647
1772623553694182400,0.166182373046875,0.21151915192604065,0.07491755485534668,-0.14436239004135132
1772623553704211500,0.17621142578125,0.15589721500873566,0.016543786972761154,-0.12512269616127014
1772623553714241500,0.186241455078125,0.09343570470809937,-0.04371076449751854,-0.1507660150527954
1772623553724271600,0.196271728515625,0.017871003597974777,-0.09136808663606644,-0.1994589865207672
1772623553734301400,0.206301513671875,-0.074042409658432,-0.11340760439634323,-0.26130157709121704
1772623553744330500,0.21633056640625,-0.16566024720668793,-0.10309670120477676,-0.32871201634407043
1772623553754360300,0.2263603515625,-0.23297138512134552,-0.06632271409034729,-0.3833198547363281
1772623553764390400,0.236390380859375,-0.2677776515483856,0.0030947718769311905,-0.40740957856178284
1772623553774419500,0.24641943359375,-0.27710962295532227,0.08366018533706665,-0.38837358355522156
1772623553784449300,0.25644921875,-0.250293105840683,0.18003512918949127,-0.33331581950187683
1772623553794479400,0.266479248046875,-0.197801411151886,0.25649183988571167,-0.25077033042907715
1772623553804508400,0.27650830078125,-0.1210089772939682,0.31290242075920105,-0.15248194336891174
1772623553814538500,0.28653857421875,-0.042264096438884735,0.3359435498714447,-0.047872185707092285
1772623553824568600,0.296568603515625,0.024515297263860703,0.2928415834903717,0.05524593964219093
1772623553834598700,0.3065986328125,0.0877792239189148,0.19354134798049927,0.14604268968105316
1772623553844627500,0.31662744140625,0.14727772772312164,0.05945316702127457,0.2249382883310318
1772623553854657500,0.326657470703125,0.18194462358951569,-0.07317624986171722,0.28522080183029175
1772623553864687400,0.336687255859375,0.17422707378864288,-0.19721463322639465,0.3201894164085388
1772623553874716400,0.34671630859375,0.12842682003974915,-0.29890209436416626,0.32684358954429626
1772623553884746500,0.35674658203125,0.08540009707212448,-0.3320809006690979,0.303073525428772
1772623553894776300,0.3667763671875,0.044570375233888626,-0.31407952308654785,0.25527459383010864
1772623553904805400,0.376805419921875,-0.0006728540174663067,-0.2466157227754593,0.19912700355052948
1772623553914835500,0.38683544921875,-0.07081838697195053,-0.1318334937095642,0.1598203480243683
1772623553924865500,0.396865478515625,-0.14142954349517822,0.017921656370162964,0.1385100930929184
1772623553934894600,0.40689453125,-0.18894033133983612,0.193165123462677,0.1411985456943512
1772623553944924400,0.41692431640625,-0.1961963027715683,0.36709901690483093,0.16499561071395874
1772623553954954500,0.42695458984375,-0.16349002718925476,0.5078255534172058,0.19956369698047638
1772623553964984300,0.436984375,-0.11274845898151398,0.5693638324737549,0.23180213570594788
1772623553975013400,0.447013427734375,-0.045457564294338226,0.5455679893493652,0.2469044029712677
1772623553985043500,0.45704345703125,0.020170854404568672,0.44172123074531555,0.2377321422100067
1772623553995073500,0.467073486328125,0.0783044695854187,0.3476714491844177,0.20740379393100739
1772623554005102300,0.477102294921875,0.12522821128368378,0.2807377576828003,0.1634053736925125
1772623554015132400,0.48713232421875,0.16818340122699738,0.2526571452617645,0.11046145856380463
1772623554025162500,0.49716259765625,0.22098736464977264,0.21362537145614624,0.061735328286886215
1772623554035191600,0.507191650390625,0.2685692608356476,0.13387009501457214,0.01970718428492546
1772623554045221600,0.5172216796875,0.28273019194602966,-0.025587528944015503,-0.03736276552081108
1772623554055251500,0.52725146484375,0.26032793521881104,-0.27270570397377014,-0.09703727811574936
1772623554065281300,0.53728125,0.20835904777050018,-0.5368297100067139,-0.14812703430652618
1772623554075310600,0.547310546875,0.13534767925739288,-0.7357395887374878,-0.16993805766105652
1772623554085340400,0.55734033203125,0.06349371373653412,-0.8375850915908813,-0.14452756941318512
1772623554095370500,0.56737060546875,-0.012716367840766907,-0.8136438131332397,-0.04589260369539261
1772623554105399300,0.5773994140625,-0.07966367900371552,-0.6339540481567383,0.1136227399110794
1772623554115429400,0.587429443359375,-0.12247931957244873,-0.3646155595779419,0.29131069779396057
1772623554125459500,0.59745947265625,-0.12319545447826385,-0.07110942155122757,0.42403528094291687
1772623554135488500,0.607488525390625,-0.07240178436040878,0.20047442615032196,0.4722467362880707
1772623554145518600,0.6175185546875,0.035855330526828766,0.38522055745124817,0.4269729554653168
1772623554155548400,0.62754833984375,0.18031078577041626,0.44638457894325256,0.3188672661781311
1772623554165577500,0.637577392578125,0.34066343307495117,0.40651553869247437,0.17939822375774384
1772623554175607600,0.647607666015625,0.483868271112442,0.30866727232933044,0.04055139794945717
1772623554185637400,0.657637451171875,0.5867751836776733,0.1658344715833664,-0.08987051993608475
1772623554195667500,0.66766748046875,0.6185741424560547,0.02216731384396553,-0.1995735913515091
1772623554205696300,0.6776962890625,0.5890171527862549,-0.12383478879928589,-0.2978458106517792
1772623554215726300,0.687726318359375,0.5062223672866821,-0.2425270825624466,-0.3792961835861206
1772623554225756400,0.69775634765625,0.37212687730789185,-0.327907532453537,-0.4485255181789398
1772623554235785500,0.707785400390625,0.2015969604253769,-0.43003416061401367,-0.5066724419593811
1772623554245815600,0.717815673828125,0.013234198093414307,-0.5105043053627014,-0.5175465941429138
1772623554255845600,0.727845703125,-0.16462181508541107,-0.4988851845264435,-0.4772346317768097
1772623554265874400,0.73787451171875,-0.33523041009902954,-0.43755415081977844,-0.4301163852214813
1772623554275904500,0.747904541015625,-0.4489052891731262,-0.37984398007392883,-0.38974711298942566
1772623554285934300,0.757934326171875,-0.46556997299194336,-0.3241075873374939,-0.33382850885391235
1772623554295964400,0.76796435546875,-0.40068337321281433,-0.2659577429294586,-0.26083847880363464
1772623554305993500,0.777993408203125,-0.2890991270542145,-0.16100740432739258,-0.16926667094230652
1772623554316023300,0.788023193359375,-0.145440474152565,-0.05122684687376022,-0.07151588052511215
1772623554326053400,0.798053466796875,0.023761916905641556,0.05844484269618988,0.026965893805027008
1772623554336082400,0.80808251953125,0.17746971547603607,0.11317786574363708,0.10760162025690079
1772623554346112500,0.818112548828125,0.28808286786079407,0.12098618596792221,0.16770902276039124
1772623554356142600,0.828142578125,0.35323578119277954,0.09310635924339294,0.19551882147789001
1772623554366171400,0.83817138671875,0.380562424659729,0.014275841414928436,0.18670570850372314
1772623554376201500,0.848201416015625,0.36928820610046387,-0.09634014964103699,0.162190780043602
1772623554386231300,0.858231201171875,0.3336074948310852,-0.23181739449501038,0.14595234394073486
1772623554396261400,0.868261474609375,0.28871646523475647,-0.3326910138130188,0.1439666897058487
1772623554406290400,0.87829052734375,0.24486461281776428,-0.35376641154289246,0.15744075179100037
1772623554416320500,0.888320556640625,0.20798836648464203,-0.31093719601631165,0.1790056973695755
1772623554426350300,0.898350341796875,0.18277689814567566,-0.24380651116371155,0.18612918257713318
1772623554436379400,0.90837939453125,0.16689300537109375,-0.17460455000400543,0.18838167190551758
1772623554446409500,0.918409423828125,0.15761864185333252,-0.10518745332956314,0.18309636414051056
1772623554456439600,0.928439453125,0.15454667806625366,-0.06312441825866699,0.1580354869365692
1772623554466468400,0.93846826171875,0.15212449431419373,-0.05910021811723709,0.1211543008685112
1772623554476498400,0.94849853515625,0.155634805560112,-0.04532555490732193,0.08720485121011734
1772623554486528500,0.958528564453125,0.17067590355873108,-0.02290024235844612,0.06645117700099945
1772623554496558300,0.968558349609375,0.17980575561523438,0.00023517105728387833,0.04844661056995392
1772623554506587400,0.97858740234375,0.18238428235054016,0.031550101935863495,0.04126225411891937
1772623554516613600,0.988613525390625,0.18931461870670319,0.07651863992214203,0.04069340229034424
1772623554526643700,0.998643798828125,0.19468340277671814,0.09322220832109451,0.05092940106987953
1772623554536672800,1.0086728515625,0.1915629804134369,0.08205211162567139,0.04948197305202484
1772623554546702800,1.018702880859375,0.16859477758407593,0.05519860237836838,0.03844017535448074
1772623554556733000,1.02873291015625,0.1252765953540802,0.057953909039497375,0.014735112898051739
1772623554566761700,1.03876171875,0.07608116418123245,0.0812673270702362,-0.0005655372515320778
1772623554576791800,1.048791748046875,0.027159433811903,0.06310164928436279,-0.005337921902537346
1772623554586822000,1.05882177734375,-0.008814038708806038,0.014969750307500362,-0.003090278245508671
1772623554596851700,1.068851806640625,-0.026177581399679184,-0.04784303158521652,-0.009354298934340477
1772623554606881000,1.078881103515625,-0.04467005655169487,-0.1202884316444397,-0.020088661462068558
1772623554616910800,1.088910888671875,-0.07384392619132996,-0.16596883535385132,-0.03618880361318588
1772623554626940700,1.098940673828125,-0.11540902405977249,-0.17218437790870667,-0.03723732382059097
1772623554636969700,1.1089697265625,-0.159557044506073,-0.15775883197784424,-0.03192218765616417
1772623554646999800,1.118999755859375,-0.19689825177192688,-0.11160166561603546,-0.009856889955699444
1772623554657030000,1.12902978515625,-0.20819351077079773,-0.048127349466085434,0.027105655521154404
1772623554667059000,1.139058837890625,-0.18565857410430908,0.028899148106575012,0.08122912794351578
1772623554677088800,1.1490888671875,-0.13263797760009766,0.11304332315921783,0.1371384561061859
1772623554687118800,1.159118896484375,-0.055592410266399384,0.14819346368312836,0.17438842356204987
1772623554697148700,1.169148681640625,0.029793594032526016,0.14090199768543243,0.1868104636669159
1772623554707178000,1.179177978515625,0.09876598417758942,0.11499396711587906,0.17722347378730774
1772623554717207800,1.189207763671875,0.13292795419692993,0.07406836748123169,0.14493636786937714
1772623554727238000,1.19923779296875,0.13037526607513428,-0.013615869916975498,0.07685017585754395
1772623554737266700,1.2092666015625,0.08279789984226227,-0.14075997471809387,-0.01375269703567028
1772623554747296800,1.219296875,-0.013745753094553947,-0.2813877761363983,-0.1384754627943039
1772623554757326800,1.229326904296875,-0.16371473670005798,-0.3928098976612091,-0.2684776782989502
1772623554767356000,1.23935595703125,-0.331482470035553,-0.4199335277080536,-0.38471078872680664
1772623554777385700,1.2493857421875,-0.4976426661014557,-0.3299783170223236,-0.46369668841362
1772623554787415800,1.259415771484375,-0.636114239692688,-0.14251457154750824,-0.47836846113204956
1772623554797446000,1.26944580078125,-0.7491292357444763,0.09651611000299454,-0.42985764145851135
1772623554807475000,1.279474853515625,-0.8093708753585815,0.3597283661365509,-0.33338838815689087
1772623554817504800,1.2895048828125,-0.7888328433036804,0.5892206430435181,-0.21911907196044922
1772623554827534800,1.299534912109375,-0.6849165558815002,0.7460653185844421,-0.10270841419696808
1772623554837563600,1.309563720703125,-0.49273860454559326,0.7990978956222534,-0.0035014059394598007
1772623554847593700,1.31959375,-0.24275118112564087,0.7390507459640503,0.08093470335006714
1772623554857623800,1.329623779296875,0.030820967629551888,0.5871270298957825,0.15151354670524597
1772623554867652900,1.33965283203125,0.28779199719429016,0.3801518678665161,0.22566726803779602
1772623554877683000,1.349682861328125,0.5015532374382019,0.1739712804555893,0.30292874574661255
1772623554887712800,1.359712646484375,0.6420398950576782,-0.012015960179269314,0.3748636543750763
1772623554897742800,1.369742919921875,0.7124360203742981,-0.18874838948249817,0.419636994600296
1772623554907772000,1.37977197265625,0.7163408398628235,-0.34340575337409973,0.4264489710330963
1772623554917802000,1.389802001953125,0.6491239666938782,-0.4501047730445862,0.394724041223526
1772623554927831800,1.399831787109375,0.5086021423339844,-0.49855566024780273,0.31912761926651
1772623554937860600,1.409860595703125,0.30578646063804626,-0.48001447319984436,0.22059385478496552
1772623554947890700,1.419890625,0.0698552280664444,-0.3914976119995117,0.10596151649951935
1772623554957920800,1.429920654296875,-0.1579960435628891,-0.2639862596988678,-0.012543822638690472
1772623554967949800,1.43994970703125,-0.3407900929450989,-0.11007870733737946,-0.13950124382972717
1772623554977980000,1.44997998046875,-0.4547552764415741,0.06403955817222595,-0.25131991505622864
1772623554988010000,1.460010009765625,-0.500695526599884,0.22155062854290009,-0.34461721777915955
1772623554998039800,1.470039794921875,-0.5007336139678955,0.33721330761909485,-0.42099079489707947
1772623555008068900,1.48006884765625,-0.44812726974487305,0.4207174479961395,-0.4525654911994934
1772623555018099000,1.490098876953125,-0.3597995340824127,0.45616012811660767,-0.4466165006160736
1772623555028128800,1.500128662109375,-0.24310949444770813,0.418006956577301,-0.41296786069869995
1772623555038157800,1.51015771484375,-0.10515162348747253,0.33424440026283264,-0.34892791509628296
1772623555048187600,1.520187744140625,0.027628008276224136,0.25344789028167725,-0.25710272789001465
1772623555058217700,1.5302177734375,0.13782215118408203,0.17393547296524048,-0.15804272890090942
1772623555068246800,1.540246826171875,0.20292526483535767,0.08124176412820816,-0.07884350419044495
1772623555078276900,1.55027685546875,0.23604539036750793,0.010390495881438255,-0.02879924513399601
1772623555088307000,1.560306884765625,0.24725770950317383,-0.033891964703798294,-0.012955973856151104
1772623555098337000,1.5703369140625,0.2384868562221527,-0.05587422847747803,-0.027252886444330215
1772623555108365800,1.58036572265625,0.20179729163646698,-0.06496785581111908,-0.08029719442129135
1772623555118396000,1.59039599609375,0.13311010599136353,-0.058334723114967346,-0.14692682027816772
1772623555128425700,1.60042578125,0.036995239555835724,-0.043673329055309296,-0.21818354725837708
1772623555138455000,1.610455078125,-0.054230011999607086,-0.009081793949007988,-0.29221171140670776
1772623555148484900,1.62048486328125,-0.12913505733013153,0.03184870630502701,-0.3473062515258789
1772623555158514700,1.6305146484375,-0.18072262406349182,0.07339775562286377,-0.3857921063899994
1772623555168543700,1.640543701171875,-0.2112097293138504,0.12204591929912567,-0.38480910658836365
1772623555178573800,1.65057373046875,-0.22320088744163513,0.1529095619916916,-0.35237500071525574
1772623555188604000,1.66060400390625,-0.21942226588726044,0.149234339594841,-0.3023476302623749
1772623555198634000,1.670634033203125,-0.19486206769943237,0.11428249627351761,-0.23400717973709106
1772623555208662800,1.680662841796875,-0.14226467907428741,0.0791412740945816,-0.15827542543411255
1772623555218692900,1.69069287109375,-0.07710856944322586,0.04608531668782234,-0.0751429870724678
1772623555228722700,1.70072265625,-0.0054713524878025055,0.011115188710391521,-0.004052964970469475
1772623555238752000,1.710751953125,0.05870044603943825,-0.01659553498029709,0.06827981770038605
1772623555248781800,1.72078173828125,0.10433316975831985,-0.04263836890459061,0.11983444541692734
1772623555258811600,1.730811767578125,0.13558244705200195,-0.07558859139680862,0.1513601541519165
1772623555268841700,1.740841796875,0.16097533702850342,-0.11213743686676025,0.16619907319545746
1772623555278870800,1.750870849609375,0.17374491691589355,-0.12923121452331543,0.1725776195526123
1772623555288900900,1.76090087890625,0.1695978343486786,-0.13461479544639587,0.17580069601535797
1772623555298931000,1.770930908203125,0.14704617857933044,-0.12364229559898376,0.18063299357891083
1772623555308959700,1.780959716796875,0.11412123590707779,-0.10558932274580002,0.18020497262477875
1772623555318989800,1.79098974609375,0.08680705726146698,-0.06650663167238235,0.1801900565624237
1772623555329020000,1.80102001953125,0.06843327730894089,-0.025702688843011856,0.18699151277542114
1772623555339049000,1.811049072265625,0.040731605142354965,0.01414512563496828,0.1992146074771881
1772623555349078800,1.821078857421875,0.01305080484598875,0.05797026678919792,0.21384955942630768
1772623555359108900,1.83110888671875,-0.010788748040795326,0.12126535177230835,0.22491206228733063
1772623555369138700,1.841138671875,-0.011758789420127869,0.1901390105485916,0.2212279736995697
1772623555379167700,1.851167724609375,0.012170512229204178,0.2134709656238556,0.193747878074646
1772623555389197800,1.86119775390625,0.05022580176591873,0.1738637387752533,0.14145657420158386
1772623555399228000,1.871227783203125,0.09048826992511749,0.09941693395376205,0.072809599339962
1772623555409257000,1.881257080078125,0.11692604422569275,0.019479013979434967,-0.0007959650829434395
1772623555419286800,1.891286865234375,0.1150333359837532,-0.035715531557798386,-0.06593795120716095
1772623555429316900,1.90131689453125,0.08602483570575714,-0.06307334452867508,-0.11642611771821976
1772623555439346700,1.9113466796875,0.02235797978937626,-0.0708622932434082,-0.15285736322402954
1772623555449375700,1.921375732421875,-0.06210968643426895,-0.08551232516765594,-0.19652622938156128
1772623555459405800,1.93140576171875,-0.15290138125419617,-0.1378152072429657,-0.24852950870990753
1772623555469436000,1.941435791015625,-0.23506876826286316,-0.2113584280014038,-0.3139844536781311
1772623555479464700,1.951464599609375,-0.2962881624698639,-0.27016395330429077,-0.3651059567928314
1772623555489494800,1.961494873046875,-0.3614047169685364,-0.31622517108917236,-0.38908687233924866
1772623555499524900,1.97152490234375,-0.413398414850235,-0.2575805187225342,-0.36625534296035767
1772623555509554000,1.981553955078125,-0.4359767436981201,-0.11083537340164185,-0.28362569212913513
1772623555519584300,1.991584228515625,-0.4078383147716522,0.08981649577617645,-0.1665153056383133
1772623555529614300,2.0016142578125,-0.3335891664028168,0.30488935112953186,-0.03212468698620796
1772623555539643400,2.011643310546875,-0.24128399789333344,0.42915457487106323,0.09738057851791382
1772623555549673200,2.021673095703125,-0.11981988698244095,0.5227918028831482,0.24844129383563995
1772623555559703300,2.031703369140625,0.03186497837305069,0.5943754315376282,0.4024319052696228
1772623555569733000,2.041733154296875,0.19973909854888916,0.6242991089820862,0.5429897904396057
1772623555579762200,2.05176220703125,0.3609141409397125,0.5950205326080322,0.6516821384429932
1772623555589792300,2.061792236328125,0.5030020475387573,0.5149033665657043,0.7179645299911499
1772623555599822300,2.071822265625,0.612271249294281,0.3921441435813904,0.7285580635070801
1772623555609851400,2.081851318359375,0.6845163702964783,0.22489602863788605,0.6777651309967041
1772623555619881200,2.091881103515625,0.7147917151451111,0.020326916128396988,0.5698580741882324
1772623555629911300,2.101911376953125,0.6949951648712158,-0.22468237578868866,0.4168187081813812
1772623555639941000,2.111941162109375,0.6395444273948669,-0.4664883315563202,0.2115963101387024
1772623555649970200,2.12197021484375,0.5710413455963135,-0.6509694457054138,-0.012686396017670631
1772623555660000300,2.132000244140625,0.515695333480835,-0.7420594096183777,-0.2154509574174881
1772623555670030300,2.1420302734375,0.448443204164505,-0.7155419588088989,-0.36008426547050476
1772623555680059100,2.15205908203125,0.35432735085487366,-0.5825223922729492,-0.4257431626319885
1772623555690089200,2.162089111328125,0.25161513686180115,-0.3710561990737915,-0.41193830966949463
1772623555700119300,2.172119384765625,0.1642773300409317,-0.08781304210424423,-0.31522855162620544
1772623555710148400,2.1821484375,0.09130462259054184,0.19913068413734436,-0.1901346892118454
1772623555720178200,2.19217822265625,0.05108130723237991,0.385762095451355,-0.06490592658519745
1772623555730208300,2.202208251953125,0.04982173070311546,0.4950733184814453,0.02624741569161415
1772623555740238000,2.212238037109375,0.09653384238481522,0.5490705370903015,0.07206257432699203
1772623555750267400,2.222267333984375,0.17118318378925323,0.5126281380653381,0.06841345131397247
1772623555760297200,2.232297119140625,0.24311703443527222,0.36238160729408264,0.02007414773106575
1772623555770327300,2.242327392578125,0.3125653862953186,0.19684995710849762,-0.03508384898304939
1772623555780356000,2.252356201171875,0.3624032437801361,0.0571405254304409,-0.06953743100166321
1772623555790386200,2.26238623046875,0.37015461921691895,-0.055061209946870804,-0.09887677431106567
1772623555800416300,2.272416259765625,0.3445054590702057,-0.12373827397823334,-0.13458311557769775
1772623555810446300,2.2824462890625,0.2920234203338623,-0.1560480296611786,-0.17535725235939026
1772623555820475400,2.292475341796875,0.22649583220481873,-0.16279086470603943,-0.2229178547859192
1772623555830505200,2.302505126953125,0.1532476842403412,-0.18313051760196686,-0.28577274084091187
1772623555840535000,2.31253515625,0.08793152123689651,-0.19550223648548126,-0.351325124502182
1772623555850564400,2.322564453125,0.04075554758310318,-0.16977368295192719,-0.38733941316604614
1772623555860594200,2.33259423828125,0.010274070315063,-0.1224474385380745,-0.4076066017150879
1772623555870624300,2.342624267578125,-0.014211555942893028,-0.07637998461723328,-0.4163554906845093
1772623555880653000,2.352653076171875,-0.022611431777477264,-0.03652045503258705,-0.40537580847740173
1772623555890683100,2.36268310546875,-0.003971707075834274,-0.00952004175633192,-0.38264405727386475
1772623555900713200,2.372713134765625,0.031582556664943695,0.004150231368839741,-0.33779376745224
1772623555910743300,2.382743408203125,0.0717872902750969,0.012675425969064236,-0.270485520362854
1772623555920772400,2.3927724609375,0.10638707876205444,0.026241835206747055,-0.17904801666736603
1772623555930802400,2.402802490234375,0.1191701889038086,0.011286387220025063,-0.08767785876989365
1772623555940832300,2.412832275390625,0.12996745109558105,-0.0353466272354126,0.002779332920908928
1772623555950861300,2.422861328125,0.14257459342479706,-0.09188570827245712,0.07846620678901672
1772623555960891100,2.43289111328125,0.16127610206604004,-0.13970622420310974,0.16296938061714172
1772623555970921200,2.442921142578125,0.17249923944473267,-0.17562556266784668,0.23803743720054626
1772623555980951300,2.452951416015625,0.17070533335208893,-0.21436390280723572,0.296251505613327
1772623555990980000,2.46297998046875,0.16197988390922546,-0.2491253912448883,0.3128260672092438
1772623556001010200,2.47301025390625,0.15279677510261536,-0.28525251150131226,0.2866820693016052
1772623556011040300,2.483040283203125,0.1377873718738556,-0.3062194287776947,0.21797503530979156
1772623556021069300,2.4930693359375,0.10657192766666412,-0.31087011098861694,0.13624848425388336
1772623556031099400,2.503099365234375,0.05531403422355652,-0.298998087644577,0.06242673099040985
1772623556041129500,2.51312939453125,-0.008070528507232666,-0.26912301778793335,0.006577584892511368
1772623556051158300,2.523158203125,-0.07998045533895493,-0.2118513137102127,-0.015405343845486641
1772623556061188000,2.53318798828125,-0.15518653392791748,-0.12045188993215561,-0.005793462507426739
1772623556071218200,2.54321826171875,-0.22144117951393127,0.012479267083108425,0.03964139521121979
1772623556081248300,2.553248291015625,-0.2906585931777954,0.15677039325237274,0.10910569131374359
1772623556091277300,2.56327734375,-0.3341478407382965,0.291521817445755,0.20920521020889282
1772623556101307100,2.57330712890625,-0.33856523036956787,0.4011702835559845,0.3212113678455353
1772623556111337200,2.583337158203125,-0.3001934587955475,0.4528069496154785,0.42761871218681335
1772623556121366300,2.5933662109375,-0.2226664274930954,0.4642857015132904,0.5169147849082947
1772623556131396400,2.603396240234375,-0.11837644875049591,0.4640369117259979,0.5655112862586975
1772623556141426400,2.613426513671875,0.00512977410107851,0.45585089921951294,0.5760324001312256
1772623556151455200,2.623455322265625,0.13527117669582367,0.4329562783241272,0.5464251041412354
1772623556161485300,2.6334853515625,0.2597220540046692,0.3321298062801361,0.4824618399143219
1772623556171515100,2.64351513671875,0.36329299211502075,0.1510365605354309,0.37526869773864746
1772623556181545200,2.653545166015625,0.42353156208992004,-0.09566642343997955,0.23880325257778168
1772623556191574300,2.66357421875,0.4156704545021057,-0.3858678340911865,0.08785493671894073
1772623556201604000,2.67360400390625,0.32413068413734436,-0.6586722135543823,-0.054690491408109665
1772623556211634200,2.68363427734375,0.12632928788661957,-0.8475603461265564,-0.14825895428657532
1772623556221663200,2.693663330078125,-0.16146734356880188,-0.8824964761734009,-0.2096663862466812
1772623556231693300,2.703693359375,-0.482822984457016,-0.7391327023506165,-0.25386425852775574
1772623556241723400,2.713723388671875,-0.7621816396713257,-0.44379985332489014,-0.30673038959503174
1772623556251753200,2.723753173828125,-0.9702574014663696,-0.10178962349891663,-0.37869128584861755
1772623556261782300,2.7337822265625,-1.0839600563049316,0.27736303210258484,-0.46642565727233887
1772623556271812000,2.74381201171875,-1.0732702016830444,0.6156938672065735,-0.5487724542617798
1772623556281842200,2.75384228515625,-0.9568647742271423,0.8843455910682678,-0.6127168536186218
1772623556291871200,2.763871337890625,-0.7549379467964172,1.0458258390426636,-0.631473183631897
1772623556301901300,2.7739013671875,-0.5096048712730408,1.0492371320724487,-0.6101556420326233
1772623556311931100,2.78393115234375,-0.2456636130809784,0.9058548808097839,-0.5353061556816101
1772623556321960200,2.793960205078125,0.019066324457526207,0.6377413868904114,-0.3892515003681183
1772623556331990300,2.803990234375,0.2620592415332794,0.3168083727359772,-0.18129682540893555
1772623556342020400,2.814020263671875,0.4497886598110199,0.007049723528325558,0.06092166155576706
1772623556352050400,2.824050537109375,0.5703691840171814,-0.2548224925994873,0.3079426884651184
1772623556362079200,2.834079345703125,0.6212214231491089,-0.47026076912879944,0.5130305886268616
1772623556372109000,2.844109130859375,0.6313719749450684,-0.6260934472084045,0.6456127166748047
1772623556382139100,2.85413916015625,0.5751843452453613,-0.7031767964363098,0.686154842376709
1772623556392168200,2.864168212890625,0.45833998918533325,-0.7095662951469421,0.6333673000335693
1772623556402198300,2.8741982421875,0.30012691020965576,-0.6761167049407959,0.5044634342193604
1772623556412228400,2.884228271484375,0.11920979619026184,-0.5748333930969238,0.33173057436943054
1772623556422258200,2.894258056640625,-0.05731569603085518,-0.39376240968704224,0.1436975598335266
1772623556432287200,2.904287353515625,-0.214483380317688,-0.1628829538822174,-0.042143866419792175
1772623556442317300,2.9143173828125,-0.3297252953052521,0.07353197038173676,-0.20659565925598145
1772623556452347400,2.924347412109375,-0.3781820237636566,0.27444326877593994,-0.33383679389953613
1772623556462376400,2.93437646484375,-0.3588562607765198,0.4035482704639435,-0.40639567375183105
1772623556472406300,2.94440625,-0.2779370844364166,0.45625483989715576,-0.43926042318344116
1772623556482436000,2.95443603515625,-0.17946670949459076,0.4293936491012573,-0.42393580079078674
1772623556492465200,2.964465087890625,-0.08886163681745529,0.34188923239707947,-0.3662138879299164
1772623556502495200,2.9744951171875,-0.02385867014527321,0.23481284081935883,-0.289089560508728
1772623556512525300,2.984525390625,0.025266462936997414,0.1247623935341835,-0.20490942895412445
1772623556522555400,2.994555419921875,0.053316205739974976,0.03377070277929306,-0.12581807374954224
1772623556532584400,3.00458447265625,0.06244462728500366,-0.017259621992707253,-0.0620061494410038
1772623556542614500,3.014614501953125,0.05455714836716652,-0.04338070750236511,-0.02615254372358322
1772623556552644600,3.02464453125,0.04795844107866287,-0.04327774792909622,-0.019656632095575333
1772623556562673700,3.034673583984375,0.043517619371414185,-0.038128528743982315,-0.048371098935604095
1772623556572703500,3.044703369140625,0.04935497045516968,-0.04051109030842781,-0.09674341231584549
1772623556582733300,3.0547333984375,0.057707175612449646,-0.03475440293550491,-0.1572219431400299
1772623556592762400,3.064762451171875,0.06393508613109589,-0.020529981702566147,-0.20746220648288727
1772623556602792400,3.07479248046875,0.05582096055150032,-0.010077339597046375,-0.24330861866474152
1772623556612822500,3.084822509765625,0.030553901568055153,-0.009140544570982456,-0.2560027241706848
1772623556622852600,3.0948525390625,-0.001809629611670971,-0.0025486890226602554,-0.24424351751804352
1772623556632881400,3.10488134765625,-0.03317970782518387,0.007237792946398258,-0.22034263610839844
1772623556642911500,3.114911376953125,-0.059276558458805084,0.022167209535837173,-0.1969723403453827
1772623556652941600,3.124941650390625,-0.07493497431278229,0.03582080453634262,-0.1631404012441635
1772623556662970600,3.134970703125,-0.08632770925760269,0.039994511753320694,-0.12243479490280151
1772623556673000400,3.14500048828125,-0.09385301172733307,0.05130091682076454,-0.07112492620944977
1772623556683030300,3.1550302734375,-0.10789905488491058,0.06423962116241455,-0.006934753619134426
1772623556693060400,3.165060302734375,-0.1326969414949417,0.09074556827545166,0.055338989943265915
1772623556703089400,3.17508935546875,-0.16819794476032257,0.10835865139961243,0.12273666262626648
1772623556713119500,3.185119384765625,-0.2073621153831482,0.121253103017807,0.18352434039115906
1772623556723149600,3.195149658203125,-0.23425418138504028,0.12451040744781494,0.25055742263793945
1772623556733178400,3.205178466796875,-0.2492816001176834,0.12410220503807068,0.3478974997997284
1772623556743208400,3.21520849609375,-0.2641904950141907,0.126937136054039,0.48438262939453125
1772623556753238500,3.225238525390625,-0.29469403624534607,0.12480781972408295,0.646291971206665
1772623556763267600,3.235267578125,-0.3357993960380554,0.1052628830075264,0.8095943331718445
1772623556773297700,3.245297607421875,-0.37264344096183777,0.06308723241090775,0.9302829504013062
1772623556783327200,3.2553271484375,-0.3870902955532074,0.01991499587893486,0.98042893409729
1772623556793357300,3.265357421875,-0.3747102916240692,0.008245524950325489,0.9648334383964539
1772623556803386400,3.275386474609375,-0.36156386137008667,0.04541686177253723,0.8710699081420898
1772623556813416400,3.28541650390625,-0.3487435579299927,0.13982778787612915,0.7393476366996765
1772623556823446500,3.295446533203125,-0.3342652916908264,0.29786455631256104,0.5895363092422485
1772623556833475300,3.305475341796875,-0.30982300639152527,0.5082964897155762,0.4491444528102875
1772623556843505400,3.31550537109375,-0.28024911880493164,0.7138621211051941,0.3072325885295868
1772623556853535500,3.325535400390625,-0.24542364478111267,0.8645946383476257,0.17888815701007843
1772623556863564500,3.335564453125,-0.20140238106250763,0.9232746958732605,0.06339217722415924
1772623556873594600,3.3455947265625,-0.14599747955799103,0.8706346154212952,-0.05143585428595543
1772623556883624400,3.35562451171875,-0.07346628606319427,0.7146056294441223,-0.15484505891799927
1772623556893654300,3.365654296875,-0.0010241609998047352,0.47292304039001465,-0.26803603768348694
1772623556903683300,3.375683349609375,0.05866153538227081,0.1447874903678894,-0.38996219635009766
1772623556913713400,3.38571337890625,0.09743443131446838,-0.20912861824035645,-0.5218781232833862
1772623556923743500,3.395743408203125,0.11506243050098419,-0.5534950494766235,-0.6473308801651001
1772623556933772500,3.4057724609375,0.09199177473783493,-0.8050558567047119,-0.7333456873893738
1772623556943802400,3.41580224609375,0.016326043754816055,-0.9070943593978882,-0.7569578289985657
1772623556953832400,3.42583251953125,-0.11504489928483963,-0.806553840637207,-0.6897591352462769
1772623556963862500,3.435862548828125,-0.2678171396255493,-0.5232717990875244,-0.5278865694999695
1772623556973891600,3.4458916015625,-0.3787056505680084,-0.11664357781410217,-0.2904704809188843
1772623556983921400,3.45592138671875,-0.4053095877170563,0.2900693118572235,-0.024501658976078033
1772623556993951500,3.465951416015625,-0.3320741355419159,0.5627708435058594,0.21123608946800232
1772623557003980300,3.475980224609375,-0.18918968737125397,0.6258813738822937,0.37984776496887207
1772623557014010400,3.48601025390625,0.0015536807477474213,0.5323437452316284,0.47868797183036804
1772623557024040400,3.49604052734375,0.21770116686820984,0.31345486640930176,0.5163517594337463
1772623557034069500,3.506069580078125,0.4247679114341736,0.03087211400270462,0.5183470845222473
1772623557044099600,3.516099609375,0.5535922050476074,-0.25797566771507263,0.5025529861450195
1772623557054129400,3.52612939453125,0.5668463706970215,-0.5022420287132263,0.4863819181919098
1772623557064159500,3.536159423828125,0.46674296259880066,-0.6854441165924072,0.4552578032016754
1772623557074188500,3.5461884765625,0.2751457691192627,-0.8153987526893616,0.3904550075531006
1772623557084218600,3.556218505859375,0.01942959427833557,-0.8717171549797058,0.29097500443458557
1772623557094248400,3.56624853515625,-0.2736334502696991,-0.8419203758239746,0.16523678600788116
1772623557104277200,3.57627734375,-0.5607099533081055,-0.7412547469139099,0.002101127989590168
1772623557114307300,3.586307373046875,-0.7823073863983154,-0.6121254563331604,-0.18561574816703796
1772623557124337400,3.59633740234375,-0.9111860394477844,-0.48900720477104187,-0.3807934820652008
1772623557134367500,3.606367431640625,-0.9443033933639526,-0.3990340232849121,-0.5503735542297363
1772623557144396500,3.616396484375,-0.8940146565437317,-0.33485397696495056,-0.6657515168190002
1772623557154426400,3.62642626953125,-0.7792433500289917,-0.28578388690948486,-0.6984089016914368
1772623557164456400,3.63645654296875,-0.6315692067146301,-0.2716885805130005,-0.6577480435371399
1772623557174485500,3.646485595703125,-0.48016050457954407,-0.28404805064201355,-0.5468938946723938
1772623557184515600,3.656515625,-0.36450687050819397,-0.3036300241947174,-0.3896656334400177
1772623557194545400,3.66654541015625,-0.3027195632457733,-0.27118468284606934,-0.19875256717205048
1772623557204574500,3.676574462890625,-0.29939353466033936,-0.21836435794830322,-0.021920522674918175
1772623557214604300,3.686604248046875,-0.3310897946357727,-0.16337694227695465,0.11348577588796616
1772623557224634400,3.69663427734375,-0.3658592104911804,-0.10366247594356537,0.19199416041374207
1772623557234664400,3.70666455078125,-0.3813894987106323,-0.07519908249378204,0.20550958812236786
1772623557244693500,3.716693603515625,-0.3740021586418152,-0.09794913977384567,0.1678207963705063
1772623557254723600,3.7267236328125,-0.3501662313938141,-0.15437832474708557,0.09877894073724747
1772623557264753400,3.73675341796875,-0.30587998032569885,-0.2214348465204239,0.019720610231161118
1772623557274782500,3.746782470703125,-0.2528125047683716,-0.27080902457237244,-0.0474206879734993
1772623557284812500,3.7568125,-0.20712678134441376,-0.2762402892112732,-0.09357353299856186
1772623557294842400,3.76684228515625,-0.1864321082830429,-0.24599921703338623,-0.10476366430521011
1772623557304872400,3.77687255859375,-0.1813281625509262,-0.1996048241853714,-0.09868233650922775
1772623557314901200,3.7869013671875,-0.19196604192256927,-0.14108479022979736,-0.06290190666913986
1772623557324931300,3.796931396484375,-0.20696017146110535,-0.08206221461296082,-0.011074661277234554
1772623557334961400,3.80696142578125,-0.2087225466966629,-0.045140206813812256,0.05566015839576721
1772623557344990500,3.816990478515625,-0.20536163449287415,-0.018535228446125984,0.12382110208272934
1772623557355020500,3.8270205078125,-0.19976894557476044,0.006317494437098503,0.18325898051261902
1772623557365050600,3.837050537109375,-0.19393183290958405,0.008640570566058159,0.2119249850511551
1772623557375079400,3.847079345703125,-0.18453343212604523,0.0036379890516400337,0.20542429387569427
1772623557385109500,3.857109619140625,-0.1689334362745285,-0.009855449199676514,0.18072906136512756
1772623557395139300,3.867139404296875,-0.141076922416687,-0.02234172821044922,0.1458308845758438
1772623557405169400,3.87716943359375,-0.10819567739963531,-0.010003304108977318,0.10924410074949265
1772623557415198500,3.887198486328125,-0.07441739737987518,0.01291042473167181,0.09136223793029785
1772623557425228300,3.897228271484375,-0.032312821596860886,0.023059997707605362,0.0784648135304451
1772623557435258400,3.90725830078125,0.007586367428302765,0.009298326447606087,0.07765168696641922
1772623557445287400,3.917287353515625,0.04565039649605751,-0.011103085242211819,0.07656857371330261
1772623557455317500,3.9273173828125,0.06411339342594147,-0.049052610993385315,0.08860038965940475
1772623557465347600,3.93734765625,0.06328089535236359,-0.09515964984893799,0.09356585144996643
1772623557475377700,3.947377685546875,0.0390276201069355,-0.1537357121706009,0.10518026351928711
1772623557485406500,3.957406494140625,-0.004631711635738611,-0.20535574853420258,0.1218670979142189
1772623557495436500,3.9674365234375,-0.0528581365942955,-0.25947892665863037,0.13128454983234406
1772623557505466400,3.97746630859375,-0.09570945799350739,-0.2851901650428772,0.14259073138237
1772623557515496000,3.987495849609375,-0.11286184191703796,-0.28456273674964905,0.14926214516162872
1772623557525524700,3.997524658203125,-0.1148565486073494,-0.2578381896018982,0.15081024169921875
1772623557535554800,4.007554931640625,-0.10023507475852966,-0.2256559133529663,0.15084733068943024
1772623557545585000,4.0175849609375,-0.08008959144353867,-0.2085091471672058,0.14284373819828033
1772623557555614000,4.027614013671875,-0.061314307153224945,-0.17622631788253784,0.12988026440143585
1772623557565644000,4.03764404296875,-0.03677540645003319,-0.1307283490896225,0.11373032629489899
1772623557575674000,4.047674072265625,-0.004356192424893379,-0.0989733338356018,0.08901873230934143
1772623557585704000,4.057703857421875,0.023397939279675484,-0.08549108356237411,0.05125856772065163
1772623557595733000,4.06773291015625,0.036148108541965485,-0.13320879638195038,-0.007048534695059061
1772623557605763000,4.07776318359375,0.020804841071367264,-0.21491219103336334,-0.08676919341087341
1772623557615793000,4.08779296875,-0.04973560571670532,-0.29743701219558716,-0.17139922082424164
1772623557625822000,4.097822021484375,-0.17680060863494873,-0.3375820219516754,-0.2449703812599182
1772623557635851800,4.107851806640625,-0.3496670424938202,-0.31920674443244934,-0.3040083348751068
1772623557645881900,4.1178818359375,-0.536884069442749,-0.2081020474433899,-0.30736151337623596
1772623557655912000,4.127911865234375,-0.7052626609802246,-0.029483258724212646,-0.2791162133216858
1772623557665941000,4.13794091796875,-0.8332027792930603,0.143272265791893,-0.23703667521476746
1772623557675971000,4.14797119140625,-0.8897336721420288,0.26334258913993835,-0.1972048580646515
1772623557686001200,4.158001220703125,-0.8570273518562317,0.30604076385498047,-0.1653108447790146
1772623557696030000,4.168030029296875,-0.7297426462173462,0.2553166449069977,-0.14270977675914764
1772623557706060000,4.17806005859375,-0.5366448163986206,0.13170041143894196,-0.11704275757074356
1772623557716089900,4.18808984375,-0.318814218044281,-0.00828593596816063,-0.05039842054247856
1772623557726120000,4.198119873046875,-0.1282123178243637,-0.12356432527303696,0.06165674328804016
1772623557736148700,4.208148681640625,0.013741690665483475,-0.18549302220344543,0.2164130061864853
1772623557746178800,4.2181787109375,0.10600903630256653,-0.1855340301990509,0.38797199726104736
1772623557756209000,4.228208984375,0.1509988009929657,-0.12229453772306442,0.5447020530700684
1772623557766238000,4.238238037109375,0.15343399345874786,-0.030919352546334267,0.6655712127685547
1772623557776268000,4.24826806640625,0.10776116698980331,0.055142469704151154,0.7281768321990967
1772623557786298000,4.258298095703125,0.037722427397966385,0.12517482042312622,0.7237392067909241
1772623557796327000,4.268326904296875,-0.03761883080005646,0.19047151505947113,0.6655170321464539
1772623557806357000,4.27835693359375,-0.11576928943395615,0.22532618045806885,0.5521763563156128
1772623557816386800,4.28838671875,-0.1844363808631897,0.23461073637008667,0.4095737636089325
1772623557826417000,4.2984169921875,-0.251840204000473,0.22311681509017944,0.259612500667572
1772623557836446000,4.308446044921875,-0.3126208186149597,0.17153330147266388,0.12352082878351212
1772623557846475800,4.318475830078125,-0.36078834533691406,0.0926925390958786,0.01577039249241352
1772623557856505900,4.328505859375,-0.3977409899234772,0.03178650885820389,-0.05050677806138992
1772623557866535000,4.338534912109375,-0.415988951921463,0.005310692824423313,-0.08457499742507935
1772623557876565000,4.34856494140625,-0.4365905225276947,-0.0003782156854867935,-0.09049997478723526
1772623557886595000,4.358594970703125,-0.4599831998348236,0.018819179385900497,-0.09171251207590103
1772623557896625200,4.368625244140625,-0.4780738353729248,0.03927982598543167,-0.0806170329451561
1772623557906654000,4.378654052734375,-0.5058053135871887,0.04928266257047653,-0.06371740996837616
1772623557916684000,4.38868408203125,-0.5249557495117188,0.029604610055685043,-0.04811503365635872
1772623557926713900,4.3987138671875,-0.5306088328361511,-0.017205240204930305,-0.040810249745845795
1772623557936743000,4.408742919921875,-0.5139905214309692,-0.07066815346479416,-0.04570954293012619
1772623557946773000,4.41877294921875,-0.4883935749530792,-0.1238112673163414,-0.0607694536447525
1772623557956802800,4.428802734375,-0.46358102560043335,-0.16218656301498413,-0.07947735488414764
1772623557966831900,4.438831787109375,-0.44228026270866394,-0.17471246421337128,-0.10411664843559265
1772623557976862000,4.448862060546875,-0.4357127547264099,-0.1610914170742035,-0.12293095886707306
1772623557986892000,4.45889208984375,-0.43864330649375916,-0.11882971972227097,-0.1358126699924469
1772623557996922000,4.468922119140625,-0.4572845995426178,-0.07427848875522614,-0.14675012230873108
1772623558006951000,4.478950927734375,-0.475541353225708,-0.01979127526283264,-0.14700178802013397
1772623558016981000,4.48898095703125,-0.4806833863258362,0.04442228376865387,-0.14092305302619934
1772623558027010800,4.4990107421875,-0.4681050181388855,0.08697320520877838,-0.1333407759666443
1772623558037039900,4.509039794921875,-0.4323248267173767,0.1090577244758606,-0.11248111724853516
1772623558047070000,4.519070068359375,-0.3732098340988159,0.1038866713643074,-0.09149700403213501
1772623558057100000,4.52910009765625,-0.30556991696357727,0.09173067659139633,-0.06172144412994385
1772623558067129900,4.5391298828125,-0.24513213336467743,0.07107546925544739,-0.02845829539000988
1772623558077159000,4.549158935546875,-0.194565087556839,0.05375085771083832,0.0004558330401778221
1772623558087189000,4.55918896484375,-0.15076780319213867,0.027020970359444618,0.024522818624973297
1772623558097219000,4.569218994140625,-0.10281894356012344,-0.009223905391991138,0.039689723402261734
1772623558107248000,4.579248046875,-0.05080154910683632,-0.059116363525390625,0.05819736048579216
1772623558117278000,4.58927783203125,0.009075460955500603,-0.11093359440565109,0.07687018811702728
1772623558127307800,4.599307861328125,0.06403297930955887,-0.15449517965316772,0.0917801633477211
1772623558137337900,4.609337890625,0.10021035373210907,-0.20356647670269012,0.08931787312030792
1772623558147367000,4.619366943359375,0.1317022293806076,-0.23242288827896118,0.05916769057512283
1772623558157397000,4.62939697265625,0.15223699808120728,-0.3311849534511566,-0.011361154727637768
1772623558167427000,4.639427001953125,0.13928472995758057,-0.4804309010505676,-0.11163263022899628
1772623558177457000,4.649456787109375,0.09970004856586456,-0.6299867630004883,-0.20506371557712555
1772623558187487000,4.659487060546875,0.03613998740911484,-0.7212506532669067,-0.2689945101737976
1772623558197516800,4.669516845703125,-0.05532023310661316,-0.6929259896278381,-0.2801060974597931
1772623558207546000,4.679546142578125,-0.1447204202413559,-0.5488580465316772,-0.2512454390525818
1772623558217576000,4.689575927734375,-0.2071809470653534,-0.35949382185935974,-0.2060532122850418
1772623558227606000,4.69960595703125,-0.23243916034698486,-0.19179511070251465,-0.17428702116012573
1772623558237634800,4.709634765625,-0.2187582105398178,-0.055704325437545776,-0.16692331433296204
1772623558247665000,4.719664794921875,-0.1992790400981903,0.04409976303577423,-0.20203308761119843
1772623558257695000,4.729695068359375,-0.16248218715190887,0.1279999315738678,-0.27240362763404846
1772623558267725000,4.73972509765625,-0.11221610009670258,0.18304641544818878,-0.3517996370792389
1772623558277754000,4.749754150390625,-0.060475923120975494,0.19852812588214874,-0.42685553431510925
1772623558287784000,4.759783935546875,-0.018710631877183914,0.11629103869199753,-0.4773285686969757
1772623558297814000,4.76981396484375,0.020939629524946213,-0.07729505002498627,-0.4881143271923065
1772623558307843000,4.779843017578125,0.04781358689069748,-0.3562728762626648,-0.459085613489151
1772623558317873000,4.789872802734375,0.051285356283187866,-0.6423580646514893,-0.3848044276237488
1772623558327903000,4.799903076171875,0.026606904342770576,-0.7869272232055664,-0.24634882807731628
1772623558337933000,4.80993310546875,0.00707804411649704,-0.7738961577415466,-0.06881185621023178
1772623558347961900,4.8199619140625,0.011329513974487782,-0.6072046756744385,0.13193535804748535
1772623558357992000,4.829991943359375,0.05106015130877495,-0.32858389616012573,0.3255670666694641
1772623558368022000,4.84002197265625,0.11032320559024811,0.009790413081645966,0.4827095568180084
1772623558378051000,4.850051025390625,0.17745551466941833,0.3447612226009369,0.5908817648887634
1772623558388081000,4.860080810546875,0.24240949749946594,0.5890069007873535,0.6228122711181641
1772623558398111000,4.870111083984375,0.2965754568576813,0.7150954008102417,0.5886215567588806
1772623558408140000,4.88014013671875,0.36281731724739075,0.7480791807174683,0.50566166639328
1772623558418169900,4.890169921875,0.453493595123291,0.7072827816009521,0.39269933104515076
1772623558428200000,4.900199951171875,0.538832426071167,0.6081721782684326,0.2632310688495636
1772623558438230000,4.91022998046875,0.6076767444610596,0.49041199684143066,0.1492345929145813
1772623558448258800,4.9202587890625,0.6421468257904053,0.3619171380996704,0.05223267897963524
1772623558458289000,4.930288818359375,0.621387243270874,0.2278498411178589,-0.022886104881763458
1772623558468319000,4.940319091796875,0.5453774333000183,0.11561891436576843,-0.08290284126996994
1772623558478348000,4.95034814453125,0.453923761844635,0.062366873025894165,-0.12244284898042679
1772623558488378000,4.960378173828125,0.369337797164917,0.03471127897500992,-0.15210913121700287
1772623558498408000,4.970407958984375,0.30275723338127136,0.03776447847485542,-0.17382289469242096
1772623558508437800,4.980437744140625,0.25626829266548157,0.043611180037260056,-0.1921963095664978
1772623558518466600,4.990466552734375,0.22390174865722656,0.0609348863363266,-0.2014925479888916
1772623558528496400,5.000496337890625,0.20878536999225616,0.09326113760471344,-0.20568782091140747
1772623558538526500,5.0105263671875,0.21555709838867188,0.14133118093013763,-0.1997210830450058
1772623558548555300,5.02055517578125,0.2422206699848175,0.2134391963481903,-0.18123368918895721
1772623558558585300,5.03058544921875,0.29767748713493347,0.2951160967350006,-0.1588560789823532
1772623558568615400,5.040615478515625,0.3678736090660095,0.36523500084877014,-0.13443569839000702
1772623558578645500,5.0506455078125,0.4350776672363281,0.434695303440094,-0.12715141475200653
1772623558588674600,5.060674560546875,0.4801029562950134,0.49513494968414307,-0.13623465597629547
1772623558598704400,5.070704345703125,0.49922308325767517,0.5280601978302002,-0.16161960363388062
1772623558608734500,5.080734375,0.49358221888542175,0.5213021636009216,-0.2029995322227478
1772623558618763500,5.090763427734375,0.471243292093277,0.4667600095272064,-0.24860991537570953
1772623558628793600,5.100793701171875,0.4347161650657654,0.37047526240348816,-0.3098889887332916
1772623558638823400,5.110823486328125,0.4039512574672699,0.2594943046569824,-0.34911829233169556
1772623558648853500,5.120853515625,0.3740631341934204,0.168483704328537,-0.37899017333984375
1772623558658882300,5.13088232421875,0.34489864110946655,0.11893006414175034,-0.3817090690135956
1772623558668912400,5.140912353515625,0.3145580291748047,0.10524114221334457,-0.37340986728668213
1772623558678942500,5.1509423828125,0.2822478115558624,0.09979206323623657,-0.36146101355552673
1772623558688971500,5.160971435546875,0.24359893798828125,0.08180508017539978,-0.34558165073394775
1772623558699001600,5.171001708984375,0.2051369994878769,0.0701071247458458,-0.32301273941993713
1772623558709031400,5.181031494140625,0.16473843157291412,0.06839870661497116,-0.3074398934841156
1772623558719060500,5.191060546875,0.1304245889186859,0.08210232853889465,-0.2899021804332733
1772623558729090600,5.201090576171875,0.10065309703350067,0.12607084214687347,-0.2698717415332794
1772623558739120400,5.211120361328125,0.08721491694450378,0.21530218422412872,-0.2515150308609009
1772623558749150500,5.221150390625,0.09219875186681747,0.3500102162361145,-0.24386218190193176
1772623558759179300,5.23117919921875,0.11259033530950546,0.4881255030632019,-0.2425677329301834
1772623558769209300,5.241209228515625,0.13890688121318817,0.5887405276298523,-0.25421640276908875
1772623558779239400,5.251239501953125,0.1625063717365265,0.6139436364173889,-0.2643295228481293
1772623558789268500,5.2612685546875,0.18003636598587036,0.5235231518745422,-0.24673351645469666
1772623558799298600,5.271298583984375,0.19534020125865936,0.3503713309764862,-0.19191569089889526
1772623558809328600,5.28132861328125,0.235359787940979,0.14110225439071655,-0.10793635994195938
1772623558819358500,5.2913583984375,0.28317099809646606,-0.059904251247644424,0.000634046271443367
1772623558829387500,5.301387451171875,0.31969279050827026,-0.22370782494544983,0.11657609045505524
1772623558839417300,5.311417236328125,0.33228063583374023,-0.3557390868663788,0.21493376791477203
1772623558849447400,5.321447509765625,0.3161892890930176,-0.4604806900024414,0.27502134442329407
1772623558859476500,5.3314765625,0.2787310481071472,-0.5044719576835632,0.30942362546920776
1772623558869506300,5.34150634765625,0.22656744718551636,-0.5012170672416687,0.3194613456726074
1772623558879536400,5.351536376953125,0.16691042482852936,-0.41131430864334106,0.3043534457683563
1772623558889566500,5.36156640625,0.10543427616357803,-0.2535284161567688,0.2759207487106323
1772623558899595500,5.371595458984375,0.05584244430065155,-0.05347314104437828,0.2385004758834839
1772623558909625600,5.38162548828125,0.01582818105816841,0.12632885575294495,0.2115335613489151
1772623558919655700,5.39165576171875,0.011807726696133614,0.2452285885810852,0.1923769861459732
1772623558929684500,5.4016845703125,0.03915999084711075,0.29482516646385193,0.18002711236476898
1772623558939714300,5.41171435546875,0.07736082375049591,0.28551483154296875,0.1586868017911911
1772623558949744400,5.421744384765625,0.11602646112442017,0.24931369721889496,0.11250972747802734
1772623558959774500,5.4317744140625,0.14390578866004944,0.16295599937438965,0.03498589247465134
1772623558969803500,5.441803466796875,0.15917369723320007,-0.0022441502660512924,-0.0664251521229744
1772623558979833300,5.451833251953125,0.1586175411939621,-0.2344978004693985,-0.17791153490543365
1772623558989863400,5.461863525390625,0.13530687987804413,-0.509466290473938,-0.294908732175827
1772623558999892500,5.471892578125,0.07295884191989899,-0.8090084791183472,-0.38840311765670776
1772623559009922600,5.481922607421875,-0.027959514409303665,-1.0290098190307617,-0.46263444423675537
1772623559019952600,5.49195263671875,-0.16449256241321564,-1.098200798034668,-0.4981657564640045
1772623559029982500,5.501982421875,-0.3268473744392395,-1.0152838230133057,-0.5057722926139832
1772623559040011500,5.512011474609375,-0.4892427623271942,-0.7810520529747009,-0.4819118082523346
1772623559050041300,5.522041259765625,-0.6056538224220276,-0.42216503620147705,-0.4459136128425598
1772623559060071400,5.532071533203125,-0.6365324258804321,-0.0028413739055395126,-0.39765217900276184
1772623559070100500,5.5421005859375,-0.5647160410881042,0.35586538910865784,-0.36117032170295715
1772623559080130300,5.55213037109375,-0.41686826944351196,0.5898799896240234,-0.32895544171333313
1772623559090160400,5.562160400390625,-0.21802732348442078,0.676282525062561,-0.2977410554885864
1772623559100189400,5.572189453125,0.00004192721098661423,0.5806860327720642,-0.24495594203472137
1772623559110219500,5.582219482421875,0.22340311110019684,0.3368355631828308,-0.14099225401878357
1772623559120249600,5.59224951171875,0.43212389945983887,0.051555752754211426,0.019761139526963234
1772623559130279400,5.602279541015625,0.5822364687919617,-0.17910008132457733,0.22404956817626953
1772623559140308500,5.61230859375,0.6622614860534668,-0.3337933421134949,0.42944905161857605
1772623559150338300,5.62233837890625,0.692356526851654,-0.44226202368736267,0.6079202890396118
1772623559160368400,5.632368408203125,0.6785083413124084,-0.48914146423339844,0.7399377822875977
1772623559170397400,5.6423974609375,0.6115702986717224,-0.48157116770744324,0.8111968040466309
1772623559180427500,5.652427490234375,0.4929446876049042,-0.4555771052837372,0.805776059627533
1772623559190457300,5.662457275390625,0.3276311159133911,-0.4062468409538269,0.7109816670417786
1772623559200487400,5.6724873046875,0.12491185963153839,-0.3274492025375366,0.5359694361686707
1772623559210516500,5.6825166015625,-0.09208036959171295,-0.25181886553764343,0.285079687833786
1772623559220546600,5.692546630859375,-0.3013514280319214,-0.17405536770820618,0.0036780554801225662
1772623559230576600,5.70257666015625,-0.46089500188827515,-0.052292972803115845,-0.2715548574924469
1772623559240605400,5.71260546875,-0.5519040822982788,0.09727190434932709,-0.5075319409370422
1772623559250635300,5.72263525390625,-0.5791668891906738,0.2293521761894226,-0.6654203534126282
1772623559260665300,5.732665283203125,-0.5586934685707092,0.3363350033760071,-0.7381661534309387
1772623559270695400,5.7426953125,-0.4939437806606293,0.4113623797893524,-0.7233802676200867
1772623559280724500,5.752724365234375,-0.38451656699180603,0.4467467665672302,-0.6449741125106812
1772623559290754600,5.762754638671875,-0.2636873424053192,0.42275914549827576,-0.5288472175598145
1772623559300784400,5.772784423828125,-0.15137235820293427,0.3492053747177124,-0.39140450954437256
1772623559310813400,5.7828134765625,-0.07064075767993927,0.24895735085010529,-0.2533140182495117
1772623559320843500,5.792843505859375,-0.0223417729139328,0.15556249022483826,-0.15187285840511322
1772623559330873600,5.80287353515625,0.005364689975976944,0.07068434357643127,-0.09540665149688721
1772623559340903400,5.8129033203125,0.009980525821447372,-0.010359582491219044,-0.09324662387371063
1772623559350932500,5.822932373046875,-0.010027803480625153,-0.07280218601226807,-0.1320110559463501
1772623559360962300,5.83296240234375,-0.054690055549144745,-0.11490032076835632,-0.2063768357038498
1772623559370992400,5.842992431640625,-0.12017852067947388,-0.13423539698123932,-0.2911953330039978
1772623559381021400,5.853021484375,-0.19842223823070526,-0.1722976267337799,-0.3717031478881836
1772623559391051500,5.863051513671875,-0.2806073725223541,-0.19649004936218262,-0.4431203305721283
1772623559401081600,5.87308154296875,-0.34856393933296204,-0.17529217898845673,-0.4871930480003357
1772623559411110400,5.8831103515625,-0.40637290477752686,-0.12365934252738953,-0.5156129598617554
1772623559421140500,5.893140380859375,-0.45244988799095154,-0.06599263846874237,-0.5279040336608887
1772623559431170600,5.903170654296875,-0.4896249771118164,-0.010141623206436634,-0.5139991641044617
1772623559441200400,5.913200439453125,-0.508701503276825,0.022160641849040985,-0.4843483567237854
1772623559451229400,5.9232294921875,-0.5214242339134216,0.04398071765899658,-0.45714524388313293
1772623559461259300,5.93325927734375,-0.5053663849830627,0.09276141971349716,-0.4276997148990631
1772623559471289300,5.943289306640625,-0.45535245537757874,0.14780282974243164,-0.3863440155982971
1772623559481318400,5.953318359375,-0.3967817425727844,0.20834697782993317,-0.3363739252090454
1772623559491348500,5.963348388671875,-0.3308410942554474,0.2784038186073303,-0.26884040236473083
1772623559501378600,5.973378662109375,-0.2585448920726776,0.3699960708618164,-0.1899990439414978
1772623559511408600,5.98340869140625,-0.1901213526725769,0.4440516531467438,-0.11219347268342972
1772623559521436700,5.993436767578125,-0.12372338026762009,0.4742794334888458,-0.04518341273069382
1772623559531466800,6.003466796875,-0.06811124831438065,0.45821496844291687,0.008754918351769447
1772623559541496800,6.013496826171875,-0.02408096194267273,0.43701171875,0.06267598271369934
1772623559551525600,6.023525634765625,0.0035237688571214676,0.42294251918792725,0.09987474977970123
1772623559561555700,6.0335556640625,0.007261077873408794,0.39041218161582947,0.11426335573196411
1772623559571585500,6.04358544921875,-0.01187373511493206,0.3381926417350769,0.10268738865852356
1772623559581615600,6.05361572265625,-0.04176868498325348,0.24787232279777527,0.08647531270980835
1772623559591644700,6.063644775390625,-0.08303516358137131,0.1551184058189392,0.07202393561601639
1772623559601674800,6.0736748046875,-0.11846385896205902,0.10415320098400116,0.07456327229738235
1772623559611704600,6.08370458984375,-0.16106989979743958,0.12474582344293594,0.1018843799829483
1772623559621733600,6.093733642578125,-0.21069128811359406,0.2066832035779953,0.15182985365390778
1772623559631763700,6.103763671875,-0.24944986402988434,0.3149864971637726,0.2157915234565735
1772623559641793800,6.113793701171875,-0.25277212262153625,0.3999699056148529,0.2952001392841339
1772623559651823900,6.123823974609375,-0.20386265218257904,0.44474083185195923,0.36494165658950806
1772623559661852700,6.133852783203125,-0.12651562690734863,0.4268314242362976,0.4069375693798065
1772623559671882800,6.1438828125,-0.04887675866484642,0.3785025179386139,0.4022727608680725
1772623559681912600,6.15391259765625,0.016188934445381165,0.3455008864402771,0.36524680256843567
1772623559691941600,6.163941650390625,0.06053190305829048,0.2997587025165558,0.2991308867931366
1772623559701971700,6.1739716796875,0.08201202005147934,0.1976933628320694,0.23344427347183228
1772623559712001800,6.184001708984375,0.07492215186357498,0.025419063866138458,0.18190276622772217
1772623559722031600,6.194031494140625,0.03718067705631256,-0.182976633310318,0.13302510976791382
1772623559732060700,6.204060791015625,-0.029999155551195145,-0.37108075618743896,0.09882958978414536
1772623559742090800,6.2140908203125,-0.11322885751724243,-0.5050568580627441,0.07997576147317886
1772623559752120800,6.224120849609375,-0.19579829275608063,-0.5355199575424194,0.09344363957643509
1772623559762150000,6.23414990234375,-0.2842828631401062,-0.4237781763076782,0.15701580047607422
1772623559772179700,6.2441796875,-0.36018961668014526,-0.16677594184875488,0.24502235651016235
1772623559782209500,6.25420947265625,-0.3822321891784668,0.19001713395118713,0.3384907841682434
1772623559792238600,6.264238525390625,-0.32993462681770325,0.5310865640640259,0.41264837980270386
1772623559802268700,6.2742685546875,-0.20005987584590912,0.7859848141670227,0.45857587456703186
1772623559812298800,6.284298828125,-0.01915985718369484,0.9360907077789307,0.5020064115524292
1772623559822328800,6.294328857421875,0.17592668533325195,0.959892749786377,0.5357013940811157
1772623559832357600,6.304357666015625,0.35649698972702026,0.8577293753623962,0.5575569272041321
1772623559842387700,6.3143876953125,0.5097225904464722,0.6629319190979004,0.5645805597305298
1772623559852417800,6.324417724609375,0.6300902962684631,0.3965580463409424,0.557468056678772
1772623559862447600,6.334447509765625,0.6870740652084351,0.1141614094376564,0.5436946749687195
1772623559872477000,6.344476806640625,0.6667546629905701,-0.1548524796962738,0.5199209451675415
1772623559882506500,6.354506591796875,0.5827812552452087,-0.3611656129360199,0.48687228560447693
1772623559892536600,6.36453662109375,0.4640863239765167,-0.49850404262542725,0.4327414035797119
1772623559902565600,6.374565673828125,0.34981122612953186,-0.5430518984794617,0.3604370355606079
1772623559912595700,6.384595703125,0.25741150975227356,-0.4899747967720032,0.28718090057373047
1772623559922625800,6.394625732421875,0.18338096141815186,-0.37325188517570496,0.20968206226825714
1772623559932654600,6.404654541015625,0.1253109872341156,-0.22122669219970703,0.14793826639652252
1772623559942684700,6.4146845703125,0.09089024364948273,-0.06731853634119034,0.09026547521352768
1772623559952714800,6.42471484375,0.08713412284851074,0.060935311019420624,0.05781911686062813
1772623559962744800,6.434744873046875,0.11479845643043518,0.14718939363956451,0.0428813137114048
1772623559972774000,6.44477392578125,0.18080943822860718,0.19531191885471344,0.0590624175965786
1772623559982803700,6.4548037109375,0.2525646984577179,0.22928372025489807,0.11286430805921555
1772623559992833500,6.46483349609375,0.3208760917186737,0.21620306372642517,0.17844465374946594
1772623560002862600,6.474862548828125,0.37040945887565613,0.14885471761226654,0.23636043071746826
1772623560012892700,6.484892578125,0.4079485833644867,0.05258171260356903,0.28360438346862793
1772623560022922800,6.4949228515625,0.4345923066139221,-0.04692330211400986,0.3084273338317871
1772623560032952800,6.504952880859375,0.44611552357673645,-0.1475585699081421,0.2998354732990265
1772623560042981600,6.514981689453125,0.43276551365852356,-0.22898897528648376,0.2638441026210785
1772623560053011700,6.52501171875,0.39886054396629333,-0.30697059631347656,0.20004568994045258
1772623560063041800,6.535041748046875,0.3478057384490967,-0.3766176104545593,0.1305023729801178
1772623560073070800,6.54507080078125,0.292897492647171,-0.4109150767326355,0.06129826605319977
1772623560083100700,6.5551005859375,0.24410152435302734,-0.415296733379364,-0.0011787512339651585
1772623560093130500,6.565130615234375,0.18608428537845612,-0.3974916338920593,-0.05274420604109764
1772623560103160600,6.57516064453125,0.124083511531353,-0.3647712469100952,-0.11032293736934662
1772623560113189600,6.585189697265625,0.06670970469713211,-0.31883251667022705,-0.1641816347837448
1772623560123219700,6.5952197265625,0.01920163258910179,-0.26677095890045166,-0.21767081320285797
1772623560133249800,6.605249755859375,-0.018851742148399353,-0.22156937420368195,-0.25938549637794495
1772623560143278600,6.615278564453125,-0.03955782577395439,-0.21010108292102814,-0.2877642512321472
1772623560153308700,6.62530859375,-0.03930429369211197,-0.23736226558685303,-0.29592496156692505
1772623560163338800,6.6353388671875,-0.022441498935222626,-0.2683589458465576,-0.27720847725868225
1772623560173368600,6.64536865234375,0.0033802445977926254,-0.2835640013217926,-0.24019639194011688
1772623560183398000,6.65539794921875,0.032105784863233566,-0.28001388907432556,-0.1851041465997696
1772623560193427700,6.665427734375,0.05124698951840401,-0.24800749123096466,-0.13032159209251404
1772623560203457500,6.67545751953125,0.0644122064113617,-0.19199667870998383,-0.07247859239578247
1772623560213486600,6.685486572265625,0.07551359385251999,-0.12068041414022446,-0.025736648589372635
1772623560223516700,6.6955166015625,0.08118294179439545,-0.0624731108546257,0.006413332186639309
1772623560233546800,6.705546630859375,0.10499772429466248,-0.024487648159265518,0.02588982880115509
1772623560243575800,6.715575927734375,0.1417679488658905,-0.009831001050770283,0.04117376729846001
1772623560253605600,6.725605712890625,0.17625828087329865,-0.02512500248849392,0.04962131381034851
1772623560263635700,6.7356357421875,0.19421282410621643,-0.07969710975885391,0.05775454640388489
1772623560273665800,6.745665771484375,0.18953019380569458,-0.16605542600154877,0.07346773147583008
1772623560283694800,6.75569482421875,0.17115962505340576,-0.27402809262275696,0.07947635650634766
1772623560293724700,6.765724609375,0.1454731673002243,-0.3793310821056366,0.0860985666513443
1772623560303754800,6.775754638671875,0.11526966840028763,-0.44066405296325684,0.09477274119853973
1772623560313783600,6.785783447265625,0.06767098605632782,-0.44187286496162415,0.10145993530750275
1772623560323813600,6.795813720703125,0.007702633738517761,-0.3640826344490051,0.11201290041208267
1772623560333843700,6.80584375,-0.06484533846378326,-0.22209139168262482,0.11147201806306839
1772623560343873800,6.815873779296875,-0.12970037758350372,-0.041945066303014755,0.09745132923126221
1772623560353902800,6.82590283203125,-0.16461388766765594,0.11191267520189285,0.06245366856455803
1772623560363932700,6.8359326171875,-0.16821765899658203,0.19666720926761627,0.017728231847286224
1772623560373962800,6.845962646484375,-0.15376494824886322,0.21818047761917114,-0.029271770268678665
1772623560383991800,6.85599169921875,-0.12243007123470306,0.177130788564682,-0.06527018547058105
1772623560394021600,6.866021728515625,-0.09695746749639511,0.10981512814760208,-0.1032354086637497
1772623560404051700,6.8760517578125,-0.07564738392829895,0.06404737383127213,-0.14482545852661133
1772623560414081800,6.886081787109375,-0.05183366686105728,0.06050670146942139,-0.19626015424728394
1772623560424110600,6.896110595703125,-0.02879185602068901,0.10328453034162521,-0.25960856676101685
1772623560434140700,6.906140625,-0.015831314027309418,0.14230063557624817,-0.33775368332862854
1772623560444170800,6.916170654296875,-0.009420431219041348,0.1452982872724533,-0.41842344403266907
1772623560454199800,6.92619970703125,-0.012147242203354836,0.11800114810466766,-0.5086377859115601
1772623560464230000,6.93622998046875,-0.03065064735710621,0.05668257176876068,-0.5880047678947449
1772623560474259700,6.946259765625,-0.07412329316139221,-0.01758207194507122,-0.6498121619224548
1772623560484289500,6.95628955078125,-0.1425328254699707,-0.06491363048553467,-0.6787890195846558
1772623560494318800,6.96631884765625,-0.2172859013080597,-0.036613550037145615,-0.65164715051651
1772623560504348700,6.9763486328125,-0.2865850627422333,0.07257242500782013,-0.5854737758636475
1772623560514378800,6.986378662109375,-0.34329015016555786,0.23086325824260712,-0.4950708746910095
1772623560524407600,6.996407470703125,-0.3464392125606537,0.39739200472831726,-0.3966858685016632
1772623560534437600,7.006437744140625,-0.3045514225959778,0.5507307052612305,-0.29063957929611206
1772623560544467700,7.0164677734375,-0.19241222739219666,0.6509335041046143,-0.1851789653301239
1772623560554497800,7.026497802734375,-0.04217452555894852,0.6779425144195557,-0.07720161974430084
1772623560564526800,7.03652685546875,0.11358896642923355,0.6454169750213623,0.024789270013570786
1772623560574556700,7.046556640625,0.25624436140060425,0.5440967679023743,0.12119755893945694
1772623560584586500,7.05658642578125,0.37867870926856995,0.4241381883621216,0.2018682360649109
1772623560594615800,7.06661572265625,0.48510581254959106,0.310804158449173,0.26785019040107727
1772623560604645600,7.076645751953125,0.5622604489326477,0.19535404443740845,0.3186679482460022
1772623560614675700,7.08667578125,0.6092766523361206,0.06633934378623962,0.3536456525325775
1772623560624704500,7.09670458984375,0.6219242215156555,-0.05925379693508148,0.3781699538230896
1772623560634734600,7.106734619140625,0.6020479798316956,-0.15291450917720795,0.39524906873703003
1772623560644764700,7.1167646484375,0.5526393055915833,-0.21673902869224548,0.388020396232605
1772623560654794800,7.126794677734375,0.4704038202762604,-0.25875145196914673,0.3463703989982605
1772623560664823800,7.13682373046875,0.35161611437797546,-0.28129979968070984,0.2739487290382385
1772623560674854000,7.14685400390625,0.20123912394046783,-0.2697683274745941,0.18250513076782227
1772623560684883700,7.1568837890625,0.033366717398166656,-0.2113093137741089,0.08614402264356613
1772623560694912800,7.166912841796875,-0.12440613657236099,-0.11794981360435486,-0.0029994365759193897
1772623560704942600,7.176942626953125,-0.2599813938140869,-0.02499963901937008,-0.08661677688360214
1772623560714972700,7.18697265625,-0.3504878580570221,0.05827926844358444,-0.1527222990989685
1772623560725002800,7.197002685546875,-0.39991405606269836,0.11447449028491974,-0.19771018624305725
1772623560735031600,7.207031494140625,-0.4082241654396057,0.14788252115249634,-0.21367903053760529
1772623560745061600,7.2170615234375,-0.3671806752681732,0.1686374843120575,-0.21395987272262573
1772623560755091700,7.227091796875,-0.27209118008613586,0.19805023074150085,-0.1993982493877411
1772623560765120800,7.237120849609375,-0.1277535855770111,0.224111869931221,-0.17529742419719696
1772623560775150800,7.24715087890625,0.017023835331201553,0.23455120623111725,-0.14353735744953156
1772623560785181000,7.257180908203125,0.12994809448719025,0.22149957716464996,-0.10623320937156677
1772623560795210500,7.26721044921875,0.18296442925930023,0.1884944885969162,-0.07130345702171326
1772623560805239600,7.277239501953125,0.19817566871643066,0.14092782139778137,-0.048462383449077606
1772623560815269600,7.28726953125,0.18541699647903442,0.09041831642389297,-0.06202985718846321
1772623560825299700,7.2972998046875,0.1574951559305191,0.035061780363321304,-0.10290313512086868
1772623560835328800,7.307328857421875,0.12164714187383652,-0.0011391006410121918,-0.17923066020011902
1772623560845358600,7.317358642578125,0.06707851588726044,-0.029082391411066055,-0.2580806016921997
1772623560855388700,7.327388671875,0.013282395899295807,-0.04937887191772461,-0.32986587285995483
1772623560865418800,7.337418701171875,-0.03931869566440582,-0.05537783354520798,-0.3796676993370056
1772623560875447800,7.34744775390625,-0.07426975667476654,-0.049226462841033936,-0.4016456604003906
1772623560885478000,7.357477783203125,-0.09285218268632889,-0.03694283589720726,-0.4045392572879791
1772623560895507700,7.3675078125,-0.09340665489435196,-0.0046749114990234375,-0.37521758675575256
1772623560905536800,7.377536865234375,-0.0802510529756546,0.03660403564572334,-0.3336641490459442
1772623560915566600,7.387566650390625,-0.05428070202469826,0.08769945055246353,-0.27993085980415344
1772623560925596700,7.3975966796875,-0.02588651515543461,0.13572949171066284,-0.22187504172325134
1772623560935626800,7.407626708984375,-0.0036861374974250793,0.17440205812454224,-0.16278882324695587
1772623560945655600,7.417655517578125,0.014591961167752743,0.2020028531551361,-0.09914852678775787
1772623560955685600,7.427685546875,0.027406029403209686,0.23078176379203796,-0.030019257217645645
1772623560965715700,7.4377158203125,0.04608568549156189,0.2520766854286194,0.02753150835633278
1772623560975744800,7.447744873046875,0.0690823495388031,0.25158798694610596,0.07638240605592728
1772623560985774800,7.45777490234375,0.09908219426870346,0.20537298917770386,0.11499647796154022
1772623560995804700,7.4678046875,0.12240110337734222,0.13898010551929474,0.142381489276886
1772623561005834800,7.477834716796875,0.14759951829910278,0.06190751492977142,0.16207174956798553
1772623561015863600,7.487863525390625,0.1580878496170044,0.0043773772194981575,0.19180646538734436
1772623561025893600,7.4978935546875,0.15111492574214935,-0.04849833622574806,0.22067596018314362
1772623561035923700,7.507923828125,0.13095933198928833,-0.08670884370803833,0.25011372566223145
1772623561045952800,7.517952880859375,0.10714714229106903,-0.11325374245643616,0.26904428005218506
1772623561055982600,7.527982666015625,0.07451782375574112,-0.12828196585178375,0.2845931351184845
1772623561066012700,7.5380126953125,0.03471441939473152,-0.12609300017356873,0.28705185651779175
1772623561076042800,7.548042724609375,-0.002912853378802538,-0.06495188176631927,0.28035587072372437
1772623561086071800,7.55807177734375,-0.025917259976267815,0.0476958267390728,0.27321070432662964
1772623561096102000,7.568101806640625,-0.03287050873041153,0.18726596236228943,0.26219454407691956
1772623561106131700,7.578131591796875,-0.013479867950081825,0.33797720074653625,0.2422768622636795
1772623561116160500,7.588160400390625,0.03479684889316559,0.4699791669845581,0.20734284818172455
1772623561126190600,7.598190673828125,0.09963300824165344,0.5417929887771606,0.1614629626274109
1772623561136220700,7.608220703125,0.15571679174900055,0.5701351165771484,0.10985942929983139
1772623561146250800,7.618250732421875,0.19093522429466248,0.5742106437683105,0.055400557816028595
1772623561156279800,7.62827978515625,0.21038882434368134,0.5713623762130737,-0.00024299509823322296
1772623561166309600,7.6383095703125,0.23323722183704376,0.5486122965812683,-0.060558680444955826
1772623561176339700,7.648339599609375,0.2586573660373688,0.4876216650009155,-0.10704388469457626
1772623561186368800,7.65836865234375,0.27300503849983215,0.3657478988170624,-0.1476428210735321
1772623561196398800,7.66839892578125,0.2714846432209015,0.17018026113510132,-0.18048039078712463
1772623561206428700,7.6784287109375,0.24634306132793427,-0.04808071255683899,-0.19863158464431763
1772623561216458800,7.688458740234375,0.18790636956691742,-0.199308842420578,-0.20169927179813385
1772623561226487600,7.698487548828125,0.09783530235290527,-0.21136850118637085,-0.18303245306015015
1772623561236517600,7.708517578125,0.005157035775482655,-0.11900606751441956,-0.13099241256713867
1772623561246547700,7.718547607421875,-0.06046126410365105,0.05086258798837662,-0.05081256479024887
1772623561256576800,7.72857666015625,-0.07616938650608063,0.2049642652273178,0.04169313609600067
1772623561266606800,7.73860693359375,-0.036349691450595856,0.29826033115386963,0.12509024143218994
1772623561276636700,7.74863671875,0.04078264534473419,0.30553022027015686,0.18614640831947327
1772623561286665700,7.758665771484375,0.13077813386917114,0.23229670524597168,0.22997568547725677
1772623561296695800,7.76869580078125,0.20627902448177338,0.09003730118274689,0.24086108803749084
1772623561306725600,7.7787255859375,0.254799485206604,-0.13030080497264862,0.23412424325942993
1772623561316755700,7.788755615234375,0.2638497054576874,-0.3540201783180237,0.2454567849636078
1772623561326784500,7.798784423828125,0.2536085844039917,-0.4965096116065979,0.27148115634918213
1772623561336814600,7.808814697265625,0.2412075698375702,-0.5476987361907959,0.31131991744041443
1772623561346844700,7.8188447265625,0.21420753002166748,-0.520411491394043,0.35858988761901855
1772623561356874800,7.828874755859375,0.17296208441257477,-0.4177042841911316,0.41374313831329346
1772623561366903800,7.83890380859375,0.12122582644224167,-0.2531074583530426,0.4534693658351898
1772623561376934000,7.848933837890625,0.08424223959445953,-0.07312624901533127,0.47180524468421936
1772623561386963700,7.858963623046875,0.06923270970582962,0.08248204737901688,0.4482295513153076
1772623561396992800,7.86899267578125,0.07772073894739151,0.1878284364938736,0.38773852586746216
1772623561407022600,7.879022705078125,0.09873059391975403,0.23299527168273926,0.30692604184150696
1772623561417052700,7.889052734375,0.1255323737859726,0.22028294205665588,0.22656278312206268
1772623561427081500,7.89908154296875,0.144868865609169,0.17630968987941742,0.1674545407295227
1772623561437111600,7.909111572265625,0.15217150747776031,0.11699070036411285,0.1364726573228836
1772623561447141600,7.9191416015625,0.15407860279083252,0.07075241208076477,0.1338685303926468
1772623561457171700,7.929171630859375,0.13621172308921814,0.053197383880615234,0.13940978050231934
1772623561467200800,7.93920068359375,0.11875411123037338,0.07314194738864899,0.14263592660427094
1772623561477230800,7.94923095703125,0.1100250631570816,0.11436981707811356,0.13328291475772858
1772623561487261000,7.959260986328125,0.11067109555006027,0.14903315901756287,0.10965333878993988
1772623561497289700,7.969289794921875,0.11691833287477493,0.15633128583431244,0.07340852171182632
1772623561507319800,7.97931982421875,0.11209825426340103,0.0958590880036354,0.022756194695830345
1772623561517349600,7.989349609375,0.09014662355184555,0.02043117955327034,-0.03527355194091797
1772623561527378700,7.999378662109375,0.049410998821258545,-0.0502559170126915,-0.08779732882976532
1772623561537408800,8.00940869140625,-0.0037595457397401333,-0.1313915103673935,-0.1467895358800888
1772623561547437800,8.019437744140625,-0.062447428703308105,-0.18390783667564392,-0.196927011013031
1772623561557468000,8.029468017578125,-0.10289765149354935,-0.20097337663173676,-0.23425254225730896
1772623561567497700,8.039497802734376,-0.11587876826524734,-0.18657244741916656,-0.25481829047203064
1772623561577526800,8.04952685546875,-0.11120066046714783,-0.17232799530029297,-0.259091317653656
1772623561587556900,8.059556884765625,-0.09074484556913376,-0.14588317275047302,-0.24695244431495667
1772623561597587000,8.0695869140625,-0.0715775415301323,-0.11995943635702133,-0.21372205018997192
1772623561607617000,8.079616943359374,-0.04896597936749458,-0.08888442814350128,-0.17266954481601715
1772623561617645800,8.089645751953125,-0.02308032102882862,-0.056721433997154236,-0.13502416014671326
1772623561627675600,8.099675537109375,0.007631358690559864,-0.011131281033158302,-0.09026350826025009
1772623561637705700,8.109705810546876,0.043656736612319946,0.02142586186528206,-0.04728487879037857
1772623561647734800,8.11973486328125,0.07793524861335754,0.03468930348753929,-0.01057487539947033
1772623561657764900,8.129764892578125,0.10484303534030914,0.024481408298015594,0.0205920971930027
1772623561667795000,8.139794921875,0.12836116552352905,-0.017627153545618057,0.04073186218738556
1772623561677824800,8.14982470703125,0.14548982679843903,-0.08815698325634003,0.04363870248198509
1772623561687853800,8.159853759765625,0.15835602581501007,-0.16210965812206268,0.039960827678442
1772623561697884000,8.1698837890625,0.16106338798999786,-0.2226203978061676,0.03501267358660698
1772623561707914000,8.1799140625,0.1545916348695755,-0.27445587515830994,0.022860180586576462
1772623561717942800,8.18994287109375,0.137685626745224,-0.31576254963874817,-0.008966990746557713
1772623561727972900,8.199972900390625,0.10728086531162262,-0.3360038995742798,-0.048245809972286224
1772623561738002700,8.210002685546876,0.0711449682712555,-0.3214707374572754,-0.07806415855884552
1772623561748032800,8.22003271484375,0.0282752625644207,-0.2831593155860901,-0.1014629602432251
1772623561758061800,8.230061767578125,-0.023609507828950882,-0.24008989334106445,-0.10420814156532288
1772623561768092000,8.240091796875,-0.08357396721839905,-0.1837383210659027,-0.07933029532432556
1772623561778121700,8.250121826171876,-0.1311579942703247,-0.09546544402837753,-0.04333341121673584
1772623561788150800,8.26015087890625,-0.15117448568344116,-0.003684219904243946,-0.004995004273951054
1772623561798180900,8.270180908203125,-0.1412174552679062,0.058269426226615906,0.027680648490786552
1772623561808211000,8.2802109375,-0.10825939476490021,0.07025999575853348,0.058990512043237686
1772623561818240800,8.29024072265625,-0.06497343629598618,0.051585644483566284,0.08091099560260773
1772623561828269800,8.300269775390625,-0.015271991491317749,0.0001120343804359436,0.08748217672109604
1772623561838299600,8.310299560546875,0.022052742540836334,-0.058667659759521484,0.06360134482383728
1772623561848329700,8.320329833984376,0.03536885976791382,-0.13118045032024384,0.012704892084002495
1772623561858358800,8.33035888671875,0.023323114961385727,-0.21447400748729706,-0.09623943269252777
1772623561868388900,8.340388916015625,-0.014526867307722569,-0.33823657035827637,-0.2603759169578552
1772623561878419000,8.3504189453125,-0.07616733014583588,-0.5553712844848633,-0.47709837555885315
1772623561888448800,8.36044873046875,-0.17276762425899506,-0.8022243976593018,-0.7070766091346741
1772623561898477800,8.370477783203125,-0.30698826909065247,-0.9674490690231323,-0.9037275910377502
1772623561908508000,8.3805078125,-0.4869568347930908,-1.0191292762756348,-1.0489109754562378
1772623561918537700,8.390537841796874,-0.6703314185142517,-0.8681783676147461,-1.0892421007156372
1772623561928567000,8.400567138671875,-0.8057358860969543,-0.5094814300537109,-1.0016303062438965
1772623561938596600,8.4105966796875,-0.8491997122764587,-0.028298282995820045,-0.8182827830314636
1772623561948626700,8.420626708984376,-0.7828554511070251,0.46531933546066284,-0.5743585228919983
1772623561958656800,8.43065673828125,-0.605853259563446,0.8712763786315918,-0.3235614001750946
1772623561968685800,8.440685791015625,-0.35110965371131897,1.1088770627975464,-0.09516178071498871
1772623561978716000,8.4507158203125,-0.05525057390332222,1.1614867448806763,0.10433641076087952
1772623561988746000,8.46074609375,0.22821226716041565,1.0679092407226562,0.2633783519268036
1772623561998774800,8.47077490234375,0.48110923171043396,0.8709422945976257,0.3809792697429657
1772623562008804900,8.480804931640625,0.6960208415985107,0.6034515500068665,0.4875149428844452
1772623562018835000,8.4908349609375,0.8381447196006775,0.35168004035949707,0.5851714611053467
1772623562028864800,8.50086474609375,0.9090383648872375,0.15023407340049744,0.6723658442497253
1772623562038893800,8.510893798828125,0.9195157885551453,0.005429748445749283,0.7310299873352051
1772623562048923600,8.520923583984375,0.8885560035705566,-0.10021433979272842,0.7236306667327881
1772623562058953700,8.53095361328125,0.815981924533844,-0.16577869653701782,0.6548603773117065
1772623562068982800,8.540982666015625,0.6899442076683044,-0.18920421600341797,0.530680239200592
1772623562079012900,8.551012939453125,0.5212569236755371,-0.19581419229507446,0.3772113025188446
1772623562089043000,8.56104296875,0.3085956573486328,-0.2102663218975067,0.212507963180542
1772623562099073000,8.571072998046875,0.06839319318532944,-0.24221280217170715,0.05137498676776886
1772623562109101800,8.581101806640625,-0.15181756019592285,-0.22745248675346375,-0.07920610904693604
1772623562119132000,8.5911318359375,-0.3142690658569336,-0.17973476648330688,-0.19335584342479706
1772623562129161700,8.60116162109375,-0.42072975635528564,-0.13621392846107483,-0.2928929626941681
1772623562139193900,8.61119384765625,-0.4699862599372864,-0.10957459360361099,-0.36124831438064575
1772623562149223000,8.621222900390626,-0.4581718444824219,-0.07618185877799988,-0.3945131301879883
1772623562159253000,8.6312529296875,-0.3746926486492157,-0.04347185045480728,-0.38517501950263977
1772623562169282800,8.64128271484375,-0.2391597330570221,-0.0006314823403954506,-0.33805808424949646
1772623562179311900,8.651311767578125,-0.082182377576828,0.04023365676403046,-0.2577235698699951
1772623562189341700,8.661341796875,0.06615330278873444,0.06063324958086014,-0.16006314754486084
1772623562199371800,8.671371826171875,0.15939536690711975,0.05245921015739441,-0.06267587840557098
1772623562209401900,8.68140185546875,0.1951281875371933,0.024131692945957184,0.018711984157562256
1772623562219431000,8.691430908203126,0.1911773830652237,-0.023637160658836365,0.06639588624238968
1772623562229460700,8.701460693359374,0.1719556450843811,-0.07616586983203888,0.08387589454650879
1772623562239490800,8.71149072265625,0.1547873169183731,-0.1058310866355896,0.07625365257263184
1772623562249519900,8.721519775390625,0.11332553625106812,-0.11243722587823868,0.052735477685928345
1772623562259550000,8.731550048828124,0.05269121378660202,-0.10671941190958023,0.013037063181400299
1772623562269579800,8.741579833984375,-0.021530522033572197,-0.09759053587913513,-0.04558391869068146
1772623562279609900,8.75160986328125,-0.08591936528682709,-0.08796081691980362,-0.10818392038345337
1772623562289638700,8.761638671875,-0.14674390852451324,-0.06353503465652466,-0.17120268940925598
1772623562299668700,8.771668701171874,-0.2150832861661911,-0.043471574783325195,-0.21993666887283325
1772623562309698800,8.78169873046875,-0.281037300825119,-0.024599500000476837,-0.26555052399635315
1772623562319727900,8.791727783203125,-0.3298586308956146,-0.021398380398750305,-0.2885245680809021
1772623562329758000,8.801758056640624,-0.34003111720085144,-0.006970875896513462,-0.2729802429676056
1772623562339787800,8.811787841796875,-0.3245168626308441,-0.0054866960272192955,-0.2310096174478531
1772623562349817900,8.82181787109375,-0.2888207733631134,0.02092129737138748,-0.16979920864105225
1772623562359847000,8.831846923828126,-0.23197798430919647,0.07361806184053421,-0.09936632961034775
1772623562369876700,8.841876708984374,-0.16105301678180695,0.12330245226621628,-0.04489065334200859
1772623562379906800,8.85190673828125,-0.09812571853399277,0.16253028810024261,-0.005088644567877054
1772623562389935600,8.861935546875,-0.059725601226091385,0.1791246235370636,0.016842376440763474
1772623562399965700,8.871965576171876,-0.03370172530412674,0.13365009427070618,0.034596607089042664
1772623562409995800,8.881995849609375,0.005590495653450489,0.048962172120809555,0.06494840979576111
1772623562420025900,8.89202587890625,0.03684961795806885,-0.07648656517267227,0.09578967839479446
1772623562430055000,8.902054931640626,0.06356146931648254,-0.2000783085823059,0.12884648144245148
1772623562440085000,8.9120849609375,0.08032340556383133,-0.2909240424633026,0.15514492988586426
1772623562450114800,8.92211474609375,0.0885828509926796,-0.33351191878318787,0.18248960375785828
1772623562460143900,8.932143798828125,0.08215425163507462,-0.3405836820602417,0.20038259029388428
1772623562470174000,8.942174072265624,0.04906897991895676,-0.2877658009529114,0.21530954539775848
1772623562480203800,8.952203857421875,0.00015922542661428452,-0.1663360297679901,0.21561793982982635
1772623562490233900,8.96223388671875,-0.05772440880537033,0.00379105843603611,0.1897636204957962
1772623562500262700,8.9722626953125,-0.10571297258138657,0.18441170454025269,0.12910932302474976
1772623562510292700,8.982292724609374,-0.12475478649139404,0.3406829535961151,0.03977018967270851
1772623562520323800,8.99232373046875,-0.1079864576458931,0.44974738359451294,-0.05153042823076248
1772623562530353700,9.002353759765626,-0.0693294033408165,0.4956881105899811,-0.13809174299240112
1772623562540383000,9.012383056640624,-0.03545292466878891,0.504925012588501,-0.20578236877918243
1772623562550412800,9.022412841796875,-0.01690596342086792,0.48806920647621155,-0.2537583112716675
1772623562560443000,9.03244287109375,0.00027754995971918106,0.43303871154785156,-0.2887916564941406
1772623562570471700,9.0424716796875,0.027343302965164185,0.34803491830825806,-0.3115486800670624
1772623562580501800,9.052501708984375,0.05670412257313728,0.21452294290065765,-0.33457544445991516
1772623562590531800,9.06253173828125,0.08114714920520782,0.020086079835891724,-0.3527190387248993
1772623562600561000,9.072560791015626,0.08290429413318634,-0.23449188470840454,-0.36892062425613403
1772623562610591000,9.082591064453124,0.049655962735414505,-0.467587411403656,-0.3770676851272583
1772623562620621000,9.09262109375,0.0037148362025618553,-0.56813645362854,-0.3664531409740448
1772623562630651000,9.10265087890625,-0.06815975904464722,-0.5281287431716919,-0.31702524423599243
1772623562640680000,9.112679931640624,-0.1466154158115387,-0.363332062959671,-0.22832277417182922
1772623562650709800,9.122709716796875,-0.19730770587921143,-0.09792166203260422,-0.102501779794693
1772623562660739800,9.13273974609375,-0.19019865989685059,0.20253804326057434,0.027464205399155617
1772623562670769000,9.142768798828126,-0.11361891031265259,0.4375399351119995,0.13721659779548645
1772623562680798700,9.152798828125,0.014318285509943962,0.5534968972206116,0.22733691334724426
1772623562690828800,9.162828857421875,0.1709674894809723,0.5457251071929932,0.3164082467556
1772623562700859000,9.17285888671875,0.3318628668785095,0.4313897490501404,0.4069642424583435
1772623562710888000,9.182887939453124,0.4745606482028961,0.22692714631557465,0.4830276072025299
1772623562720918000,9.19291796875,0.5683663487434387,-0.00836573913693428,0.5425275564193726
1772623562730948000,9.202947998046875,0.5978893637657166,-0.222965806722641,0.5821034908294678
1772623562740977000,9.212976806640626,0.563260018825531,-0.37029799818992615,0.5971586108207703
1772623562751006700,9.2230068359375,0.4893561005592346,-0.4448893070220947,0.5868626236915588
1772623562761036800,9.233036865234375,0.38512930274009705,-0.4886269271373749,0.5555659532546997
1772623562771067000,9.24306689453125,0.2670873701572418,-0.48446911573410034,0.5065787434577942
1772623562781096000,9.253095947265624,0.14919216930866241,-0.42542096972465515,0.44676917791366577
1772623562791125800,9.263125732421875,0.036662835627794266,-0.32513540983200073,0.37532246112823486
1772623562801155800,9.27315576171875,-0.055829815566539764,-0.21158117055892944,0.29569393396377563
1772623562811186000,9.28318603515625,-0.12329361587762833,-0.09496523439884186,0.20211319625377655
1772623562821215000,9.293215087890625,-0.15962499380111694,0.015370333567261696,0.1116221696138382
1772623562831245000,9.3032451171875,-0.174880713224411,0.10704608261585236,0.04651479423046112
1772623562841275000,9.31327490234375,-0.17628046870231628,0.17685285210609436,0.005987077951431274
1772623562851304000,9.323303955078124,-0.17622600495815277,0.21687142550945282,0.0015535736456513405
1772623562861333800,9.333333740234375,-0.1558522880077362,0.20955972373485565,0.015383369289338589
1772623562871363800,9.34336376953125,-0.13154679536819458,0.11237405240535736,0.04666639864444733
1772623562881394000,9.353393798828124,-0.09336505830287933,0.012912975624203682,0.09025302529335022
1772623562891423000,9.363423095703125,-0.0474858358502388,-0.06441851705312729,0.14102470874786377
1772623562901452800,9.373452880859375,-0.01114540547132492,-0.12451141327619553,0.17000070214271545
1772623562911483000,9.38348291015625,0.022544018924236298,-0.16900794208049774,0.16830632090568542
1772623562921512000,9.393511962890624,0.04980253800749779,-0.19910912215709686,0.13722483813762665
1772623562931542000,9.4035419921875,0.07091370970010757,-0.21606194972991943,0.08824378252029419
1772623562941571800,9.41357177734375,0.07492735981941223,-0.20913559198379517,0.03379599004983902
1772623562951602000,9.423601806640624,0.06279256939888,-0.1823854148387909,-0.020078688859939575
1772623562961630700,9.433630615234375,0.03278699517250061,-0.16580432653427124,-0.057203151285648346
1772623562971660800,9.443660888671875,-0.003146818373352289,-0.17064684629440308,-0.06125582009553909
1772623562981691000,9.45369091796875,-0.03112306073307991,-0.18480420112609863,-0.04872830957174301
1772623562991720000,9.463719970703124,-0.04857851192355156,-0.18381841480731964,-0.010573187842965126
1772623563001749800,9.473749755859375,-0.060756079852581024,-0.16297464072704315,0.03548431769013405
1772623563011779800,9.48377978515625,-0.06107044965028763,-0.12280849367380142,0.07778920978307724
1772623563021810000,9.493809814453124,-0.04316308721899986,-0.07090481370687485,0.10514946281909943
1772623563031839000,9.5038388671875,-0.020251598209142685,-0.0520457997918129,0.10863088071346283
1772623563041868800,9.513868896484375,0.012979325838387012,-0.06128590553998947,0.09575262665748596
1772623563051899000,9.52389892578125,0.0546756386756897,-0.08107216656208038,0.08606093376874924
1772623563061927700,9.533927734375,0.08785595744848251,-0.10669656842947006,0.08258257806301117
1772623563071957800,9.543957763671875,0.10252641886472702,-0.12588831782341003,0.09129911661148071
1772623563081987800,9.55398779296875,0.10220178216695786,-0.1438010036945343,0.11858666688203812
1772623563092018000,9.564017822265624,0.08683469891548157,-0.15742652118206024,0.15658313035964966
1772623563102047000,9.574046875,0.06972762197256088,-0.15194839239120483,0.20589926838874817
1772623563112076800,9.584076904296875,0.04904137924313545,-0.1411827951669693,0.25263428688049316
1772623563122107000,9.59410693359375,0.03526564687490463,-0.13949328660964966,0.28084805607795715
1772623563132136000,9.604135986328124,0.022351687774062157,-0.14993718266487122,0.29093313217163086
1772623563142166000,9.614166015625,0.018980657681822777,-0.16373476386070251,0.2860715389251709
1772623563152195800,9.62419580078125,0.020239438861608505,-0.16225607693195343,0.2591620683670044
1772623563162226000,9.634225830078124,0.023855213075876236,-0.15596915781497955,0.20669381320476532
1772623563172254700,9.644254638671875,0.016275029629468918,-0.17069199681282043,0.13840079307556152
1772623563182284800,9.654284912109375,-0.011053531430661678,-0.1916886270046234,0.07889831066131592
1772623563192315000,9.66431494140625,-0.05856511741876602,-0.1928720921278,0.04199027642607689
1772623563202344000,9.674343994140624,-0.11054496467113495,-0.15319418907165527,0.030771978199481964
1772623563212374000,9.6843740234375,-0.15006911754608154,-0.07667849212884903,0.03947511687874794
1772623563222403800,9.69440380859375,-0.15453657507896423,-0.003196282312273979,0.04886355996131897
1772623563232434000,9.704433837890624,-0.12484055012464523,0.030713815242052078,0.04200047627091408
1772623563242463000,9.714462890625,-0.07238107174634933,0.019983142614364624,0.0232347771525383
1772623563252492800,9.724492919921875,-0.016347337514162064,-0.011544373817741871,-0.003984261304140091
1772623563262523000,9.73452294921875,0.02537507563829422,-0.07167695462703705,-0.036797601729631424
1772623563272551700,9.7445517578125,0.05364252254366875,-0.14188560843467712,-0.059684477746486664
1772623563282581800,9.754581787109375,0.06694314628839493,-0.22468434274196625,-0.06189943104982376
1772623563292611800,9.76461181640625,0.07077822834253311,-0.3500947058200836,-0.06684120744466782
1772623563302642000,9.774641845703124,0.017881454899907112,-0.5431307554244995,-0.0887499749660492
1772623563312671000,9.7846708984375,-0.09230589121580124,-0.6876657605171204,-0.12243768572807312
1772623563322701000,9.794701171875,-0.22047024965286255,-0.7013933062553406,-0.15852990746498108
1772623563332731000,9.80473095703125,-0.34398913383483887,-0.5505887269973755,-0.18461374938488007
1772623563342760000,9.814760009765624,-0.469464510679245,-0.2514430582523346,-0.18382492661476135
1772623563352789800,9.824789794921875,-0.5764010548591614,0.12285597622394562,-0.15744832158088684
1772623563362819800,9.83481982421875,-0.6052857041358948,0.456155389547348,-0.13238425552845
1772623563372850000,9.844849853515624,-0.5407376289367676,0.6716041564941406,-0.10709183663129807
1772623563382878700,9.854878662109375,-0.41243159770965576,0.7407997250556946,-0.07191360741853714
1772623563392908800,9.86490869140625,-0.2502852976322174,0.6824932098388672,-0.027414018288254738
1772623563402939000,9.87493896484375,-0.06525818258523941,0.543386697769165,0.03258860111236572
1772623563412969000,9.884968994140625,0.11193928867578506,0.3533433973789215,0.11466461420059204
1772623563422998000,9.894998046875,0.2474486380815506,0.15668149292469025,0.21478694677352905
1772623563433028000,9.905028076171876,0.3066633641719818,-0.03098193183541298,0.3034127354621887
1772623563443057700,9.9150576171875,0.29112914204597473,-0.174299955368042,0.3639988303184509
1772623563453087000,9.9250869140625,0.22937814891338348,-0.2605621814727783,0.37871110439300537
1772623563463116800,9.93511669921875,0.15985207259655,-0.27139192819595337,0.34014853835105896
1772623563473147000,9.94514697265625,0.08659741282463074,-0.153495654463768,0.25122249126434326
1772623563483175700,9.95517578125,0.012029176577925682,0.08107957243919373,0.12519556283950806
1772623563493205800,9.965205810546875,-0.08941034972667694,0.5178808569908142,0.1877397745847702
1772623563503235800,9.97523583984375,-0.23126573860645294,0.6076456308364868,0.42986053228378296
1772623563513266000,9.985265869140624,-0.3278110921382904,0.30252623558044434,0.5976784229278564
1772623563523294700,9.995294677734375,-0.3444795310497284,0.07812909036874771,0.5719035267829895
1772623563533324800,10.00532470703125,-0.2859954237937927,-0.005549275781959295,0.3560125529766083
1772623563543354600,10.015354736328124,-0.21085619926452637,0.045391667634248734,0.07506262511014938
1772623563553383700,10.0253837890625,-0.17622581124305725,0.24115394055843353,-0.17899155616760254
1772623563563413500,10.03541357421875,-0.11697366833686829,0.4865895211696625,-0.3992120921611786
1772623563573443600,10.045443603515626,-0.00243670167401433,0.6345753073692322,-0.5673686265945435
1772623563583473700,10.0554736328125,0.1364775002002716,0.6202030181884766,-0.6079866290092468
1772623563593502500,10.06550244140625,0.21654927730560303,0.3488825261592865,-0.5747320652008057
