time,seconds_elapsed,z,y,x
1772480048289312300,0.078312255859375,-2.2523969419792294,-1.5293202758222817,-0.3191197256743908
1772480048299310000,0.08831005859375,-2.2595973748773335,-1.4169243152201174,-0.13905863433927296
1772480048309308400,0.098308349609375,-2.1723387781411407,-1.2612094373732805,0.017867957384884357
1772480048319306500,0.108306396484375,-2.0213076741963625,-1.0735042610257863,-0.006681523590534925
1772480048329304300,0.11830419921875,-1.870347297400236,-0.9127794460624455,-0.18394187829121947
1772480048339301400,0.12830126953125,-1.654441277962923,-0.7721066545248031,-0.3395857367284596
1772480048349299200,0.13829931640625,-1.4311667755842208,-0.6405664329916239,-0.38355186583548784
1772480048359297300,0.14829736328125,-1.2276853534340857,-0.6210971778899431,-0.49197249306589363
1772480048369295400,0.15829541015625,-1.0770622457683086,-0.6543500436723232,-0.6087827629789709
1772480048379293200,0.168293212890625,-1.006734033305943,-0.713957832416892,-0.6651448478005826
1772480048389291300,0.178291259765625,-0.9722919577389955,-0.7735650366395711,-0.6842557909838854
1772480048399288000,0.1882880859375,-0.974536521795392,-0.7696031472712754,-0.6660311291158199
1772480048409286100,0.1982861328125,-1.0482628522634505,-0.7918173171669244,-0.6164151575535536
1772480048419284200,0.2082841796875,-1.1623077491164207,-0.7780933277189731,-0.5239170527286827
1772480048429282300,0.2182822265625,-1.2567162176072597,-0.7302168933004141,-0.4305436263740062
1772480048439280400,0.2282802734375,-1.310412736481428,-0.7227759296447038,-0.3522374207697809
1772480048449278500,0.238278564453125,-1.3279519003033637,-0.7533516851723193,-0.29504107708111404
1772480048459275300,0.248275146484375,-1.3472712255403398,-0.7565303152084351,-0.21467779281660912
1772480048469273300,0.2582734375,-1.3900003601983189,-0.7393196526885032,-0.09250351165235042
1772480048479271200,0.268271240234375,-1.4411542088523506,-0.8790601318120956,-0.08180266941785812
1772480048489269200,0.278269287109375,-1.478105052369833,-0.8866022177547216,0.017798983801901338
1772480048499267300,0.288267333984375,-1.5377970122665165,-0.9643132339447736,0.09687690443098544
1772480048509265200,0.29826513671875,-1.62296535872519,-0.9907242710083722,0.2833569228976965
1772480048519262200,0.30826220703125,-1.7279267854124307,-0.9097820178121327,0.4322815560825169
1772480048529260000,0.318260009765625,-1.788928658863902,-0.9460229594945907,0.4759396421536803
1772480048539258400,0.32825830078125,-1.6615625081449745,-1.089058973032236,0.36733635183274743
1772480048549256400,0.33825634765625,-1.2926482394710181,-1.2694447662770747,0.29783070779964327
1772480048559254300,0.348254150390625,-0.9938841963440179,-1.4294664014071226,0.2154335796199739
1772480048569252400,0.35825244140625,-0.8902537259995937,-1.5710077924728392,0.26414018125236033
1772480048579249400,0.36824951171875,-0.8500465110346674,-1.6208943976700305,0.30866219067648054
1772480048589247200,0.378247314453125,-0.9173971689909696,-1.5478402673751115,0.40611674886494875
1772480048599245300,0.388245361328125,-1.0414093331068754,-1.4719184726893901,0.5307362312242389
1772480048609243100,0.3982431640625,-1.1030810686439274,-1.4534598559349774,0.654604018433392
1772480048619241200,0.4082412109375,-1.1747054583966732,-1.3459773863375186,0.7113936810173094
1772480048629239300,0.4182392578125,-1.3733537613019347,-1.194374035462737,0.6226556593783199
1772480048639236000,0.428236083984375,-1.6421137113094328,-1.018783659800887,0.45444794131368393
1772480048649234200,0.438234130859375,-1.926389210356772,-0.7092465859860181,0.16887860306352376
1772480048659232300,0.448232177734375,-2.238866721537709,-0.3347287982165813,-0.23400983140468595
1772480048669230300,0.458230224609375,-2.4128327108681202,0.08340016774237155,-0.5384554272994398
1772480048679228400,0.468228515625,-2.4220655263766644,0.28162790714800356,-0.7630005341358482
1772480048689226200,0.478226318359375,-2.2275474551439283,0.34399580825567244,-0.8761528660632669
1772480048699223300,0.488223388671875,-1.8621695439025758,0.20621172389686107,-0.8906110150046646
1772480048709221400,0.498221435546875,-1.2542822684586048,-0.05289163223206997,-0.6079867902956902
1772480048719219200,0.50821923828125,-0.666144526362419,-0.19389760124683378,-0.2286005197070539
1772480048729217300,0.51821728515625,-0.30436230152547356,-0.31914252202808857,0.13389920574948191
1772480048739215400,0.52821533203125,0.08809680112600327,-0.3417833929032087,0.5984093991331756
1772480048749212200,0.538212158203125,0.4713181198328733,-0.14557225401699542,0.8742125456504524
1772480048759210200,0.548210205078125,0.809377231515944,0.16916531105041502,0.9466256015628576
1772480048769208300,0.558208251953125,1.0158674800932406,0.4024304615676403,0.7835293812930584
1772480048779206400,0.568206298828125,1.0776146189540623,0.5322948588430881,0.20999737991541623
1772480048789204500,0.57820458984375,1.0190586773499846,0.6985059962630271,-0.5027060685262084
1772480048799202300,0.588202392578125,0.7390642166227102,0.7804670711129903,-0.977813351508975
1772480048809199400,0.598199462890625,0.28761107321083546,0.5884551374822855,-1.0376920661494136
1772480048819197200,0.608197265625,-0.1422378488972783,0.636599282926321,-0.8629825649753212
1772480048829195300,0.6181953125,-0.5649240397691726,0.6728074913829565,-0.3486190841421485
1772480048839193300,0.628193359375,-0.8794587757408618,0.6977543011128902,0.26960107700675723
1772480048849191200,0.638191162109375,-1.0636676344051956,0.6475017852127551,0.6186401401266455
1772480048859189200,0.648189208984375,-1.1285732372969388,0.6272457636475562,0.7108201189130544
1772480048869186000,0.65818603515625,-1.013437038075924,0.5264911410003901,0.8856292810693382
1772480048879184100,0.66818408203125,-0.8152449545055628,0.5484849461436271,0.38153848018646236
1772480048889182200,0.67818212890625,-0.7138380054295063,0.3236217132687568,0.40999797421246764
1772480048899180300,0.68818017578125,-0.5041694190770387,0.43147476974427695,0.5869602227494121
1772480048909178400,0.698178466796875,-0.37321839560866354,0.6800953103035688,0.8532888539567589
1772480048919176400,0.708176513671875,-0.44315673197060823,1.019331941333413,1.0203229981973767
1772480048929173200,0.71817333984375,-0.41022798357605933,1.2828116128504277,1.2561460165038705
1772480048939171300,0.72817138671875,-0.10006079516410828,1.3324468736350537,1.3492635684013365
1772480048949169200,0.738169189453125,0.33004999275058505,1.1791098308354615,1.2664254184558987
1772480048959167200,0.748167236328125,0.6912661081373691,0.9803209504157304,1.2279483882844446
1772480048969165300,0.758165283203125,1.0342162067323923,0.6715478467106819,1.159118013164401
1772480048979163100,0.7681630859375,1.3037719832926988,0.3092541652202606,1.112306285367906
1772480048989160200,0.77816015625,1.4934288782298564,0.11350421410501002,1.158086624290049
1772480048999158300,0.788158203125,1.5719249073177575,0.004442366361618042,1.1645552357822655
1772480049009156400,0.79815625,1.5138219701781868,-0.16998422621786594,1.1429171122089028
1772480049019154400,0.808154541015625,1.3978455207407474,-0.3161637984782457,1.054746661324799
1772480049029152300,0.81815234375,1.3080959839716553,-0.43747430242002006,0.8548024733901023
1772480049039150300,0.828150390625,1.2018363341674208,-0.6048954001516104,0.5543944624483585
1772480049049147400,0.8381474609375,1.081108306288719,-0.7571651059806347,0.19914339294582603
1772480049059145200,0.848145263671875,0.9852934781312942,-0.8160211995750665,-0.10757862344831227
1772480049069143300,0.858143310546875,0.8999927374646067,-0.7572937007963657,-0.3287351107597351
1772480049079141400,0.868141357421875,0.723730453890562,-0.6232534791409969,-0.4440659557700157
1772480049089139200,0.87813916015625,0.5231108509123326,-0.5679051014065742,-0.502186428566277
1772480049099137300,0.88813720703125,0.5197258846491575,-0.6321189226418733,-0.4456742677494883
1772480049109134000,0.898134033203125,0.5470674805611372,-0.5371463905274868,-0.5784145127221941
1772480049119132200,0.908132080078125,0.6920970060035586,-0.40697336569428444,-0.5852580950066447
1772480049129130200,0.918130126953125,0.8467039226084947,-0.4481394888192415,-0.577831159876287
1772480049139128000,0.928128173828125,0.9749062318906188,-0.5336825138092041,-0.716305856847763
1772480049149126100,0.938126220703125,1.0481722513705491,-0.5552642310202122,-0.7804428134545683
1772480049159124200,0.948124267578125,1.067686222396791,-0.4969955819249153,-0.8045438200101256
1772480049169121000,0.95812109375,1.0844447572350502,-0.4866822777032852,-0.9025324850752949
1772480049179119000,0.968119140625,1.100864561638236,-0.600033931595087,-0.9867138663232325
1772480049189117000,0.978116943359375,1.0554115549743175,-0.675799658936262,-1.0424819307744502
1772480049199115000,0.988114990234375,0.9529799390256404,-0.717872375512123,-1.00749478854537
1772480049209113000,0.998113037109375,0.8381395078808068,-0.7072445985138416,-0.9416025127038359
1772480049219110000,1.00810986328125,0.7320406015962362,-0.7102022792756557,-0.9604971827879547
1772480049229108000,1.01810791015625,0.6349339800626039,-0.7235416533201933,-1.0536401613876223
1772480049239106000,1.02810595703125,0.546752715523541,-0.7066700134962797,-1.1048732127577066
1772480049249104100,1.038104248046875,0.3774322139114141,-0.6014817923158406,-1.1268544506803155
1772480049259102200,1.048102294921875,0.17677520153224469,-0.42757250160872934,-1.0828548576951027
1772480049269100000,1.05810009765625,0.06271802971959113,-0.293662043812871,-0.9717942373499273
1772480049279097000,1.06809716796875,0.05856558621525764,-0.15876958924233914,-0.8723127033784985
1772480049289095200,1.07809521484375,0.16989041045457123,-0.12517010197937486,-0.8215373326480389
1772480049299093000,1.088093017578125,0.3708417296051979,-0.14742752649486063,-0.7421870248183607
1772480049309091000,1.098091064453125,0.6634671238467097,-0.15378011039197445,-0.6763125768944621
1772480049319089000,1.1080888671875,0.9206196381688118,-0.11621581115126609,-0.6273883869886397
1772480049329087000,1.1180869140625,1.1000894856125116,0.027424598020315168,-0.5694932473808527
1772480049339084000,1.128083984375,1.3421499370038508,0.18732874425053594,-0.6181631702646613
1772480049349082000,1.13808203125,1.3133935058578847,0.38147067564725873,-0.795529323427379
1772480049359080200,1.148080078125,0.8614180921375751,0.7966811238110065,-1.015309553949535
1772480049369078300,1.158078369140625,0.1702203730612993,1.1745967373251913,-1.2683747989580034
1772480049379076000,1.168076171875,-0.6427995988711714,1.4075187734931707,-1.4916782351702451
1772480049389074200,1.17807421875,-1.3981713916942475,1.505984992942214,-1.4931024227544665
1772480049399071000,1.188071044921875,-1.856160074354708,1.4737456881165503,-1.1505135586872697
1772480049409069000,1.198069091796875,-1.8554501725196837,1.4585381821125745,-0.5137649304181338
1772480049419067100,1.208067138671875,-1.6036118389576672,1.4196335741788149,-0.06674860040992497
1772480049429065000,1.21806494140625,-1.3762094429939984,1.2520645924091338,0.1713841561436653
1772480049439063000,1.22806298828125,-1.1071434957772492,1.180755844476819,0.43178515086770053
1772480049449059800,1.238059814453125,-0.8901584489315748,1.2998130165338515,0.40671617606282234
1772480049459058000,1.248057861328125,-0.8084171543121338,1.4428139587581157,0.026310207037627695
1772480049469056300,1.25805615234375,-0.9061588588789105,1.690284744760394,-0.47323944328427314
1772480049479054000,1.26805419921875,-1.1595900145903228,1.9853432113677263,-0.8181611342132091
1772480049489052200,1.27805224609375,-1.4422469725251197,1.8607827657192944,-1.126174359461665
1772480049499050200,1.28805029296875,-1.6547122038587927,1.3937643889069555,-1.1562263833761215
1772480049509047000,1.298047119140625,-1.7112603127717971,0.7525503056615591,-0.8329752569854258
1772480049519045000,1.308045166015625,-1.5901201969608663,0.037813305565714835,-0.3809603880375623
1772480049529043000,1.31804296875,-1.4161784652888774,-0.6138543671548367,-0.09912819048911332
1772480049539041000,1.328041015625,-1.309042032650113,-1.0601210478395222,0.2829831211492419
1772480049549039000,1.3380390625,-1.2368255222231148,-1.1713795288443565,0.8378232815384864
1772480049559037000,1.348036865234375,-1.1917729130536316,-1.1686737770169973,1.3038038397356868
1772480049569034000,1.358033935546875,-1.3411881062343716,-1.173732229450345,1.5828262405604123
1772480049579032000,1.368031982421875,-1.6197636400744317,-1.0090835190415381,1.962996939525008
1772480049589030100,1.378030029296875,-1.8997244907930493,-0.7858060940533876,2.270314291463792
1772480049599028200,1.3880283203125,-2.021826729634404,-0.615608517345786,2.4199098096475002
1772480049609026000,1.398026123046875,-1.9748048662185669,-0.604701923406124,2.4473539891511202
1772480049619024100,1.408024169921875,-1.750406912767887,-0.6323445480912924,2.451669806523621
1772480049629021200,1.418021240234375,-1.3120657643854616,-0.6614665976792573,2.3842677106410264
1772480049639019000,1.42801904296875,-0.7293354342907666,-0.6547896041333675,2.081460237342119
1772480049649017000,1.43801708984375,-0.16700842527747153,-0.7685416555196046,1.6442720583871007
1772480049659015000,1.448014892578125,0.2622705879881978,-0.8056412598580122,1.3411264391750097
1772480049669013000,1.458012939453125,0.6531485589280724,-0.8118050431847572,1.204570143045485
1772480049679011000,1.468010986328125,0.8921861553668975,-0.8372294072985649,1.178930090354383
1772480049689007900,1.4780078125,0.9418509345069527,-0.9036264177918434,1.1058379661366342
1772480049699006200,1.488006103515625,1.1440808952912687,-1.0381365950465202,0.9965481548562646
1772480049709004300,1.49800439453125,1.2668395522147415,-1.0974988845974207,0.7267401571005583
1772480049719002000,1.508002197265625,1.313669107928872,-1.0992395907849073,0.39838790817856784
1772480049729000200,1.518000244140625,1.257944298097491,-1.1315145514458418,0.20870675558298826
1772480049738997000,1.5279970703125,1.1386930647730826,-1.1139034914314747,0.26189503267407416
1772480049748995000,1.5379951171875,0.9093436263948679,-1.3735896158844232,-0.2753290992647409
1772480049758993200,1.5479931640625,0.6919476606607436,-1.522333485674858,-0.668757631470263
1772480049768991000,1.557990966796875,0.5805412956178188,-1.3883265817672013,-0.9131526632890105
1772480049778989000,1.567989013671875,0.3684250238522887,-1.397230603712797,-0.9642167878329754
1772480049788987100,1.577987060546875,-0.08691840499639511,-1.474065421590209,-0.890007057762146
1772480049798984000,1.58798388671875,-0.5369698649168014,-1.39480074621737,-0.7473325710132718
1772480049808982000,1.59798193359375,-0.8627543091773986,-1.2017793432831763,-0.7605626394644379
1772480049818980000,1.60797998046875,-1.0278116003870963,-0.915219824951887,-0.7723103604033589
1772480049828978200,1.617978271484375,-1.1407768853098152,-0.9096130909860134,-0.8948464606173336
1772480049838976300,1.627976318359375,-1.1066788008749484,-0.8816682684838771,-0.9386777112983167
1772480049848974000,1.63797412109375,-0.9521616083800792,-0.726762953454256,-0.8600042798168956
1772480049858971100,1.64797119140625,-0.8250897644326091,-0.6322779125958681,-0.7957312757402658
1772480049868969000,1.657968994140625,-0.622525749388337,-0.6499041701793671,-0.7543903805702924
1772480049878967000,1.667967041015625,-0.35865123333483934,-0.5347784923523664,-0.6922473742596804
1772480049888965000,1.677965087890625,-0.09787994399368763,-0.4253624243438244,-0.5992331366062164
1772480049898963000,1.687962890625,0.18794921423643826,-0.4047650419950485,-0.539643175779283
1772480049908961000,1.6979609375,0.4896688922986388,-0.41036768430769444,-0.6076033439360559
1772480049918957800,1.707957763671875,0.756086663094163,-0.45018063925802704,-0.6942687970846891
1772480049928956000,1.717955810546875,0.9161509683221578,-0.47824061257243156,-0.7437374691307544
1772480049938954200,1.727954345703125,0.8731614291623234,-0.3854033389210701,-0.8133399976670742
1772480049948952000,1.7379521484375,0.8024310656398534,-0.3541360939979553,-0.6981266415566205
1772480049958950100,1.7479501953125,0.6305056422263383,-0.31458032867908475,-0.7378630241394043
1772480049968947200,1.757947265625,0.3316603505566716,-0.294171162378788,-1.003895010487735
1772480049978945000,1.767945068359375,-0.033843525151908395,-0.21290157692432402,-1.1117238093048334
1772480049988943000,1.777943115234375,-0.3686123631179333,-0.10584288569688796,-1.0445201586037873
1772480049998941000,1.78794091796875,-0.6258692145973443,0.031791561058163643,-0.9459928566172718
1772480050008939000,1.79793896484375,-0.7066852110654115,0.16102525921463964,-0.9096654056951403
1772480050018937000,1.80793701171875,-0.7042962701022625,0.30894261505305765,-0.9552361935198307
1772480050028934000,1.817933837890625,-0.7107078907102345,0.43135377371311184,-1.0278671299666167
1772480050038932000,1.827931884765625,-0.7890151192277669,0.7551514280706644,-1.2724193981736898
1772480050048930000,1.837929931640625,-1.0536176572948694,1.2077011345475912,-1.5825968157187102
1772480050058928000,1.84792822265625,-1.5041016634136437,1.6176491321384905,-1.8989812712103127
1772480050068926200,1.85792626953125,-2.0698791051417587,1.8238252002000808,-2.076023891507089
1772480050078924000,1.867924072265625,-2.619160462360084,1.854634764483571,-2.115994375106692
1772480050088921000,1.877921142578125,-3.0018305769249793,1.9714035333424806,-1.9405150586038826
1772480050098919200,1.887919189453125,-3.077059713171422,2.029880272230506,-1.609673623214662
1772480050108917000,1.8979169921875,-2.802087464520335,1.7632915287822484,-1.0935700207158923
1772480050118915000,1.9079150390625,-2.345239768588543,1.562324719801545,-0.5934954697370529
1772480050128913200,1.9179130859375,-1.8041402565211058,1.3580828346729277,-0.19083236845731735
1772480050138909700,1.92790966796875,-1.2962076855182647,1.1569196263372898,0.19102935233414173
1772480050148907800,1.93790771484375,-0.7879962975740432,1.0465905351370572,0.5824219947978854
1772480050158905900,1.94790576171875,-0.3040647798836231,0.9051613722741604,0.9308435105413198
1772480050168903700,1.957903564453125,0.1361383629783988,0.6951105086058378,1.1350701981008051
1772480050178901800,1.96790185546875,0.5895271506279707,0.36544074734449383,1.4739081852018832
1772480050188899800,1.97789990234375,0.9755448220551013,0.039075872847437854,1.8274442674800753
1772480050198896600,1.987896728515625,1.226526831048727,-0.2845236285895109,2.074006706465781
1772480050208894700,1.997894775390625,1.350057349127531,-0.5548696787446737,2.349383152003586
1772480050218892500,2.007892578125,1.3173279226973653,-0.7052005254656076,2.686287540693581
1772480050228890600,2.017890625,1.13079032882452,-0.7176742225915194,2.9056746802449225
1772480050238888700,2.027888671875,0.685768387503922,-0.608055325487256,3.11385156673491
1772480050248885500,2.037885498046875,0.20751579223275182,-0.41386429425179955,3.288361745944619
1772480050258883800,2.0478837890625,-0.18668167851865292,-0.16080314089655875,3.290664762189984
1772480050268882000,2.0578818359375,-0.47587505248486994,0.1556418126106262,3.0821956147551535
1772480050278879700,2.067879638671875,-0.7130138295650482,0.46598201950192447,2.743813262467086
1772480050288877800,2.0778779296875,-0.8404539223030209,0.61526540299654,2.2958161047279835
1772480050298875600,2.087875732421875,-0.8492536070913076,0.6940203752815723,1.7260992777243256
1772480050308872700,2.097872802734375,-0.6879512845009566,0.7862590985178947,1.2745906047329305
1772480050318870800,2.107870849609375,-0.396845354911685,0.8255845622122288,0.727363549695909
1772480050328868600,2.11786865234375,-0.07823007162809371,0.7088140397876501,0.18474135810583828
1772480050338866700,2.12786669921875,0.2747819867759943,0.4968085349202156,-0.22599194464385508
1772480050348864800,2.13786474609375,0.4916442840248346,0.26491408823430534,-0.42302842843830585
1772480050358862600,2.147862548828125,0.7313412211552262,0.1351817929059267,-0.39052228937000033
1772480050368859600,2.157859619140625,0.8982806728497147,0.028726328268647194,-0.4591349300861358
1772480050378857700,2.167857666015625,1.052156352570653,-0.2796358565479517,-0.48809097545742985
1772480050388855800,2.177855712890625,1.236036417672038,-0.6536445257514715,-0.6975596553236245
1772480050398854000,2.18785400390625,1.662971790421009,-0.9392992041975259,-0.7111494969978928
1772480050408851700,2.197851806640625,2.1521377016335723,-1.052417049333453,-0.5082876680508256
1772480050418849800,2.207849853515625,2.4495097058802844,-1.1992600539386271,-0.3545259700983763
1772480050428846600,2.2178466796875,2.5389514918744562,-1.3884253659665584,-0.3111868868485093
1772480050438844700,2.2278447265625,2.5457290231853724,-1.5179314513236284,-0.316636968947947
1772480050448842800,2.2378427734375,2.2783353930950163,-1.529801337337494,-0.6028349604904651
1772480050458840600,2.247840576171875,1.7038146729409693,-1.34834353094697,-0.6293079568743706
1772480050468838700,2.257838623046875,1.1590770966321229,-1.0166571691662072,-0.5062777895331383
1772480050478835500,2.26783544921875,0.6539940698415041,-0.7886725894004106,-0.4190077946200967
1772480050488833800,2.277833740234375,0.2054606132686138,-0.6704185504198074,-0.34003508793115617
1772480050498832000,2.287831787109375,-0.01387070444226265,-0.5485995124340057,-0.16059914275705814
1772480050508829700,2.29782958984375,0.0365296954959631,-0.46867608089148993,0.031205285602807997
1772480050518827800,2.307827880859375,0.11558218942284583,-0.5301964252591133,0.0001312251642346382
1772480050528825900,2.317825927734375,0.26427871294021604,-0.6574445025563239,0.00701309363245964
1772480050538822700,2.32782275390625,0.4565133494108915,-0.6882242562234401,0.037648178131878374
1772480050548820700,2.33782080078125,0.7096016830340027,-0.6058323887407779,-0.01165682778507471
1772480050558818600,2.347818603515625,0.7962795572727918,-0.427229971781373,-0.12290917131006716
1772480050568816600,2.357816650390625,0.6965525241076946,-0.29682956793308257,-0.27289427333325145
1772480050578814700,2.367814697265625,0.6721086954638361,-0.1837672523766756,-0.5033028653755783
1772480050588811500,2.3778115234375,0.7020055288165807,-0.021457214048504827,-0.8714692382916808
1772480050598809600,2.3878095703125,0.6984431601598858,0.1640735408693552,-1.1115592663928866
1772480050608807700,2.3978076171875,0.7529179699301719,0.21674422382712363,-1.2901768809214234
1772480050618805800,2.4078056640625,0.7395166365653276,0.24314824662804602,-1.4365607435822485
1772480050628803800,2.417803955078125,0.7111638177841901,0.30627251906096936,-1.441918178962171
1772480050638801700,2.4278017578125,0.718721101295948,0.30139234580397606,-1.4401991000846028
1772480050648798700,2.437798828125,0.7982908970952034,0.16220073273479937,-1.4467287941142917
1772480050658796800,2.447796875,0.9621721302628516,-0.0038899931758642195,-1.3028925701096654
1772480050668794600,2.457794677734375,1.08066845356673,0.009119126001000405,-1.1553852563768625
1772480050678792700,2.467792724609375,1.1065613119751214,0.19910861389338969,-1.035611752744019
1772480050688790800,2.477790771484375,0.7869169779047369,0.4271294340163469,-0.8137199368953705
1772480050698787600,2.48778759765625,0.10124825138300657,0.6633820759117602,-0.5474398210048675
1772480050708785700,2.49778564453125,-0.8219996894627809,0.8178653661370276,-0.2418295652449131
1772480050718783700,2.50778369140625,-1.7142343601465224,1.0318132372438906,0.10752455517351626
1772480050728781800,2.51778173828125,-2.39960965667963,1.1456857001394032,0.31952392256110906
1772480050738780000,2.52777978515625,-2.788931630349159,1.1353986994028091,0.4435968769535422
1772480050748777700,2.53777783203125,-2.8781711717694995,0.9192045106738805,0.5697124430894851
1772480050758774800,2.54777490234375,-2.735727278906107,0.765646518599987,0.7515180400043725
1772480050768772600,2.557772705078125,-2.4612679482132194,0.9508189615994691,0.8358747778192162
1772480050778770700,2.567770751953125,-2.3157672981277106,0.9321072468668222,0.9028872898623347
1772480050788768800,2.577768798828125,-2.1675351772516964,1.164718901911378,0.936007469175756
1772480050798766600,2.5877666015625,-1.9713816137716174,1.3872639209717512,0.8759259254395961
1772480050808763600,2.597763671875,-1.6337579708963632,1.427111947235465,0.5996595453247427
1772480050818761500,2.607761474609375,-1.1172311745494603,1.3256734339773655,0.36383535797446964
1772480050828759600,2.617759521484375,-0.6221303203299641,1.0294318950653076,0.32513504044115543
1772480050838757600,2.627757568359375,-0.5280146973058581,0.5546726948678493,0.2456628597974777
1772480050848755700,2.637755615234375,-0.49419192268103357,0.26971710460186005,0.31847353672534223
1772480050858753800,2.64775390625,-0.33696634801030156,-0.010893734458088875,0.666560705947876
1772480050868750600,2.65775048828125,-0.2266509930744767,-0.45453766542375085,1.1637161546096204
1772480050878748700,2.667748779296875,-0.2004588594585657,-0.818314278948307,1.4726576006188987
1772480050888746800,2.677746826171875,-0.281660640373826,-1.0104904632300138,1.5916139426499605
1772480050898744600,2.68774462890625,-0.46420098130404946,-1.0162520954966545,1.782328529946506
1772480050908742700,2.69774267578125,-0.756636698192358,-0.9031430181890726,1.9965549257338047
1772480050918740700,2.70774072265625,-1.2041942954704166,-0.8351777354657649,2.0492712013989687
1772480050928737500,2.717737548828125,-1.7266744472637772,-0.755787972408533,1.934294576653838
1772480050938735600,2.727735595703125,-2.105403422987461,-0.6654968761086464,1.7186656205922364
1772480050948733700,2.737733642578125,-2.2346979114204646,-0.6183253750890493,1.4552441090032457
1772480050958731800,2.747731689453125,-2.0612761119693515,-0.5875210715025663,1.2435291115149856
1772480050968729900,2.757729736328125,-1.6301783588439225,-0.6117547645270824,0.9823033564046024
1772480050978726700,2.7677265625,-1.1797218252539634,-0.7529927887320518,0.6811696615368127
1772480050988724700,2.777724853515625,-0.7547451853573321,-0.8853747217863798,0.4492974266827106
1772480050998722800,2.787722900390625,-0.4301271545276045,-0.8750631711304188,0.3753527772888541
1772480051008720600,2.797720703125,-0.3217851454913616,-0.8355471533000469,0.3520344455435872
1772480051018718700,2.80771875,-0.3060743661403656,-0.9072177202820777,0.3525932484701276
1772480051028716500,2.817716552734375,-0.1303264618292451,-0.9466589193105697,0.48188218394517895
1772480051038713600,2.827713623046875,0.006148001235723495,-1.0908581314086914,0.25743250030726195
1772480051048711700,2.837711669921875,0.21401041494905948,-1.2507032409280538,0.14905132830440998
1772480051058709500,2.84770947265625,0.33811405674070116,-1.2876011852145195,0.00035129765570163723
1772480051068707600,2.85770751953125,0.46773587743192907,-1.287799922657013,0.03369827146232128
1772480051078705700,2.86770556640625,0.5694979235559702,-1.2765718416780232,0.11281564731895923
1772480051088702700,2.87770263671875,0.5345043515861034,-1.2579004589557647,-0.021718495333194733
1772480051098700800,2.88770068359375,0.5016682499110698,-1.1368097352445126,-0.14251608131676913
1772480051108698600,2.89769873046875,0.4147705954417586,-1.0363736770272254,-0.32365751523450015
1772480051118696700,2.90769677734375,0.2358335397005081,-0.9557160859912633,-0.4917223176971078
1772480051128694800,2.91769482421875,-0.04811608839333057,-0.8322352522730827,-0.6277304784245789
1772480051138692900,2.92769287109375,-0.41545886996686454,-0.7118523845702409,-0.8705323958329856
1772480051148690000,2.93768994140625,-0.7916869687855244,-0.6135656133413314,-1.170464021434635
1772480051158687700,2.947687744140625,-1.1379860855475068,-0.5398907207995652,-1.4788221145980058
1772480051168685800,2.957685791015625,-1.4432856679230928,-0.46024727524220943,-1.7314542288862167
1772480051178684000,2.967683837890625,-1.6514827204182743,-0.3821364460796118,-1.8407205131605267
1772480051188681700,2.977681640625,-1.7260858337208627,-0.35375089407265187,-1.7762765364311635
1772480051198679000,2.987678955078125,-1.664459983152151,-0.3842272808790207,-1.790056786110997
1772480051208676900,2.9976767578125,-1.4542352242216467,-0.4478641790091991,-1.729372454176098
1772480051218675000,3.007675048828125,-1.174362928569317,-0.4715320548444986,-1.6288015175327657
1772480051228673000,3.017673095703125,-0.9090940355479716,-0.5289876339912414,-1.454369079734385
1772480051238670800,3.0276708984375,-0.5673831233590841,-0.5638485194921493,-1.173215512099862
1772480051248669000,3.0376689453125,-0.3215972217038274,-0.5711807620763778,-0.8573859140120447
1772480051258666000,3.047666015625,-0.15665478904545307,-0.5634867004424333,-0.5640628928951918
1772480051268663800,3.057663818359375,-0.046288872966170305,-0.5432102206110954,-0.25167408291101456
1772480051278662000,3.067661865234375,0.014521861827373504,-0.5506634592264891,-0.1088708552159369
1772480051288659700,3.07765966796875,0.03435878119766712,-0.46881519710123537,-0.10488660788536071
1772480051298657800,3.08765771484375,0.01270341422855854,-0.49613458118140696,-0.1470093010827899
1772480051308655000,3.097655029296875,-0.2307750872671604,-0.49430736575424666,-0.3175383017018437
1772480051318653000,3.10765283203125,-0.7533642523929476,-0.3713946873128414,-0.5734118821293115
1772480051328651000,3.117651123046875,-1.5226368525356053,0.04177753302156925,-0.7786465776875615
1772480051338649000,3.127649169921875,-2.43888660505712,0.7849322338283061,-0.7827212797805666
1772480051348647000,3.13764697265625,-3.3084818661704656,1.5296452699929475,-0.5788178328260779
1772480051358645000,3.14764501953125,-3.9191166867569085,1.9052637124806642,-0.46757411099895835
1772480051368641800,3.157641845703125,-4.154617048980295,1.7818226262509822,-0.4072311398476362
1772480051378640000,3.167639892578125,-4.092724948690831,1.4946931990772485,-0.26722061161100863
1772480051388638000,3.177637939453125,-3.577314881414175,1.3859580990701914,0.21787454303130507
1772480051398635800,3.1876357421875,-2.704704364132881,1.2366589334845541,1.0412769388988614
1772480051408633900,3.1976337890625,-1.8812603210806846,0.9387526762306689,1.657891418416798
1772480051418632000,3.2076318359375,-1.1129843307599425,0.46033553804755206,1.9267165426149964
1772480051428629000,3.21762890625,-0.5076701206743717,0.0007616320222616196,2.0509876499280333
1772480051438627000,3.227626953125,-0.039915538541972634,-0.3856155203670263,2.062224498735368
1772480051448625000,3.237625,0.3056681234270334,-0.5996294424474239,1.982011144335568
1772480051458623000,3.247623046875,0.46455403252542016,-0.8823293627411126,1.9182634793072937
1772480051468621000,3.25762109375,0.5554179602771997,-1.1404998219341038,2.0140233624070882
1772480051478617900,3.267617919921875,0.4700441543743014,-1.3332225341826676,1.9745014993578194
1772480051488616000,3.277615966796875,0.276211142796278,-1.3666957647174596,1.8623007690668105
1772480051498613800,3.28761376953125,0.030908640743792057,-1.325704413637519,1.6490911491066216
1772480051508611800,3.29761181640625,-0.14268559266477823,-1.1300158373206852,1.2684728525049984
1772480051518610000,3.30760986328125,-0.25529139662533995,-0.9065291534960269,0.8579382871977984
1772480051528607700,3.317607666015625,-0.2618649297967553,-0.6167407362461089,0.5454965779826044
1772480051538605000,3.32760498046875,-0.2694163680896163,-0.3913993644654751,0.3566879704378545
1772480051548603000,3.337602783203125,-0.38681554380655286,-0.24818857888281343,0.16425430426374077
1772480051558601000,3.34760107421875,-0.6264595817059279,-0.25791268503963943,-0.06347104004397988
1772480051568599000,3.35759912109375,-0.8878419886827469,-0.24329028544723985,-0.1738562453456223
1772480051578596900,3.367596923828125,-1.0354445794835687,-0.1550450157612562,-0.2626787303976714
1772480051588594000,3.377593994140625,-1.1180033279657364,-0.09843523978888988,-0.45642260238751764
1772480051598592000,3.387592041015625,-1.196468085132539,-0.12759294521212577,-0.6509688768014311
1772480051608589800,3.39758984375,-1.2132920864224432,-0.14779285267591474,-0.8553273740470408
1772480051618588000,3.407587890625,-1.1463061701253057,-0.22068273231983185,-1.0277249450169503
1772480051628585700,3.417585693359375,-1.0036278839841484,-0.3619143267840147,-1.187289045637846
1772480051638583000,3.4275830078125,-0.8956889027908443,-0.5110235227555037,-1.2772719527713954
1772480051648581000,3.4375810546875,-0.7319581840097904,-0.6526134291380643,-1.3893354665488005
1772480051658579000,3.447578857421875,-0.27240269042402504,-0.860008225339651,-1.4608599030584095
1772480051668577000,3.457576904296875,0.08126403249651193,-0.9242886820703744,-1.2279098098397254
1772480051678575000,3.4675751953125,0.03027940292954445,-0.8742273048281669,-0.8865469804361462
1772480051688573000,3.477572998046875,-0.22072481789588927,-0.9353811539709568,-0.6347289590097963
1772480051698570000,3.487570068359375,-0.569397385790944,-0.9605261166214942,-0.261268717469275
1772480051708567800,3.49756787109375,-0.8521084120005369,-1.071195984083414,-0.07477817760854959
1772480051718566000,3.50756591796875,-1.1141007675692438,-1.1651163767963648,-0.11262918483614921
1772480051728564000,3.51756396484375,-1.374403270354867,-1.116657174053788,-0.0710496586047113
1772480051738561800,3.527561767578125,-1.551808001962304,-1.0098907437711953,0.0034067397035658356
1772480051748559000,3.53755908203125,-1.6309586955666542,-0.9511275891572236,0.06919950069338082
1772480051758557000,3.547556884765625,-1.6837629417762159,-0.9630600190132855,0.206978324355185
1772480051768555000,3.557554931640625,-1.668385924424231,-0.8454553838521242,0.4334403707288205
1772480051778553000,3.567552978515625,-1.6502423649683593,-0.6988315749555826,0.6005956571310759
1772480051788551000,3.577551025390625,-1.5974924792945384,-0.6166501353532076,0.7618444959685206
1772480051798549000,3.587549072265625,-1.4072940248265862,-0.4650023608148098,0.9651911858230828
1772480051808545800,3.5975458984375,-1.0575742859661579,-0.3277712341636419,1.087326450151205
1772480051818543900,3.6075439453125,-0.6389706882327795,-0.24164251824021338,1.0500805692099033
1772480051828542000,3.6175419921875,-0.306946472799778,-0.2825672338247299,0.8198192766837775
1772480051838539800,3.627539794921875,0.004085223487019538,-0.36982933769226073,0.6461981552682816
1772480051848537900,3.637537841796875,0.17726240052729844,-0.41620998059511183,0.36597149322032924
1772480051858535000,3.647534912109375,0.2377507714986801,-0.5018944598823786,0.19061361114010214
1772480051868533000,3.657532958984375,0.14186638523638248,-0.5947884321570396,0.14218363449200988
1772480051878531000,3.667531005859375,0.005227963781356811,-0.6765706433087587,0.0074114453002810474
1772480051888529000,3.67752880859375,-0.1686176140397787,-0.7313701549887657,-0.18648674046844244
1772480051898527000,3.68752685546875,-0.4479752381682396,-0.6893173121571541,-0.19040961300060152
1772480051908525000,3.697525146484375,-0.8552601540297269,-0.5219324547827243,0.0680962156265974
1772480051918521900,3.70752197265625,-1.1122910877987742,-0.3997960214108228,0.21801146728396414
1772480051928520000,3.71752001953125,-1.3615297602564096,-0.45898646152615546,0.10093041760548949
1772480051938518000,3.72751806640625,-1.6110653698340058,-0.5803332058250904,0.05978548339903354
1772480051948515800,3.737515869140625,-1.6329142135486006,-0.7469301276922226,0.039735213539004326
1772480051958514000,3.747513916015625,-1.6880200146988034,-0.9388269105106591,-0.021257745953649283
1772480051968511000,3.757510986328125,-1.920476771442592,-1.0714859069406986,0.0930589535780251
1772480051978509000,3.767509033203125,-2.2886133337423202,-1.0534650970816613,0.3134787971779704
1772480051988507100,3.777507080078125,-2.7300334511786697,-0.9439028986006974,0.4509153832733631
1772480051998505000,3.7875048828125,-3.214676916530728,-0.7727864534825086,0.5160911814086139
1772480052008503000,3.7975029296875,-3.6916906176567075,-0.44417292327582836,0.6072033848330378
1772480052018501000,3.807501220703125,-4.153157205560803,-0.26935820816159245,0.6363844711318611
1772480052028498000,3.817497802734375,-4.430418149670958,-0.23275427838563917,0.5572201873935759
1772480052038496000,3.82749609375,-4.192936258241534,-0.26935060937702654,0.48324119733870025
1772480052048493800,3.837493896484375,-3.837965466985106,-0.38625440279245377,0.6212557294525206
1772480052058492000,3.847491943359375,-3.2596897782117127,-0.4849602762162685,0.8350218142516911
1772480052068490000,3.857489990234375,-2.421721535244584,-0.7642699695497751,1.030007356865704
1772480052078487000,3.867487060546875,-1.5376888757169245,-1.094368769878149,1.4408441199898718
1772480052088485000,3.877485107421875,-0.8291174125134945,-1.2734224377363919,2.0254947506226597
1772480052098483000,3.88748291015625,-0.2715212314143777,-1.3244915307164191,2.508447924800217
1772480052108481000,3.89748095703125,0.1257435179531574,-1.3123755609869956,2.8137413696959612
1772480052118479000,3.90747900390625,0.3684545422077179,-1.2292214769601821,2.9694349124938246
1772480052128476000,3.917475830078125,0.29296061754524705,-1.0307312872260808,2.947320695841312
1772480052138474000,3.927473876953125,-0.14656068053245544,-0.7517945188581943,2.4270928530193863
1772480052148472000,3.93747216796875,-0.7354653153479099,-0.37536475998759267,1.588352164375037
1772480052158470000,3.947469970703125,-0.8694076295867562,-0.04228723610937595,1.2016345279850065
1772480052168468000,3.957468017578125,-0.9234080998435616,0.07948620916903018,0.908381941755861
1772480052178466000,3.967466064453125,-1.0079296728312968,0.10079203204810619,0.6185454475805163
1772480052188462800,3.977462890625,-1.0459878930687905,0.168382051718235,0.31320494867265225
1772480052198461000,3.9874609375,-1.0141574613049626,0.11823533428013323,0.05908493391424417
1772480052208459000,3.997458984375,-1.0271958065763116,-0.05488309831023216,-0.21779738614186644
1772480052218456000,4.0074560546875,-1.0051035094946623,-0.254123814150691,-0.38767888263761996
1772480052228454100,4.0174541015625,-0.9947311685621738,-0.4723024546951055,-0.4739142738059163
1772480052238452000,4.027451904296875,-1.1034390883013605,-0.7213771687626839,-0.5808031614243984
1772480052248450000,4.037449951171875,-1.2092425187706946,-0.8734580740213393,-0.6862083863563835
1772480052258446800,4.04744677734375,-1.3129708965316413,-1.0024509491592646,-0.8382793547429144
1772480052268445000,4.05744482421875,-1.4060665288582443,-1.1527303579539059,-0.9271398337177932
1772480052278443000,4.067443115234375,-1.4593927531152964,-1.2464467525273561,-0.9422386186502874
1772480052288440800,4.07744091796875,-1.4125252034783362,-1.2352777082592248,-0.8915311985895037
1772480052298439000,4.08743896484375,-1.3635104126796125,-1.2164607795864344,-1.0193288725934921
1772480052308436000,4.09743603515625,-1.2918980056256055,-1.227106676763296,-1.1489623837225138
1772480052318434000,4.10743408203125,-1.19048930298388,-1.3209703708529472,-1.1595306856185197
1772480052328432000,4.11743212890625,-1.0101187073081732,-1.2789818254292011,-1.0242295041166245
1772480052338430000,4.127429931640625,-0.7990975373029708,-1.301220545244217,-0.8263212059237063
1772480052348428000,4.137427978515625,-0.7534554378077387,-1.2649135525882242,-0.538001838313043
1772480052358424800,4.1474248046875,-0.903067614865303,-1.167208380639553,-0.28799203535243867
1772480052368423000,4.1574228515625,-1.0341922413349152,-1.15684422301352,-0.06423369497954845
1772480052378421000,4.1674208984375,-1.0621984386354684,-1.1492723264545202,0.028763299278169868
1772480052388418800,4.177418701171875,-1.0857719141855835,-1.1066659413933753,-0.0006477963842451572
1772480052398417000,4.1874169921875,-1.0698784717440604,-1.090651795181632,-0.1011668567098677
1772480052408415000,4.1974150390625,-1.0571218660235404,-1.1278852550327778,-0.1688708581484854
1772480052418412000,4.207412109375,-1.0674369238108397,-1.168286239004135,-0.268216783041507
1772480052428410000,4.21741015625,-1.1392869390130043,-1.1784937447637318,-0.4311076899975538
1772480052438408000,4.227407958984375,-1.1437713909506797,-1.1863263380855322,-0.5442825260177254
1772480052448406000,4.237406005859375,-1.1552046391129493,-1.0998930862575769,-0.47977498253285883
1772480052458404000,4.247404052734375,-1.1424287441700696,-0.8831576302587986,-0.40144802640154953
1772480052468401000,4.25740087890625,-1.071214688783884,-0.7782675152420997,-0.3289085676304996
1772480052478399000,4.26739892578125,-0.8377882102251052,-0.8121370516180991,-0.34933322376087306
1772480052488397000,4.27739697265625,-0.5194707408443093,-0.6194067405849695,-0.3720585580490529
1772480052498395000,4.287394775390625,-0.3891042392656207,-0.47011751187145706,-0.39395650160238144
1772480052508393000,4.29739306640625,-0.42121465701460836,-0.3798293381810188,-0.5655589766718447
1772480052518390000,4.30739013671875,-0.6241454595446586,-0.16398820067346095,-0.8851853366941214
1772480052528388000,4.31738818359375,-1.0942986272513866,0.13221709788143635,-1.1983970073685049
1772480052538386200,4.32738623046875,-1.7354817308366297,0.49407414152026174,-1.5713221191190183
1772480052548384000,4.337384033203125,-2.293735206800699,0.8854927952080964,-1.9051020921781658
1772480052558382000,4.347382080078125,-2.742905207711458,1.2097294255048037,-2.0633786372065543
1772480052568380200,4.357380126953125,-3.091535105508566,1.3622715185344219,-2.1649352238863706
1772480052578377000,4.367376953125,-3.223420487217605,1.5101485423624514,-2.271776326840371
1772480052588375000,4.377375,-3.173272016213834,1.395132754650712,-2.072002527036518
1772480052598372900,4.387372802734375,-2.9666958429187535,1.2229524796932936,-1.6773114275492726
1772480052608371000,4.397370849609375,-2.68922680901587,1.1629501386731862,-1.2184938928492366
1772480052618370000,4.4073701171875,-2.2796739482223987,1.0666408049970864,-0.4749994386941194
1772480052628368000,4.417367919921875,-1.7639906169623136,0.8071475727677345,0.24249065950214863
1772480052638366000,4.427365966796875,-1.2212535668209195,0.5940513500541448,0.6124804484531283
1772480052648364000,4.437364013671875,-0.6891723507285118,0.3069716072410345,0.7995594557262956
1772480052658360800,4.44736083984375,-0.10845452950000763,0.07331248897016047,0.9768106042072177
1772480052668359200,4.457359130859375,0.39448154838979244,-0.29023382292985916,1.1201768726125358
1772480052678357200,4.467357177734375,0.7193120529264211,-0.5495043523192406,1.3043499293111265
1772480052688355000,4.47735498046875,0.8686994813174009,-0.6559072099864482,1.5694922733433543
1772480052698353200,4.487353271484375,0.8014765413939953,-0.7405290284782647,1.9247928810760377
1772480052708350000,4.497349853515625,0.5573574039071798,-0.736240975895524,2.1567411037757993
1772480052718348000,4.50734814453125,0.14973580343723297,-0.6027613107323646,2.298253853268921
1772480052728346000,4.51734619140625,-0.2902045968353748,-0.3748889591693878,2.4235801687233147
1772480052738344000,4.527343994140625,-0.5842670381426811,-0.08709493060708046,2.4530621376648543
1772480052748342000,4.537342041015625,-0.6448477635726332,0.22457681714892386,2.2942010707467793
1772480052758338800,4.5473388671875,-0.5129012993261218,0.4523825332164764,2.0146230818659068
1772480052768337000,4.5573369140625,-0.3114461223065853,0.686174922478199,1.8499423688836394
1772480052778335000,4.5673349609375,-0.29670740285813807,0.9227087194025516,1.810201894647628
1772480052788333000,4.5773330078125,-0.3970566595748067,1.0410831698924303,1.609710009702295
1772480052798331100,4.5873310546875,-0.29354163230359553,1.0029863712102174,1.3310310154877603
1772480052808329200,4.5973291015625,-0.0805097069978714,0.8668447933614254,1.094244705107063
1772480052818326000,4.607325927734375,0.16406126590967177,0.8298071483433246,1.023278340871632
1772480052828324000,4.617323974609375,0.40695261516720055,0.7624404160350561,1.0410847773276268
1772480052838322000,4.627322021484375,0.6277972600504755,0.5706932708203792,0.8225185987703502
1772480052848320000,4.637320068359375,0.9586611995324492,0.32930735768973823,0.49000893790796396
1772480052858318000,4.647318115234375,1.3257763098299502,0.09187105896770953,0.171876177444309
1772480052868315000,4.65731494140625,1.5959388201117515,-0.14796645567715166,-0.043763007750362154
1772480052878313000,4.66731298828125,1.7369667086973786,-0.4391320064991712,-0.1893753015168011
1772480052888310800,4.677310791015625,1.7490733260765672,-0.5904781677424907,-0.24775062585696578
1772480052898309000,4.68730908203125,1.56473996424973,-0.6995639808833599,-0.2463074413113296
1772480052908307200,4.69730712890625,1.2521926027029753,-0.8111229061394929,-0.2543172908961773
1772480052918304000,4.707303955078125,0.9085612438455224,-0.8874141186594963,-0.30931919328048824
1772480052928302000,4.717302001953125,0.6550798192515969,-0.9477133967995643,-0.3444831533811986
1772480052938300000,4.7272998046875,0.44988428665995595,-0.9546586858928203,-0.31775574384480715
1772480052948298000,4.737298095703125,0.3834335001528263,-0.9056155457824469,-0.3662998483918607
1772480052958296000,4.747296142578125,0.2958575080305338,-0.83354575034976,-0.4377160022214055
1772480052968294000,4.7572939453125,0.23282617457807062,-0.7333107676625251,-0.3252098592430353
1772480052978291000,4.767291015625,0.3381254549175501,-0.574503769019246,-0.0981828724630177
1772480052988289000,4.7772890625,0.5818927102267741,-0.5126274508208036,0.034178017803281543
1772480052998286800,4.787286865234375,0.9539978838965296,-0.4258142597645521,0.08904168076068163
1772480053008285000,4.797284912109375,1.3306845401376486,-0.3351420551925897,0.015958470501750706
1772480053018283000,4.807282958984375,1.4388696050465106,-0.3280383606672287,-0.2646187585495412
1772480053028280000,4.817280029296875,1.2097680039495229,-0.33696927061975,-0.6745417678296566
1772480053038278100,4.827278076171875,0.8259051724687219,-0.3578215045124292,-0.9991900476671755
1772480053048276000,4.83727587890625,0.5553375885173678,-0.3812906429052353,-1.115023727633059
1772480053058274000,4.847274169921875,0.42465427607446904,-0.4007815253168344,-1.1634715321987867
1772480053068272000,4.857272216796875,0.34113486586660147,-0.46624563887417314,-1.1550463798113166
1772480053078269000,4.86726904296875,0.2982955488324165,-0.5304261423617601,-0.9811664613291621
1772480053088267000,4.87726708984375,0.3754594525337219,-0.5052104525625706,-0.7168927168250083
1772480053098264800,4.887264892578125,0.44405484985411164,-0.46635143733620643,-0.5188327352017164
1772480053108263000,4.897262939453125,0.48475101737976073,-0.3531745554894209,-0.4572951474383473
1772480053118261000,4.907260986328125,0.5139578226417303,-0.2774702029466629,-0.5164160294488072
1772480053128258000,4.917258056640625,0.447737630020082,-0.28478432535231113,-0.6700058779656887
1772480053138256000,4.927255859375,0.3151180888175964,-0.27517127835452554,-0.8056114492416382
1772480053148254000,4.93725390625,0.21248305925130842,-0.1822112551063299,-0.7615496046751737
1772480053158252000,4.947251953125,0.18399229330420494,-0.06471767910420895,-0.6312514921575785
1772480053168249900,4.957249755859375,0.32646395095735786,0.040215106010437006,-0.5311792988166213
1772480053178248000,4.967248046875,0.6450163981378078,0.06145487791597843,-0.509586767950654
1772480053188244700,4.97724462890625,1.0255594375461339,0.06250877088308333,-0.5465308894664049
1772480053198242800,4.987242919921875,1.2063307229772209,0.18147358848154543,-0.4429717307925224
1772480053208241000,4.997240966796875,1.3442355111062525,0.5041863702118397,-0.4201274462997913
1772480053218238700,5.00723876953125,1.225925942546129,0.7781231383353471,-0.40279958714097736
1772480053228236800,5.01723681640625,0.7189584171831608,0.8976502659916877,-0.5842115085631608
1772480053238233900,5.02723388671875,-0.15218553467690943,0.9743523974001407,-0.9282996712774038
1772480053248232000,5.03723193359375,-1.3141905014544724,1.1569459298223257,-1.2001488194718957
1772480053258230000,5.04722998046875,-2.504669283044338,1.4277736260145901,-1.2460603835582733
1772480053268227800,5.057227783203125,-3.2898259732782837,1.6230074443012474,-0.9099807552546262
1772480053278226000,5.067225830078125,-4.037984181460738,1.5434779805123806,-0.7901981915324926
1772480053288222700,5.07722265625,-4.4424975867822765,1.285869246855378,-0.8134078022062778
1772480053298220800,5.087220703125,-4.370839879281819,1.2585317425966263,-0.9846388136148452
1772480053308219000,5.097218994140625,-3.9984862838089463,1.2078957803368569,-0.9736997787103057
1772480053318216700,5.107216796875,-3.1734020723342895,1.0811994917035102,-0.6889253902301192
1772480053328214800,5.11721484375,-1.968705672560632,0.8443862933158874,-0.3578954465314746
1772480053338212900,5.127212890625,-0.799063635033369,0.48290568177402016,-0.03934387613385915
1772480053348210000,5.1372099609375,0.08019348065555096,-0.022792262044548987,0.39495501112043857
1772480053358208000,5.1472080078125,0.6459644926428795,-0.5100532164186239,0.8818398256585002
1772480053368205800,5.157205810546875,0.8439800506025552,-0.8401192835211754,1.2302876448869704
1772480053378204000,5.167203857421875,0.9096300421208142,-1.118981233087182,1.4796727400779723
1772480053388202000,5.177201904296875,0.7667816601097583,-1.3594453551977872,1.5357982396647334
1772480053398198800,5.18719873046875,0.566583205153048,-1.5434885019063949,1.5612810559675097
1772480053408196900,5.19719677734375,0.2255821947991848,-1.6634861696839331,1.4978993016421793
1772480053418194700,5.207194580078125,-0.2531187287613749,-1.7086042453050612,1.3921800423249602
1772480053428192800,5.21719287109375,-0.9142623780965804,-1.6290058079332113,1.4129574574157595
1772480053438190800,5.22719091796875,-1.6209855830848217,-1.4697311917781828,1.5248086436167358
1772480053448188000,5.23718798828125,-2.2501471172258256,-1.156437980300188,1.7805515834018586
1772480053458186000,5.24718603515625,-2.7590596391767264,-0.8618103063255548,1.95391113127172
1772480053468184000,5.25718408203125,-3.1891160665556786,-0.6639835489362478,1.8010016662344335
1772480053478182000,5.267181884765625,-3.3072119923651218,-0.30008535485863685,1.6329416860774157
1772480053488180000,5.277179931640625,-3.137736592452228,-0.028645664247870444,1.4800290061697363
1772480053498176800,5.2871767578125,-2.7154443693339823,0.08706804260015487,1.2399568059861659
1772480053508174800,5.2971748046875,-2.059374954523146,-0.08514204297363757,0.9812573544830083
1772480053518173000,5.3071728515625,-1.308924543750286,-0.31324820329248904,0.8114023076027631
1772480053528170800,5.317170654296875,-0.5551081636756658,-0.28448563466668125,0.7266428342059255
1772480053538168800,5.3271689453125,-0.0860994898289442,-0.26319734744429585,0.6270838510841131
1772480053548167000,5.3371669921875,0.2732794732585549,-0.4811328268826008,0.7789405921980738
1772480053558164000,5.3471640625,0.7553285382032394,-0.7947013481706381,0.8452060852661728
1772480053568162000,5.357162109375,1.2116525025218725,-1.1172592316001653,0.6891355258494615
1772480053578159900,5.367159912109375,1.4172060547709464,-1.2358949633747338,0.5342728809177876
1772480053588158000,5.377157958984375,1.5349755251049995,-1.3195377077013253,0.46529520628154275
1772480053598156000,5.387156005859375,1.6119722555458544,-1.2847078018605709,0.37299919990003105
1772480053608152800,5.39715283203125,1.5507316049024462,-1.1650883197456599,0.17031038943231105
1772480053618151000,5.40715087890625,1.3698153580427168,-1.0562672950208187,0.09028072103634475
1772480053628148700,5.417148681640625,1.1210910648480057,-1.0508347485780716,-0.051141135302931066
1772480053638146800,5.427146728515625,0.8159206618100404,-1.0079314263969659,-0.3884691562324762
1772480053648145000,5.437144775390625,0.47680911846458907,-0.9204600636929273,-0.8472649174921214
1772480053658142700,5.447142822265625,0.0996674119323492,-0.8689408888578415,-1.358570179798454
1772480053668140000,5.45714013671875,-0.2217033075392246,-0.7581810050249099,-1.6839232469044625
1772480053678137900,5.467137939453125,-0.4053139080494642,-0.6865408331811428,-1.9372316530190408
1772480053688136000,5.477135986328125,-0.5191065837070346,-0.7113391743510961,-2.0845080806054175
1772480053698134000,5.487134033203125,-0.6057125617533922,-0.679192223984003,-2.0451102823272347
1772480053708131800,5.4971318359375,-0.6825345201492309,-0.6377870314061641,-1.9199314125195144
1772480053718129000,5.50712890625,-0.7515098566979169,-0.5856237134486436,-1.764092323771119
1772480053728127000,5.517126953125,-0.7791644640818238,-0.5239823730498552,-1.6739583177290855
1772480053738124800,5.527124755859375,-0.7346241883486508,-0.4821598318427801,-1.5655726156815886
1772480053748123000,5.537122802734375,-0.6109206517904997,-0.4628144953817129,-1.436224351234734
1772480053758120700,5.54712060546875,-0.42539281948208807,-0.4526718715518713,-1.3190348727457224
1772480053768118000,5.557117919921875,-0.2329272968649864,-0.3872475054830313,-1.1370545037858188
1772480053778116000,5.5671162109375,-0.0788490803092718,-0.29898294657468794,-1.04834307789281
1772480053788114000,5.577114013671875,0.013614391593635082,-0.291364288264513,-1.0645846031196415
1772480053798112000,5.587112060546875,0.11666764657199383,-0.27489596854448317,-1.036514254541695
1772480053808110000,5.597110107421875,0.3321381972014904,-0.35434359926879405,-0.9352933295570314
1772480053818107000,5.60710693359375,0.5919102463722229,-0.5180342783004045,-0.7386904148742556
1772480053828105000,5.61710498046875,0.7225128947943449,-0.5822644661486148,-0.6669429832637309
1772480053838102800,5.627102783203125,0.7662766331970691,-0.6468219862550497,-0.6066228084661066
1772480053848100900,5.637100830078125,0.7050625782996416,-0.6737713679790497,-0.4132352025680244
1772480053858099000,5.647098876953125,0.5593196438908576,-0.7001911728709935,-0.22144904051721095
1772480053868096000,5.657095947265625,0.2063090467914939,-0.7111544654339551,-0.14497165777534246
1772480053878094000,5.667093994140625,-0.4781438741996884,-0.4971265148282051,-0.14955314034670592
1772480053888092000,5.677091796875,-1.4499261288508771,-0.14979367110431194,-0.29779753618240357
1772480053898090000,5.687090087890625,-2.4256927769631145,0.42266193321347234,-0.6004959961488843
1772480053908088000,5.697088134765625,-3.3643463767334816,1.2520189997017384,-1.0259563279092312
1772480053918086000,5.7070859375,-4.212435323959589,1.9705191517233847,-1.374552323436737
1772480053928083000,5.7170830078125,-4.954214644759893,2.3069997620433567,-1.4889429649874568
1772480053938080800,5.727080810546875,-5.254318704319,2.595683432921767,-1.5201161018863318
1772480053948078800,5.737078857421875,-5.151377385282516,2.6337872458666562,-1.4073925167649983
1772480053958077000,5.747076904296875,-4.448391028735041,2.504305710428953,-0.6881079363673925
1772480053968074800,5.75707470703125,-3.423988360008597,2.3938147066652773,0.20266279924362895
1772480053978071800,5.76707177734375,-2.4028239425510165,2.1660785487025973,0.8007324450284242
1772480053988070000,5.77706982421875,-1.359689685347676,1.868335373055935,1.336120009189844
1772480053998068000,5.78706787109375,-0.4319996704012155,1.61822839333117,1.7219699228346346
1772480054008066000,5.797066162109375,0.37076720306426286,1.4326777646690607,2.06128809466809
1772480054018064000,5.80706396484375,1.0538847837984562,1.002610523635149,2.342309560355544
1772480054028061000,5.81706103515625,1.6921595987215636,0.5438590399086475,2.6136858303412795
1772480054038059000,5.82705908203125,2.250118767914176,0.16963351308405397,2.78185277800411
1772480054048056800,5.837056884765625,2.70437060213387,-0.16800211248993874,2.852650069282949
1772480054058055000,5.847054931640625,2.9270085601747033,-0.4816898762434721,2.796897202400863
1772480054068053000,5.857052978515625,2.8298531310632824,-0.6351970149129629,2.621920282462239
1772480054078049800,5.8670498046875,2.414647943596542,-0.5080354468554258,2.4627055798009034
1772480054088047900,5.8770478515625,1.9430428235158324,-0.2581546771019697,2.2943290810406207
1772480054098046000,5.8870458984375,1.764111028471589,-0.0366121130824089,2.134105493597686
1772480054108044000,5.8970439453125,1.4604659353047609,0.32362638944387434,1.8659411713957785
1772480054118042000,5.9070419921875,0.8665946179926395,0.6831874311000108,1.6547160032510757
1772480054128039000,5.917038818359375,0.6332476344108581,0.8100549846470355,1.324920862044394
1772480054138037200,5.927037353515625,0.6389402930945157,0.7367588622897863,0.92274905141294
1772480054148035300,5.937035400390625,0.44170039568245406,0.5925128884404898,0.5810486606180667
1772480054158033400,5.947033447265625,0.1253612406373024,0.566079639545083,0.3100485304683447
1772480054168031200,5.95703125,-0.1445654150620103,0.5491197369158267,0.0846662421554327
1772480054178029300,5.967029296875,-0.10216361266225575,0.3828109843403101,-0.022209639851003885
1772480054188026000,5.977026123046875,0.38868250672221183,0.12064122637808322,0.03396627474874258
1772480054198024200,5.987024169921875,1.034162430718541,-0.23775544767379758,0.027548370530456303
1772480054208022300,5.997022216796875,1.4992325960725545,-0.4509761735498905,0.00963452817723155
1772480054218020000,6.00702001953125,1.8286434141367673,-0.6558095948308705,-0.05923895543217659
1772480054228018200,6.01701806640625,2.2332556036576627,-0.8198743678718805,-0.1056520392999053
1772480054238015200,6.02701513671875,2.5262200205951926,-1.0456669905513525,-0.42389468987882134
1772480054248013300,6.037013427734375,2.5940353734537958,-1.2379045496314762,-0.5382683802947402
1772480054258011400,6.047011474609375,2.494969726806879,-1.2340987276077269,-0.5839961122468114
1772480054268009200,6.05700927734375,2.1602952891260383,-1.1662065101206303,-0.6528542521566152
1772480054278007300,6.06700732421875,1.6756868950873611,-1.1684440599143504,-0.7557523165732621
1772480054288004000,6.077004150390625,1.2585352497279643,-1.3190303427010774,-0.9156924108996987
1772480054298002200,6.087002197265625,0.9966431396633386,-1.3739713086783885,-0.9145496706053614
1772480054308000300,6.097000244140625,0.7979904528439045,-1.0982564249664544,-0.888447845621407
1772480054317998000,6.106998046875,0.6311854411840438,-0.8586480429023504,-0.9217451350674033
1772480054327996200,6.11699609375,0.5153039765536784,-0.7620031936615705,-0.9706664023637771
1772480054337993200,6.1269931640625,0.48397155743986364,-0.6931523602753877,-0.963419207714498
1772480054347991300,6.1369912109375,0.5200938411787152,-0.6198468855679035,-0.9904176892772316
1772480054357989400,6.1469892578125,0.5777408512443304,-0.5384773468703031,-1.0282736649408937
1772480054367987200,6.1569873046875,0.5822784946739673,-0.4132949699312448,-1.0632482399493455
1772480054377985300,6.1669853515625,0.5009761759936809,-0.28224223965406414,-1.0721531386777758
1772480054387983400,6.1769833984375,0.46408407692611214,-0.1009048447728157,-1.021775242832303
1772480054397980200,6.186980224609375,0.3959305781543255,0.06449322269856929,-0.990306922379136
1772480054407978200,6.196978271484375,0.42619127638339993,0.20776830568909643,-0.902875599424541
1772480054417976300,6.206976318359375,0.4003156613707542,0.39352585510015486,-0.792782362806797
1772480054427974100,6.21697412109375,0.5121507732197642,0.5444540831923484,-0.6865118993476033
1772480054437972200,6.22697216796875,0.8466545305088162,0.5697440072715282,-0.5653489871829748
1772480054447969300,6.23696923828125,1.1827715682134032,0.5628863964617252,-0.5517331342846155
1772480054457967400,6.24696728515625,1.3097604100525377,0.5514917267441749,-0.6777104609936475
1772480054467965400,6.25696533203125,1.2456027029186487,0.46751638946235174,-0.9832873990058898
1772480054477963300,6.26696337890625,1.2583709990769625,0.38030280091166496,-1.245393151821196
1772480054487961300,6.27696142578125,1.3732459170132874,0.18180384334921837,-1.2437187888681889
1772480054497958100,6.286958251953125,1.4966846651554107,-0.10173837298750876,-0.8285349364504218
1772480054507956200,6.296956298828125,1.4833236638009548,0.08423194239139556,-0.46457244496494526
1772480054517954300,6.306954345703125,0.9475374557107686,0.45106502087712286,-0.16977759772986173
1772480054527952100,6.3169521484375,-0.007305354577302932,0.8390244740217924,0.11624386820197105
1772480054537950200,6.3269501953125,-1.2740809016451238,1.2421376571565865,0.29153935257047414
1772480054547947300,6.336947265625,-2.6463158880501982,1.9919670134216545,0.377775620521605
1772480054557945300,6.3469453125,-3.8609304552480577,2.678400879096985,0.33232816681563854
1772480054567943400,6.356943359375,-4.682670909252763,3.1026994736015796,0.11458411829620599
1772480054577941200,6.366941162109375,-4.843201078426838,3.135339760443568,-0.26555735457390545
1772480054587939300,6.376939208984375,-4.352695735304057,2.9086563264042136,-0.49138271047919985
1772480054597936000,6.38693603515625,-3.347873965360224,2.622819277128577,-0.6856289790332317
1772480054607934200,6.396934326171875,-2.1180659206837413,2.271635018673539,-0.9407330363929272
1772480054617932300,6.406932373046875,-0.8948603430122136,1.9053098897099494,-0.762619571994245
1772480054627930000,6.41693017578125,-0.015161913296580313,1.4720447294175625,-0.172089674064517
1772480054637928200,6.42692822265625,0.641709465546906,1.00001641548872,0.43772798492014403
1772480054647926300,6.43692626953125,1.0918386668786406,0.4956523506224155,0.9262117590874432
1772480054657923300,6.44692333984375,1.2090341367170214,0.17432722385823726,1.374044958436489
1772480054667921400,6.45692138671875,1.2720213387668131,-0.08316518994271754,1.8088570559099315
1772480054677919200,6.466919189453125,1.2694225544452666,-0.3499783897966146,2.104597951823473
1772480054687917300,6.476917236328125,1.018463049544394,-0.6837538328111171,2.351131164714694
1772480054697915400,6.486915283203125,0.4721475563943386,-0.862764830571413,2.6219886715233325
1772480054707912200,6.496912109375,-0.29705811599195003,-0.773404877641797,2.862940869411826
1772480054717910300,6.50691015625,-1.070865729215741,-0.6122223820388317,2.909476410615444
1772480054727908400,6.516908447265625,-1.71906952521801,-0.45393502335548397,2.8824598088741302
1772480054737906200,6.52690625,-2.0468822604358197,-0.35931729602813717,2.8743989597544073
1772480054747904300,6.536904296875,-2.0952236820176244,-0.4817833997458219,2.769080974714458
1772480054757901300,6.5469013671875,-1.974854842840135,-0.6663081924915313,2.4814085267052053
1772480054767899400,6.5568994140625,-1.674042342750728,-0.7226596097886562,2.1743828511893746
1772480054777897500,6.5668974609375,-1.2347466701224445,-0.7267243750095367,1.9314944245412944
1772480054787895300,6.576895263671875,-0.837859521895647,-0.7401683784723282,1.6687857373967765
1772480054797893400,6.586893310546875,-0.5607882551386952,-0.7979208947390317,1.2949226141437888
1772480054807890200,6.59689013671875,-0.24199293911308048,-0.7530407195270061,1.129956800609827
1772480054817888300,6.60688818359375,0.20145926867276429,-0.6879910319894552,1.0551856372639536
1772480054827886300,6.61688623046875,0.6276297945290804,-0.730067840218544,0.9718065123096108
1772480054837884200,6.62688427734375,0.9603454993575811,-0.7203203531861305,0.8008470113188028
1772480054847882200,6.63688232421875,1.2837521085709334,-0.5871995844632387,0.6969076211556792
1772480054857879000,6.646879150390625,1.4918495000839231,-0.5615004950612783,0.5948907234877348
1772480054867877000,6.656877197265625,1.5530115325331686,-0.531567713612318,0.5021387900322676
1772480054877875500,6.66687548828125,1.5433990700572728,-0.5412725305467844,0.3515396477639675
1772480054887873300,6.676873291015625,1.5069523766696453,-0.6322106925785541,0.12066080786138772
1772480054897871400,6.686871337890625,1.4389008769676088,-0.7864648502230643,-0.25313567989617586
1772480054907869400,6.696869384765625,1.3129369942620397,-0.9155804749578237,-0.5700263313442469
1772480054917866200,6.7068662109375,1.1391650661990045,-1.0610668042570353,-0.8463754213064908
1772480054927864300,6.7168642578125,0.9011538901984691,-1.1074895327359437,-0.9813298351973294
1772480054937862100,6.726862060546875,0.5915393672332168,-1.0364672005295752,-0.9428409684576093
1772480054947860200,6.736860107421875,0.25203005674183365,-0.9665613051325083,-0.8013042535670101
1772480054957858300,6.7468583984375,-0.06374503467977047,-0.8742951093673705,-0.6618260786414146
1772480054967855000,6.756855224609375,-0.3492632272645831,-0.7759276741176844,-0.6100527829147875
1772480054977853200,6.766853271484375,-0.555223314487934,-0.6503571746438741,-0.6409254755623638
1772480054987851300,6.776851318359375,-0.7420715817451476,-0.5379384176880121,-0.752678169824928
1772480054997849300,6.786849365234375,-0.8820727576315402,-0.4298731797665357,-0.9117438194043934
1772480055007847400,6.796847412109375,-0.9577367781639099,-0.32170038981735705,-1.07720413845703
1772480055017844200,6.80684423828125,-0.9609680151700973,-0.25878186908960343,-1.2313811392121017
1772480055027842300,6.81684228515625,-0.8242185345560312,-0.2304050849109888,-1.3454156608015297
1772480055037840400,6.82684033203125,-0.5774006595045328,-0.24849779096245764,-1.3992038034819065
1772480055047838200,6.836838134765625,-0.22299568543732165,-0.24725685099065303,-1.4038446150250732
1772480055057836300,6.846836181640625,0.12134440621137618,-0.2388321369946003,-1.3377099087297915
1772480055067833000,6.8568330078125,0.3811410053014755,-0.26321722118854524,-1.2868955211631954
1772480055077831200,6.8668310546875,0.5448793228670954,-0.3987245927870273,-1.358798581726849
1772480055087829200,6.876829345703125,0.6422989558726548,-0.5641220757365226,-1.421164437007904
1772480055097827000,6.8868271484375,0.6737824738949537,-0.626358459419012,-1.2897761911660433
1772480055107825200,6.8968251953125,0.6692363548979163,-0.6108651222109794,-1.0958429340839386
1772480055117822200,6.906822265625,0.6387538306117058,-0.6115268009901046,-0.9427908457055687
1772480055127820300,6.9168203125,0.4931719319835305,-0.6375345179498195,-0.7973784584254026
1772480055137818400,6.926818359375,0.16191022535562513,-0.564358222579956,-0.7312778005301952
1772480055147816400,6.93681640625,-0.33454525834321974,-0.16344050366282462,-0.568860502435267
1772480055157814500,6.946814453125,-1.051984503135085,0.07904431062042713,-0.5831318966329098
1772480055167811600,6.9568115234375,-1.8491186314105987,0.4664432072728872,-0.7673448469504713
1772480055177809400,6.966809326171875,-2.671177357584238,1.280063775447011,-0.8428753042310476
1772480055187807500,6.976807373046875,-3.519156122434139,2.0851690287321807,-0.7737000611960887
1772480055197805300,6.986805419921875,-4.290276688531041,2.5673405510127543,-0.7598176663160323
1772480055207803400,6.996803466796875,-4.824880701099336,2.7661627491801974,-0.7223682256266474
1772480055217800700,7.00680078125,-4.960217100045084,2.5022324112862346,-0.6495251077339053
1772480055227798500,7.016798583984375,-4.438628051872551,2.020036923608184,-0.16761545125991106
1772480055237796600,7.026796630859375,-3.434867189158499,1.4091151027739046,0.47604310252815485
1772480055247794700,7.036794677734375,-2.361630346897244,0.7626748093128204,1.0456965089067816
1772480055257792500,7.04679248046875,-1.2881772315368056,0.2654045020997524,1.6860905079409478
1772480055267790600,7.05679052734375,-0.43017216271311043,-0.2242313647121191,2.3066291751652956
1772480055277787400,7.066787353515625,0.1555053267493844,-0.5658920080184936,2.7889792688831685
1772480055287785500,7.076785400390625,0.5339730211883783,-0.7626789009660482,3.2488109490618107
1772480055297783600,7.086783447265625,0.7403945884436368,-0.827900437939167,3.6494761545225978
1772480055307781400,7.096781494140625,0.9176257170498371,-0.7338871062457561,3.9515179041460153
1772480055317779500,7.106779541015625,1.01102004006207,-0.506377158254385,4.065132592888176
1772480055327776500,7.116776611328125,0.9839280349969863,-0.38315292964577674,3.774042153128981
1772480055337774600,7.126774658203125,1.0416630156069993,-0.24116145672500133,2.8974776375249025
1772480055347772700,7.136772705078125,1.188060614532232,0.021913141122460365,2.0240172254160047
1772480055357770500,7.1467705078125,1.231760055527091,0.3584218084931373,1.2983756772071122
1772480055367768600,7.1567685546875,1.0991396375417708,0.481658312061429,0.543183040343225
1772480055377765400,7.166765380859375,0.7502870369046926,0.4440998580396175,-0.10199264000952243
1772480055387763500,7.176763427734375,0.2790074955165386,0.4041378500074148,-0.40480858887583016
1772480055397761500,7.186761474609375,-0.15108955613374708,0.36840836497843266,-0.5887234330296516
1772480055407759400,7.19675927734375,-0.5574173174008726,0.4545283130735159,-0.7969517574459314
1772480055417757400,7.20675732421875,-0.9886296368166804,0.6027589726448058,-0.9683768301218747
1772480055427754500,7.21675439453125,-1.2346850030630827,0.653619391310215,-0.9831801392391324
1772480055437752600,7.226752685546875,-1.3035229769676924,0.5512444739848374,-0.947503261180222
1772480055447750700,7.236750732421875,-1.1271198236182332,0.38403146604597566,-0.8882949931472539
1772480055457748500,7.24674853515625,-0.7818865825220942,0.07116261745989322,-0.7569093776538968
1772480055467746600,7.25674658203125,-0.33612580553293225,-0.26500585817098615,-0.7876876700162887
1772480055477743600,7.26674365234375,0.14757219566255808,-0.5495318248480558,-0.9680877840474247
1772480055487741400,7.276741455078125,0.6471148317217826,-0.7722106994211674,-1.3014359415605663
1772480055497739500,7.286739501953125,1.030643024420738,-0.8990770839244127,-1.2498705894961952
1772480055507737300,7.2967373046875,1.271199500989914,-0.8987614421039819,-0.9557663548737764
1772480055517735400,7.3067353515625,1.3859227354958652,-0.8770265801578759,-0.7108595741406083
1772480055527732700,7.316732666015625,1.3013766125887631,-0.9316402138769626,-0.4188888444155454
1772480055537730600,7.32673046875,0.986627357083559,-0.8932827184319496,-0.17533844672739504
1772480055547728600,7.336728759765625,0.5329109449148178,-0.7962094146460295,-0.0286062090203166
1772480055557726700,7.346726806640625,-0.013688041351735592,-0.8167845851629972,0.0456859386369586
1772480055567724500,7.356724609375,-0.5740659621238708,-0.8455413085699081,0.21574030748158693
1772480055577721600,7.3667216796875,-1.0382061531513929,-0.7522194662719964,0.42937107546329495
1772480055587719400,7.376719482421875,-1.3558417777478695,-0.6056190382510424,0.6288134513556957
1772480055597717500,7.386717529296875,-1.537585707603395,-0.5335545035153627,0.7742492195114493
1772480055607715600,7.396715576171875,-1.544372299003601,-0.5959621521115303,0.8564356275498867
1772480055617713400,7.40671337890625,-1.389623343579471,-0.6930342868536711,0.9519202008396387
1772480055627710500,7.41671044921875,-1.179174128243327,-0.7669821511179208,1.0199953736782073
1772480055637708500,7.42670849609375,-0.8879401883602142,-0.8106675635874271,1.1587219995841382
1772480055647706600,7.43670654296875,-0.6300128902733325,-0.8551257139950991,1.2334306190878153
1772480055657704700,7.44670458984375,-0.3692588443279266,-0.9344120166778563,1.2024468672811985
1772480055667702500,7.45670263671875,-0.19698095421493053,-1.0872878717064858,1.05730891302824
1772480055677699600,7.466699462890625,-0.08680325418412685,-1.373518888735771,1.066743973110616
1772480055687697400,7.476697509765625,-0.1487234115242958,-1.4093021497786045,1.0953875915318727
1772480055697695500,7.486695556640625,-0.39891543918401,-1.4405711482673882,0.9222618524178862
1772480055707693600,7.496693603515625,-0.835164583723247,-1.3201251522004604,0.764357647833228
1772480055717691400,7.50669140625,-1.385954884199798,-1.0228273822337388,0.863380332121253
1772480055727688400,7.5166884765625,-2.049820359714329,-0.6580290244460105,0.7119491229429841
1772480055737686300,7.526686279296875,-2.74382495290488,-0.4476332928627729,0.45182051541954277
1772480055747684400,7.536684326171875,-3.327553354126215,-0.2430442017316818,0.46887598737776276
1772480055757682700,7.5466826171875,-3.686419106994569,-0.14397943186759948,0.6656009210050106
1772480055767680500,7.556680419921875,-3.7642502424329516,-0.3140881612479687,0.7197269173376262
1772480055777677600,7.566677490234375,-3.7741274933248756,-0.5477911186605692,0.5322659250095486
1772480055787675600,7.576675537109375,-3.9016903356596826,-0.788067609244585,0.36994302719980476
1772480055797673500,7.586673583984375,-4.113129731076955,-1.044526588344574,0.3406850762724876
1772480055807671600,7.596671630859375,-4.183006400379538,-1.2282587694078684,0.5413388737812638
1772480055817669600,7.606669677734375,-4.081979390531778,-1.2819494430631397,0.7373499600507318
1772480055827666400,7.61666650390625,-3.8878357055693864,-1.3066869939565657,0.8533335698813199
1772480055837664500,7.62666455078125,-3.5796810260236263,-1.2813403712540865,0.9554460368782282
1772480055847662300,7.636662353515625,-3.2421009300291534,-1.3149012800723314,0.8998470453836023
1772480055857660400,7.646660400390625,-2.8800846041753885,-1.3273206166625022,0.9743825002774595
1772480055867658500,7.656658447265625,-2.3249206186592577,-1.1779741048038006,1.2063717856399714
1772480055877655600,7.666655517578125,-1.785508036765456,-1.1255465829521416,1.378279673396796
1772480055887653600,7.676653564453125,-1.3459662804216146,-1.0440765064895152,1.75241532998085
1772480055897651500,7.6866513671875,-0.9644687167674303,-0.857180892959237,2.0611229672342537
1772480055907649500,7.6966494140625,-0.5958949320942163,-0.6890571999162435,2.0755007444158196
1772480055917647600,7.706647705078125,-0.28731472061276436,-0.583705897128582,1.9241741646558046
1772480055927644400,7.71664453125,-0.11092647257149219,-0.5165279653906822,1.4996496524408458
1772480055937642500,7.726642578125,-0.20504326463937758,-0.3559650629907846,0.8023717366680503
1772480055947640300,7.736640380859375,-0.4333174750015139,-0.06209551390707493,0.15156930247470735
1772480055957638400,7.746638427734375,-0.5406196195960045,0.08206862687766552,-0.2714092954725027
1772480055967636500,7.756636474609375,-0.45268473103344437,0.12345043857991694,-0.3396683004453778
1772480055977633500,7.766633544921875,-0.4595014253109693,0.08946165973842143,-0.31617329695895313
1772480055987631600,7.776631591796875,-0.569846883124113,0.03640694589912891,-0.2886512299135327
1772480055997629400,7.78662939453125,-0.6118471189856529,0.036495208704471586,-0.209354405836761
1772480056007627500,7.79662744140625,-0.7540522346571087,-0.07513093656897545,-0.36261823726966974
1772480056017625600,7.80662548828125,-0.9684998719796538,-0.2062806974798441,-0.5874556050509214
1772480056027622400,7.816622314453125,-1.28826198721081,-0.3109370037406683,-0.8535054193168878
1772480056037620500,7.826620361328125,-1.665830686983466,-0.4662210889548063,-1.045115494148433
1772480056047618600,7.83661865234375,-1.9811834613397716,-0.6792915927052497,-1.13039869915843
1772480056057616400,7.846616455078125,-2.1986884404063223,-0.8625450503408908,-1.0871345808409154
1772480056067614500,7.856614501953125,-2.3936674071490764,-1.0771452478766441,-1.0989844469800591
1772480056077611500,7.866611572265625,-2.49848299562484,-1.2491221092164515,-1.0375662478126584
1772480056087609600,7.876609619140625,-2.5011235732614994,-1.3693851499319076,-0.9043101622723042
1772480056097607700,7.886607666015625,-2.383093698425591,-1.4849433739572762,-0.7770024637423455
1772480056107605500,7.89660546875,-2.1228519859164954,-1.5671727443546055,-0.6506820226840675
1772480056117603600,7.906603515625,-1.8442758675545452,-1.615539008116722,-0.5702122093051671
1772480056127600400,7.916600341796875,-1.5433292196914552,-1.6103215657293795,-0.4681519108869135
1772480056137598500,7.926598388671875,-1.3584174734547734,-1.528741599151492,-0.3789494866065681
1772480056147595800,7.936595703125,-1.2074471597865224,-1.4235223983108996,-0.47045346582755443
1772480056157593900,7.94659375,-1.017478422421217,-1.3298159406095742,-0.7000143549993634
1772480056167592000,7.956592041015625,-0.9073822631940245,-1.2003788288354873,-0.971363298586756
1772480056177589000,7.966589111328125,-0.950914238667488,-1.0808861879706382,-1.3233631112083792
1772480056187586800,7.9765869140625,-1.0153659603118896,-1.0253992785483599,-1.5770952956929802
1772480056197585000,7.9865849609375,-0.9807634334862232,-0.996273137307167,-1.673286117555946
1772480056207583000,7.9965830078125,-1.1189099214166403,-0.9293108941465615,-1.5978345707304775
1772480056217579000,8.0065791015625,-1.132086798375845,-0.8930068241000175,-1.5002463031597435
1772480056227577000,8.0165771484375,-1.0703779456987976,-0.8565496093183755,-1.484813317836821
1772480056237575000,8.026574951171876,-1.033955509969592,-0.904369345113635,-1.486541018412262
1772480056247573000,8.036572998046875,-0.9862111774981022,-0.9279998115479946,-1.4209431954726577
1772480056257569800,8.04656982421875,-0.891685512368381,-0.9485264667481184,-1.3059684704236685
1772480056267567900,8.05656787109375,-0.8438894497096538,-0.9945727631300687,-1.2157462015762925
1772480056277566000,8.06656591796875,-0.9438596439808606,-1.0599152961343525,-1.0674180729798972
1772480056287563800,8.076563720703126,-1.2752043527171015,-0.853579653596878,-0.9740024149186909
1772480056297561900,8.086561767578125,-1.8829910903960465,-0.5028308639496565,-0.9246144068934022
1772480056307558700,8.09655859375,-2.516398591543734,-0.28364567671120167,-0.8850880137994885
1772480056317556700,8.106556640625,-2.974185029630363,-0.1506838979423046,-0.7858069708362221
1772480056327554800,8.116554931640625,-3.0502082388639447,-0.1085427923053503,-0.5390528086706996
1772480056337553000,8.126552978515624,-2.8262574446588755,-0.057956514406204224,-0.12760273595377802
1772480056347551000,8.136551025390625,-2.4160639478743073,-0.06831307324767112,0.210746590847522
1772480056357548000,8.146548095703125,-2.000229814854264,-0.19023031091094017,0.5234047192923724
1772480056367545900,8.1565458984375,-1.6613260690405964,-0.05786766707897186,0.8794922396190464
1772480056377544000,8.1665439453125,-1.5231567847564815,0.09570961421728133,1.1743863094449043
1772480056387541800,8.176541748046875,-1.5704010587513446,0.34265257695317264,1.3141187513925134
1772480056397539800,8.186539794921876,-1.6488994259268044,0.5653185920447111,1.3904621324911712
1772480056407537000,8.196536865234375,-1.6001362718015908,0.7341326054394245,1.387626762934774
1772480056417534700,8.20653466796875,-1.5254060249879955,0.8397481121212244,1.4382311610125005
1772480056427532800,8.21653271484375,-1.4336340424805878,0.6889519859761,1.2865979995213448
1772480056437531000,8.22653076171875,-1.121271389850974,0.6392459980428219,1.1531048903547227
1772480056447529000,8.236529052734374,-0.9249585441559552,0.5295008442103862,0.8286575399167835
1772480056457526000,8.246526123046875,-0.6489432161927223,0.3153372845262289,0.8055318081341684
1772480056467523800,8.25652392578125,-0.24899054291546344,0.4432295049458742,0.9920220557339489
1772480056477522000,8.26652197265625,0.1015516182437539,0.5079629661411047,1.0394187438115476
1772480056487520000,8.27652001953125,0.390008202368021,0.27018647567927834,1.0359637810520828
1772480056497517800,8.286517822265624,0.7638993826717138,0.05940788225829601,1.0971532860301434
1772480056507515000,8.296514892578125,1.1212111840963364,-0.14720014747977256,1.206928981131315
1772480056517512700,8.3065126953125,1.3609402699306608,-0.2732242359399795,1.35969655347988
1772480056527510800,8.3165107421875,1.3994348357588051,-0.23122516912221908,1.4939927957229315
1772480056537508900,8.3265087890625,1.2133581373959779,0.07857201693356036,1.65116444824934
1772480056547506700,8.336506591796875,0.706619160091877,0.4120534454375505,1.7811688385173676
1772480056557504000,8.34650390625,0.21433774720728396,0.6200076290875673,1.7024106513619421
1772480056567501800,8.356501708984375,-0.10074030186086892,0.8219728014558553,1.520365254341811
1772480056577500000,8.3665,-0.2372498362392187,0.9662813191473484,1.379611214261502
1772480056587498000,8.376498046875,-0.16218115125149488,1.0446481688976288,1.3026334807820616
1772480056597495800,8.386495849609375,0.09968377854526042,1.0362667095214129,1.1626209067188202
1772480056607492900,8.396492919921876,0.5349342674359678,0.9497142152279615,0.8925186021916568
1772480056617492000,8.406491943359375,1.0013251599997282,0.8580003926485776,0.6578605360113083
1772480056627489800,8.41648974609375,1.2589134353905915,0.6891437091559172,0.32369740885347126
1772480056637487900,8.42648779296875,1.4534405667126178,0.4195867635518312,0.07268631989583373
1772480056647484700,8.436484619140625,1.6391232973217964,0.2308890690356493,-0.22015227870494125
1772480056657482800,8.446482666015624,1.6917776136666536,0.07393617382645606,-0.5420234950445592
1772480056667480800,8.456480712890626,1.7320044101148844,0.07865618808567523,-0.7428463655099272
1772480056677479000,8.46647900390625,1.7618167800545692,-0.06725275053977967,-0.9773682380899786
1772480056687477000,8.47647705078125,1.613489382110536,-0.27347674939632416,-1.109475153595209
1772480056697474000,8.48647412109375,1.3832465020239353,-0.4137842147529125,-1.088624381007254
1772480056707472000,8.496471923828125,1.1382067425608635,-0.4969295309513807,-0.9050142188884317
1772480056717470000,8.506469970703124,1.0069663807570934,-0.6081774905622005,-0.7312142337746917
1772480056727467800,8.5164677734375,0.9522820198893547,-0.7430436416476964,-0.6347026555247605
1772480056737465900,8.5264658203125,0.9343257996991277,-0.8708896848380565,-0.5338740908585489
1772480056747463000,8.536462890625,0.8441817106544971,-0.9341676865279674,-0.48722412949502464
1772480056757460700,8.546460693359375,0.5225432801574468,-0.9114104957967996,-0.5050365573003888
1772480056767458800,8.556458740234374,0.23708061715215442,-0.9714216046452522,-0.5388347820058464
1772480056777457000,8.566456787109376,0.14996084436476229,-0.9278191942840814,-0.6046183367758989
1772480056787454700,8.576454833984375,0.21069383774697778,-0.8770195658951997,-0.547161004063487
1772480056797452000,8.5864521484375,0.37848406105190513,-0.8287801433831453,-0.4126417667195201
1772480056807449900,8.596449951171875,0.5225862425163388,-0.8003104202240705,-0.35124285677447914
1772480056817448000,8.606447998046875,0.6675982323020696,-0.758468005272746,-0.33926571099385616
1772480056827446000,8.616446044921876,0.8104697029277682,-0.7900526455819606,-0.3844333248451352
1772480056837443800,8.62644384765625,0.9431190547466277,-0.8467945235013962,-0.4865042907878756
1772480056847441000,8.63644091796875,1.0525637643277646,-0.852503548797965,-0.5654311125084758
1772480056857438700,8.646438720703125,1.1041481133535505,-0.824729991209507,-0.6697796679943799
1772480056867436800,8.656436767578125,1.02568832462281,-0.6005214228510857,-0.6756668263368308
1772480056877435000,8.666434814453124,0.8166998294889927,-0.28610885195434094,-0.5465877342201769
1772480056887432000,8.676431884765625,0.36978228368014093,0.0604319646090269,-0.44089974682405586
1772480056897430000,8.686429931640625,0.12996259695291518,0.2892804677277803,-0.47954731125682587
1772480056907427800,8.696427734375,0.15370879872143267,0.47236616758108135,-0.5356545445345342
1772480056917426000,8.706426025390625,0.22462533246576785,0.5363818358957767,-0.5977794306665659
1772480056927424000,8.716424072265625,0.3156786453098058,0.7486714184015989,-0.7427426128745078
1772480056937420800,8.7264208984375,0.39348961474299426,0.6704384241640567,-0.9040037266716361
1772480056947419000,8.7364189453125,0.5386597176998853,0.5996756196767091,-1.0964622350260615
1772480056957416700,8.746416748046874,0.6777873256221413,0.653408378908038,-1.1451900255769492
1772480056967414800,8.756414794921875,0.7043366021126508,0.9089724549949169,-1.0704913429453968
1772480056977412900,8.766412841796875,0.43966421367973085,1.2249234875053168,-1.0664613567769528
1772480056987410000,8.776409912109376,-0.16262158849537373,1.5884195305228233,-1.0062556021392344
1772480056997408000,8.786407958984375,-0.9876888488352298,2.0741022757947443,-0.9130924575343727
1772480057007406000,8.796406005859374,-1.9093600418835877,2.4901468366950748,-0.8921285799607634
1772480057017404000,8.80640380859375,-2.7047686615407467,2.6929823621571063,-0.9499021390154957
1772480057027402000,8.816402099609375,-3.3022008862048384,2.5784073039501902,-1.0644470943450928
1772480057037398800,8.826398681640624,-3.609463877607882,2.3825837030768393,-1.1672390680387617
1772480057047396900,8.83639697265625,-3.452689261575043,2.1025018563270566,-1.1309355825141072
1772480057057395000,8.84639501953125,-2.8258389269858597,1.7990876493066548,-0.9640823477983474
1772480057067392800,8.856392822265626,-2.1179989929273724,1.645485233569145,-0.6881599588155746
1772480057077390800,8.866390869140625,-1.5195228121683,1.4524597389817238,-0.510908956465125
1772480057087388000,8.876387939453124,-0.9155173465937375,1.0437520968407392,-0.4073202794358134
1772480057097386000,8.886385986328126,-0.3650970484733581,0.5104635507851839,-0.3493079431891441
1772480057107384000,8.896384033203125,0.05619125829935073,-0.03159866883456707,-0.2610278944507241
1772480057117382000,8.9063818359375,0.31889877640008923,-0.5559200645804405,0.0018888824865221977
1772480057127380000,8.9163798828125,0.739185797175765,-1.0269383246839046,0.6020517011582851
1772480057137376800,8.926376708984375,1.2057459088265896,-1.2489490907371044,1.1726903191819786
1772480057147374800,8.936374755859376,1.6042846236526964,-1.3100538400411605,1.836734658394754
1772480057157372700,8.94637255859375,1.7145196068286894,-1.4928782586097717,2.4884432476475835
1772480057167370800,8.956370849609375,1.1961655950546264,-1.7332289834737777,2.769111662113666
1772480057177368800,8.966368896484376,0.7900809948936104,-1.8617969111979007,3.1175995210915803
1772480057187366000,8.976365966796875,0.2465545479401946,-1.7700702291369437,3.620186054891348
1772480057197364000,8.986364013671874,-0.3715107149079442,-1.605199400410056,3.958644395025074
1772480057207361800,8.99636181640625,-1.023923945298791,-1.6215531538397072,3.6956048684909937
1772480057217360000,9.00635986328125,-1.9526950334802269,-1.7988678690761326,3.1116663316503166
1772480057227358000,9.01635791015625,-2.589292270579934,-1.5467553947478532,2.715621771727502
1772480057237354800,9.026354736328125,-2.6758278137385845,-1.1465186438322066,2.411846037918329
1772480057247352800,9.036352783203125,-2.383864098276198,-0.8270762620747089,2.0406790218815205
1772480057257350700,9.0463505859375,-1.9771666269138455,-0.5366045387357473,1.4721800462350247
1772480057267348700,9.0563486328125,-1.4795067358613014,-0.4214180706322193,0.763097126378119
1772480057277346800,9.066346923828124,-0.9465542898923158,-0.2439858664959669,-0.022435119169950484
1772480057287343600,9.076343505859375,-0.36413960161805153,-0.07805296149551869,-0.5963476442977785
1772480057297341700,9.086341796875,0.25939561707377434,0.04936579619348049,-0.735890262761712
1772480057307339800,9.09633984375,0.7288622638210653,0.032598201265931125,-0.6206801215216518
1772480057317337900,9.106337890625,1.043784245544672,-0.0795464149236679,-0.5167220266580581
1772480057327336000,9.1163359375,1.305215167838335,-0.34430034416019917,-0.42369624469727274
1772480057337332700,9.126332763671876,1.4616355636060236,-0.6117027420789003,-0.2803630017787218
1772480057347330800,9.136330810546875,1.415778067794442,-0.7609650827854871,-0.16957652219980954
1772480057357328600,9.14632861328125,1.2468950808167456,-0.7856044340014458,-0.13140285888910294
1772480057367326700,9.15632666015625,0.9782879832834005,-0.7020867773592472,-0.09231617238670586
1772480057377324800,9.16632470703125,0.5507546446412801,-0.6756073512345552,-0.08307984974682331
1772480057387321600,9.176321533203126,0.14393150107264518,-0.7412228559613228,-0.08069558495879173
1772480057397319700,9.186319580078125,-0.1520975641325116,-0.8160732220232486,-0.07951105134934186
1772480057407317800,9.19631787109375,-0.3200602213948965,-0.9979244116455316,-0.09166004656553269
1772480057417315800,9.20631591796875,-0.4434656517893076,-1.1525503252118825,-0.10439999341219663
1772480057427313000,9.21631298828125,-0.622824440073967,-1.1096516792058944,-0.07229542088210582
1772480057437310700,9.226310791015624,-0.7105404251888394,-1.0030208580017088,0.03388736429363489
1772480057447308800,9.236308837890626,-0.6838838889315724,-0.9424860175400972,0.09967004228085279
1772480057457307000,9.246306884765625,-0.5516203215599059,-0.9095926327198743,0.09706453595757483
1772480057467304700,9.2563046875,-0.3603729425609112,-0.8944348110765218,0.022788754913210866
1772480057477301800,9.2663017578125,-0.19286124393641949,-0.8231991283804178,-0.03591507072895765
1772480057487299600,9.276299560546875,-0.09072802641242741,-0.6588596300512551,-0.09562515080422163
1772480057497297700,9.286297607421876,-0.06529284864366054,-0.5227133760273456,-0.15063713619112967
1772480057507295700,9.296295654296875,-0.02942804679721594,-0.4235048137784004,-0.27401626310050486
1772480057517293600,9.30629345703125,0.04212356998026371,-0.26299042669534684,-0.4255816200524568
1772480057527291000,9.316290771484375,0.15431377887725828,-0.08873860616087913,-0.5505529845893383
1772480057537288700,9.326288818359375,0.33684418293535706,0.07840484367311,-0.7131357023790478
1772480057547286800,9.336286865234374,0.5002513688504696,0.1636900945097208,-0.8499646779701113
1772480057557284900,9.346284912109375,0.5894996780991554,0.12931962287425994,-1.040335858656466
1772480057567282700,9.35628271484375,0.5499202396437526,0.167188458019495,-1.1487921417221427
1772480057577279700,9.36627978515625,0.4532788975343108,0.26780864063203336,-1.171451132775843
1772480057587277600,9.376277587890625,0.33284371512234207,0.4001806368142366,-1.1726143313363193
1772480057597275600,9.386275634765624,0.11123042395412922,0.5040975228846073,-1.195284136044979
1772480057607273700,9.396273681640626,-0.03223521317243576,0.38523908827006814,-1.0466171308830379
1772480057617271600,9.406271484375,-0.08216624203324317,0.2758013929516077,-0.7643211152151227
1772480057627268900,9.416268798828124,-0.262009014442563,0.21123510501682757,-0.6138543671548367
1772480057637267000,9.426266845703125,-0.5705526933059096,0.46490416113734245,-0.4313686790212989
1772480057647264800,9.4362646484375,-1.1586562408715486,0.6994727954685688,-0.215630125105381
1772480057657262800,9.446262939453124,-1.8214508722841738,0.842798147341609,-0.2663505507782101
1772480057667260700,9.4562607421875,-2.6072598889470098,1.0189280367076397,-0.7892465898960829
1772480057677257700,9.4662578125,-3.193929312056303,1.1172627387315035,-1.1764312592759727
1772480057687255800,9.476255859375,-3.5697590592071413,1.1128922685623168,-1.5060384766951203
1772480057697253600,9.486253662109375,-3.7113010347947477,0.9853291339665651,-1.637324138945341
1772480057707251700,9.496251708984374,-3.6244065951958295,0.8185282139599322,-1.2910948725491762
1772480057717249800,9.506249755859375,-3.344311888964474,0.7220458618044853,-0.6864911488205194
1772480057727246800,9.516246826171875,-2.802845004889369,0.8438684069216251,0.035384032592177386
1772480057737245000,9.526244873046876,-2.004036221399903,1.033375664255023,0.7458505157619715
1772480057747242800,9.53624267578125,-1.3208768473505974,1.0818868894457816,1.1186001248151063
1772480057757240800,9.54624072265625,-0.6716191583812237,0.9392693935811519,1.0977315243095158
1772480057767239000,9.556239013671876,-0.1789876168847084,0.7408844177871942,0.940468540237844
1772480057777235700,9.566235595703125,0.20652035145461559,0.45352293542325495,0.9053831983312964
1772480057787233800,9.57623388671875,0.580341389131546,0.06912088249921798,1.07056937661767
1772480057797231600,9.586231689453125,0.9559005026474594,-0.19917641843259334,1.4165011213719845
1772480057807229700,9.596229736328125,1.3487208398267625,-0.26702012060284613,1.9115172199174761
1772480057817227800,9.606227783203124,1.6536492508023977,-0.2882218985855579,2.3894871988549826
1772480057827224800,9.616224853515625,1.7993290568470954,-0.3087970691025257,2.7362866663545367
1772480057837223000,9.626222900390625,1.8634838413715362,-0.22098259204924106,2.930142182025313
1772480057847220700,9.636220703125,1.8764362619251012,-0.11606909615695477,2.8732050737947223
1772480057857218800,9.64621875,1.8557210984155534,-0.04117079930007458,2.764490432053804
1772480057867217000,9.656216796875,1.7482295687288045,0.15247721109986304,2.570259653329849
1772480057877213700,9.666213623046875,1.5349638346672057,0.26389994275569917,2.0246894255891443
1772480057887211800,9.676211669921875,1.237636838606,0.42926235439181326,1.3682812803432345
1772480057897209600,9.686209716796874,0.8971580985605716,0.6201023216336965,0.699949765330553
1772480057907207700,9.696207763671875,0.47532910903990266,0.568505989909172,0.14179536582678556
1772480057917205800,9.706205810546875,0.12288520591259001,0.5532727649420499,-0.23438918611109255
1772480057927202800,9.716202880859376,-0.1910305213779211,0.49344519596695896,-0.3953475175693631
1772480057937201000,9.726200927734375,-0.41961978903859853,0.5156961907416582,-0.3735436820402741
1772480057947199000,9.736198974609374,-0.4976870713204145,0.5406961919635535,-0.2641454419493675
1772480057957196800,9.74619677734375,-0.2674690334141254,0.4041068703472614,-0.1803337707966566
1772480057967193900,9.75619384765625,0.16657500229626893,0.18875848479270935,-0.22652035243213176
1772480057977191700,9.766191650390626,0.6976344741255045,-0.003013210341334343,-0.4770344516530633
1772480057987189800,9.776189697265625,1.200713175356388,-0.3488087614953518,-0.8201175289779901
1772480057997187800,9.786187744140625,1.6303741736769675,-0.7219114217698573,-0.9956547131478786
1772480058007185700,9.796185546875,1.83805655464828,-0.9499415942430496,-1.0518483095347881
1772480058017182700,9.8061826171875,1.8359616281956432,-1.4085621450662613,-0.9639268649756908
1772480058027180500,9.8161806640625,1.6242928079366683,-1.1113742652148009,-0.8700213775709271
1772480058037179000,9.826178955078126,1.8148308696225284,-0.8537246150255203,-0.7720096238911152
1772480058047177000,9.836177001953125,1.8023934128537773,-1.1696762320578098,-0.5116162279516459
1772480058057174800,9.8461748046875,1.4429448916614054,-1.0046312158077955,-0.39604046826958655
1772480058067171800,9.856171875,0.9144646226704121,-0.7023059730678797,-0.41938188862949605
1772480058077169700,9.866169677734375,0.5706172829747199,-0.5230664272487163,-0.3661784139692783
1772480058087167700,9.876167724609376,0.34598084459304806,-0.5414706834673881,-0.49247722771763797
1772480058097165800,9.886165771484375,0.1672925029158592,-0.6206126092433929,-0.5437403819650412
1772480058107163600,9.89616357421875,0.09995148957073688,-0.6004845979720353,-0.45200785468518734
1772480058117160700,9.90616064453125,0.1747656152755022,-0.44111821188032624,-0.4218076544716954
1772480058127158800,9.91615869140625,0.3215975139647722,-0.3461100239306688,-0.5708797333031892
1772480058137156600,9.926156494140624,0.5112304435044527,-0.43433308178484437,-0.7551417834594846
1772480058147155500,9.936155517578126,0.7749030072450638,-0.49940556567609307,-0.7679933739870787
1772480058157153500,9.946153564453125,0.9460735206380486,-0.5001625215232371,-0.6223153215080499
1772480058167150600,9.956150634765624,0.9960533570766449,-0.4134638967573642,-0.4122048366069793
1772480058177148700,9.966148681640625,1.0415148393079638,-0.4156646216720342,-0.0624713614821434
1772480058187146500,9.976146484375,1.01864746620059,-0.04215162703096866,0.3054538961544633
1772480058197144600,9.98614453125,0.8350164074242115,0.3977589626252651,0.3449751746818423
1772480058207142700,9.996142578125,0.8223194229364394,0.4760562542706728,0.3688859193623066
1772480058217139500,10.006139404296874,0.8520815239936113,0.4943623108118772,0.0682657269746065
1772480058227137500,10.016137451171875,0.8414373803824186,0.5124304669439792,-0.29110476054549217
1772480058237135400,10.02613525390625,0.897228241187334,0.5740688847333193,-0.7238678165346384
1772480058247133400,10.036133544921874,0.837579828171432,0.3931739729225635,-1.1639414877980947
1772480058257131500,10.046131591796875,0.7803188948139548,-0.006954056921601295,-1.6177689591258764
1772480058267128600,10.056128662109375,0.6170879422485828,-0.3593266483783722,-1.6156731558904052
1772480058277126700,10.066126708984376,0.36302404159158463,-0.21079028385877607,-1.1045470495432614
1772480058287124500,10.07612451171875,0.3060600453540683,0.20952771657705305,-0.6447521942436695
1772480058297122600,10.08612255859375,0.14935849455744027,0.6382289299547672,-0.16353519620895385
1772480058307120600,10.09612060546875,-0.5626522954449057,0.8094470818817615,-0.00009089315384626388
1772480058317117400,10.106117431640625,-1.1503072224602102,0.9043155690997838,-0.18100041801184416
1772480058327115500,10.116115478515624,-1.286904435122013,1.1434896513998507,-0.07373743638396263
1772480058337113600,10.126113525390625,-1.2390104650467633,1.1658680719465018,0.09911708457320928
1772480058347111400,10.136111328125,-1.2783970112785696,1.1846224567770958,0.27640403501987454
1772480058357108500,10.1461083984375,-1.2475965070843695,1.2427806312352419,0.5288672224819659
1772480058367106600,10.1561064453125,-1.1850216852277518,1.245965691012144,0.7978492908075452
1772480058377104600,10.166104736328125,-1.174382802313566,1.385944070544839,0.9275938610956073
1772480058387102700,10.176102783203126,-1.1636322757184505,1.3238485566377638,0.8435781918033957
1772480058397100500,10.1861005859375,-1.0199749154120683,1.4684703780621289,0.7964052294790744
1772480058407097600,10.19609765625,-0.7133177809476852,1.6181079818218946,0.6465060521736741
1772480058417095400,10.206095458984375,-0.29543139157295223,1.6809528527915476,0.5193015217572451
