time,seconds_elapsed,z,y,x
1772567403475792400,0.08079248046875,3.899481719699502,1.419629190264642,0.09051442019436508
1772567403485821400,0.090821533203125,2.9574142198324203,1.1465873251542449,0.023725706969760358
1772567403495850200,0.100850341796875,1.7502385704636574,0.5051210207134484,-0.3953347311530262
1772567403505878500,0.11087841796875,0.18836627060472963,-0.1519678002730012,-0.7506865576162934
1772567403515907600,0.120907470703125,-1.840315147230029,-0.5286968343511224,-0.4475804666969925
1772567403525935400,0.130935302734375,-4.085646096345782,-0.8227315108686685,0.43000645075738425
1772567403535964400,0.14096435546875,-6.1993906466990705,-1.2485875639483333,0.8612536953561007
1772567403545992400,0.150992431640625,-8.33762198805511,-1.6575994497328996,0.5768793390441685
1772567403556021500,0.161021484375,-9.661765728247165,-1.6808312722384928,-0.6101994613764807
1772567403566050600,0.171050537109375,-10.503846667230128,-1.1975868600293993,-1.8876378932885824
1772567403576078300,0.181078369140625,-11.259949112415313,-1.136822010204196,-2.3408513243712483
1772567403586107400,0.191107421875,-11.440213325107097,-1.4104714858189225,-1.8755727769635617
1772567403596135400,0.201135498046875,-11.454040774929522,-1.7540426389217376,-1.3990082809098063
1772567403606164500,0.21116455078125,-11.647943052351474,-2.0527023448914288,-1.1502164754368365
1772567403616193300,0.221193359375,-11.51188038495779,-2.2556337319433686,-0.8444786477744579
1772567403626221300,0.23122119140625,-10.59545527586937,-2.1873586526185274,-0.5442555284129456
1772567403636250400,0.24125048828125,-9.504168105393648,-1.8609055153161287,-0.23092373849023132
1772567403646278400,0.2512783203125,-8.441008128249644,-1.5522738659083843,0.00943451209310442
1772567403656307500,0.261307373046875,-7.143150337436794,-1.3066571833401919,0.31393180164247747
1772567403666336300,0.271336181640625,-5.637645236966014,-1.0574819315075874,0.3886796206453815
1772567403676364500,0.281364501953125,-4.125276095944643,-0.8640598388180136,0.21635895083658396
1772567403686393600,0.2913935546875,-2.504693248441815,-0.8492188280388713,-0.0871182018848136
1772567403696421400,0.30142138671875,-0.8941209228217601,-0.8724676016792654,-0.3226738014267757
1772567403706450400,0.311450439453125,0.6048217503935098,-0.7451824072420596,-0.30024686556328084
1772567403716479200,0.321479248046875,1.852805210968852,-0.5069426831826568,-0.0841666586028412
1772567403726507500,0.331507568359375,2.8733541268765923,-0.45408524548113344,0.04424640735313296
1772567403736536600,0.34153662109375,3.7832366824537513,-0.47810208088457584,0.14925620322674513
1772567403746564400,0.351564453125,4.5413732638150455,-0.5121322146497667,0.3647571489945054
1772567403756593400,0.361593505859375,5.1945741374522445,-0.5762086732409895,0.6596376286864281
1772567403766621400,0.371621337890625,5.74304271698296,-0.5288425264321267,0.9207423147004097
1772567403776650500,0.381650390625,6.2437961901366705,-0.34487083752453324,1.043886171549186
1772567403786679600,0.391679443359375,6.627699645888805,-0.07561652812883257,0.9759807292543351
1772567403796707300,0.401707275390625,6.8718392416417595,0.16665347435995936,0.8639550632692873
1772567403806736400,0.411736328125,7.095293192240596,0.3583646714784205,0.7629963694173842
1772567403816764400,0.421764404296875,7.226466334027052,0.4740453528396785,0.6102903910629451
1772567403826793500,0.43179345703125,7.205735680687427,0.5281484066881239,0.41653566888552157
1772567403836822500,0.441822509765625,7.329597038155794,0.6022824411742389,0.35116672279834743
1772567403846850300,0.451850341796875,7.5193211531102655,0.6777129452116787,0.35593010127525776
1772567403856879400,0.46187939453125,7.507144977626204,0.766489399164915,0.39474114917404945
1772567403866907400,0.471907470703125,7.290929161587357,0.817212162925303,0.3877115793308243
1772567403876936400,0.4819365234375,7.221995326092839,0.8220522964328527,0.2861319953679107
1772567403886965500,0.491965576171875,7.126695461720228,0.7654097872346639,0.07287278237864375
1772567403896993300,0.5019931640625,6.847474615713954,0.6427566365122794,-0.20476145202331245
1772567403907022600,0.512022705078125,6.507771536216139,0.6160550920695066,-0.4613588897459209
1772567403917050400,0.52205029296875,6.139057466289401,0.6776917562931776,-0.6190406837515533
1772567403927079400,0.532079345703125,5.175837288278341,0.7400631645321846,-0.6994052831903099
1772567403937107200,0.542107177734375,3.9233933411628006,0.5924895075649023,-0.5697780191389844
1772567403947136500,0.552136474609375,3.317217253550887,0.3763593239828944,-0.571996316242963
1772567403957165600,0.56216552734375,2.404927052310109,0.15931436364352702,-0.8040402544021606
1772567403967193300,0.572193359375,1.0027063852250575,-0.11112696357965468,-0.6412074343089014
1772567403977222400,0.582222412109375,-1.111950019276142,-0.5129346170738339,0.07257160747498273
1772567403987250400,0.59225048828125,-3.3208266762197014,-0.8457081895694136,0.8716366307478397
1772567403997279500,0.602279541015625,-5.220485408300161,-0.8836708404779434,1.0851466949593276
1772567404007308500,0.61230859375,-7.157769814419746,-0.8497945821002125,0.6045555372053757
1772567404017336300,0.62233642578125,-8.98246478319168,-1.1753420027345418,-0.2790627693677321
1772567404027365400,0.632365478515625,-10.334303755038976,-1.4823904746040701,-1.0463435746386647
1772567404037393400,0.642393310546875,-11.426825435745716,-1.6787915831044316,-1.4157199078664182
1772567404047422500,0.65242236328125,-11.821567096376418,-1.9029738479778169,-1.2108720196686684
1772567404057451500,0.662451416015625,-11.951924830126762,-2.133139571174979,-0.622575287618488
1772567404067479300,0.672479248046875,-11.776986780893802,-2.3506600400716064,-0.1263134450619109
1772567404077508400,0.68250830078125,-11.017120014739035,-2.4883403717949983,0.18355434027835726
1772567404087536400,0.692536376953125,-10.027499905580282,-2.459592123955488,0.4377416481193155
1772567404097565400,0.7025654296875,-9.015006870356201,-2.4103452779665586,0.5804267293274402
1772567404107593200,0.71259326171875,-7.860115534976124,-2.382332358664274,0.7236633800037204
1772567404117622300,0.722622314453125,-6.6990329437404865,-2.3167139313280583,0.8665498290028423
1772567404127651300,0.7326513671875,-5.425569589471817,-2.2693439851269126,0.96123791815266
1772567404137679400,0.742679443359375,-4.117779018187522,-2.1850676190719005,1.049267353130877
1772567404147708400,0.75270849609375,-2.877881248912215,-1.9674828527674078,1.1557303434874862
1772567404157736200,0.762736083984375,-1.77873108997643,-1.6744684592083094,1.2551559825532137
1772567404167765500,0.772765625,-0.7874977004021406,-1.3577218924060463,1.310736415477842
1772567404177798100,0.782798095703125,-0.010789689561724661,-1.0931365977346896,1.3846668902158736
1772567404187826200,0.792826171875,0.7224667175650596,-0.8154884078726172,1.3071869063027202
1772567404197855200,0.802855224609375,1.3016858246684073,-0.5475856592163443,0.9491589194327592
1772567404207883300,0.81288330078125,1.7141273926407097,-0.3891805193722248,0.39801454482153054
1772567404217912300,0.822912353515625,2.2057821980595587,-0.2754509720787406,-0.06180939044207334
1772567404227941400,0.83294140625,2.866089104309678,-0.06729922003000974,-0.30473683392629025
1772567404237969200,0.84296923828125,3.625820261386037,0.2556783501163125,-0.2256019224129617
1772567404247998200,0.852998291015625,4.4426802498728035,0.5997033844664692,0.034348698195070027
1772567404258026200,0.863026123046875,5.224117042800784,0.9067617932081222,0.3930360257565975
1772567404268055300,0.87305517578125,5.888571131858229,1.134429269848764,0.6925190308079123
1772567404278083300,0.883083251953125,6.4740136435210704,1.360212247917056,0.8663806829810142
1772567404288112000,0.893112060546875,7.019526295855641,1.6535940134838223,0.8736473129831254
1772567404298141200,0.90314111328125,7.535432914477586,1.9769620442524551,0.8054913299933075
1772567404308169500,0.91316943359375,8.041465204817056,2.249723338855803,0.7396333948127924
1772567404318198300,0.9231982421875,8.508467799538373,2.4250275910526513,0.5505283616047352
1772567404328226300,0.933226318359375,8.666417889091372,2.5453888314455746,0.32931674657259136
1772567404338255000,0.943255126953125,8.525195062455534,2.533321377032995,0.149603080435656
1772567404348284200,0.9532841796875,8.19535578984618,2.4508123129114505,-0.02650827775984071
1772567404358312200,0.963312255859375,7.900957832974195,2.418653087584674,-0.16182912294343113
1772567404368341200,0.97334130859375,7.530811099895835,2.3953768414154646,-0.36332616634331644
1772567404378369300,0.983369384765625,6.753865188646316,2.2563468486487865,-0.6629062750935554
1772567404388398000,0.993398193359375,5.587266464337707,1.9698858222559092,-0.9343825713876635
1772567404398427100,1.00342724609375,3.904787424892187,1.4166104269653559,-1.113790313380584
1772567404408455200,1.013455078125,1.367735629159212,0.5311527030706406,-1.085052952261269
1772567404418484200,1.023484130859375,-0.8255348778516054,-0.09784516494125127,-0.45601873429436235
1772567404428512300,1.03351220703125,-2.6225831302851437,-0.35107027668654917,0.5111799919588491
1772567404438541000,1.043541015625,-3.3373768290042873,-0.4314066729441285,0.8428263505227863
1772567404448569300,1.0535693359375,-3.3246646469473835,0.15966419999450443,0.2682107916921377
1772567404458598100,1.06359814453125,-3.992379199105501,0.7054910328447819,-0.6632360185045748
1772567404468627200,1.073627197265625,-5.7356333175092935,0.5179752415895462,-1.3475515037864445
1772567404478655200,1.0836552734375,-6.860115486100316,-0.3593482756882906,-1.754791703723371
1772567404488684300,1.093684326171875,-5.181932682543993,-1.111315813025832,-1.805523527573049
1772567404498712300,1.10371240234375,-3.3889147085398434,-1.2023621116071939,-1.2917369698449968
1772567404508741000,1.1137412109375,-2.8161615825802087,-1.810546031910181,-0.4741824962880462
1772567404518770200,1.123770263671875,-2.9538159030795095,-3.0404753648787737,0.5677575826946646
1772567404528798500,1.133798583984375,-3.958989555200934,-4.04974885353446,1.7187942154079674
1772567404538827300,1.1438271484375,-5.606409556224942,-4.145770017918944,2.646695827278495
1772567404548855300,1.153855224609375,-6.437073029136657,-3.7391704539731143,2.702117562510073
1772567404558884000,1.163884033203125,-7.162273555579781,-2.991314443607628,2.0606806302942333
1772567404568912400,1.173912353515625,-6.910496012294292,-2.066998873530328,1.1667624635029583
1772567404578941400,1.18394140625,-5.485514062824845,-0.9974866047501564,0.17424962857738135
1772567404588970200,1.19397021484375,-4.481573751890659,-0.26543431271612644,-0.5862644225049763
1772567404598998300,1.203998291015625,-4.046505341568589,-0.2224924120903015,-0.6723854665786028
1772567404609027000,1.214027099609375,-3.3116046743661163,-0.3588753974795341,-0.4487146583586931
1772567404619055400,1.224055419921875,-1.6579297046005725,-0.12258476166129112,-0.41842984860166904
1772567404629084400,1.23408447265625,0.2525800918400288,0.2644417945474386,-0.4887852778645232
1772567404639113200,1.24411328125,2.040114665997028,0.5090642053812742,-0.26286775016374886
1772567404649141200,1.254141357421875,3.392507764595747,0.7106675586998462,0.22709913870077578
1772567404659170000,1.264170166015625,4.238043812468648,0.6461190986827016,0.37107170243617144
1772567404669198300,1.2741982421875,4.4663264983981845,0.8142898457378148,0.6067277666779235
1772567404679227400,1.284227294921875,4.594810839492082,1.0241273589164017,0.6422032404132187
1772567404689255200,1.294255126953125,5.020283738473058,1.1406187721386551,0.5382566167917102
1772567404699284200,1.3042841796875,5.381947305366396,1.2448939701274038,0.30744470464549956
1772567404709313300,1.314313232421875,5.686887699040771,1.4572066412478684,0.05902673745360225
1772567404719341300,1.32434130859375,5.892023902660608,1.775791529393196,-0.07903121367683634
1772567404729370400,1.334370361328125,6.148520291161537,1.943106828662753,-0.26118505777381357
1772567404739398100,1.344398193359375,6.452652875584364,1.9423454889014362,-0.4350042225120589
1772567404749427200,1.35442724609375,6.756295630663633,1.8888418622508645,-0.4153691458567977
1772567404759456300,1.364456298828125,7.153955809089541,1.7823437275156377,-0.3211831244776025
1772567404769484300,1.374484375,7.276989483562112,1.7516481450006365,-0.22987609260082242
1772567404779513300,1.384513427734375,7.164982230016589,1.7297098694369195,-0.20644114873856304
1772567404789541000,1.394541015625,7.072260691699385,1.3785755876034498,-0.20337810790613292
1772567404799570400,1.4045703125,7.224303603035211,1.5404621398225427,-0.02055091285854578
1772567404809599200,1.41459912109375,6.940649743017554,1.6132275163039564,-0.05431574675105512
1772567404819627300,1.424627197265625,6.5406456318140025,1.5113216777950524,-0.18623488459922372
1772567404829656300,1.43465625,6.252802503412962,1.3066308798551558,-0.4264164634414017
1772567404839684400,1.444684326171875,5.914422781473398,1.1304849161371588,-0.7954996589414774
1772567404849713400,1.45471337890625,5.440996291184425,1.2172975226715206,-0.9754127201080321
1772567404859741200,1.4647412109375,4.425814455267787,1.1938345217585562,-1.0660805407658218
1772567404869770200,1.474770263671875,3.1135107904732227,0.8413032326087355,-1.1427670362137257
1772567404879799300,1.48479931640625,1.852766048002243,0.38898324323445554,-0.9341298387356102
1772567404889827300,1.494827392578125,-0.31326924608051776,-0.047346857586503026,-0.3377294413372874
1772567404899856400,1.5048564453125,-3.3934149425685405,-0.6652580989167094,0.7174584609489888
1772567404909884200,1.51488427734375,-7.000352808830142,-1.61254947091192,1.9663450809091327
1772567404919913200,1.524913330078125,-8.809693556603788,-2.1220023833498356,2.8246847885146735
1772567404929942000,1.53494189453125,-10.49224390771985,-1.6647086972162126,2.733464886932075
1772567404939970300,1.54497021484375,-11.93091126819253,-0.9284057620003819,1.4497159932315349
1772567404949999400,1.554999267578125,-12.670538379395007,-0.35429859108328815,-0.11803341849986464
1772567404960027100,1.565027099609375,-13.166582359683513,-0.1722226527944207,-1.0017509111311287
1772567404970056200,1.57505615234375,-13.199264147579669,-0.6267839913547039,-1.1208396473702043
1772567404980084200,1.585084228515625,-12.123598909127711,-1.4396698155134915,-0.6174480077326298
1772567404990113300,1.59511328125,-10.728469077086448,-2.0121242507874966,-0.07964077867623418
1772567405000142300,1.605142333984375,-9.787916073435545,-2.3390131491586565,0.41963853027168657
1772567405010170000,1.615170166015625,-9.032547203221917,-2.5962214853212235,0.8913437131933868
1772567405020199400,1.625199462890625,-7.872490447902679,-2.466451780591905,1.3595514459207654
1772567405030227200,1.635227294921875,-6.535901067635416,-1.8900579600423573,1.6855441261045634
1772567405040256300,1.64525634765625,-5.741664998888969,-1.3224471654072403,1.3612794387571512
1772567405050285300,1.655285400390625,-5.347957942003012,-1.0570002854704856,0.640530777156353
1772567405060313300,1.665313232421875,-4.517849764886498,-0.9675786654815077,0.03538352113552391
1772567405070342400,1.67534228515625,-3.406935518398881,-0.6129179630875587,-0.26864494532570243
1772567405080370200,1.6853701171875,-2.4435341386020184,-0.16928601482063532,-0.38411176474057135
1772567405090399200,1.695399169921875,-1.4899211623698472,0.027588264149427413,-0.3900825827784836
1772567405100427300,1.70542724609375,-0.4857581485956907,0.07343260821849107,-0.24557477965522556
1772567405110456300,1.715456298828125,0.6208505096524953,0.11826193002611397,0.055262471282947805
1772567405120485400,1.7254853515625,1.7495885821223258,0.09559358662217855,0.3236503548413515
1772567405130513200,1.73551318359375,2.758675608295202,0.1138733396783471,0.5337589765788987
1772567405140542200,1.745542236328125,3.6849481576591727,0.1257914487481117,0.6411958169363439
1772567405150570200,1.7555703125,4.558651730874181,0.0775751148506999,0.7207838790446519
1772567405160599300,1.765599365234375,5.376686023837328,0.017587971399724484,0.7931168554581701
1772567405170624800,1.775624755859375,6.221129015776515,0.04236205491125583,0.790610060269013
1772567405180652500,1.785652587890625,6.918484088438749,0.17931553366482256,0.7062675701752305
1772567405190681600,1.795681640625,7.4273875503003595,0.280252527141571,0.6551466739427297
1772567405200709600,1.805709716796875,7.891635877877474,0.34630408519804473,0.6193305335436016
1772567405210738700,1.81573876953125,8.328586448684334,0.41279841858595606,0.5491409988995641
1772567405220766700,1.8257666015625,8.525845635318756,0.4837795419991016,0.40902196878716346
1772567405230795500,1.83579541015625,8.487541331365705,0.5853548333793879,0.2895161761797964
1772567405240824600,1.845824462890625,8.440632865196466,0.6507420823082327,0.17512326960675417
1772567405250852600,1.8558525390625,8.49107184357941,0.6819464911282063,0.013711641423031686
1772567405260881700,1.865881591796875,8.489589496067167,0.7895955494642257,-0.16106259555034338
1772567405270909400,1.875909423828125,8.41969879823923,0.9871090031206607,-0.3347191536054015
1772567405280938800,1.885938720703125,8.194307157576084,1.1661524418458342,-0.5406770488716661
1772567405290967800,1.8959677734375,7.665181576418876,1.2272253347069024,-0.7235127925518899
1772567405300995600,1.90599560546875,7.188958148887753,1.2660749975830317,-0.8183847869012504
1772567405311024600,1.916024658203125,6.5077008090674875,1.396923145198822,-0.901414148569852
1772567405321052700,1.926052734375,5.32819174978137,1.3754983721151948,-0.9254941123373805
1772567405331081700,1.936081787109375,4.149821339136362,1.0780103402733803,-0.6901092662524432
1772567405341109800,1.94610986328125,2.577223647123575,0.7340268069773912,-0.1775684708017856
1772567405351138600,1.956138671875,0.14759294618964194,0.3494467671379447,0.4646002097547054
1772567405361167600,1.966167724609375,-2.134232627108693,-0.030055531045794486,0.9838003900293261
1772567405371195600,1.976195556640625,-3.8722611198186874,-0.33036738813668487,1.4154763083688915
1772567405381224700,1.986224609375,-5.963982054412365,-0.370423796454072,1.4164432537049054
1772567405391252700,1.996252685546875,-8.122302828595041,-0.08912292930334806,1.2192981219042092
1772567405401281500,2.006281494140625,-9.641887307822703,0.09761778592616319,1.1524966953285039
1772567405411310600,2.016310546875,-10.736182427942753,0.038626375514268875,0.9589264994051306
1772567405421338600,2.026338623046875,-11.815362981039286,-0.11801233917921782,0.7445917478725314
1772567405431367700,2.03636767578125,-12.081459557056426,-0.38466128838211294,0.6592642653293908
1772567405441395700,2.046395751953125,-11.462384240382908,-0.6256728152424097,0.5852296726297587
1772567405451424500,2.056424560546875,-10.31083403212428,-0.7121782555237413,0.35080643811859186
1772567405461452800,2.066452880859375,-8.567222186323999,-0.8275263439297675,0.18847290931697933
1772567405471481600,2.076481689453125,-6.749638510861993,-1.0485907690435647,0.24496852085776627
1772567405481510700,2.0865107421875,-5.029877496248483,-1.131933653640747,0.3963141706444323
1772567405491538700,2.09653857421875,-4.006961851209402,-1.1465931703731418,0.5908056461311877
1772567405501567500,2.1065673828125,-3.676329966917634,-1.411845112259686,0.7357442784197628
1772567405511595800,2.116595703125,-3.6126328630328177,-1.689715712700784,0.8250694522969424
1772567405521624600,2.12662451171875,-3.698562841513753,-1.7615408857226371,0.7074968927744776
1772567405531653600,2.136653564453125,-3.695955289363861,-1.5401345153033732,0.4153095976892858
1772567405541681700,2.146681640625,-3.5004975991934537,-1.200075169713795,0.024690862207487223
1772567405551710700,2.156710693359375,-2.9713901382148262,-0.7457359494715928,-0.5530504639608785
1772567405561738800,2.16673876953125,-2.4303385569423437,-0.26464608494788405,-1.0037287140101194
1772567405571767600,2.176767578125,-1.7644395297735929,-0.025920330937206745,-1.318368956182897
1772567405581795600,2.186795654296875,-1.1441636051386594,-0.002614566412568092,-1.5266880276225507
1772567405591825000,2.196824951171875,-0.3469797925025224,-0.09276713102459908,-1.500214885108173
1772567405601853700,2.206853759765625,0.6997983741611242,-0.10208791707754135,-1.1930014319352804
1772567405611881700,2.2168818359375,1.8433061457395552,-0.13952566732913255,-0.6377864468842744
1772567405621910500,2.22691064453125,3.1182851652681824,-0.24949498530626296,-0.07362071010253858
1772567405631938800,2.236938720703125,4.3153059158474205,-0.2920211447380483,0.2866117782414891
1772567405641967900,2.2469677734375,5.1469250820487735,-0.3300362564861774,0.40822815152835096
1772567405651996700,2.25699658203125,5.765611691665649,-0.39560178459137674,0.5785977238019928
1772567405662024700,2.267024658203125,6.352420230984688,-0.4487164119243622,0.6506667520496994
1772567405672053500,2.277053466796875,6.857635359722376,-0.325546982242912,0.5039613658169284
1772567405682081800,2.287081787109375,7.190321253934502,-0.11327946543842553,0.2937928853846155
1772567405692110800,2.29711083984375,7.409663093039393,0.11202128207087517,0.08457288304986432
1772567405702138600,2.307138671875,7.6568346038341515,0.24932956561148165,-0.18737915926352142
1772567405712167700,2.317167724609375,7.79662067566514,0.3142059424087405,-0.41100057538375256
1772567405722196500,2.327196533203125,7.84087716602087,0.3179565271139145,-0.5187514501264319
1772567405732224800,2.337224853515625,7.884306557902693,0.3864586931928992,-0.49436881361789997
1772567405742253800,2.34725390625,7.585302568539976,0.41225422870665784,-0.38869693710636344
1772567405752281600,2.357281494140625,7.254292498585581,0.24619185210764408,-0.15455500375460832
1772567405762310700,2.367310546875,6.996155941662192,0.0999219712153077,0.09867657426409422
1772567405772339500,2.37733935546875,6.421238915666938,0.11638473797738551,0.16005159187689422
1772567405782367700,2.38736767578125,5.529886288514733,0.1864426090657711,-0.017266557425633072
1772567405792396500,2.397396484375,4.590001977905631,0.17369623247832058,-0.296970072382316
1772567405802424600,2.407424560546875,3.546804592338204,0.007183481763303279,-0.6184460057940334
1772567405812453600,2.41745361328125,2.176627999767661,-0.3874664089307189,-0.9265406257156282
1772567405822481700,2.427481689453125,0.10335574505627154,-1.0013631539225578,-1.06452447043024
1772567405832510700,2.4375107421875,-2.264569902592897,-1.8616086951494215,-0.9002811990171671
1772567405842539500,2.44753955078125,-4.25950628721416,-2.901714544442296,-0.28795740243047474
1772567405852567600,2.457567626953125,-5.239143347018957,-3.5099750371128318,0.9533561519268899
1772567405862596900,2.467596923828125,-6.6109577699244015,-3.49362186820507,2.2167446138396856
1772567405872624600,2.477624755859375,-7.645167546916007,-3.2928365532711146,2.8243177087679503
1772567405882653700,2.48765380859375,-8.133654828214645,-3.052512716414034,2.256188735477626
1772567405892682500,2.4976826171875,-9.135901194712519,-2.837378850392997,0.6112779407955706
1772567405902710800,2.507710693359375,-9.381304526790975,-2.8943899006426332,-0.5522748399458826
1772567405912739800,2.51773974609375,-9.029420595633983,-2.917403988744318,-0.5347574495643377
1772567405922767600,2.527767578125,-8.570973647812009,-2.7783301568359136,0.06499401182755828
1772567405932796700,2.537796630859375,-7.9385098572552195,-2.79969092477262,0.503642691789195
1772567405942825500,2.547825439453125,-7.147176524212956,-2.6940707419157026,0.7074167402103543
1772567405952853800,2.557853759765625,-6.330391939049959,-2.2983669582545754,0.8716433527495712
1772567405962882800,2.5678828125,-5.424582916522025,-1.7971090427100658,0.8918503475412726
1772567405972910600,2.57791064453125,-4.391629277071356,-1.2156518012911082,0.8395506898529828
1772567405982939600,2.587939697265625,-3.2617543095260855,-0.5916270455166697,0.8863905477654188
1772567405992967700,2.5979677734375,-1.9000000928640364,0.06043401043564081,0.9125102006670087
1772567406002996700,2.607996826171875,-0.5014233352392912,0.739014240001142,0.7665376952860504
1772567406013025800,2.61802587890625,0.6214017137944698,1.4045412189871072,0.4840227031052112
1772567406023053600,2.628053466796875,1.567032459101081,1.9362848736882208,0.18874175285361705
1772567406033082600,2.63808251953125,2.4064801269710063,2.2494763783574103,-0.15598916474357247
1772567406043110700,2.648110595703125,3.0063825411409137,2.4975050905033944,-0.23451091279461977
1772567406053139700,2.6581396484375,3.3097558316290376,2.7446421145066617,0.06010839521046728
1772567406063167500,2.66816748046875,3.5474902365148067,2.9258479919627307,0.4917036495292559
1772567406073196500,2.678196533203125,3.71665788565278,3.0386434732764958,0.7763030833013356
1772567406083225600,2.6882255859375,3.918483941811323,3.2027573461562393,0.5802960156198591
1772567406093253600,2.698253662109375,4.376114897075295,3.3644729257225987,0.18509013501089064
1772567406103282700,2.70828271484375,4.371372670984268,3.352579658833146,-0.3159563662726432
1772567406113310500,2.718310546875,4.058282873123884,3.105855891805887,-0.7604669240050017
1772567406123339800,2.72833984375,4.467722336670756,2.743565132924914,-0.8848402495834976
1772567406133368800,2.738368896484375,4.933003514426947,2.562911920915544,-0.8524726422030479
1772567406143396600,2.748396728515625,5.392668605867028,2.6001608705967665,-0.4519099472686648
1772567406153425700,2.75842578125,5.834032316941022,2.4701620332866905,-0.013706234595552086
1772567406163453700,2.76845361328125,6.240377906125784,2.169669851192832,0.2693786664277315
1772567406173482200,2.778482177734375,6.50668900167644,1.831155981479585,0.48270767498388883
1772567406183510300,2.78851025390625,6.861909968301654,1.5261656111836432,0.6595980273284018
1772567406193539000,2.7985390625,7.316487381213903,1.3547829163447023,0.790507476677373
1772567406203568000,2.808568115234375,7.5727183967769145,1.3709741726890206,0.8768741660751402
1772567406213596400,2.818596435546875,7.531184609383344,1.357275025421381,0.794933549491316
1772567406223625200,2.828625244140625,7.256240710043906,1.241612756499648,0.5699056275740265
1772567406233653200,2.8386533203125,6.813909030720591,1.089422837908566,0.2967589138496667
1772567406243682000,2.84868212890625,6.424034683865308,1.0259428839057683,-0.041069549148995424
1772567406253711000,2.858711181640625,5.716894714769721,0.9979200277313589,-0.3570573152069002
1772567406263739400,2.868739501953125,4.638208082669973,0.7753469516202807,-0.6831131237547844
1772567406273768200,2.878768310546875,3.346632733127475,0.31503947062343357,-0.9094485480740666
1772567406283796200,2.888796142578125,2.0277005901038647,-0.1544286374285817,-0.9643906100299209
1772567406293825000,2.898824951171875,0.3040226943075657,-0.46878334065824745,-0.8643789877697825
1772567406303853300,2.908853271484375,-1.6476497181266545,-0.968639280450344,-0.8151655325938015
1772567406313882400,2.91888232421875,-3.485573001784086,-1.5623887249484658,-0.3976684347975999
1772567406323911200,2.9289111328125,-5.332304445797205,-1.9424252761393785,0.3270229000143707
1772567406333939200,2.938939208984375,-7.061777291607856,-2.0296514319106933,1.0741089489206672
1772567406343968300,2.94896826171875,-7.90158210235238,-1.789853664754331,1.6105308245658874
1772567406353996300,2.958996337890625,-8.701022754004597,-1.2847209536030888,1.2787819189429281
1772567406364025300,2.969025390625,-9.564819265711307,-0.9591840543627739,0.543742062465474
1772567406374054100,2.97905419921875,-10.314484955847263,-1.2146788646057247,0.1592771003730595
1772567406384082400,2.98908251953125,-10.74210012755394,-1.9610542810246347,0.32033618879206477
1772567406394111200,2.999111328125,-10.810945115721225,-2.631719791942835,0.8189902054484933
1772567406404139300,3.00913916015625,-10.405808317804336,-3.139847300995886,1.4275409863024948
1772567406414168300,3.019168212890625,-9.584028993093966,-3.589947860755026,1.8932341058604418
1772567406424196400,3.0291962890625,-8.473480657309294,-3.735250650180876,2.1043471919327974
1772567406434225400,3.039225341796875,-7.32145464823246,-3.576475507980585,1.999619866262376
1772567406444254200,3.049254150390625,-6.34745354848802,-3.4436952232584357,1.7281503650352357
1772567406454282200,3.0592822265625,-5.426236528947949,-3.291994841749966,1.4683170871965587
1772567406464311300,3.069311279296875,-4.607890685817599,-3.029657910527289,1.236135932523757
1772567406474339300,3.07933935546875,-4.02761067148447,-2.825657432939112,1.078837219551578
1772567406484368400,3.089368408203125,-3.2474633338451384,-2.5381194249644876,0.9772428581446408
1772567406494397200,3.099397216796875,-2.289832354143262,-1.9614967640951275,0.8941018527951091
1772567406504425200,3.10942529296875,-1.2105787358105182,-1.2673869569644332,0.6226298673499375
1772567406514454300,3.119454345703125,-0.1449018074095249,-0.6511831040740013,0.21164543938338756
1772567406524482300,3.129482421875,0.8985966069310903,-0.15737959618866443,-0.11407609570883213
1772567406534511400,3.139511474609375,1.793570931711793,0.2534261872753501,-0.295942848226428
1772567406544540200,3.1495400390625,2.441383682569861,0.5531523534327745,-0.439986212175712
1772567406554568200,3.159568115234375,3.1088854687601324,0.7361945064052939,-0.6251503257382661
1772567406564597200,3.16959716796875,3.717697750094533,0.8727721375837921,-0.772240363907069
1772567406574625300,3.179625244140625,4.204101210856438,0.8690022636562585,-0.8505763801276683
1772567406584654300,3.189654296875,4.718337265917659,0.7927157273113727,-0.7332861446779221
1772567406594682000,3.19968212890625,5.2014048602551215,0.8039557909891009,-0.4812140754252672
1772567406604711200,3.209711181640625,5.643188258045911,0.8675725231140852,-0.3362339420825243
1772567406614740200,3.219740234375,6.007366438108682,0.9661492172002791,-0.3662406655505299
1772567406624768300,3.229768310546875,6.274499955958127,1.0962658356711268,-0.47796669100187716
1772567406634797300,3.23979736328125,6.58927025425136,1.27881582121253,-0.7272863197412341
1772567406644825300,3.249825439453125,6.834014245638251,1.4599068401172757,-0.9925731868106872
1772567406654854400,3.2598544921875,6.95374946308732,1.5836609378188848,-1.2040668696984649
1772567406664882200,3.269882080078125,7.011566861283779,1.6313532478421926,-1.3350649471789597
1772567406674911200,3.2799111328125,6.923835970860719,1.676536205393076,-1.1959201689261942
1772567406684940300,3.289940185546875,6.966701883640885,1.6908575762122868,-1.0652491314429788
1772567406694968300,3.29996826171875,7.077315052479505,1.728407262405753,-1.122066778012365
1772567406704997400,3.309997314453125,6.914145766973495,1.7622578018203376,-1.1862941163163632
1772567406715025200,3.320025146484375,6.57351154410541,1.6929966340675948,-1.067952764378488
1772567406725054200,3.33005419921875,6.482234359377622,1.5534519697770475,-1.0548595471147446
1772567406735083300,3.340083251953125,6.124178461587428,1.5227815217033027,-1.2013946548145265
1772567406745111300,3.350111328125,5.435165685334801,1.4159598541021345,-1.3428159996971487
1772567406755140400,3.360140380859375,4.634419211781025,1.128052428293228,-1.364634156012535
1772567406765168000,3.370168212890625,3.2916590339243412,0.6648387044608592,-1.3625233013384044
1772567406775197200,3.380197265625,1.5739619661033153,0.05640957722514867,-1.0759992927119135
1772567406785225200,3.39022509765625,-0.4419254366099834,-0.522958875221014,-0.23155637383796274
1772567406795254300,3.400254150390625,-2.910972202131152,-0.9183248052299022,0.8599730078957974
1772567406805283300,3.410283447265625,-4.7018286141872405,-0.9190665635079145,1.3623947065226734
1772567406815311000,3.42031103515625,-6.328118733420967,-0.5983855798661708,0.9583172084003686
1772567406825340200,3.430340087890625,-7.734393059810996,-0.15026421122550965,-0.26248971063159404
1772567406835368200,3.4403681640625,-9.11034940482676,0.4101955426111817,-1.1123489554658532
1772567406845397200,3.450397216796875,-10.935256555044651,0.34628041206151244,-1.1380196224909276
1772567406855426300,3.46042626953125,-11.642931361669302,-0.9489595974683761,-0.4943150376040488
1772567406865454000,3.4704541015625,-11.935973227757215,-2.500635497483611,0.5085414236161857
1772567406875483400,3.4804833984375,-11.834959661912917,-3.4007030537500977,1.708848137063533
1772567406885511200,3.49051123046875,-10.837469550031424,-3.621018998584151,2.6603847454130647
1772567406895540200,3.500540283203125,-9.64150327694118,-3.331426396167278,3.0364021240904924
1772567406905569300,3.5105693359375,-8.515832190826535,-2.8396555631533262,2.7287223685801028
1772567406915597300,3.520597412109375,-7.279924367970228,-2.310315170201659,2.0335417173475028
1772567406925626400,3.53062646484375,-6.211127846243977,-1.8642817137509584,1.4845948527805506
1772567406935654100,3.540654052734375,-5.332520718896388,-1.5856255158901214,1.357062990105897
1772567406945683200,3.55068310546875,-4.832880759942531,-1.6031006745651364,1.3680109389692545
1772567406955711500,3.56071142578125,-4.6044969517260785,-1.8282240196809172,1.271357175769657
1772567406965740300,3.570740234375,-4.286515290170907,-2.0399732116997242,0.8702756445929407
1772567406975769300,3.580769287109375,-3.6081998490214344,-2.140481750631332,0.3098563688971102
1772567406985797000,3.590797119140625,-2.5389023920357228,-1.9857114601582289,-0.21615034958720206
1772567406995826200,3.600826171875,-1.430659410583973,-1.7380898675084113,-0.7098956975445151
1772567407005854200,3.610854248046875,-0.18191724059581754,-1.5936825656175613,-1.145471765127778
1772567407015883300,3.62088330078125,1.1574942113548516,-1.402717510691285,-1.6662237779542803
1772567407025911300,3.630911376953125,2.138895358222723,-1.1086959859162568,-2.191693759213388
1772567407035940000,3.640940185546875,2.9906302607357502,-0.7796361732468009,-2.4466636687994003
1772567407045969200,3.65096923828125,3.6826153307974336,-0.4690355618536472,-2.205733098220825
1772567407055997200,3.6609970703125,4.456944922068715,-0.3072548080965876,-2.026634422177076
1772567407066026200,3.671026123046875,5.071350493365526,-0.15900485930293798,-2.2902710378214715
1772567407076054300,3.68105419921875,5.4320080980867145,0.23318068710416553,-2.697874518112838
1772567407086083000,3.6910830078125,5.84306376465857,0.6982514369800686,-3.008948007714748
1772567407096112000,3.701112060546875,6.198156136468053,1.0508055224835873,-3.1089211245954034
1772567407106140200,3.71114013671875,6.306745106002688,1.2732783530905842,-2.9906080489039417
1772567407116169200,3.721169189453125,6.320196708250045,1.4134449486717582,-2.83284120696336
1772567407126197200,3.731197265625,6.456306137394905,1.5788555833637714,-2.6494854579970237
1772567407136226300,3.741226318359375,6.5851072893530125,1.820708529484272,-2.4367764810353516
1772567407146254300,3.75125439453125,6.620543344393372,2.0891598519340158,-2.189084745758772
1772567407156283100,3.761283203125,6.719698130628466,2.382802606524527,-2.0274434004724022
1772567407166312200,3.771312255859375,6.973335622566938,2.69019653083086,-2.020410140834749
1772567407176340500,3.781340576171875,7.16014940303266,3.0247414969131348,-2.048802122582495
1772567407186369500,3.79136962890625,7.317188807481527,3.40288098231107,-2.050517255937308
1772567407196397800,3.801397705078125,7.330344057130813,3.7329952724695206,-1.8581962563574312
1772567407206426600,3.811426513671875,7.065186223268508,3.9366538047522304,-1.570356196696311
1772567407216455700,3.82145556640625,6.6054387142419815,4.011467930456996,-1.4467654728628694
1772567407226483500,3.8314833984375,5.850208960238099,3.9762960793107744,-1.1982152210608124
1772567407236512800,3.8415126953125,5.059343829229474,3.7444104004532095,-0.8884501837089658
1772567407246540500,3.85154052734375,4.058701975318789,3.2587837692826986,-0.44269656711295247
1772567407256569600,3.861569580078125,2.77803848041296,2.5137305413782594,0.3017282997600734
1772567407266597600,3.87159765625,1.2475333787202834,1.4487228905409573,0.9108492086522281
1772567407276626700,3.881626708984375,-0.8748644336879253,0.24252748438119887,1.5206895178601145
1772567407286655700,3.89165576171875,-3.0366473310232163,-0.7002654071509837,1.6037977169185875
1772567407296683500,3.90168359375,-4.687389169946313,-1.0886533148407935,0.4343156922586262
1772567407306712600,3.911712646484375,-5.500777682930231,-0.6545739155560731,-0.5379413402974605
1772567407316740900,3.921740966796875,-7.061232517206668,-0.30661329532265663,-0.4305454164722934
1772567407326769700,3.931769775390625,-8.129630395004153,-0.8944020778506994,0.5112259499924257
1772567407336798700,3.941798828125,-8.628236334735155,-1.9195581952929495,1.8716065036810934
1772567407346826500,3.951826416015625,-8.80467192904949,-2.5976468419492242,2.969186198429763
1772567407356855600,3.96185546875,-8.98852569066584,-2.915677603343129,3.29512028029412
1772567407366883800,3.9718837890625,-8.704796427324414,-3.0752398042678832,3.0075004392549394
1772567407376912600,3.98191259765625,-7.768176086947322,-2.930513937947154,2.5568884228423236
1772567407386940700,3.991940673828125,-6.619459056288004,-2.4567139381706715,2.119031696975976
1772567407396968700,4.00196875,-4.873862758672237,-1.8382476933062075,1.8157012227162719
1772567407406997800,4.011997802734375,-2.763271119391918,-1.0604665002763272,1.5876634514585137
1772567407417025500,4.022025634765625,-0.8243921375572681,-0.260403332811594,1.443945593136549
1772567407427054600,4.0320546875,0.5609422766566277,0.32116438324451446,1.2821164701931178
1772567407437083000,4.042082763671875,1.5791817465782165,0.7804726240709423,1.1013184428855776
1772567407447111700,4.052111572265625,2.2313608759522436,1.1036766964495182,0.766378851462528
1772567407457139700,4.0621396484375,2.4870050315380094,1.0957008952647447,0.22023230340490116
1772567407467168500,4.07216845703125,2.5964415578126907,0.7460773102551699,-0.19731071589225901
1772567407477197600,4.082197509765625,2.6833003415763375,0.3191226482838392,-0.3119652873424813
1772567407487225900,4.092225830078125,2.8981764334440228,0.0655389323592186,-0.21598211688082664
1772567407497254700,4.102254638671875,3.054771601256728,-0.06850567321032286,-0.0652838250869885
1772567407507282700,4.11228271484375,2.97921688631773,-0.24117782333791254,0.12891106033967806
1772567407517311500,4.1223115234375,2.8715619827628136,-0.4183624824538827,0.3633228053424507
1772567407527339800,4.13233984375,2.9640684170246123,-0.5001075764656067,0.4238579745976254
1772567407537368800,4.142368896484375,3.2962609747618434,-0.4674363099634647,0.43288832633662966
1772567407547397600,4.152397705078125,3.476469657874107,-0.32288872281908987,0.25833730365987867
1772567407557425700,4.16242578125,3.5280531301170583,-0.23392741381824014,-0.07308180375313386
1772567407567454500,4.172454345703125,3.5400901893913743,-0.2600643101155758,-0.12441924707945436
1772567407577482800,4.182482666015625,3.484942887187004,-0.3641194356128573,0.31574071422796696
1772567407587511800,4.19251171875,3.6759932823091743,-0.5495660193786025,0.7297112088005989
1772567407597540600,4.20254052734375,4.0937376328647135,-0.8237494557395577,0.7386017136774957
1772567407607568600,4.212568603515625,4.27476172401309,-1.0211582799777388,0.5825312273260206
1772567407617597700,4.22259765625,4.281909842202067,-1.1023001473993062,0.5927460396092384
1772567407627625700,4.232625732421875,4.488579246738553,-1.1619488526761532,0.7177635083101689
1772567407637654800,4.24265478515625,4.665083814635873,-1.2138944362297655,0.6871877527825534
1772567407647682600,4.2526826171875,4.557748060032725,-1.1588044171705842,0.6238245570272207
1772567407657711900,4.2627119140625,4.2440386689692735,-1.05750502012223,0.7836104837052523
1772567407667740700,4.27274072265625,3.8999300479888914,-0.9632219315767288,0.8560971893757581
1772567407677768700,4.282768798828125,3.2921365883082148,-0.8410527649790048,0.6796938898958266
1772567407687797500,4.292797607421875,2.314291672617197,-0.7528831908777356,0.8044464971154928
1772567407697825800,4.30282568359375,1.2313327700257302,-0.7945993491008877,1.064648535201326
1772567407707854800,4.312854736328125,0.02641805132627487,-0.8951239623844623,0.943835824713856
1772567407717883600,4.322883544921875,-1.2162298934400082,-0.898265183019638,0.26003311125971373
1772567407727911700,4.33291162109375,-2.4355256041914224,-0.7741711858391761,-0.45460510463677345
1772567407737940500,4.3429404296875,-3.813697871690988,-0.3958092898622155,-0.7748692511059343
1772567407747968800,4.35296875,-5.320829696580767,-0.2622977682560682,-0.528842964823544
1772567407757997800,4.362997802734375,-6.448305201768875,-0.6634212388783693,0.06795636876448989
1772567407768025600,4.373025634765625,-7.508167890933156,-1.1200576301470397,0.7439573224265128
1772567407778054700,4.3830546875,-8.584114284414053,-1.3488044264569878,1.1609545809417963
1772567407788083500,4.39308349609375,-9.156947489872575,-1.0753671322882175,1.009160383670032
1772567407798111700,4.40311181640625,-9.623585927456617,-0.6993135132536291,0.21596191434301434
1772567407808140800,4.413140869140625,-10.141522590601443,-0.6016995267197489,-0.5171223510872572
1772567407818168600,4.42316845703125,-10.403168616950511,-0.7241019175514578,-0.669213047087565
1772567407828197600,4.43319775390625,-10.200748686552046,-1.1865516712740063,-0.25690219282284377
1772567407838226400,4.443226318359375,-9.716925889933108,-1.653260836006701,0.3501931285258382
1772567407848254700,4.453254638671875,-8.967863426387309,-1.7566610047265887,0.7599323787368834
1772567407858283800,4.46328369140625,-8.023486480534077,-1.6246362145468591,0.7824723465207963
1772567407868311600,4.4733115234375,-6.885608239275217,-1.599561394523084,0.6221376268535852
1772567407878340600,4.483340576171875,-5.451684858459234,-1.6024793277963996,0.3887516995009035
1772567407888368600,4.49336865234375,-3.9412475622832774,-1.4547686004459857,0.07128971443828194
1772567407898397700,4.503397705078125,-2.6249673950731753,-1.393745391945541,-0.21013379271142182
1772567407908426800,4.5134267578125,-1.4135375953912734,-1.4505977445021272,-0.34115974457953124
1772567407918454500,4.52345458984375,-0.32182664654552934,-1.4664344883203506,-0.3452466485669836
1772567407928483800,4.53348388671875,0.9275199190765618,-1.3263465109333394,-0.30629381757732477
1772567407938511600,4.54351171875,2.2138655512720344,-0.9752560682415962,-0.31855120507143436
1772567407948540700,4.553540771484375,3.228233732718229,-0.5251005634248256,-0.3601461846003309
1772567407958568400,4.563568359375,3.9374686282664535,-0.18919103099107742,-0.38011451179794964
1772567407968597800,4.57359765625,4.521998701259494,0.030087095227837563,-0.4223948797751218
1772567407978626800,4.583626708984375,4.9900201176345345,0.268514158552885,-0.4085186954401433
1772567407988654600,4.593654541015625,5.352197479268908,0.5014192435860634,-0.22400891760047523
1772567407998683600,4.60368359375,5.687807736495137,0.6043930035874248,-0.08490592352966778
1772567408008711700,4.613711669921875,6.024701603791117,0.6187219731912017,-0.09561999970506876
1772567408018740700,4.62374072265625,6.196822842037677,0.6080392511352897,-0.16966898625623433
1772567408028769800,4.633769775390625,6.274093128722906,0.5717132615178823,-0.18104809307847172
1772567408038797600,4.643797607421875,6.534220567202568,0.529294215722382,-0.16091900409488005
1772567408048826600,4.65382666015625,6.747170659443736,0.5056181565806269,-0.12955713055771775
1772567408058854700,4.663854736328125,6.807213332474231,0.5027466927975416,-0.14793737571313975
1772567408068883700,4.6738837890625,6.807538326644897,0.4983358906179666,-0.16762938845371828
1772567408078911700,4.683911865234375,6.825114899867772,0.4471642140462994,-0.05288640806768089
1772567408088940500,4.6939404296875,6.862629514747858,0.4190586480244994,0.01189958703238517
1772567408098969600,4.703969482421875,6.761454036340117,0.5367769726932049,0.05171224972177296
1772567408108997600,4.71399755859375,6.5878679862380025,0.7348465989276767,0.07131846560873091
1772567408119026700,4.724026611328125,6.473468869119882,0.9127867525860667,0.03328296865969896
1772567408129054500,4.734054443359375,6.3266036526829,1.0747510462164878,-0.17559088711850343
1772567408139083500,4.74408349609375,6.133310447070002,1.2129670922517777,-0.47679669737443325
1772567408149112600,4.754112548828125,5.8963867740452285,1.3590630778819321,-0.7588963136874138
1772567408159140600,4.764140625,5.584608058783411,1.4245520336195825,-0.8007755535177886
1772567408169169700,4.774169677734375,5.183238504445552,1.4312947858780622,-0.647145811381936
1772567408179197000,4.784197021484375,4.46221380238235,1.3797329409450292,-0.49327305427044627
1772567408189225700,4.794225830078125,3.5754058329224585,1.2880486367210746,-0.3295984495908022
1772567408199253800,4.804253662109375,2.3490414989590644,1.1679442936986684,-0.20407544252052903
1772567408209282800,4.81428271484375,0.7324690561413765,0.7843214084535837,-0.3926671924442053
1772567408219311600,4.8243115234375,-1.0251631317049263,0.24435440754741428,-0.7172714139442891
1772567408229340000,4.83433984375,-3.0689655463039873,-0.1791030599579215,-0.6565772182025015
1772567408239368700,4.84436865234375,-5.181339392825961,-0.45772477102726694,-0.20038667100518942
1772567408249396700,4.854396728515625,-6.861393250951171,-0.449220269793272,0.15571882336959242
1772567408259425800,4.86442578125,-8.247900216075777,-0.1794555266574025,0.021713599962368605
1772567408269453800,4.874453857421875,-9.90862802696228,-0.12791969294846056,-0.2479506054084748
1772567408279483000,4.88448291015625,-11.363495996129512,-0.5708221578970551,-0.3221870042905211
1772567408289511700,4.89451171875,-11.990035657334326,-1.2035992521867156,-0.0044515360487625
1772567408299539700,4.904539794921875,-12.172227623218298,-1.7313178891554475,0.5329155114920809
1772567408309568800,4.91456884765625,-12.120706694817542,-2.1685268186375497,0.9909488735444844
1772567408319596800,4.9245966796875,-11.693547450184822,-2.4153756733492013,1.082778723718971
1772567408329625900,4.9346259765625,-11.064297945499419,-2.3081994932219385,0.8725394978716969
1772567408339654700,4.944654541015625,-10.084860207659005,-2.029920311979949,0.6305681860685348
1772567408349682700,4.9546826171875,-8.798606929922103,-1.7398954556256532,0.5386108370568603
1772567408359712000,4.9647119140625,-7.531834013202786,-1.6147300298213958,0.6105296066462993
1772567408369739800,4.97473974609375,-6.146588446316122,-1.5836685366034506,0.6700789432018995
1772567408379768800,4.984768798828125,-4.41542048702538,-1.4097475554585457,0.4835184799101203
1772567408389796600,4.994796630859375,-2.6114211002796885,-1.0799416005969047,0.16914163791388273
1772567408399826000,5.004825927734375,-1.0165274053066968,-0.7923556618273258,-0.14962461641402913
1772567408409855000,5.01485498046875,0.4529565337121486,-0.6293894976779818,-0.3417137617330998
1772567408419882800,5.0248828125,1.7936445814698934,-0.5253948701962828,-0.3663085066223517
1772567408429911800,5.034911865234375,2.9400077424794433,-0.4256456251993775,-0.3630291926907375
1772567408439939800,5.04493994140625,3.8815246227264404,-0.2959785040616989,-0.31830081050693987
1772567408449969000,5.054968994140625,4.549304641336202,-0.20509148769527671,-0.19803565089963376
1772567408459996700,5.06499658203125,4.937948569613694,-0.16863573421835898,-0.050594899597018954
1772567408470025700,5.075025634765625,5.293309821492433,-0.1325178343936801,0.12940204046070575
1772567408480054800,5.0850546875,5.63451862937808,-0.11563245830535888,0.3514120758615434
1772567408490082800,5.095082763671875,5.914262037953734,-0.10869096860438585,0.596486760507524
1772567408500112000,5.10511181640625,6.153762283468246,-0.08789017263799906,0.8650980958245694
1772567408510139600,5.1151396484375,6.320231779563427,-0.030864217080175876,1.1404928076714276
1772567408520168700,5.125168701171875,6.523258443683385,0.03372165233790874,1.314051385244727
1772567408530197800,5.13519775390625,6.735094437202811,0.10791939970999956,1.3549476053871214
1772567408540225800,5.145225830078125,6.937278805279731,0.18064532096385955,1.3094338084466755
1772567408550254800,5.1552548828125,7.247457099607586,0.2186301837041974,1.1902706917971373
1772567408560282600,5.16528271484375,7.528045142313838,0.21555004560649393,1.0289270142830909
1772567408570311700,5.175311767578125,7.612295789405703,0.21229688902944324,0.9409883993934839
1772567408580339700,5.185339599609375,7.721022121584415,0.23227760078459977,0.8724790729213505
1772567408590368800,5.19536865234375,7.749033579581975,0.3194128634020686,0.7740984128639101
1772567408600397800,5.205397705078125,7.501067119017243,0.44620647493004795,0.694786537348479
1772567408610425600,5.215425537109375,7.068872218304872,0.555460338114202,0.6315313320122659
1772567408620455000,5.225454833984375,6.638885056769848,0.6340083896502852,0.5292829636760056
1772567408630482700,5.235482666015625,5.968238542813062,0.6940896411255002,0.40332189398203044
1772567408640511700,5.24551171875,5.188401001775264,0.7561857395544648,0.1848462432524189
1772567408650539800,5.255539794921875,4.405307089290023,0.7471934548035264,-0.08777697632079944
1772567408660568800,5.26556884765625,3.407375663381815,0.6531278084009885,-0.04989533649291843
1772567408670598000,5.275597900390625,2.332505374699831,0.5555477241367102,0.15414689787775276
1772567408680625700,5.285625732421875,0.9988099623084068,0.45625557525753974,0.2291122320888564
1772567408690654700,5.29565478515625,-0.7430968331396579,0.11482406453192233,0.032831206304207446
1772567408700682800,5.305682861328125,-2.1991771007061005,-0.6102814771041274,-0.2952346268918365
1772567408710711800,5.3157119140625,-3.719585171276331,-1.3652911586165428,-0.2925407116327435
1772567408720740900,5.325740966796875,-5.494523298710584,-1.7119930109605193,0.13002022715797648
1772567408730768600,5.3357685546875,-7.340499540442228,-1.6764987959921358,0.9714270114727318
1772567408740797700,5.345797607421875,-8.63563112116158,-1.6272952046230433,1.6886556822538374
1772567408750826000,5.355825927734375,-9.484587791132926,-1.6673799622520804,1.275352821277082
1772567408760854800,5.365854736328125,-10.580117421483992,-1.6324726072609423,0.19085593199599532
1772567408770882800,5.3758828125,-11.30952825909853,-1.566359089884162,-0.3509127115046605
1772567408780911600,5.38591162109375,-11.343521714115143,-1.5473247190684079,-0.11588331866073422
1772567408790940700,5.395940673828125,-11.292249792039394,-1.5492577329576014,0.3561053117116913
1772567408800969000,5.405968994140625,-10.912782857429981,-1.424222947795689,0.7241648267198354
1772567408810997800,5.415997802734375,-10.18207438122034,-1.2480384056329727,0.8093664909262209
1772567408821025800,5.42602587890625,-9.300508988589048,-1.1866861113086342,0.9289147344358265
1772567408831054600,5.4360546875,-8.016161836734414,-1.0061907202094793,1.1279233220208436
1772567408841083000,5.446082763671875,-6.641257046598196,-0.611727584259212,1.2376957291863857
1772567408851112000,5.45611181640625,-5.508336135485768,-0.34442981575876475,1.2555531651772558
1772567408861140700,5.466140625,-4.730920853158831,-0.3414239119410515,1.2067870153773574
1772567408871168800,5.476168701171875,-3.8076743736177683,-0.4781394902855158,1.0259626845847816
1772567408881197600,5.486197509765625,-2.4372002594053743,-0.4236857233032584,0.8089772724129259
1772567408891225900,5.496225830078125,-0.8584645030289888,-0.1243108548015356,0.5525374364048242
1772567408901255000,5.5062548828125,0.5934241580665112,0.21118454387336968,0.2849645590237342
1772567408911282700,5.51628271484375,1.7732108652502296,0.45579321844279763,0.06623962797448038
1772567408921311700,5.526311767578125,2.7406524603486058,0.6273702668100595,-0.13308938720393926
1772567408931340800,5.5363408203125,3.5193285563915966,0.7528834831386804,-0.2011352974154055
1772567408941368800,5.546368896484375,4.186382598814368,0.8924339926481246,-0.13677530917506664
1772567408951398000,5.55639794921875,4.795973463305831,0.9629527592465281,-0.0768696699950844
1772567408961425700,5.56642578125,5.302800118893384,0.9538339255064725,-0.006455678945407271
1772567408971455000,5.576455078125,5.660512317812443,0.9316752851903438,0.13556717549432068
1772567408981483800,5.58648388671875,6.0045858674794435,0.9404919211134314,0.30045038877874614
1772567408991511800,5.59651171875,6.341756798151135,0.9825117384582758,0.4217179303616285
1772567409001540900,5.606540771484375,6.591857348135114,1.055356902177632,0.48537554248627274
1772567409011569000,5.61656884765625,6.8581959162145845,1.0848363869011401,0.4034228701384738
1772567409021598000,5.626597900390625,7.127048512941599,1.0444888866826891,0.19279762238198891
1772567409031625700,5.636625732421875,7.350483174318075,1.0763958908140658,-0.012027314198436214
1772567409041654800,5.64665478515625,7.544652578243613,1.1250991314455867,-0.14535552426008508
1772567409051683800,5.656683837890625,7.712950458809733,1.087240525433421,-0.22314753326447678
1772567409061712000,5.6667119140625,7.805555092748999,1.001390626451373,-0.2287891924132593
1772567409071741000,5.676740966796875,7.708553100633621,0.9230933348059653,-0.15116914244228974
1772567409081768700,5.686768798828125,7.337592713084817,0.8544482531249523,-0.03952774480078369
1772567409091797800,5.6967978515625,6.919613969251513,0.8516036773487925,0.08663290258590131
1772567409101825800,5.70682568359375,6.727617817711829,0.7707748213991522,0.11483356301262974
1772567409111854800,5.716854736328125,6.288161986085772,0.7286229021072387,0.32567287364490327
1772567409121884000,5.7268837890625,5.379678191390633,0.7634910941317677,0.5307259290259331
1772567409131911700,5.73691162109375,4.329412182611227,0.7609197823390365,0.47837497954182323
1772567409141940700,5.746940673828125,3.128516051903367,0.41896658582687374,-0.2408588935818523
1772567409151968800,5.75696875,1.6879139239758252,0.061683425974845885,-1.1086698285616934
1772567409161997800,5.766997802734375,0.039216158100962635,-0.24378157609552142,-1.7686866658240556
1772567409172025600,5.777025634765625,-1.0906307523936032,-0.19602526092529296,-1.5963069227717817
1772567409182055400,5.787055419921875,-2.304490409570932,0.07454203076511622,-0.36276188352406025
1772567409192084500,5.79708447265625,-4.3616357053458685,0.05294102433174848,1.0879191553473473
1772567409202112500,5.807112548828125,-6.309119433918595,-0.5419783407285809,1.8214502877622842
1772567409212141600,5.8171416015625,-7.2210519077628845,-1.6533435458540915,1.3353680217787622
1772567409222169300,5.82716943359375,-8.260977139791846,-2.25541658206135,0.37479002883955836
1772567409232198400,5.837198486328125,-9.424777757814526,-1.9656798949986696,-0.31271621530763805
1772567409242227500,5.8472275390625,-9.72925111849904,-1.5564116963654755,-0.35890440437830984
1772567409252255500,5.85725537109375,-9.99932361240983,-1.3960223969668148,-0.050763607227429744
1772567409262284500,5.867284423828125,-10.202262598246335,-1.4550377727761863,0.28046587763130665
1772567409272312300,5.877312255859375,-10.200919366943836,-1.6229478230684995,0.6150201960638165
1772567409282341400,5.88734130859375,-9.771780346670747,-1.729172109298408,0.7104991433303803
1772567409292369700,5.89736962890625,-8.75875948818028,-1.417384333947301,0.7653362105417996
1772567409302398500,5.9073984375,-7.800138912919163,-0.9942056833833456,0.9986423506565392
1772567409312427500,5.917427490234375,-6.832384014087915,-0.8432184185802936,1.1101271146979181
1772567409322455300,5.927455322265625,-5.718824806049466,-0.7163049800649285,0.9463310025304555
1772567409332484600,5.937484619140625,-4.696103222277761,-0.5317389785259962,0.727034317741543
1772567409342512600,5.9475126953125,-3.887944426640868,-0.4516580183342099,0.5528221716303378
1772567409352541400,5.95754150390625,-3.1435388489902016,-0.4512105668276548,0.4438801508743316
1772567409362569500,5.967569580078125,-2.3923247603684663,-0.43100861353725195,0.40611638353876767
1772567409372598500,5.9775986328125,-1.462906898716092,-0.31785043639093635,0.41945393095239997
1772567409382627600,5.987627685546875,-0.3308434812158346,-0.1519786139279604,0.3735872289210558
1772567409392655600,5.997655517578125,0.8359680090606212,0.003718436001241207,0.29781558329574764
1772567409402684400,6.007684326171875,2.083366947746277,0.16720277880579232,0.19210691843777894
1772567409412712400,6.01771240234375,3.17901406699717,0.3419558268606663,0.1472396757725626
1772567409422741500,6.027741455078125,3.882147723060846,0.4271522303700447,0.09121296038515865
1772567409432769500,6.03776953125,4.317628805837035,0.3258458190590143,-0.09540909690074623
1772567409442798600,6.047798583984375,4.672926344829797,0.18944325218647717,-0.25904278504811223
1772567409452827400,6.057827392578125,5.080348623335361,0.2296943062931299,-0.14494276047442106
1772567409462855700,6.067855712890625,5.425341041412949,0.35785628356486554,0.17746944914041085
1772567409472884500,6.077884521484375,5.523323861259222,0.43840223091989755,0.3691129695838317
1772567409482912500,6.08791259765625,5.518009972760081,0.4658341354638338,0.4192721081120893
1772567409492941300,6.09794140625,5.649650147536397,0.49485126337260005,0.3338621714498847
1772567409502969600,6.107969482421875,5.953007655933499,0.6307520182028412,0.11577656121747568
1772567409512998700,6.11799853515625,6.285063435548544,0.9110232500448823,-0.041237306931335475
1772567409523027500,6.12802734375,6.6550687143296,1.2026149173244833,-0.1254518049975857
1772567409533055500,6.138055419921875,7.086601351740956,1.415252582615614,-0.21468210366554558
1772567409543084300,6.148084228515625,7.503194778695702,1.5227841520518064,-0.35443281192220744
1772567409553112600,6.158112548828125,7.711447068509459,1.5859358970135449,-0.512026306589879
1772567409563141600,6.1681416015625,7.654915033948421,1.647857515658438,-0.6004244652826338
1772567409573169400,6.17816943359375,7.55152129496932,1.5237041895061731,-0.6149674429632723
1772567409583198500,6.188198486328125,7.440696529206633,1.44030694437325,-0.6136934775047004
1772567409593227300,6.198227294921875,7.28068424642682,1.5195105372086166,-0.5246737893801182
1772567409603255600,6.208255615234375,6.818664116293191,1.5051073333248495,-0.45460868483334776
1772567409613284600,6.21828466796875,6.120448627409338,1.0999337105289102,-0.41322606941349804
1772567409623312400,6.2283125,5.373501548582315,0.6756932759523391,-0.5172288802016526
1772567409633341400,6.238341552734375,4.463802532878518,1.2411068528041242,0.10635244265422224
1772567409643369500,6.248369384765625,3.495314059075713,1.2849457022696733,-0.892782075433433
1772567409653398500,6.2583984375,1.792261602678895,0.784113903182745,-1.6092214955329893
1772567409663427600,6.268427490234375,1.481734348782897,0.08640577929913996,-1.208012611649558
1772567409673455400,6.278455322265625,0.06970540438890457,-0.4845926119476556,-0.535869356328994
1772567409683484700,6.288484619140625,-1.8830267462313175,-1.0318117759391665,0.43514103716686364
1772567409693512400,6.298512451171875,-3.904861074650287,-1.69645583461076,1.066103483249992
1772567409703541500,6.30854150390625,-5.480196667194366,-2.5918279265373942,1.1613516174353657
1772567409713570600,6.318570556640625,-6.230373813983798,-3.124912766714394,0.4339017046302557
1772567409723598600,6.3285986328125,-7.514219446057081,-2.690765855151415,-0.7565691859140992
1772567409733627600,6.338627685546875,-9.92932945420742,-1.9706722964584826,-0.9671294604092836
1772567409743655400,6.348655517578125,-11.915967381560801,-2.0442451899304985,0.060603302587941284
1772567409753684500,6.3586845703125,-12.479101615303755,-2.5878382723793387,1.0229610916160046
1772567409763712500,6.36871240234375,-12.400199343502521,-2.612465348635614,0.934217809280008
1772567409773741600,6.378741455078125,-11.51857666772604,-1.841202743719518,0.1992295368593186
1772567409783770600,6.3887705078125,-9.588526889035105,-1.164558450652659,-0.7375372993163763
1772567409793798400,6.39879833984375,-8.293466035464405,-1.2605810763418674,-1.8460158430896698
1772567409803827500,6.408827392578125,-7.752597994065284,-1.4221815050959585,-2.073530028864741
1772567409813855500,6.41885546875,-7.117593871375918,-1.2051546649351714,-1.2991408163607119
1772567409823884500,6.428884521484375,-5.838890862888097,-0.7500920988544821,-0.23574330413378775
1772567409833912600,6.43891259765625,-3.9929976232647895,-0.5704305282309651,0.3559224659580737
1772567409843941400,6.44894140625,-2.3160645275086162,-0.47430093503594395,0.45480837212391195
1772567409853970400,6.458970458984375,-1.0401648860037327,-0.2679050867438316,0.30681802411451936
1772567409863998500,6.46899853515625,0.01214227321445942,-0.05073094706684351,0.12126797997429967
1772567409874027500,6.479027587890625,0.9670283381223678,0.10155658667981624,0.01187785012461245
1772567409884055600,6.4890556640625,1.6310200703650712,0.2020791541367769,0.016642982167191803
1772567409894084400,6.49908447265625,2.110821356382966,0.24665698540136216,-0.041053493063338095
1772567409904112600,6.509112548828125,2.599760473102331,0.28750059857368465,-0.27651659201625733
1772567409914141400,6.519141357421875,3.169141492280364,0.3202231568716466,-0.4766470963032916
1772567409924170500,6.52917041015625,3.7727246407896278,0.31661811811700463,-0.5677293064482509
1772567409934198300,6.5391982421875,4.2203275385141374,0.3555667113229632,-0.5296413851922378
1772567409944227600,6.5492275390625,4.637607778689265,0.3651118076510727,-0.3399678679138422
1772567409954255600,6.559255615234375,5.079905555742979,0.301853971966356,-0.12605852958592587
1772567409964284400,6.569284423828125,5.487264121362567,0.22720424304306505,-0.016192096594534813
1772567409974312400,6.5793125,5.8179398447960615,0.1673078466154635,0.003689684830792248
1772567409984341500,6.589341552734375,6.043620239272713,0.1031333344772458,0.027555275195278225
1772567409994370600,6.59937060546875,6.1933443522721525,0.03465674123093486,0.07394112399620935
1772567410004398600,6.609398681640625,6.316098625281453,-0.032840485589206214,0.12759581302264705
1772567410014427400,6.619427490234375,6.51537908861041,-0.11130874988734721,0.18159295881120488
1772567410024455400,6.629455322265625,6.765162827730179,-0.11832067447602748,0.2433398236773908
1772567410034484500,6.639484375,6.919423999637365,-0.08850976584106683,0.3806661543313414
1772567410044512500,6.649512451171875,6.931214390674233,-0.07801847470402717,0.36598979606200005
1772567410054541600,6.65954150390625,6.968124025398493,-0.06596037264168263,0.17133114731479435
1772567410064570400,6.6695703125,6.966124376013875,-0.046503684760630125,0.02375833059772849
1772567410074598700,6.6795986328125,6.642436611771583,-0.016713818913698195,0.04341339059509337
1772567410084627500,6.68962744140625,6.369968747156858,-0.013091536763310431,-0.054755234146863216
1772567410094655500,6.699655517578125,6.296904095467925,0.02976823853701353,-0.38297282383851705
1772567410104684500,6.7096845703125,5.947627716460824,0.2508988607548177,-0.6775459180817007
1772567410114712600,6.719712646484375,4.987618901711702,0.5329268731363117,-0.534801580967009
1772567410124741600,6.72974169921875,3.7649557603538035,0.5146608563445508,-0.35566827200129625
1772567410134770400,6.7397705078125,2.3239269314467905,0.171116152857244,-0.4418975987549871
1772567410144798500,6.749798583984375,0.36131110019385815,-0.2881112778179347,-0.31479762469157574
1772567410154827500,6.75982763671875,-1.824432518443465,-0.8772584892176091,-0.15749372408762574
1772567410164855600,6.76985546875,-3.553287524616718,-1.4268518349945545,0.07376856217458844
1772567410174884600,6.779884521484375,-5.308415036165714,-1.4169538335755467,0.17826025245822966
1772567410184912400,6.789912353515625,-7.244044660815596,-1.0156677197374402,0.02921893409118056
1772567410194941400,6.79994140625,-9.037011196893452,-0.6388426779389381,-0.029352862669155
1772567410204970500,6.809970458984375,-10.255586192154883,-0.40784722591936584,-0.07621087729278951
1772567410214998500,6.81999853515625,-10.881481710237264,-0.23074966056495905,-0.4249470119433477
1772567410225027600,6.830027587890625,-11.397938363957405,-0.06047054305374622,-1.0020232252664862
1772567410235055400,6.840055419921875,-11.758532255792618,0.029529461345076558,-1.2342775913059711
1772567410245084400,6.85008447265625,-11.778981169581412,-0.14353957914561033,-0.950952670981735
1772567410255112400,6.860112548828125,-11.325523116087913,-0.4656877127304673,-0.5194610962331294
1772567410265141500,6.8701416015625,-10.456669905513525,-0.7140887653201818,-0.2971873318621889
1772567410275170600,6.880170654296875,-9.325221989563106,-0.8520803549498319,-0.16990518789859488
1772567410285198300,6.8901982421875,-8.209412956771255,-0.8900447594240307,0.009018478638119994
1772567410295227600,6.9002275390625,-7.3306848333925005,-0.8784802860975265,0.19921609285585581
1772567410305255400,6.91025537109375,-6.4309934169620275,-0.8321309151157736,0.3418446946363896
1772567410315284500,6.920284423828125,-5.3619671781331295,-0.5805312126152217,0.3845785785347223
1772567410325312500,6.9303125,-3.9833249550342558,-0.1882255469597876,0.3347159022023901
1772567410335341600,6.940341552734375,-2.3716186569482085,0.11006605634987354,0.28821170598510654
1772567410345370600,6.95037060546875,-0.7357955702155828,0.3374769278809428,0.2998344488374889
1772567410355398400,6.9603984375,0.6039847150474786,0.48869843983128664,0.32111250692680476
1772567410365427500,6.970427490234375,1.5232669671326875,0.5883513848468661,0.422993137929216
1772567410375455500,6.98045556640625,2.3115976112276315,0.5819914944261312,0.6969664386708289
1772567410385484500,6.990484619140625,2.9694167923152444,0.48325990203917024,0.9534828470464796
1772567410395513600,7.000513671875,3.5788580192029475,0.38733985994160175,1.1174115726176648
1772567410405541400,7.010541259765625,4.252843322193622,0.3265276638433337,1.0912093559991567
1772567410415570400,7.0205703125,5.000614576885104,0.30739757756814357,0.971832888859883
1772567410425598500,7.030598388671875,5.697274068498611,0.3556384613849222,0.9504858571875839
1772567410435627500,7.04062744140625,6.161637546887993,0.46417307038381694,1.1056412014555186
1772567410445655600,7.050655517578125,6.59443859679997,0.4274392306178808,1.1524515410125256
1772567410455684400,7.060684326171875,6.949539151915907,0.3001066899076104,1.1251008119460195
1772567410465713400,7.07071337890625,7.168554243284463,0.19365224818363785,1.0744169919565318
1772567410475741400,7.080741455078125,7.369858321395516,0.1283452248841524,1.0772891133267433
1772567410485770500,7.0907705078125,7.527585123586654,0.23150310928076503,1.0472276639968157
1772567410495798500,7.100798583984375,7.771973141142725,0.3692896778576076,1.0412960819907486
1772567410505827300,7.110827392578125,8.11135765621066,0.46980756913945076,1.0816524961680174
1772567410515855600,7.120855712890625,8.160116718682646,0.5458665803387761,1.1703250513553618
1772567410525884400,7.130884521484375,7.853691054886579,0.5726147404022515,1.217917262005061
1772567410535912400,7.140912353515625,7.5102990577429525,0.4851322717823088,1.0105264113262296
1772567410545941500,7.15094140625,7.117775073161721,0.4680632096901536,0.7035426021907478
1772567410555970300,7.16097021484375,6.812085322424769,0.5905182074919343,0.4537587900057435
1772567410565998600,7.17099853515625,6.661424805358052,0.6639525692760944,0.14098602220527826
1772567410576027400,7.18102734375,6.3179503906279795,0.7777278554074466,0.03866195828430354
1772567410586055400,7.191055419921875,5.8870385154634715,1.0486705562815068,0.255474753835611
1772567410596084500,7.20108447265625,5.236256393405795,1.3322852533325553,0.4457537992591038
1772567410606112500,7.211112548828125,4.46547777261436,1.3478227219432592,0.16236788772894067
1772567410616141600,7.2211416015625,3.452596030333638,1.0876616734549402,-0.34990700506083666
1772567410626170400,7.23117041015625,2.2122750672101974,0.720496586535871,-0.6413689815461635
1772567410636198400,7.241198486328125,0.8428881637126207,0.3841135913714766,-0.6272432794295251
1772567410646227700,7.251227783203125,-1.1247434498757123,-0.16484335619807242,-0.1960113054651767
1772567410656255500,7.26125537109375,-3.4279373898953196,-1.0210027971550821,0.4318997171580791
1772567410666284500,7.271284423828125,-5.402374591845273,-1.548111777792871,1.2400190575674175
1772567410676313300,7.281313232421875,-7.188640168979764,-1.346068279491365,1.7952742284983396
1772567410686341600,7.291341552734375,-8.56505653272271,-0.8386834054991602,1.1072199220143257
1772567410696370700,7.30137060546875,-9.180310829803346,-0.4223953912317753,-0.42636962862499056
1772567410706398500,7.3113984375,-9.744790632936358,-0.2666252760663628,-1.8455353660963474
1772567410716427500,7.321427490234375,-10.594380924636125,-0.435447180506587,-2.5502006156414745
1772567410726455600,7.33145556640625,-11.034990017950534,-0.6670759619936346,-2.058241274318099
1772567410736484600,7.341484619140625,-10.977831960445641,-0.9133122377648949,-0.7288258042681962
1772567410746512400,7.351512451171875,-10.909848557543754,-1.1383350451156495,0.3130878250990063
1772567410756541400,7.36154150390625,-10.365375769650935,-1.4287977083653212,1.0135371374495328
1772567410766570500,7.371570556640625,-9.433060432991384,-1.4527671974956988,1.1824850063569843
1772567410776598500,7.3815986328125,-8.245617073574662,-0.9188155113562941,1.1001664963714777
1772567410786627600,7.391627685546875,-6.925243499571085,-0.5555258045658469,0.8452908409401774
1772567410796655400,7.4016552734375,-5.681825154954194,-0.6726213211610913,0.23507183461301026
1772567410806684400,7.411684326171875,-4.529233328688145,-0.9142816673189401,-0.18602133318008854
1772567410816713500,7.42171337890625,-3.1163457216382024,-1.0575786698803304,-0.3185725035877898
1772567410826741500,7.431741455078125,-1.539965003955364,-0.9731418525665998,-0.12664086865168064
1772567410836770600,7.4417705078125,-0.0062087915122509,-0.9153943047359585,0.05182399386740289
1772567410846798300,7.45179833984375,1.2502204258471727,-0.9047975073978304,0.04408587389602325
1772567410856827400,7.461827392578125,2.302382039114833,-0.8477157299995421,0.12377064697761088
1772567410866855400,7.47185546875,3.179911892619729,-0.7795610621839761,0.26362335430402306
1772567410876884500,7.481884521484375,3.7585494004428384,-0.6947331997260451,0.5797088633816689
1772567410886912500,7.49191259765625,4.117213785520196,-0.522309763662517,1.1760329076081513
1772567410896941300,7.50194140625,4.554335621240734,-0.20948329291343687,1.4810909363128244
1772567410906970600,7.511970703125,5.262987163943052,0.1169409105554223,1.0339172968510537
1772567410916998400,7.521998291015625,5.913574640211463,0.22633739708065986,0.25511052363310005
1772567410927027500,7.53202734375,6.29848055100441,0.12734174693003297,-0.4762736964136362
1772567410937055500,7.542055419921875,6.57153586011827,0.141719962503016,-0.8070629632242023
1772567410947084500,7.55208447265625,6.986632911035418,0.14339856323972344,-0.7110632069539279
1772567410957112600,7.562112548828125,7.408040460273623,0.12647095544487238,-0.16355229347422717
1772567410967141400,7.572141357421875,7.522682738497853,0.044021220295131204,0.17576251735836265
1772567410977170400,7.58217041015625,7.3395046841859815,0.008791793742775916,0.48556876350343225
1772567410987198500,7.592198486328125,7.085394314038753,0.022604922778904437,0.8347728809919208
1772567410997227500,7.6022275390625,6.884452639499306,-0.026408845106512306,0.9300078634347766
1772567411007255600,7.612255615234375,6.7616013358563185,-0.05386924509257078,0.8093679522309452
1772567411017284400,7.622284423828125,6.730252842390537,-0.01466623873412609,0.4517612595129758
1772567411027312600,7.632312744140625,6.704321697798371,0.11353344019949435,-0.04261493369378149
1772567411037341700,7.642341796875,6.458148550391197,0.33292101814225317,-0.3104442517876625
1772567411047370500,7.65237060546875,6.086691903758049,0.4124447828426957,-0.3777781778048724
1772567411057398500,7.6623984375,5.758789736691117,0.32650384457632897,-0.5200082817871123
1772567411067427300,7.67242724609375,5.220726231318712,0.21348229942172764,-0.9174443691335618
1772567411077455600,7.68245556640625,4.502099822568893,0.34555881978869435,-0.99029238239713
1772567411087484700,7.692484619140625,3.7024960893094536,0.48674336024075743,-0.6177820619925857
1772567411097512400,7.702512451171875,2.2488047627061603,0.3232388514310121,-0.19586802453696728
1772567411107541500,7.71254150390625,-0.22547464277148246,-0.1456280758574605,0.27394721645228565
1772567411117570300,7.7225703125,-2.784674557426572,-0.6357781758017838,0.8771846202638
1772567411127598600,7.7325986328125,-4.659436164137721,-0.9523052546344697,1.1531128544654696
1772567411137627600,7.742627685546875,-6.241845056068897,-1.1087008082218468,0.9862536284003406
1772567411147655400,7.752655517578125,-7.816503772264719,-1.1783952528253197,0.4945443893805146
1772567411157684500,7.7626845703125,-9.271248407313227,-1.1876903199151159,-0.23875993027491493
1772567411167712500,7.77271240234375,-10.395662186843156,-1.0946566469088197,-1.099547926081717
1772567411177741600,7.782741455078125,-10.929425364673136,-0.9740165895745158,-1.9471888372793793
1772567411187771100,7.792771240234375,-11.457870562350749,-1.0052671756237745,-2.312303129148483
1772567411197799000,7.802798828125,-11.882850709378719,-1.5003025633916258,-2.132597427122295
1772567411207828000,7.812827880859375,-11.627014830613136,-2.068049259366095,-1.758324700155109
1772567411217856000,7.82285595703125,-10.699343520367146,-2.30833656360507,-1.205061287563294
1772567411227885000,7.832885009765625,-9.287427388697862,-2.376163606901467,-0.6444611754078418
1772567411237912800,7.842912841796875,-7.921330174395441,-2.4175515560835596,-0.17514018420893698
1772567411247942000,7.85294189453125,-6.70085489847064,-2.4536250322446227,0.21999635749086735
1772567411257971000,7.862970947265625,-5.825971760082244,-2.4566060938820242,0.37510760688874867
1772567411267999000,7.8729990234375,-5.350678891399502,-2.3317662467703224,0.5835676577016711
1772567411278028000,7.883028076171875,-4.787372808220982,-2.0069731516346336,1.0096087119594215
1772567411288055800,7.893055908203125,-3.8475978032052516,-1.479930806492269,1.233308600143343
1772567411298084900,7.9030849609375,-2.8228736474394798,-0.8727616161897778,1.1624712691150605
1772567411308113200,7.913113037109375,-1.6087544625431298,-0.32938159196972844,0.8208909975685179
1772567411318142000,7.923141845703125,-0.37444355348944663,0.10576719011217355,0.3834833671765402
1772567411328171000,7.9331708984375,0.8369488367915153,0.4160796322137117,0.11507789316251874
1772567411338198800,7.94319873046875,2.0065964272767305,0.6375849329628049,0.01250151214802172
1772567411348228000,7.95322802734375,3.0335885279744863,0.7821570700265467,0.034424421179248016
1772567411358256000,7.963256103515625,3.9590024146825074,0.7945505415230989,0.14210378332198598
1772567411368285000,7.973284912109375,4.647244206562638,0.7341342128746211,0.2612183937878348
1772567411378313000,7.98331298828125,5.164745985421538,0.6749955029465258,0.42365496283881365
1772567411388342000,7.993342041015625,5.611916921469569,0.612392331778258,0.5460637834113091
1772567411398370000,8.0033701171875,5.9238698242545125,0.7050795294344425,0.833980707700923
1772567411408399000,8.013399169921875,6.3485226390242575,0.6906677038528025,0.9265724090933799
1772567411418428000,8.023427978515626,6.517952738490701,0.49337096168696876,0.5369254412531852
1772567411428456200,8.033456298828124,6.553290009331703,0.45684448106139897,0.4044732925068587
1772567411438485000,8.043485107421875,6.739103088322281,0.5011017020694911,0.4537287601936608
1772567411448513000,8.053512939453125,6.989888697960972,0.5303089457228779,0.4239105815676972
1772567411458542000,8.0635419921875,7.245464464485645,0.6032695525154471,0.36813488179929554
1772567411468570000,8.073570068359375,7.414604641094804,0.729333096203208,0.34133345717862246
1772567411478599200,8.08359912109375,7.47927088227272,0.8870524457402527,0.3414997901888564
1772567411488628000,8.0936279296875,7.448266087678074,0.9822171394258737,0.3389033074222505
1772567411498656000,8.103656005859374,7.347069566482305,0.9905477453976869,0.23617205093987284
1772567411508685000,8.11368505859375,7.2296157379686825,1.008312680799514,0.18375746163502335
1772567411518713000,8.123713134765625,7.072782085224985,1.0129711741298437,0.13645469891857356
1772567411528742100,8.1337421875,6.864608121344447,0.949109965724498,0.01371321232561022
1772567411538770000,8.14377001953125,6.470065782678127,0.9273450009010732,-0.06090287005640566
1772567411548799000,8.153799072265626,6.097192839506268,1.042425378281623,-0.03716843179091811
1772567411558828000,8.163828125,5.743059083595871,1.1895590363964437,-0.05054985487889498
1772567411568856000,8.17385595703125,4.738130346146225,1.2672915337659418,-0.16956779090408236
1772567411578885000,8.183885009765625,3.7443005103379488,1.2401098045907915,-0.21603527184017002
1772567411588913000,8.193912841796875,2.9805092642158266,1.0544193290665744,-0.23392065528389064
1772567411598942000,8.20394189453125,1.5659955172687767,0.7245373863592743,-0.36906047221161425
1772567411608970000,8.213969970703126,-0.5765531027644872,0.28700229366272684,-0.3702232323806733
1772567411618999000,8.2239990234375,-2.829939348042011,-0.19188363107591866,-0.18489640253707765
1772567411629028000,8.234028076171874,-4.442478589820862,-0.5659256180271506,0.24527174158804116
1772567411639056000,8.244055908203125,-5.808047396335005,-0.8260448732003569,0.7582930870972573
1772567411649085000,8.2540849609375,-6.935108475503325,-0.9413076214104891,0.9077166097149252
1772567411659113000,8.264113037109375,-8.008050426471232,-0.7740402529358863,0.5022552194861695
1772567411669142000,8.27414208984375,-9.013136400309204,-0.43799189655333753,-0.16507095440886912
1772567411679169800,8.284169677734376,-9.868132350444792,-0.35944121466875073,-1.1004238321334123
1772567411689198800,8.29419873046875,-10.8616091350317,-0.6900283830359578,-1.9774412060715256
1772567411699228200,8.304228271484375,-11.736993793201446,-1.2721832513302564,-2.479818627165258
1772567411709256000,8.314255859375,-12.021106502902507,-1.645460975910723,-2.4661507518187165
1772567411719285000,8.324284912109375,-11.745858652180432,-1.7201076360940932,-2.0286253037333486
1772567411729313000,8.33431298828125,-11.07032319713831,-1.726643175342679,-1.4668424845993517
1772567411739342000,8.344342041015626,-9.901904856187105,-1.644215359763801,-1.1116321124333888
1772567411749370000,8.3543701171875,-8.429479018497467,-1.3665584020733832,-1.020965606949851
1772567411759399000,8.36439892578125,-6.842169495043158,-1.0303191992938519,-0.8943457445535808
1772567411769428000,8.374427978515625,-5.280038836508989,-0.7666308534622192,-0.4585965854257345
1772567411779456000,8.3844560546875,-3.74761767206192,-0.5875131804570556,-0.05004986946750432
1772567411789485000,8.394485107421875,-2.1254712285041806,-0.5229512764364481,0.28233466717787087
1772567411799513000,8.40451318359375,-0.6391694256752729,-0.5743678676798939,0.5962670533422381
1772567411809542000,8.4145419921875,0.4869610946446657,-0.6515294332936405,0.8072863236512988
1772567411819570200,8.424570068359374,1.4362100304484366,-0.6859969355627894,0.9372453404076397
1772567411829599000,8.434598876953125,2.1874399011611936,-0.6695452747166156,1.0403903653226791
1772567411839627000,8.444626953125,2.6818314380675554,-0.5171349913731217,1.117548496870324
1772567411849656000,8.454656005859375,2.9021944369137285,-0.17584668851047752,1.401198776691407
1772567411859684900,8.464684814453125,3.1912498637139795,0.07367138541042804,1.6363517867818473
1772567411869713200,8.474713134765626,3.4047201804369687,0.18489421057999134,1.5907244464643298
1772567411879742000,8.484741943359374,3.355148048016429,0.27105010677129027,1.511994900881499
1772567411889770000,8.49477001953125,3.3484143558472392,0.3507891216576099,1.3355404557362198
1772567411899799000,8.504799072265625,3.6091584649205206,0.3810103646591306,1.0419063959088175
1772567411909827000,8.5148271484375,3.9439924770772454,0.4420636760368943,0.7868165862701832
1772567411919856000,8.524856201171875,4.369675219416618,0.488497218170762,0.6949316449075937
1772567411929885000,8.534885009765626,4.9833957310587165,0.4884210841946304,0.769134068454802
1772567411939913000,8.544912841796876,5.589978061383962,0.4494128697559237,0.738648621559143
1772567411949942000,8.55494189453125,6.0511027039825915,0.4892380996659398,0.6646868749000132
1772567411959970000,8.564969970703125,6.450958931148052,0.5543756116174161,0.6804531838305294
1772567411969999000,8.5749990234375,6.80447426289916,0.672038991228491,0.7440227888781576
1772567411980027000,8.58502685546875,7.009708081674575,0.8022888806901872,0.7404897924464195
1772567411990056000,8.595055908203125,7.130453937470913,0.8313885723158717,0.5053993992634117
1772567412000085000,8.6050849609375,7.211746903800964,0.8948241026550531,0.2718116657283157
1772567412010113000,8.615113037109374,7.166412555080652,0.9896309228137135,0.08385152823906392
1772567412020142000,8.62514208984375,6.951015654209256,1.0352820823982358,-0.12732494192570448
1772567412030169900,8.635169921875,6.70348466245234,0.9923390127286315,-0.26383096917271615
1772567412040199200,8.64519921875,6.277357683476805,0.9407184233456849,-0.27214630451016125
1772567412050227000,8.65522705078125,5.6205678454369306,0.8912263704240322,-0.23860884963274
1772567412060256000,8.665256103515626,4.785750175455212,0.8008116477444768,-0.22039295559301972
1772567412070285000,8.67528515625,3.7474306250572202,0.696848292183876,-0.21444573762640357
1772567412080313000,8.68531298828125,2.3133114294081927,0.526860558834672,-0.12435915092267096
1772567412090342100,8.695342041015625,0.6342407371014356,0.32552433201968667,0.07809526626728475
1772567412100370000,8.705369873046875,-0.895212225189805,0.13472440452724693,-0.06394881362356244
1772567412110399000,8.71539892578125,-1.556830214038491,0.16208645870536564,-0.3982087522193789
1772567412120427000,8.725427001953125,-2.114433117139339,0.3434972110837698,-0.7784497399412095
1772567412130456000,8.7354560546875,-3.013450579831004,0.4121677194669843,-1.0080296260744332
1772567412140485000,8.745485107421874,-4.737966095495223,0.2078004543930292,-0.5203790147956461
1772567412150513000,8.755512939453125,-6.792797269108891,-0.43404052857905623,0.3221106511186808
1772567412160542000,8.7655419921875,-8.269440432232617,-1.041682012568414,1.0750570434257387
1772567412170570000,8.775570068359375,-8.75474849897325,-1.196875204628706,1.1637529794886707
1772567412180599000,8.78559912109375,-9.149171595174074,-0.9565274023741484,0.4449584476303309
1772567412190627000,8.795626953125,-9.472922487780451,-0.9248270267307758,-0.1347572108183056
1772567412200656000,8.80565576171875,-9.51934638530314,-1.135152907948196,-0.23863876984696833
1772567412210684200,8.81568408203125,-9.41044937273264,-1.2357988095238803,-0.39226800052616745
1772567412220713200,8.825713134765625,-9.047138623154163,-1.1722764776840806,-0.6117945485481991
1772567412230742000,8.835741943359375,-8.327690376627444,-1.1002470142617822,-0.816551653189957
1772567412240770000,8.84577001953125,-7.386054253914952,-1.0319707658931612,-0.9287538447856902
1772567412250798800,8.855798828125,-6.420164564433693,-0.8594225344061851,-0.601192161719501
1772567412260827100,8.8658271484375,-5.401380320110917,-0.5863254319772124,-0.07977901810314506
1772567412270856200,8.875856201171874,-4.239636634618043,-0.4111243478938937,0.4758237606890499
1772567412280884000,8.885884033203125,-2.9271535216033455,-0.37932694161683317,0.879684108929336
1772567412290913000,8.8959130859375,-1.5837047769606112,-0.2834542457923293,0.9355804759353399
1772567412300941800,8.90594189453125,-0.3142190941512584,-0.07972820123136043,0.9177172677908092
1772567412310970000,8.91597021484375,0.7762374707192182,0.1097802251458168,0.8280028754003346
1772567412320999200,8.925999267578124,1.6911229491502047,0.2790507501363754,0.699808018772304
1772567412331027000,8.93602685546875,2.43051332898736,0.37450025211274623,0.6405839686483145
1772567412341056000,8.946055908203125,2.996787029799819,0.36090339617580175,0.46865847216956313
1772567412351084000,8.956083984375,3.4979800634145737,0.3093175858452916,0.28088501635883
1772567412361113000,8.966113037109375,3.9418694935739036,0.26099019278883934,0.1813255583129823
1772567412371142100,8.97614208984375,4.3196711253196,0.2580243287205696,0.2502970589367673
1772567412381170000,8.986169921875,4.580588837394118,0.2959676904067397,0.4059416480263695
1772567412391199200,8.99619921875,4.7633629870802165,0.3307198548361659,0.4469001562826335
1772567412401227000,9.00622705078125,4.911230074036121,0.4705538574621081,0.48306379494518037
1772567412411256000,9.016256103515625,5.2224786279439925,0.6412587991699576,0.4764471167517826
1772567412421283800,9.026283935546875,5.59921467628479,0.803011788137257,0.42841315368395294
1772567412431313200,9.036313232421875,6.0327972319632766,0.9290376301631331,0.42472372458148744
1772567412441341000,9.0463408203125,6.4095286041289565,1.037320017966628,0.4242163961138576
1772567412451370000,9.056369873046876,6.701253542399406,1.0917492350295186,0.3496851790037006
1772567412461399000,9.06639892578125,6.904353856277465,1.0713722174331546,0.20349767916519193
1772567412471427000,9.076427001953125,7.007808385533094,0.9871414440855383,0.06378737598415464
1772567412481456000,9.0864560546875,7.044123561495542,0.8916419654875993,0.05479169369973242
1772567412491484000,9.09648388671875,6.85833561694622,0.8176865024387836,0.126159259147197
1772567412501513000,9.106512939453125,6.4155035868853325,0.7477811915636062,0.0766286277808249
1772567412511541200,9.116541259765626,5.815559087139368,0.6976528865650296,0.02182319781668484
1772567412521570000,9.126570068359374,4.8701411078006025,0.6829492384299636,0.004298866237699985
1772567412531599000,9.13659912109375,3.5555776813805102,0.4999877494782209,-0.21734905785247682
1772567412541627000,9.146626953125,2.2520611341536045,0.24095570501983166,-0.5362638355392962
1772567412551656000,9.156656005859375,1.1773866603046654,0.005060498259961604,-0.5376398000676185
1772567412561684200,9.166684326171875,0.0865700299501419,-0.2905915503263473,-0.3389796605940908
1772567412571713000,9.176713134765626,-1.291376612100005,-0.6224450853675604,-0.46779023796766994
1772567412581741000,9.186740966796876,-2.493113869807124,-0.7540025502964853,-0.8139461468666791
1772567412591769900,9.196769775390624,-3.148624189430475,-0.4564963982760906,-1.139927355808392
1772567412601799000,9.206798828125,-3.8927532882273197,-0.260668121227622,-1.12501576401107
1772567412611827200,9.2168271484375,-4.556723393160104,-0.4860357964932918,-0.7372160314727574
1772567412621856000,9.22685595703125,-5.126086292159557,-0.5193786786466836,-0.2172942589253187
1772567412631884000,9.236884033203125,-5.6609431104451415,-0.35872955926805733,0.25454817704260346
1772567412641912800,9.246912841796876,-5.8894455766052,-0.40415100174993274,0.4166809591077268
1772567412651941000,9.256941162109374,-5.897695518556237,-0.6797206317722797,0.30377529541775583
1772567412661970200,9.26697021484375,-6.108139180934429,-1.0377011262387037,0.1424882434617728
1772567412671998000,9.276998046875,-6.267782630401849,-1.2616735477536916,0.2500363256413489
1772567412682027000,9.287027099609375,-6.526350564479827,-1.3639745230600238,0.3495597259931266
1772567412692056000,9.29705615234375,-6.751487353599071,-1.4053089884892105,0.10506211058273911
1772567412702084000,9.307083984375,-7.029400039616227,-1.4191916756302116,-0.24930538101829586
1772567412712113200,9.317113037109374,-7.366208566716313,-1.4470146253183482,-0.42375210307035593
1772567412722141000,9.327140869140624,-7.644390717324614,-1.529386911317706,-0.23065613706260918
1772567412732170000,9.337169921875,-7.4512909884572025,-1.5752052441626787,0.1388873694255948
1772567412742198000,9.347197998046875,-6.805197316476702,-1.4783946829661727,0.33775073985364285
1772567412752227000,9.35722705078125,-5.751531728386879,-1.1911840072497726,0.31277174488715825
1772567412762256100,9.367256103515626,-4.21304965646565,-0.8385819909512996,0.2818758905597031
1772567412772284000,9.377283935546876,-2.6056261502653357,-0.4195134060546756,0.3316278365265578
1772567412782313200,9.387313232421874,-1.0857973408877848,0.09874649769514798,0.4065951800316572
1772567412792341000,9.397341064453125,0.4528507352501154,0.5245063969239592,0.3869830823931843
1772567412802370000,9.4073701171875,1.8474977522104978,0.8567103528380393,0.30611126408465206
1772567412812398000,9.417398193359375,3.0254771177113056,1.0963073367252945,0.35163645920194686
1772567412822427100,9.42742724609375,3.8473505504459142,1.1456707948312164,0.5990633695298806
1772567412832456200,9.437456298828126,4.266111384567618,1.1487778209358452,0.8774698669459671
1772567412842484000,9.44748388671875,4.359035751980543,1.1390960926160216,0.919505466381833
1772567412852513000,9.457512939453125,4.315875240167975,1.0756246141806245,0.785789581310004
1772567412862541000,9.467541015625,4.352508396038413,0.9752797413781285,0.705311219298467
1772567412872570000,9.477570068359375,4.670383090087771,0.9396674529880285,0.6686157387815416
1772567412882598000,9.487597900390625,5.139888607540726,1.0033356230393051,0.7053580541148782
1772567412892627000,9.497626953125,5.718471754828095,1.1016808464571832,0.6658198244526982
1772567412902656000,9.507656005859374,6.27656565631628,1.2544155394494534,0.5455624097604305
1772567412912684000,9.51768408203125,6.75960227099359,1.3626023579239845,0.4017631567653268
1772567412922713000,9.527713134765625,7.209251579853892,1.387926476533711,0.2659919100662693
1772567412932740900,9.537740966796875,7.6221718712538475,1.3383788940325378,0.21463917783927172
1772567412942770000,9.54777001953125,7.858997344601154,1.1800213927224277,0.16757548457570373
1772567412952798200,9.557798095703125,7.86383426323831,0.97572456253618,0.12006503392532467
1772567412962827000,9.567826904296876,7.881369919928908,0.8367854629233479,0.12994016592539845
1772567412972855000,9.57785498046875,7.777575198933482,0.7716904749393463,0.09631583648212254
1772567412982883800,9.5878837890625,7.4340627902805805,0.7101730531811714,0.07867715780846773
1772567412992913000,9.597912841796875,6.9474553313791745,0.5967658697098494,-0.08715959334112704
1772567413002941200,9.607941162109375,6.408539008569717,0.6272451791256666,-0.2818749407116323
1772567413012970000,9.617969970703125,5.986126081681252,0.6859332226768136,-0.344777533217892
1772567413022998000,9.627998046875,5.304881016820669,0.570231206266582,-0.3543547051846981
1772567413033026800,9.63802685546875,4.537178734734654,0.20551789641380308,-0.34382571238577364
1772567413043055000,9.64805517578125,3.3595319621890782,-0.40315526871085167,-0.2057084505498409
1772567413053084200,9.658084228515625,1.580226871716976,-1.1804147759541868,-0.05140022463053465
1772567413063112000,9.66811181640625,-1.0499994667977095,-1.6721563828736543,0.0959733066547662
1772567413073141000,9.67814111328125,-3.9071886408150194,-1.8502292230010031,0.5355357404604554
1772567413083170000,9.688170166015626,-5.754232804039121,-1.862635407848656,1.2175285549484192
1772567413093198000,9.698197998046876,-6.582179419207573,-1.7938854044884442,1.3051726438708602
1772567413103227100,9.70822705078125,-7.692067245256901,-1.6769333880171178,0.16570632970295845
1772567413113255000,9.7182548828125,-9.717718501615524,-1.2458470330685376,-1.2783740687943994
1772567413123284200,9.7282841796875,-11.7834422406435,-1.0488827377274632,-2.353817919580638
1772567413133312000,9.73831201171875,-13.103870175182818,-1.1518182115450502,-2.816304498182237
1772567413143341000,9.748341064453125,-13.673224890875815,-1.2661135760277509,-2.85778538634479
1772567413153370000,9.7583701171875,-13.401805658531188,-1.2710092391148209,-3.1760873658955093
1772567413163398100,9.768398193359374,-12.452745523297786,-1.1814844510123133,-3.4793770697534083
1772567413173427200,9.77842724609375,-10.901195295488833,-1.0241548314452171,-3.173702516585588
1772567413183454000,9.788453857421874,-8.800825775015353,-0.6356286843284964,-2.5009610761761665
1772567413193483000,9.79848291015625,-6.285615224212408,-0.31015257536470886,-1.760362197332084
1772567413203511000,9.808510986328125,-3.881873582294583,-0.23860417345762253,-1.0899418202813713
1772567413213540000,9.8185400390625,-2.021767108401656,-0.2620303494915366,-0.3273451907712966
1772567413223568000,9.82856787109375,-0.6093447807759046,-0.26077304290682074,0.3414707467574626
1772567413233597000,9.838596923828124,0.25317571964561936,-0.37409254809468984,0.6736483991865069
1772567413243626000,9.8486259765625,0.9316776232779026,-0.5732014542490244,0.528259027455747
1772567413253654000,9.858654052734375,1.4873381601393223,-0.7466670928418636,0.15462781326249242
1772567413263683000,9.86868310546875,1.7428578125625849,-0.6751672062516212,-0.08238229593671857
1772567413273710800,9.8787109375,1.8768723152548075,-0.4753073355995118,-0.09977554848194121
1772567413283740200,9.888740234375,1.9666572155982254,-0.36482685322985053,-0.05990647943019867
1772567413293768000,9.898767822265626,1.9739140548586844,-0.3822103880986571,0.05322027966454625
1772567413303797000,9.908796875,2.131612215477228,-0.5591939716845751,0.06857157805338501
1772567413313826000,9.918825927734375,2.284057862395048,-0.6956057447768748,0.06193564717024564
1772567413323854000,9.92885400390625,2.589115160447359,-0.6508531414672732,0.24602234075963494
1772567413333883100,9.938883056640625,3.2186224392861127,-0.5107109496749938,0.6352280676383525
1772567413343911000,9.948910888671875,3.8203614212334154,-0.38037513549551366,0.9932619727924465
1772567413353940000,9.95893994140625,4.438534820631146,-0.4339300539419055,1.092908999523893
1772567413363968000,9.968968017578124,5.735561421316862,-0.4911602999001741,0.8435506462093442
1772567413373997000,9.9789970703125,7.459149885264039,-0.18062427817583082,1.3346513979420065
1772567413384025000,9.989025146484375,5.481795334562659,-0.18281755043640732,1.993722917178273
1772567413394054000,9.999053955078125,4.595328725886344,-0.8390079612784087,1.9329272338233887
1772567413404083000,10.0090830078125,5.103251360017061,-1.027567124106735,1.181292362506315
1772567413414111000,10.019111083984376,5.788015831175446,-0.23248700575158,0.7406952518906443
1772567413424140000,10.02914013671875,6.339851841312647,0.8302440784558653,0.6967688702721149
