time,seconds_elapsed,z,y,x
1772527337831732500,0.075732421875,0.038679227232933044,-0.01852240227162838,0.006520677823573351
1772527337841730300,0.085730224609375,0.03569648414850235,-0.007250040303915739,0.005324918311089277
1772527337851728400,0.095728271484375,0.037035368382930756,0.0035061556845903397,-0.0025355787947773933
1772527337861725700,0.1057255859375,0.03550564870238304,0.0038299961015582085,-0.01048458181321621
1772527337871723500,0.1157236328125,0.03488939255475998,0.0012051849626004696,-0.010927732102572918
1772527337881721600,0.1257216796875,0.029097016900777817,-0.004510757513344288,-0.013930445536971092
1772527337891719400,0.135719482421875,0.024264447391033173,-0.004807119723409414,-0.0194895938038826
1772527337901717500,0.145717529296875,0.018578598275780678,-0.016094928607344627,-0.020484818145632744
1772527337911715600,0.155715576171875,0.017475783824920654,-0.02109852246940136,-0.019617360085248947
1772527337921712400,0.16571240234375,0.013037891127169132,-0.022521449252963066,-0.005852013360708952
1772527337931710500,0.17571044921875,0.015125620178878307,-0.019712114706635475,-0.007124071475118399
1772527337941708500,0.18570849609375,0.018039384856820107,-0.015868108719587326,-0.01858418621122837
1772527337951706400,0.195706298828125,0.014157939702272415,-0.01640818640589714,-0.023968521505594254
1772527337961704400,0.205704345703125,0.011342978104948997,-0.025111664086580276,-0.029916157945990562
1772527337971702300,0.215702392578125,0.008624046109616756,-0.033873580396175385,-0.02828250825405121
1772527337981700400,0.225700439453125,0.004967526067048311,-0.027086777612566948,-0.0293794646859169
1772527337991697700,0.23569775390625,-0.006631076335906982,-0.011542386375367641,-0.028127023950219154
1772527338001695500,0.245695556640625,-0.011805331334471703,-0.009430766105651855,-0.02479887194931507
1772527338011693600,0.255693603515625,-0.02269008941948414,-0.010580391623079777,-0.013283919543027878
1772527338021691600,0.265691650390625,-0.025577222928404808,-0.016277160495519638,-0.010255904868245125
1772527338031689500,0.275689453125,-0.01811188831925392,-0.024331767112016678,0.0068969386629760265
1772527338041687600,0.2856875,-0.01226704940199852,-0.037371937185525894,0.02962036058306694
1772527338051684400,0.295684326171875,-0.0002997135743498802,-0.05231068283319473,0.05141748860478401
1772527338061682400,0.305682373046875,0.011143357492983341,-0.07622294127941132,0.07214221358299255
1772527338071680500,0.315680419921875,0.010585996322333813,-0.08774703741073608,0.09065437316894531
1772527338081678300,0.32567822265625,0.009470663964748383,-0.08001907914876938,0.0962747111916542
1772527338091676400,0.335676513671875,0.01735617034137249,-0.0712975487112999,0.09337694942951202
1772527338101674500,0.345674560546875,0.029600586742162704,-0.06775660812854767,0.08839444071054459
1772527338111671600,0.355671630859375,0.032270099967718124,-0.0640680119395256,0.07510149478912354
1772527338121669600,0.365669677734375,0.04836544394493103,-0.07729379832744598,0.06779244542121887
1772527338131667500,0.37566748046875,0.06497147679328918,-0.1109469011425972,0.07311133295297623
1772527338141665500,0.38566552734375,0.07608909904956818,-0.1259271800518036,0.07753990590572357
1772527338151663600,0.39566357421875,0.08999647945165634,-0.1301424652338028,0.08220615983009338
1772527338161661400,0.405661376953125,0.10192770510911942,-0.12857972085475922,0.08077950775623322
1772527338171659500,0.415659423828125,0.10603483021259308,-0.11628224700689316,0.06846660375595093
1772527338181656300,0.42565625,0.10324330627918243,-0.1048695370554924,0.05739450827240944
1772527338191654400,0.435654296875,0.0949566513299942,-0.0991983562707901,0.044036559760570526
1772527338201652500,0.445652587890625,0.07703730463981628,-0.0824555903673172,0.04371218755841255
1772527338211650300,0.455650390625,0.06452824920415878,-0.049373891204595566,0.04854336008429527
1772527338221648400,0.4656484375,0.04620729759335518,-0.028019066900014877,0.05020197853446007
1772527338231646500,0.475646484375,0.03650052845478058,-0.031158262863755226,0.038808733224868774
1772527338241644300,0.485644287109375,0.027691593393683434,-0.014008836820721626,0.031899694353342056
1772527338251641600,0.4956416015625,0.014488818123936653,0.00011971825733780861,0.023692717775702477
1772527338261639400,0.505639404296875,0.013755382969975471,0.012740438804030418,0.015011612325906754
1772527338271637500,0.515637451171875,0.0022993404418230057,0.01094256155192852,0.005475987214595079
1772527338281635600,0.525635498046875,-0.008829477243125439,0.021260447800159454,-0.004262127913534641
1772527338291633400,0.53563330078125,-0.020090386271476746,0.04264461249113083,-0.006053169723600149
1772527338301631500,0.545631591796875,-0.022319717332720757,0.05100667104125023,-0.014569958671927452
1772527338311628300,0.555628173828125,-0.022176897153258324,0.04866109415888786,-0.019710924476385117
1772527338321626400,0.56562646484375,-0.01746976189315319,0.0516480952501297,-0.024695564061403275
1772527338331624400,0.57562451171875,-0.012584722600877285,0.05192927271127701,-0.03529250621795654
1772527338341622300,0.585622314453125,-0.01316129695624113,0.058226317167282104,-0.04127449914813042
1772527338351620400,0.595620361328125,-0.016636457294225693,0.05842418968677521,-0.037400927394628525
1772527338361618400,0.605618408203125,-0.013592996634542942,0.049960069358348846,-0.02829819917678833
1772527338371615500,0.615615478515625,-0.01624447852373123,0.040692612528800964,-0.024343382567167282
1772527338381613600,0.625613525390625,-0.013608215376734734,0.03062586300075054,-0.019843973219394684
1772527338391611400,0.635611328125,-0.01746370829641819,0.029441621154546738,-0.020642654970288277
1772527338401609500,0.645609375,-0.009453985840082169,0.0311412513256073,-0.016905173659324646
1772527338411607600,0.655607666015625,-0.0027746260166168213,0.02555137686431408,-0.012459693476557732
1772527338421605400,0.66560546875,0.0042353468015789986,0.012634247541427612,0.0002968478947877884
1772527338431603500,0.675603515625,0.009572852402925491,-0.0038473643362522125,0.016303621232509613
1772527338441600500,0.6856005859375,0.01106821745634079,-0.004329130053520203,0.018609918653964996
1772527338451598300,0.695598388671875,0.017264124006032944,0.002665781881660223,0.01539389044046402
1772527338461596400,0.705596435546875,0.01952887699007988,0.010515982285141945,0.018120700493454933
1772527338471594200,0.71559423828125,0.010109060443937778,0.011193964630365372,0.014712894335389137
1772527338481592300,0.72559228515625,0.0066365646198391914,0.01322515681385994,0.01190325990319252
1772527338491590400,0.73559033203125,0.010274823755025864,0.013202846050262451,0.00725735304877162
1772527338501587500,0.74558740234375,0.009803976863622665,0.00994260422885418,0.014901956543326378
1772527338511585500,0.75558544921875,0.009649628773331642,0.0005708425305783749,0.0175884198397398
1772527338521583600,0.76558349609375,0.0028111636638641357,-0.014036329463124275,0.014908747747540474
1772527338531581400,0.77558154296875,0.012875515967607498,-0.025731602683663368,0.022131506353616714
1772527338541579500,0.78557958984375,0.013040898367762566,-0.02723895013332367,0.025517182424664497
1772527338551577600,0.79557763671875,0.011436368338763714,-0.01797729916870594,0.030688200145959854
1772527338561575400,0.805575439453125,0.011549552902579308,-0.00700613996013999,0.03347865864634514
1772527338571572500,0.815572509765625,0.01296785194426775,-0.00025412067770957947,0.02371455729007721
1772527338581570300,0.8255703125,0.0178837813436985,0.0016803997568786144,0.008726552128791809
1772527338591568400,0.835568359375,0.021479427814483643,-0.005132496822625399,0.00275816535577178
1772527338601566500,0.84556640625,0.018105734139680862,-0.02503776177763939,0.007313235197216272
1772527338611564300,0.855564208984375,0.014050350524485111,-0.03421253710985184,0.02225680835545063
1772527338621562400,0.865562255859375,0.0016112574376165867,-0.026212135329842567,0.03125802427530289
1772527338631559400,0.875559326171875,-0.0005280217155814171,-0.01661102846264839,0.037078943103551865
1772527338641557500,0.8855576171875,-0.014619072899222374,-0.001499188132584095,0.03367782011628151
1772527338651555600,0.8955556640625,-0.016401680186390877,0.0017564822919666767,0.02830364741384983
1772527338661553400,0.905553466796875,-0.028888974338769913,0.003909647930413485,0.0322139710187912
1772527338671551500,0.915551513671875,-0.020081711933016777,0.007161925081163645,0.03450040519237518
1772527338681549600,0.925549560546875,-0.025783006101846695,0.011535901576280594,0.039392098784446716
1772527338691547400,0.93554736328125,-0.026415392756462097,0.009752500802278519,0.043791308999061584
1772527338701544400,0.94554443359375,-0.013300922699272633,0.0049103423953056335,0.04721107333898544
1772527338711542300,0.955542236328125,0.004773343447595835,-0.0032047589775174856,0.03026224672794342
1772527338721539800,0.965539794921875,0.011930322274565697,-0.005908933002501726,0.017941132187843323
1772527338731538000,0.975537841796875,0.014965297654271126,-0.010354243218898773,0.01734554022550583
1772527338741536000,0.985535888671875,0.024394752457737923,-0.03396769240498543,0.027969157323241234
1772527338751533800,0.995533935546875,0.02453460544347763,-0.045960668474435806,0.037744179368019104
1772527338761531000,1.00553076171875,0.031652968376874924,-0.05003317445516586,0.0545487254858017
1772527338771528700,1.01552880859375,0.031672753393650055,-0.047575853765010834,0.05417037755250931
1772527338781526800,1.02552685546875,0.03152921050786972,-0.04879531264305115,0.04612816497683525
1772527338791524900,1.03552490234375,0.028314925730228424,-0.04642212763428688,0.037321265786886215
1772527338801522700,1.045522705078125,0.022838667035102844,-0.03998606652021408,0.028006326407194138
1772527338811520800,1.055520751953125,0.016215119510889053,-0.036086827516555786,0.03137112408876419
1772527338821518800,1.065518798828125,0.013286175206303596,-0.027665378525853157,0.031221184879541397
1772527338831516000,1.075515869140625,0.006554617080837488,-0.021048162132501602,0.020373575389385223
1772527338841514000,1.085513916015625,0.0072720726020634174,-0.015392405912280083,0.020222308114171028
1772527338851511800,1.09551171875,0.006487087346613407,-0.004374952055513859,0.025759641081094742
1772527338861510000,1.105510009765625,0.010071435943245888,-0.0023059421218931675,0.026694677770137787
1772527338871508000,1.115508056640625,0.013686520978808403,-0.010017544031143188,0.029569227248430252
1772527338881505800,1.125505859375,0.012013256549835205,-0.005239034071564674,0.032285384833812714
1772527338891502800,1.1355029296875,0.02141307294368744,-0.015829384326934814,0.02638772688806057
1772527338901501000,1.1455009765625,0.018551506102085114,-0.021318424493074417,0.012236222624778748
1772527338911498800,1.155498779296875,0.014901266433298588,-0.007206934969872236,-0.002989069791510701
1772527338921496800,1.165496826171875,0.010062302462756634,-0.00781892891973257,-0.010232601314783096
1772527338931494700,1.17549462890625,0.002510606311261654,-0.002268025651574135,-0.01615145616233349
1772527338941492700,1.18549267578125,0.0002674255520105362,0.0032628276385366917,-0.0260834489017725
1772527338951490800,1.19549072265625,-0.00240220595151186,0.0008304310031235218,-0.029309045523405075
1772527338961488000,1.20548779296875,-0.0026653259992599487,-0.006963576190173626,-0.024926014244556427
1772527338971486000,1.21548583984375,0.0036970037035644054,-0.0144216138869524,-0.020171962678432465
1772527338981484000,1.225484130859375,0.0063473815098404884,-0.014466088265180588,-0.018564745783805847
1772527338991481900,1.23548193359375,0.006658290512859821,-0.019201179966330528,-0.019386041909456253
1772527339001480000,1.24547998046875,0.01128313597291708,-0.017058666795492172,-0.014372908510267735
1772527339011477800,1.255477783203125,0.019780561327934265,-0.014702546410262585,-0.013960562646389008
1772527339021474800,1.265474853515625,0.02553485333919525,-0.012377873063087463,-0.012133900076150894
1772527339031473000,1.275472900390625,0.03093787096440792,-0.02131219208240509,-0.0038451217114925385
1772527339041470700,1.285470703125,0.03531184792518616,-0.019472215324640274,0.0068930103443562984
1772527339051468800,1.29546875,0.039247505366802216,-0.010291780345141888,0.004163736943155527
1772527339061467000,1.305466796875,0.0399836041033268,-0.0015084086917340755,0.002718705218285322
1772527339071464700,1.315464599609375,0.040565770119428635,-0.0008446970023214817,0.0071509601548314095
1772527339081462800,1.325462890625,0.04440471529960632,-0.00431000255048275,0.00766415148973465
1772527339091459800,1.3354599609375,0.04942891746759415,0.00004846649244427681,0.004999946802854538
1772527339101458000,1.3454580078125,0.061161741614341736,-0.0022359932772815228,-0.002322946675121784
1772527339111456000,1.3554560546875,0.07046934217214584,-0.019344396889209747,-0.006679589860141277
1772527339121453800,1.365453857421875,0.07803910970687866,-0.036844030022621155,-0.003977014217525721
1772527339131452000,1.375451904296875,0.09082897752523422,0.015275295823812485,-0.010043429210782051
1772527339141450000,1.385449951171875,0.08212283253669739,-0.05828121304512024,-0.012880494818091393
1772527339151446800,1.39544677734375,0.07951632887125015,-0.046675924211740494,-0.0056456406600773335
1772527339161444900,1.40544482421875,0.06840082257986069,-0.028796261176466942,-0.010078738443553448
1772527339171442700,1.415442626953125,0.06031101569533348,-0.01783190295100212,-0.013947267085313797
1772527339181440800,1.425440673828125,0.04296984151005745,-0.012813974171876907,-0.002903138753026724
1772527339191438800,1.43543896484375,0.021574262529611588,0.00017229048535227776,0.006627650465816259
1772527339201436700,1.445436767578125,0.0056474944576621056,0.011120278388261795,0.009826906025409698
1772527339211434800,1.455434814453125,-0.008482426404953003,0.031996164470911026,0.007206442300230265
1772527339221431800,1.465431884765625,-0.022020872682332993,0.04550265148282051,0.00030193058773875237
1772527339231430000,1.475429931640625,-0.031561192125082016,0.0451447032392025,-0.005693200509995222
1772527339241428000,1.485427978515625,-0.03479187190532684,0.043487951159477234,-0.007153411395847797
1772527339251425800,1.49542578125,-0.03609107434749603,0.04339291900396347,-0.012468104250729084
1772527339261423900,1.505423828125,-0.03896702453494072,0.04136306047439575,-0.019349712878465652
1772527339271422000,1.515421875,-0.039361245930194855,0.043673060834407806,-0.025534726679325104
1772527339281418800,1.525418701171875,-0.0409436970949173,0.0336313471198082,-0.03295962139964104
1772527339291416800,1.535416748046875,-0.039097484201192856,0.031086008995771408,-0.03839386627078056
1772527339301414700,1.54541455078125,-0.03311096504330635,0.023963386192917824,-0.033582333475351334
1772527339311412700,1.555412841796875,-0.024991516023874283,0.009830737486481667,-0.027343567460775375
1772527339321410800,1.565410888671875,-0.026806991547346115,0.00015440816059708595,-0.033487215638160706
1772527339331408600,1.57540869140625,-0.024387584999203682,-0.0033263657242059708,-0.0354204922914505
1772527339341406700,1.58540673828125,-0.013298183679580688,-0.0033862870186567307,-0.023540129885077477
1772527339351403800,1.59540380859375,-0.01011597365140915,-0.017014481127262115,-0.010357748717069626
1772527339361401900,1.60540185546875,-0.0014159586280584335,-0.016786513850092888,-0.0062373061664402485
1772527339371400000,1.61539990234375,0.008756784722208977,-0.01920679584145546,-0.020097460597753525
1772527339381397800,1.625397705078125,0.008783415891230106,-0.027598150074481964,-0.013767393305897713
1772527339391395800,1.635395751953125,0.017982926219701767,-0.03961242362856865,-0.001436247956007719
1772527339401394000,1.645393798828125,0.02444162592291832,-0.0607917457818985,0.016446344554424286
1772527339411390700,1.655390625,0.029421888291835785,-0.0645938366651535,0.023507051169872284
1772527339421388800,1.665388916015625,0.03388001769781113,-0.060878731310367584,0.024356599897146225
1772527339431386600,1.67538671875,0.03556553274393082,-0.04727136343717575,0.02529327943921089
1772527339441384700,1.685384765625,0.03443635255098343,-0.04378821700811386,0.02941851317882538
1772527339451382800,1.6953828125,0.03622379153966904,-0.045636311173439026,0.02961800806224346
1772527339461380600,1.705380615234375,0.029883071780204773,-0.05301699787378311,0.021404553204774857
1772527339471378700,1.715378662109375,0.02833622880280018,-0.05725075304508209,0.030586622655391693
1772527339481376000,1.7253759765625,0.022133726626634598,-0.050761692225933075,0.040040045976638794
1772527339491373800,1.735373779296875,0.012964503839612007,-0.04180486127734184,0.042838580906391144
1772527339501372000,1.745371826171875,0.009995878674089909,-0.02764243632555008,0.047363560646772385
1772527339511370000,1.755369873046875,0.005463329143822193,-0.018587647005915642,0.05251003056764603
1772527339521367800,1.765367919921875,0.006756826303899288,-0.014949502423405647,0.05926753208041191
1772527339531366000,1.775365966796875,0.007573124021291733,-0.012631390243768692,0.06014702469110489
1772527339541362700,1.78536279296875,0.006872446276247501,-0.011842295527458191,0.059035152196884155
1772527339551360800,1.79536083984375,0.013288039714097977,-0.017838524654507637,0.052353061735630035
1772527339561358800,1.80535888671875,0.014736266806721687,-0.023306261748075485,0.04485226422548294
1772527339571356700,1.815356689453125,0.01502472534775734,-0.015916109085083008,0.04149166867136955
1772527339581354800,1.825354736328125,0.006819525733590126,-0.00985049456357956,0.03565375506877899
1772527339591352800,1.835352783203125,0.011732105165719986,-0.006459271069616079,0.024076813831925392
1772527339601350000,1.845349853515625,0.009668155573308468,-0.009087012149393559,0.021206991747021675
1772527339611348000,1.855347900390625,0.00294527318328619,-0.0038156057707965374,0.01857290044426918
1772527339621345800,1.865345703125,-0.004510512575507164,-0.001791070681065321,0.02212422713637352
1772527339631343900,1.87534375,-0.008575372397899628,0.00867140106856823,0.019643669947981834
1772527339641342000,1.885342041015625,-0.011527219787240028,0.01312846876680851,0.014764226973056793
1772527339651339800,1.89533984375,-0.017983749508857727,0.020507965236902237,0.011160748079419136
1772527339661337900,1.905337890625,-0.016577333211898804,0.01656489074230194,0.004837604705244303
1772527339671334700,1.915334716796875,-0.019113652408123016,0.006189290434122086,0.001088450662791729
1772527339681332700,1.925332763671875,-0.02016959711909294,-0.0012606359086930752,-0.000499592162668705
1772527339691330800,1.935330810546875,-0.014301701448857784,-0.007420008070766926,0.00664189737290144
1772527339701328600,1.94532861328125,-0.012873449362814426,-0.0017789006233215332,0.0013187704607844353
1772527339711326700,1.95532666015625,-0.007725521922111511,0.005763161927461624,-0.01055764127522707
1772527339721324800,1.96532470703125,-0.008545242249965668,0.009086254052817822,-0.011737421154975891
1772527339731322600,1.975322509765625,-0.004168029874563217,0.008116049692034721,-0.0061664218083024025
1772527339741319700,1.985319580078125,-0.007200304418802261,0.0075511932373046875,-0.0037946105003356934
1772527339751317500,1.9953173828125,-0.009756711311638355,0.008307330310344696,0.012078627943992615
1772527339761315600,2.005315673828125,-0.010162045247852802,-0.0017200037837028503,0.03101503476500511
1772527339771313700,2.015313720703125,-0.0068916864693164825,0.00841513741761446,0.031675033271312714
1772527339781311500,2.0253115234375,-0.0019216947257518768,0.01515906024724245,0.026704244315624237
1772527339791309600,2.0353095703125,-0.0005059558898210526,0.021138174459338188,0.019181013107299805
1772527339801306400,2.045306396484375,0.0037729451432824135,0.021961091086268425,0.013041360303759575
1772527339811304400,2.055304443359375,0.009119697846472263,0.015806665644049644,0.005775215569883585
1772527339821302500,2.065302490234375,0.016133133322000504,-0.00046791182830929756,0.008281515911221504
1772527339831300600,2.075300537109375,0.024860957637429237,-0.008485458791255951,0.006340471096336842
1772527339841298700,2.085298583984375,0.028056219220161438,-0.0014914651401340961,-0.002026116009801626
1772527339851296800,2.095296875,0.015068168751895428,0.01386355422437191,-0.009960871189832687
1772527339861293600,2.10529345703125,0.012509670108556747,0.01500764861702919,-0.010369399562478065
1772527339871291600,2.115291748046875,0.0038573676720261574,0.01639428548514843,-0.010448251850903034
1772527339881289500,2.12528955078125,-0.0013243453577160835,0.028207270428538322,-0.013372668996453285
1772527339891287600,2.13528759765625,-0.0155973294749856,0.03182379901409149,-0.012199169024825096
1772527339901285600,2.14528564453125,-0.024499211460351944,0.03218652307987213,-0.007087231148034334
1772527339911283500,2.155283447265625,-0.030005183070898056,0.03018341399729252,-0.009634878486394882
1772527339921281500,2.165281494140625,-0.032579127699136734,0.038041070103645325,-0.008611159399151802
1772527339931278600,2.175278564453125,-0.029911208897829056,0.0476212203502655,-0.004200054332613945
1772527339941276700,2.185276611328125,-0.03288143500685692,0.052756860852241516,-0.008192932233214378
1772527339951274800,2.195274658203125,-0.032603971660137177,0.059662558138370514,-0.011431112885475159
1772527339961272600,2.2052724609375,-0.03304818645119667,0.058949366211891174,-0.014396809041500092
1772527339971270700,2.215270751953125,-0.03403819724917412,0.055498749017715454,-0.017267519608139992
1772527339981268700,2.225268798828125,-0.03212258592247963,0.059104133397340775,-0.020543741062283516
1772527339991266600,2.2352666015625,-0.028471238911151886,0.04654344171285629,-0.02282806858420372
1772527340001263600,2.245263671875,-0.021144883707165718,0.030893905088305473,-0.019181134179234505
1772527340011261400,2.255261474609375,-0.01319386437535286,0.021977152675390244,-0.0168986264616251
1772527340021259500,2.265259521484375,-0.007460344582796097,0.009412890300154686,-0.015387017279863358
1772527340031257600,2.275257568359375,0.0022928700782358646,0.0012683290988206863,-0.016687216237187386
1772527340041255400,2.28525537109375,0.010004585608839989,-0.006525678094476461,-0.013695687055587769
1772527340051253500,2.29525341796875,0.014280065894126892,-0.008845086209475994,-0.00799519196152687
1772527340061250600,2.30525048828125,0.023372098803520203,-0.009641371667385101,-0.0011050612665712833
1772527340071248600,2.31524853515625,0.026589272543787956,-0.0083980243653059,-0.002978129545226693
1772527340081246700,2.325246826171875,0.029590921476483345,-0.009612692520022392,-0.005719853565096855
1772527340091244500,2.33524462890625,0.02819858118891716,-0.010579507797956467,-0.006064555607736111
1772527340101242600,2.34524267578125,0.027333587408065796,-0.011400294490158558,-0.008098411373794079
1772527340111240700,2.35524072265625,0.021705646067857742,-0.01583269238471985,-0.0136411152780056
1772527340121237500,2.365237548828125,0.017525814473628998,-0.020264726132154465,-0.005814617965370417
1772527340131235600,2.375235595703125,0.017858363687992096,-0.01844964362680912,0.0033991425298154354
1772527340141233700,2.385233642578125,0.014848990365862846,-0.01568954437971115,0.004081977065652609
1772527340151231500,2.3952314453125,0.012603949755430222,-0.008100016042590141,0.005065149161964655
1772527340161229600,2.4052294921875,0.016070852056145668,-0.010575158521533012,0.006726962048560381
1772527340171227600,2.4152275390625,0.012713481672108173,-0.007147220429033041,0.011581039987504482
1772527340181225500,2.4252255859375,0.014341471716761589,-0.006022567395120859,0.010891013778746128
1772527340191222800,2.435222900390625,0.018916098400950432,-0.008073939010500908,0.0011933567002415657
1772527340201220600,2.445220703125,0.01836429163813591,-0.012361894361674786,-0.00476626493036747
1772527340211218700,2.45521875,0.015740202739834785,-0.019298546016216278,-0.011590547859668732
1772527340221216800,2.465216796875,0.012957997620105743,-0.020749971270561218,-0.010447252541780472
1772527340231214600,2.475214599609375,0.007247723639011383,-0.010261299088597298,-0.008962230756878853
1772527340241212700,2.485212646484375,-0.00031272415071725845,-0.002430007327347994,-0.007698027882725
1772527340251209500,2.49520947265625,-0.009296669624745846,0.00005670823156833649,-0.0009413659572601318
1772527340261207600,2.50520751953125,-0.008379477076232433,0.005609399173408747,0.010550973005592823
1772527340271205600,2.51520556640625,-0.0038570119068026543,0.011685073375701904,0.011053798720240593
1772527340281203500,2.525203369140625,0.00012441445142030716,0.011741798371076584,0.007148806471377611
1772527340291201500,2.535201416015625,0.004274000413715839,0.003972460050135851,0.0011014332994818687
1772527340301199600,2.54519970703125,0.009914842434227467,-0.0018111267127096653,-0.0025031552650034428
1772527340311197400,2.555197509765625,0.015783876180648804,-0.006156543735414743,-0.009220445528626442
1772527340321194800,2.56519482421875,0.015153240412473679,-0.016568703576922417,-0.00866411067545414
1772527340331192600,2.575192626953125,0.018391679972410202,-0.023565905168652534,-0.005027076695114374
1772527340341190700,2.585190673828125,0.01814134418964386,-0.014479463919997215,-0.006965325213968754
1772527340351188700,2.595188720703125,0.018722981214523315,-0.015997519716620445,-0.005963666830211878
1772527340361186600,2.6051865234375,0.019200485199689865,-0.019308628514409065,-0.003197441343218088
1772527340371184600,2.6151845703125,0.01882166787981987,-0.013437431305646896,-0.004105067811906338
1772527340381181400,2.625181396484375,0.01430840790271759,-0.013132498599588871,0.000992488581687212
1772527340391179500,2.635179443359375,0.011526775546371937,-0.015213880687952042,0.0003669564612209797
1772527340401177600,2.645177490234375,0.0095041049644351,-0.006046747323125601,0.0031084143556654453
1772527340411175400,2.655175537109375,0.009608577936887741,-0.0047385795041918755,0.005457677878439426
1772527340421173500,2.665173583984375,0.00944932084530592,-0.002261839807033539,-0.0007171276956796646
1772527340431171600,2.675171630859375,0.012131729163229465,0.002871743869036436,-0.0011114971712231636
1772527340441169400,2.68516943359375,0.011663545854389668,0.00047356775030493736,-0.005988277494907379
1772527340451166700,2.695166748046875,0.008967859670519829,-0.0009060408920049667,-0.007014771457761526
1772527340461164500,2.70516455078125,0.0037062526680529118,0.00008625304326415062,-0.005391841288655996
1772527340471162600,2.71516259765625,0.0018585510551929474,0.002996183466166258,-0.005912112072110176
1772527340481160700,2.72516064453125,0.002981605939567089,-0.004622321575880051,-0.0005106888711452484
1772527340491158500,2.735158447265625,0.0016305460594594479,-0.017477333545684814,-0.003951759077608585
1772527340501156600,2.745156494140625,0.0022883466444909573,-0.010825823061168194,-0.0011399933136999607
1772527340511153400,2.7551533203125,0.005760687403380871,-0.001620863564312458,-0.0002350066788494587
1772527340521151500,2.7651513671875,0.008592693135142326,0.0004292381927371025,-0.0040395986288785934
1772527340531149600,2.775149658203125,0.009843124076724052,-0.0009176135063171387,-0.0065244161523878574
1772527340541147400,2.7851474609375,0.01169268973171711,-0.004638848826289177,-0.00237387977540493
1772527340551145500,2.7951455078125,0.011729215271770954,-0.01374479103833437,0.007781285792589188
1772527340561143600,2.8051435546875,0.014947911724448204,-0.014972508884966373,0.017378251999616623
1772527340571141400,2.815141357421875,0.01587994210422039,-0.011755859479308128,0.017720801755785942
1772527340581138700,2.825138671875,0.01678515039384365,-0.0029549116734415293,0.00952545553445816
1772527340591136800,2.83513671875,0.014023300260305405,-0.005647039972245693,0.003749303985387087
1772527340601134600,2.845134521484375,0.014996418729424477,-0.0013678725808858871,-0.0008558342233300209
1772527340611132700,2.855132568359375,0.011523276567459106,0.004772306885570288,-0.006540906615555286
1772527340621130500,2.865130615234375,0.006487770937383175,0.009236829355359077,-0.00963549967855215
1772527340631128600,2.875128662109375,-0.005732753314077854,0.011755891144275665,-0.0033111132215708494
1772527340641125600,2.885125732421875,-0.01232860516756773,0.016101904213428497,-0.0028439946472644806
1772527340651123500,2.89512353515625,-0.011093925684690475,0.009683296084403992,0.0007217559032142162
1772527340661121500,2.90512158203125,-0.00787016749382019,0.008203377947211266,-0.0024910815991461277
1772527340671119600,2.91511962890625,-0.004738440737128258,0.010615836828947067,-0.0025434130802750587
1772527340681117400,2.925117431640625,-0.001706964336335659,0.013901911675930023,0.015067804604768753
1772527340691115500,2.935115478515625,0.00876625906676054,0.006107127293944359,0.02687102183699608
1772527340701112600,2.945112548828125,0.013674996793270111,-0.008016681298613548,0.03321893513202667
1772527340711110700,2.955110595703125,0.022785592824220657,-0.022568853572010994,0.038590554147958755
1772527340721109000,2.96510888671875,0.028312183916568756,-0.027205416932702065,0.027614600956439972
1772527340731106800,2.97510693359375,0.029325176030397415,-0.026059269905090332,0.017594680190086365
1772527340741105000,2.98510498046875,0.024978097528219223,-0.013779433444142342,0.0068280515260994434
1772527340751103000,2.99510302734375,0.024600006639957428,-0.017134197056293488,0.001519927754998207
1772527340761100800,3.005100830078125,0.020597008988261223,-0.018807459622621536,0.007324553094804287
1772527340771097900,3.015097900390625,0.020452970638871193,-0.020566705614328384,0.009691459126770496
1772527340781095700,3.025095703125,0.01814241148531437,-0.015353301540017128,0.006286608055233955
1772527340791093800,3.03509375,0.010286467149853706,-0.0011732392013072968,0.0024455091916024685
1772527340801091800,3.045091796875,0.006965504959225655,0.011335628107190132,-0.00378042901866138
1772527340811089700,3.055089599609375,0.0014031510800123215,0.00942702405154705,-0.005862954538315535
1772527340821087700,3.065087646484375,-0.006063020788133144,0.016965102404356003,-0.015365379862487316
1772527340831084800,3.075084716796875,-0.013243742287158966,0.02738611213862896,-0.026935748755931854
1772527340841083000,3.085082763671875,-0.019003361463546753,0.030541693791747093,-0.029712893068790436
1772527340851081000,3.0950810546875,-0.01810896024107933,0.02574976161122322,-0.028524722903966904
1772527340861078800,3.105078857421875,-0.01810070313513279,0.021043159067630768,-0.020578382536768913
1772527340871076900,3.115076904296875,-0.015249975025653839,0.020371489226818085,-0.01150989904999733
1772527340881075000,3.125074951171875,-0.0031293975189328194,0.02508901245892048,-0.002340102568268776
1772527340891072800,3.13507275390625,-0.0070434072986245155,0.02274451032280922,0.0015971595421433449
1772527340901069800,3.14506982421875,0.00168563611805439,0.03200432285666466,0.0048432862386107445
1772527340911067600,3.155067626953125,0.0017873686738312244,0.027590930461883545,0.00400439091026783
1772527340921065700,3.165065673828125,-0.0008140066638588905,0.025964539498090744,-0.0020806659013032913
1772527340931063800,3.175063720703125,0.003363387193530798,0.01851840130984783,-0.00806452240794897
1772527340941061600,3.1850615234375,0.007438289932906628,0.009840225800871849,-0.01182037778198719
1772527340951059700,3.195059814453125,0.0033524706959724426,0.011997446417808533,-0.01560663990676403
1772527340961056800,3.205056884765625,-0.0011490704491734505,0.013250462710857391,-0.014456153847277164
1772527340971054800,3.215054931640625,-0.008515188470482826,0.01697251945734024,-0.012660538777709007
1772527340981053000,3.225052978515625,-0.012978114187717438,0.029920805245637894,-0.008773388341069221
1772527340991050800,3.23505078125,-0.015102365054190159,0.0423867367208004,-0.0049581220373511314
1772527341001048800,3.245048828125,-0.017498411238193512,0.05094160884618759,-0.0003702947869896889
1772527341011047000,3.255046875,-0.019468117505311966,0.04570218548178673,0.009918050840497017
1772527341021044700,3.265044677734375,-0.01261154469102621,0.025820089504122734,0.033902477473020554
1772527341031041800,3.275041748046875,-0.00029412098228931427,0.011711977422237396,0.04258325323462486
1772527341041040000,3.285039794921875,0.007201346103101969,0.004141941200941801,0.0443824827671051
1772527341051037700,3.29503759765625,0.01806936413049698,0.006712723057717085,0.04005231708288193
1772527341061035800,3.305035888671875,0.027147812768816948,0.007552951108664274,0.03223247826099396
1772527341071033600,3.31503369140625,0.032425858080387115,-0.011433333158493042,0.03323005139827728
1772527341081031700,3.32503173828125,0.03216113895177841,-0.025044750422239304,0.031860653311014175
1772527341091029000,3.335029052734375,0.030869316309690475,-0.025766607373952866,0.01913471892476082
1772527341101026800,3.34502685546875,0.03004799783229828,-0.019740138202905655,0.001398066058754921
1772527341111025000,3.35502490234375,0.021759137511253357,-0.017984461039304733,-0.002233198843896389
1772527341121023000,3.36502294921875,0.023255566135048866,-0.01311966497451067,-0.002140520606189966
1772527341131020800,3.375020751953125,0.008435416966676712,-0.0069307247176766396,-0.005202267784625292
1772527341141019000,3.385018798828125,-0.000994836911559105,0.004201821517199278,-0.0090002017095685
1772527341151015700,3.395015625,-0.008704916574060917,0.005907084327191114,-0.006782166194170713
1772527341161013800,3.405013671875,-0.007667348720133305,0.009533245116472244,-0.002771445782855153
1772527341171011800,3.41501171875,-0.007501242682337761,0.0067529864609241486,-0.0028834983240813017
1772527341181009700,3.425009765625,-0.009433899074792862,-0.004304990638047457,-0.0024813609197735786
1772527341191007700,3.4350078125,-0.010979901067912579,-0.006798918358981609,0.0022443742491304874
1772527341201005800,3.445005859375,-0.016333654522895813,-0.005257747136056423,-0.0039290995337069035
1772527341211004000,3.45500390625,-0.022542282938957214,-0.0026655299589037895,-0.009402051568031311
1772527341221001000,3.4650009765625,-0.02360754832625389,0.007336503826081753,-0.007929855957627296
1772527341230998800,3.474998779296875,-0.02628307417035103,0.011775072664022446,-0.011071253567934036
1772527341240996900,3.484996826171875,-0.025158952921628952,0.013442745432257652,-0.016407428309321404
1772527341250995000,3.494994873046875,-0.020314166322350502,0.004289642442017794,-0.017537232488393784
1772527341260992800,3.50499267578125,-0.01549331285059452,-0.006075380370020866,-0.01212702039629221
1772527341270990800,3.514990966796875,-0.006194163113832474,-0.00466206343844533,-0.004777583293616772
1772527341280987600,3.524987548828125,-0.002975466661155224,-0.013427858240902424,-0.0009450279176235199
1772527341290985700,3.53498583984375,0.001461016945540905,-0.03221174329519272,0.0092399213463068
1772527341300983800,3.54498388671875,0.0018381206318736076,-0.04973028600215912,0.02290060557425022
1772527341310981600,3.554981689453125,0.0016668792814016342,-0.054327964782714844,0.03136466443538666
1772527341320979700,3.564979736328125,-0.0018285196274518967,-0.04957155883312225,0.041931286454200745
1772527341330977800,3.574977783203125,-0.0033285263925790787,-0.03298971429467201,0.04400298371911049
1772527341340975900,3.584975830078125,-0.014697560109198093,-0.008987975306808949,0.03166961669921875
1772527341350973000,3.594972900390625,-0.01710711419582367,0.016634004190564156,0.007904523983597755
1772527341360970800,3.604970703125,-0.010952549986541271,0.005720635410398245,-0.006354040931910276
1772527341370968800,3.61496875,-0.008450889959931374,-0.01489400677382946,-0.015246756374835968
1772527341380967000,3.624966796875,-0.008621599525213242,-0.011471844278275967,-0.026780374348163605
1772527341390964700,3.63496484375,-0.011175606399774551,-0.009057505987584591,-0.032416246831417084
1772527341400962800,3.644962890625,-0.013071510940790176,-0.008159487508237362,-0.035668499767780304
1772527341410959600,3.654959716796875,-0.018312953412532806,-0.0012416825629770756,-0.03815438225865364
1772527341420957700,3.664957763671875,-0.020093809813261032,0.004743505734950304,-0.03799273073673248
1772527341430955800,3.674955810546875,-0.026310507208108902,0.00811349879950285,-0.03289343789219856
1772527341440953900,3.684953857421875,-0.027639422565698624,0.008041327819228172,-0.02402404695749283
1772527341450952000,3.694951904296875,-0.028299197554588318,0.00514779519289732,-0.010886453092098236
1772527341460950000,3.704949951171875,-0.02879774197936058,0.009019232355058193,-0.00015338091179728508
1772527341470947800,3.71494775390625,-0.027319153770804405,0.002782270312309265,0.010234655812382698
1772527341480945000,3.72494482421875,-0.01796586811542511,-0.003779758233577013,0.012080758810043335
1772527341490942700,3.734942626953125,-0.00936545804142952,-0.01115507073700428,0.010285457596182823
1772527341500940800,3.74494091796875,0.004352485295385122,-0.02771034650504589,0.01593055948615074
1772527341510939000,3.75493896484375,0.013758277520537376,-0.032350536435842514,0.011007282882928848
1772527341520936700,3.764936767578125,0.017408672720193863,-0.03369969502091408,0.008275145664811134
1772527341530934800,3.774934814453125,0.015467759221792221,-0.03836699202656746,0.004075984470546246
1772527341540931800,3.784931884765625,0.015015820972621441,-0.033461980521678925,-0.0027885790914297104
1772527341550929700,3.7949296875,0.014038670808076859,-0.021280456334352493,-0.0053506954573094845
1772527341560927700,3.804927734375,0.009742192924022675,-0.01637411303818226,-0.005784524604678154
1772527341570925800,3.81492578125,0.00976718869060278,-0.014237659052014351,0.00102651072666049
1772527341580924000,3.824923828125,0.004497591406106949,-0.016430772840976715,0.00620129844173789
1772527341590922000,3.834921875,0.0028325067833065987,0.0005278442986309528,0.008084442466497421
1772527341600918800,3.844918701171875,0.0020833597518503666,0.017634127289056778,0.0003847111947834492
1772527341610916900,3.854916748046875,-0.0038738660514354706,0.025281067937612534,-0.013279657810926437
1772527341620915000,3.8649150390625,-0.011165335774421692,0.031191423535346985,-0.01858600601553917
1772527341630912800,3.874912841796875,-0.013373970054090023,0.023984355852007866,-0.028637131676077843
1772527341640910800,3.884910888671875,-0.01609012857079506,0.030680343508720398,-0.026713531464338303
1772527341650908700,3.89490869140625,-0.01809191145002842,0.027765467762947083,-0.027386421337723732
1772527341660906800,3.90490673828125,-0.017703089863061905,0.028432589024305344,-0.03219875320792198
1772527341670903800,3.91490380859375,-0.01615217886865139,0.021053709089756012,-0.030353695154190063
1772527341680902000,3.92490185546875,-0.01374627836048603,0.010541679337620735,-0.03375907987356186
1772527341690900000,3.93489990234375,-0.01100984402000904,0.014623487368226051,-0.03568913787603378
1772527341700898000,3.94489794921875,-0.009598102420568466,0.014783810824155807,-0.032865919172763824
1772527341710895900,3.954895751953125,-0.007841253653168678,0.007810815237462521,-0.029231660068035126
1772527341720894000,3.96489404296875,-0.002608940936625004,0.005122886039316654,-0.029463088139891624
1772527341730890800,3.974890869140625,-0.00612153485417366,0.005274645052850246,-0.029176976531744003
1772527341740888800,3.984888916015625,-0.011323487386107445,0.0025233328342437744,-0.02410871535539627
1772527341750887000,3.994886962890625,-0.012498930096626282,0.0017840610817074776,-0.015908751636743546
1772527341760884700,4.004884765625,-0.016379157081246376,-0.0031142912339419127,-0.013433877378702164
1772527341770882800,4.0148828125,-0.01922166347503662,0.0024574645794928074,-0.018577683717012405
1772527341780881000,4.024880859375,-0.01673933118581772,0.006738229189068079,-0.019836027175188065
1772527341790878700,4.034878662109375,-0.018100060522556305,0.005549583584070206,-0.021827271208167076
1772527341800875800,4.044875732421875,-0.013901319354772568,0.0019798818975687027,-0.020384903997182846
1772527341810873900,4.054873779296875,-0.012025762349367142,-0.001604566816240549,-0.021859675645828247
1772527341820872000,4.064871826171875,-0.009118124842643738,-0.007921851240098476,-0.023154504597187042
1772527341830870000,4.0748701171875,-0.0033403579145669937,-0.009495635516941547,-0.02135309763252735
1772527341840867800,4.084867919921875,0.00018220487982034683,-0.00833662785589695,-0.016963142901659012
1772527341850866000,4.094865966796875,-0.003676753491163254,-0.006853229366242886,-0.016767334192991257
1772527341860862700,4.10486279296875,-0.004659193567931652,-0.004256647080183029,-0.013011211529374123
1772527341870860800,4.11486083984375,0.0021478822454810143,-0.008256098255515099,-0.009676843881607056
1772527341880859000,4.12485888671875,0.00013586413115262985,-0.012138187885284424,-0.007849915884435177
1772527341890856700,4.134856689453125,0.007108592893928289,-0.030180472880601883,-0.004882778041064739
1772527341900854800,4.144854736328125,0.001925815362483263,-0.029662489891052246,-0.004029234871268272
1772527341910852900,4.154852783203125,-0.0019006161019206047,-0.014049280434846878,-0.004058951046317816
1772527341920850000,4.164849853515625,-0.0018332386389374733,-0.01186602097004652,-0.007372189778834581
1772527341930848000,4.174847900390625,0.0015399567782878876,-0.012658007442951202,-0.010308435186743736
1772527341940845800,4.184845703125,0.003772484604269266,-0.008228105492889881,-0.008329972624778748
1772527341950844000,4.194843994140625,0.004820405039936304,-0.016351476311683655,-0.006380806211382151
1772527341960842000,4.204842041015625,0.0027479329146444798,-0.01945991814136505,-0.0035503986291587353
1772527341970839800,4.21483984375,0.0014569470658898354,-0.02343691699206829,0.0008636577986180782
1772527341980836900,4.2248369140625,-0.0015465663745999336,-0.014115585945546627,-0.0023987144231796265
1772527341990834700,4.234834716796875,-0.004732013680040836,-0.007440842222422361,0.0024895179085433483
1772527342000832800,4.244832763671875,-0.009061247110366821,0.0033628027886152267,0.0019409065134823322
1772527342010830800,4.254830810546875,-0.007387563586235046,0.004410916473716497,-0.00445831473916769
1772527342020828700,4.26482861328125,-0.009378276765346527,-0.0014949101023375988,-0.008820838294923306
1772527342030826800,4.27482666015625,-0.012772477231919765,-0.0018237647600471973,-0.009391619823873043
1772527342040824800,4.284824951171875,-0.008714352734386921,-0.006820654030889273,-0.011013218201696873
1772527342050822000,4.29482177734375,-0.013639107346534729,-0.00909518450498581,-0.012035850435495377
1772527342060820000,4.304820068359375,-0.016515588387846947,-0.006101258564740419,-0.010078427381813526
1772527342070817800,4.31481787109375,-0.013245757669210434,-0.005619548261165619,-0.006211473140865564
1772527342080815900,4.32481591796875,-0.01099725067615509,-0.005916757043451071,-0.003941927570849657
1772527342090814000,4.33481396484375,-0.000589197501540184,-0.00353925209492445,-0.0031495043076574802
1772527342100811800,4.344811767578125,0.004399169236421585,-0.009502336382865906,-0.00028207898139953613
1772527342110808800,4.354808837890625,0.012128345668315887,-0.015286888927221298,0.0018552416004240513
1772527342120807000,4.364806884765625,0.017701808363199234,-0.035543955862522125,0.00765320984646678
1772527342130804700,4.3748046875,0.024960104376077652,-0.047695793211460114,0.012579924426972866
1772527342140802800,4.384802734375,0.029495202004909515,-0.044403593987226486,0.013400177471339703
1772527342150801000,4.39480078125,0.02997848391532898,-0.03876831382513046,0.01766456663608551
1772527342160798700,4.404798828125,0.03059021197259426,-0.033140525221824646,0.017215289175510406
1772527342170796800,4.414796875,0.03564360365271568,-0.033504750579595566,0.012875758111476898
1772527342180793900,4.4247939453125,0.0317002609372139,-0.038923218846321106,0.00927542895078659
1772527342190792000,4.4347919921875,0.02348368614912033,-0.032783277332782745,0.008418247103691101
1772527342200790000,4.4447900390625,0.018454305827617645,-0.02324783243238926,0.004278362728655338
1772527342210787800,4.454787841796875,0.005510277114808559,-0.011189410462975502,-0.005215695593506098
1772527342220786000,4.464785888671875,-0.004181765019893646,0.0066231428645551205,-0.012749245390295982
1772527342230784000,4.474783935546875,-0.011399311944842339,0.012713674455881119,-0.011227182112634182
1772527342240780800,4.48478076171875,-0.013243816792964935,0.011705666780471802,-0.009574424475431442
1772527342250779000,4.49477880859375,-0.019574416801333427,0.01396765187382698,-0.010747170075774193
1772527342260776700,4.504776611328125,-0.016257716342806816,0.014157535508275032,-0.0021661981008946896
1772527342270774800,4.51477490234375,-0.021804817020893097,0.014050416648387909,-0.0020135538652539253
1772527342280772900,4.52477294921875,-0.01652669720351696,0.017280565574765205,-0.010084530338644981
1772527342290770700,4.534770751953125,-0.009486666880548,0.013128612190485,-0.01872524619102478
1772527342300768000,4.54476806640625,-0.007424580864608288,0.010472908616065979,-0.032296180725097656
1772527342310765800,4.554765869140625,-0.004011132754385471,0.0017360006459057331,-0.03410821780562401
1772527342320764000,4.564763916015625,-0.0034894198179244995,0.003339755814522505,-0.03074651025235653
1772527342330762000,4.574761962890625,-0.0027314499020576477,-0.0025660903193056583,-0.024921976029872894
1772527342340759800,4.584759765625,-0.0010643107816576958,-0.002395648043602705,-0.017593756318092346
1772527342350758000,4.5947578125,0.0010604774579405785,0.0038839420303702354,-0.011456569656729698
1772527342360756000,4.604755859375,-0.0010527409613132477,0.004455989226698875,-0.010210209526121616
1772527342370752800,4.614752685546875,0.005016794428229332,0.0020061256363987923,-0.005200359970331192
1772527342380750800,4.624750732421875,0.002909701317548752,-0.0015617110766470432,0.0048160552978515625
1772527342390748700,4.634748779296875,0.005993982776999474,-0.004548321478068829,0.015140576288104057
1772527342400746800,4.644746826171875,0.006870961748063564,-0.010511139407753944,0.025554869323968887
1772527342410744800,4.654744873046875,0.014171943068504333,-0.008296951651573181,0.017997747287154198
1772527342420742700,4.66474267578125,0.012055528350174427,-0.000794560182839632,0.00360229704529047
1772527342430740000,4.674739990234375,0.006922437809407711,-0.0006653526797890663,-0.0034109598491340876
1772527342440737800,4.68473779296875,0.007432966027408838,0.0015695723704993725,-0.010442770086228848
1772527342450735900,4.69473583984375,0.004033555276691914,0.007553756237030029,-0.02263181284070015
1772527342460734000,4.70473388671875,0.005601624492555857,0.009203584864735603,-0.024969004094600677
1772527342470731800,4.714731689453125,0.0055391122587025166,0.005027452018111944,-0.026719344779849052
1772527342480729900,4.724729736328125,0.004452010150998831,0.0068037803284823895,-0.019027868285775185
1772527342490728000,4.73472802734375,0.007525566034018993,0.0049284896813333035,-0.014390351250767708
1772527342500724700,4.744724853515625,0.007475764490664005,0.00629176152870059,-0.011794835329055786
1772527342510722800,4.754722900390625,0.004760215524584055,0.01844703033566475,-0.013256620615720749
1772527342520720600,4.764720703125,0.008159474469721317,0.014104744419455528,-0.010003835894167423
1772527342530718700,4.77471875,0.007288889028131962,0.008228007704019547,-0.009270180016756058
1772527342540716800,4.784716796875,0.00962820928543806,0.0129412692040205,-0.011100038886070251
1772527342550714600,4.794714599609375,0.007659068331122398,0.017470136284828186,-0.010717498138546944
1772527342560712000,4.8047119140625,0.00445182342082262,0.010637796483933926,-0.012459471821784973
1772527342570710000,4.8147099609375,0.005669344216585159,0.0065497662872076035,-0.01056094840168953
1772527342580707800,4.824707763671875,0.002238660119473934,0.007093584164977074,-0.005068444646894932
1772527342590706000,4.834705810546875,0.00004588719457387924,0.005868653766810894,-0.004197612404823303
1772527342600703700,4.844703857421875,-0.004076685756444931,0.014550292864441872,0.0011598686687648296
1772527342610701800,4.854701904296875,-0.003360789269208908,0.023993369191884995,0.0019014477729797363
1772527342620699000,4.864698974609375,-0.0018148235976696014,0.02252197265625,0.0007975674234330654
1772527342630696700,4.87469677734375,0.001024790108203888,0.0188858974725008,0.0007001184858381748
1772527342640694800,4.88469482421875,0.003385149873793125,0.010313715785741806,0.0019824299961328506
1772527342650692900,4.89469287109375,0.002712093759328127,0.0035279598087072372,0.004586114082485437
1772527342660690700,4.904690673828125,0.0005647866055369377,0.002638997510075569,0.009388592094182968
1772527342670688800,4.914688720703125,-0.002325921319425106,0.005592010915279388,0.010855061002075672
1772527342680686600,4.9246865234375,-0.004408513195812702,0.01457298919558525,0.009615094400942326
1772527342690684000,4.934683837890625,-0.003189319744706154,0.020914562046527863,0.010916536673903465
1772527342700682000,4.944681884765625,-0.003821820951998234,0.021163834258913994,0.0067313783802092075
1772527342710679800,4.9546796875,-0.0013527655974030495,0.02113686315715313,0.0069944774731993675
1772527342720678000,4.964677978515625,0.0003231614828109741,0.010138805955648422,0.0163568202406168
1772527342730676500,4.974676513671875,-0.001933789812028408,0.0062562646344304085,0.021065331995487213
1772527342740674600,4.984674560546875,-0.0032304832711815834,0.007584649138152599,0.03553055599331856
1772527342750671400,4.99467138671875,-0.004157833755016327,0.0013519097119569778,0.04757492616772652
1772527342760669400,5.00466943359375,-0.0005907956510782242,0.0019066459499299526,0.049362171441316605
1772527342770667500,5.01466748046875,0.010067365132272243,0.004289192147552967,0.04649907350540161
1772527342780665300,5.024665283203125,0.017338059842586517,-0.0019340827129781246,0.03722434863448143
1772527342790663400,5.034663330078125,0.019582992419600487,-0.009840535931289196,0.036827296018600464
1772527342800661500,5.04466162109375,0.019404560327529907,-0.01086132600903511,0.03572234883904457
1772527342810658600,5.054658447265625,0.012098785489797592,-0.004478506278246641,0.02522159367799759
1772527342820656600,5.06465673828125,0.009596746414899826,0.001357278786599636,0.014596113935112953
1772527342830654500,5.074654541015625,0.002395972143858671,0.00606925692409277,0.00797250121831894
1772527342840652500,5.084652587890625,-0.006010295823216438,0.010546296834945679,0.0010349666699767113
1772527342850650600,5.094650634765625,-0.0112453056499362,0.01161450520157814,0.0002214144915342331
1772527342860648400,5.1046484375,-0.01604485511779785,0.012141810730099678,-0.0019674375653266907
1772527342870646500,5.114646484375,-0.023906847462058067,0.012308130972087383,0.0031866002827882767
1772527342880643300,5.124643310546875,-0.031653180718421936,0.017752431333065033,-0.0024686227552592754
1772527342890641400,5.134641357421875,-0.03634011745452881,0.02553079091012478,-0.0037298952229321003
1772527342900639500,5.144639404296875,-0.04050423577427864,0.03450484573841095,-0.0022877934388816357
1772527342910637300,5.15463720703125,-0.0382658876478672,0.03625386580824852,0.001083191018551588
1772527342920635400,5.164635498046875,-0.03102102503180504,0.0260331854224205,0.003363389987498522
1772527342930633500,5.174633544921875,-0.023344844579696655,0.016082387417554855,0.00445115752518177
1772527342940630500,5.184630615234375,-0.013255191966891289,0.010458322241902351,0.0024114418774843216
1772527342950628600,5.194628662109375,-0.009157844819128513,0.01149010844528675,-0.01051309984177351
1772527342960626400,5.20462646484375,-0.0076219988986849785,0.012846456840634346,-0.015848476439714432
1772527342970624500,5.21462451171875,-0.006305827759206295,0.008837210014462471,-0.016708899289369583
1772527342980622600,5.22462255859375,-0.0015406329184770584,0.0002146940678358078,-0.011783916503190994
1772527342990620400,5.234620361328125,-0.0002864748239517212,0.003999229054898024,-0.012813560664653778
1772527343000618500,5.244618408203125,-0.0004049846902489662,0.006089543458074331,-0.012557897716760635
1772527343010615300,5.254615234375,-0.0009048208594322205,-0.0032229081261903048,-0.007882628589868546
1772527343020613400,5.26461328125,0.0004501957446336746,-0.0050011007115244865,-0.00562506727874279
1772527343030611500,5.274611572265625,-0.0002286825329065323,-0.003296289360150695,-0.0024817828088998795
1772527343040609300,5.284609375,-0.0014271046966314316,0.0034510958939790726,0.004284776747226715
1772527343050607400,5.294607421875,-0.0012255432084202766,0.0032120062969624996,0.013415159657597542
1772527343060605400,5.30460546875,0.0024256501346826553,0.0019448739476501942,0.022990820929408073
1772527343070602500,5.3146025390625,0.003988771233707666,0.007199720945209265,0.02734629064798355
1772527343080600600,5.3246005859375,0.005530474707484245,0.012581704184412956,0.024951841682195663
1772527343090598400,5.334598388671875,0.006120065692812204,0.006212671287357807,0.01819557696580887
1772527343100595500,5.344595458984375,0.009751818142831326,-0.0034740441478788853,0.013651692308485508
1772527343110593500,5.354593505859375,0.007237526588141918,-0.012643471360206604,0.009013952687382698
1772527343120591400,5.36459130859375,0.0058441609144210815,-0.017298676073551178,0.00869703572243452
1772527343130589400,5.37458935546875,0.003917630296200514,-0.017262456938624382,0.0035150572657585144
1772527343140587500,5.38458740234375,0.001752746757119894,-0.014599563553929329,-0.004584148526191711
1772527343150584600,5.39458447265625,-0.001284436322748661,-0.016301916912198067,0.000644192099571228
1772527343160582700,5.404582763671875,-0.0019568847492337227,-0.014095488004386425,0.008968967944383621
1772527343170580500,5.41458056640625,-0.0010410603135824203,-0.007774027995765209,0.012494636699557304
1772527343180578600,5.42457861328125,-0.008605769835412502,-0.004796880297362804,0.013986805453896523
1772527343190576600,5.43457666015625,-0.007839235477149487,-0.0009594052098691463,0.017359411343932152
1772527343200574500,5.444574462890625,-0.008536185137927532,0.007058839779347181,0.009684713557362556
1772527343210571500,5.454571533203125,-0.010198988020420074,0.014270966872572899,0.00067479582503438
1772527343220569300,5.4645693359375,-0.010433612391352654,0.012145765125751495,-0.0035449827555567026
1772527343230567400,5.4745673828125,-0.005861571989953518,0.010674776509404182,-0.00843212753534317
1772527343240565500,5.4845654296875,-0.009414761327207088,0.012323806062340736,-0.016598710790276527
1772527343250563300,5.494563232421875,-0.011215362697839737,0.015497615560889244,-0.015327095985412598
1772527343260561400,5.5045615234375,-0.012241212651133537,0.00795554369688034,-0.011283086612820625
1772527343270559500,5.5145595703125,-0.006658274680376053,0.006799672264605761,-0.007461960893124342
1772527343280556500,5.524556640625,-0.005329624749720097,0.009085463359951973,-0.009978381916880608
1772527343290554600,5.5345546875,-0.007168005220592022,0.0077734836377203465,-0.0035667100455611944
1772527343300552400,5.544552490234375,-0.00610540434718132,0.009457400068640709,-0.0012875767424702644
1772527343310550500,5.554550537109375,-0.010012641549110413,0.03213309124112129,-0.0008523943834006786
1772527343320548600,5.564548583984375,-0.010908529162406921,0.05384637415409088,-0.004729424137622118
1772527343330546400,5.57454638671875,-0.020862970501184464,0.06303749978542328,-0.008027903735637665
1772527343340543500,5.58454345703125,-0.020272281020879745,0.0673462301492691,-0.009575999341905117
1772527343350541300,5.594541259765625,-0.011446869000792503,0.05978931859135628,-0.021925589069724083
1772527343360539400,5.604539306640625,-0.005058213137090206,0.050681039690971375,-0.01962541602551937
1772527343370537500,5.614537353515625,0.0009299451485276222,0.02943912148475647,-0.023712903261184692
1772527343380535300,5.624535400390625,0.005673034582287073,0.002017349936068058,-0.02038714662194252
1772527343390533400,5.634533447265625,0.0055449362844228745,0.0027611711993813515,-0.01268581673502922
1772527343400530400,5.644530517578125,-0.0006189495325088501,-0.006649907678365707,-0.0011593899689614773
1772527343410528500,5.654528564453125,0.00005372706800699234,-0.0037609494756907225,0.010452634654939175
1772527343420526600,5.664526611328125,-0.013121728785336018,0.004496714100241661,0.021438974887132645
1772527343430524400,5.6745244140625,-0.011180667206645012,0.006673727184534073,0.021737050265073776
1772527343440522500,5.6845224609375,-0.0023632077500224113,0.006204212084412575,0.019155647605657578
1772527343450520600,5.6945205078125,-0.00013844389468431473,-0.003182141575962305,0.016589537262916565
1772527343460518400,5.704518310546875,0.008001773618161678,-0.01865963451564312,0.018937114626169205
1772527343470515500,5.714515380859375,0.01339920237660408,-0.040902089327573776,0.02475292608141899
1772527343480513300,5.72451318359375,0.01658213883638382,-0.042341966181993484,0.029694508761167526
1772527343490511400,5.734511474609375,0.017339125275611877,-0.04254548251628876,0.0226672925055027
1772527343500509400,5.744509521484375,0.015770256519317627,-0.03283240273594856,0.01248895563185215
1772527343510507300,5.75450732421875,0.012301641516387463,-0.025835910812020302,0.00033229170367121696
1772527343520505300,5.76450537109375,0.01280151680111885,-0.03256838396191597,-0.0027292785234749317
1772527343530502700,5.774502685546875,0.012275505810976028,-0.03391096740961075,-0.002781832590699196
1772527343540500500,5.78450048828125,0.014316019602119923,-0.034686215221881866,-0.0010947203263640404
1772527343550498600,5.79449853515625,0.00898905098438263,-0.03132712468504906,-0.0016306363977491856
1772527343560496600,5.80449658203125,0.007237756159156561,-0.027302555739879608,-0.00022981362417340279
1772527343570494500,5.814494384765625,0.0025198902003467083,-0.026321735233068466,0.0012308410368859768
1772527343580492500,5.824492431640625,0.003996879328042269,-0.026786724105477333,0.002791719976812601
1772527343590489300,5.8344892578125,0.0027107633650302887,-0.020954851061105728,0.009603087790310383
1772527343600487400,5.8444873046875,0.005266066174954176,-0.023921877145767212,0.014611694030463696
1772527343610485500,5.854485595703125,0.010264399461448193,-0.018044857308268547,0.014791013672947884
1772527343620483300,5.8644833984375,0.007342912256717682,-0.006189530249685049,0.005862766411155462
1772527343630481400,5.8744814453125,0.0029576001688838005,0.0013790735974907875,0.0013062302023172379
1772527343640479500,5.8844794921875,0.00575391948223114,-0.0028068828396499157,-0.0017201858572661877
1772527343650476500,5.8944765625,0.016044791787862778,-0.007502735126763582,0.0002293814904987812
1772527343660474600,5.904474609375,0.009825244545936584,-0.0032046593260020018,-0.004274822771549225
1772527343670472400,5.914472412109375,0.01326262578368187,-0.011331683956086636,-0.004477178677916527
1772527343680470500,5.924470458984375,0.014794209972023964,-0.016661200672388077,0.005365598015487194
1772527343690468600,5.934468505859375,0.01629573665559292,-0.019685402512550354,0.009122077375650406
1772527343700466400,5.944466552734375,0.012132683768868446,-0.012221094220876694,0.012682190164923668
1772527343710464500,5.954464599609375,0.009319167584180832,-0.003846988780423999,0.011983620002865791
1772527343720461300,5.96446142578125,0.003548895940184593,0.01058228500187397,0.007364368531852961
1772527343730459100,5.974459228515625,-0.00011823698878288269,0.01935024932026863,-0.000052380841225385666
1772527343740457200,5.984457275390625,-0.002697508782148361,0.018906567245721817,-0.007212289143353701
1772527343750455000,5.994455078125,-0.007193457335233688,0.015989501029253006,-0.005900305230170488
1772527343760453000,6.004453125,-0.009499754756689072,0.01523369736969471,-0.004036891274154186
1772527343770451200,6.014451171875,-0.0087240906432271,0.013596486300230026,-0.004331836476922035
1772527343780448300,6.0244482421875,-0.01245571207255125,0.017420252785086632,0.001218724064528942
1772527343790446300,6.0344462890625,-0.018110288307070732,0.021017177030444145,0.009897678159177303
1772527343800444200,6.044444091796875,-0.016689492389559746,0.02007361873984337,0.01083590928465128
1772527343810442200,6.054442138671875,-0.01561908982694149,0.026519129052758217,0.011791163124144077
1772527343820440300,6.0644404296875,-0.012947672978043556,0.032695263624191284,0.01828421652317047
1772527343830438100,6.074438232421875,-0.014669673517346382,0.040536947548389435,0.0122827822342515
1772527343840435200,6.084435302734375,-0.01441906951367855,0.060885630548000336,-0.00039865821599960327
1772527343850433300,6.094433349609375,-0.024555783718824387,0.06294320523738861,-0.005402648821473122
1772527343860431000,6.10443115234375,-0.021054260432720184,0.06117619574069977,-0.009437603875994682
1772527343870429200,6.11442919921875,-0.02044161781668663,0.04421661049127579,-0.01660674624145031
1772527343880427300,6.12442724609375,-0.027978098019957542,0.0512167327105999,-0.011097198352217674
1772527343890425000,6.134425048828125,-0.031844474375247955,0.05676952749490738,-0.01718582771718502
1772527343900423200,6.144423095703125,-0.03596358746290207,0.052644822746515274,-0.02621021494269371
1772527343910420200,6.154420166015625,-0.040107958018779755,0.0404762402176857,-0.02423175238072872
1772527343920418300,6.164418212890625,-0.04142622649669647,0.033240433782339096,-0.017201008275151253
1772527343930416400,6.17441650390625,-0.036056797951459885,0.030513525009155273,-0.014500938355922699
1772527343940414200,6.184414306640625,-0.03236246109008789,0.027835983783006668,-0.022767391055822372
1772527343950412300,6.194412353515625,-0.03267066553235054,0.022081727162003517,-0.02585066668689251
1772527343960410400,6.204410400390625,-0.029909763485193253,0.01741187460720539,-0.02813486009836197
1772527343970407200,6.2144072265625,-0.025204377248883247,0.015178874135017395,-0.015396449714899063
1772527343980405200,6.2244052734375,-0.020938793197274208,0.010362815111875534,-0.0027006282471120358
1772527343990403000,6.234403076171875,-0.015906142070889473,0.0032473444007337093,0.004466604441404343
1772527344000401200,6.244401123046875,-0.016335176303982735,-0.0033258695621043444,0.016768012195825577
1772527344010399200,6.254399169921875,-0.010444608516991138,-0.004251236096024513,0.02141289785504341
1772527344020397300,6.264397216796875,-0.013188729993999004,-0.0028269777540117502,0.02255832403898239
1772527344030394400,6.274394287109375,-0.01743125729262829,-0.003012973116710782,0.022491300478577614
1772527344040392200,6.28439208984375,-0.018009696155786514,0.0062428428791463375,0.021903805434703827
1772527344050390300,6.294390380859375,-0.019607972353696823,0.009027916006743908,0.021479055285453796
1772527344060388400,6.304388427734375,-0.014995111152529716,0.011822105385363102,0.016825180500745773
1772527344070386200,6.31438623046875,-0.009214225225150585,0.010357964783906937,0.01307358592748642
1772527344080384300,6.32438427734375,-0.0020678993314504623,-0.00024381373077630997,0.009502552449703217
1772527344090382300,6.33438232421875,0.005654735025018454,-0.012967065908014774,0.00427210470661521
1772527344100379100,6.344379150390625,0.01136002503335476,-0.01965559460222721,-0.004392756149172783
1772527344110377200,6.354377197265625,0.008217533119022846,-0.01889469102025032,-0.006935653276741505
1772527344120375000,6.364375,0.0015513747930526733,-0.01013874914497137,-0.012042531743645668
1772527344130373000,6.374373046875,-0.008189516142010689,-0.012197433039546013,-0.01613738387823105
1772527344140371200,6.38437109375,-0.013810385018587112,-0.0031541376374661922,-0.01885407604277134
1772527344150369300,6.394369384765625,-0.02240661159157753,0.009823957458138466,-0.021222513169050217
1772527344160366300,6.404366455078125,-0.028637874871492386,0.008447635918855667,-0.01895643025636673
1772527344170364200,6.4143642578125,-0.024741899222135544,0.0058701056987047195,-0.016338232904672623
1772527344180362200,6.4243623046875,-0.02254479005932808,-0.0026999462861567736,-0.008275246247649193
1772527344190360300,6.4343603515625,-0.01775456592440605,-0.011894775554537773,-0.0031073817517608404
1772527344200358100,6.444358154296875,-0.00946441013365984,-0.00950405653566122,0.0028232112526893616
1772527344210356200,6.454356201171875,0.004033821634948254,-0.02095804549753666,0.013262270949780941
1772527344220353000,6.46435302734375,0.013196693733334541,-0.0372438058257103,0.026907507330179214
1772527344230351000,6.47435107421875,0.02933879755437374,-0.04748212546110153,0.04034530743956566
1772527344240349200,6.48434912109375,0.03669231757521629,-0.058639705181121826,0.041533611714839935
1772527344250347300,6.49434716796875,0.044954318553209305,-0.05940597876906395,0.040646445006132126
1772527344260345300,6.504345458984375,0.04827741160988808,-0.06723035126924515,0.04213302209973335
1772527344270343400,6.514343505859375,0.0493185892701149,-0.06398944556713104,0.03361077606678009
1772527344280341200,6.52434130859375,0.045636773109436035,-0.058722514659166336,0.026515847072005272
1772527344290338300,6.53433837890625,0.04140908271074295,-0.04885270819067955,0.013861282728612423
1772527344300336400,6.54433642578125,0.040710266679525375,-0.042505066841840744,0.002085316926240921
1772527344310334200,6.554334228515625,0.03738846629858017,-0.0498138889670372,0.001293669454753399
1772527344320332300,6.564332275390625,0.035244621336460114,-0.054771363735198975,0.011446971446275711
1772527344330330000,6.574330078125,0.03550679236650467,-0.05152884125709534,0.023511290550231934
1772527344340328200,6.584328125,0.03899180516600609,-0.04097606614232063,0.03120090253651142
1772527344350325200,6.5943251953125,0.03877730667591095,-0.03421872854232788,0.027935732156038284
1772527344360323000,6.604322998046875,0.040250033140182495,-0.0329153798520565,0.023021135479211807
1772527344370321200,6.614321044921875,0.03957967460155487,-0.029748238623142242,0.019883068278431892
1772527344380319200,6.6243193359375,0.03607415407896042,-0.02601342275738716,0.01644173264503479
1772527344390317300,6.6343173828125,0.03036411479115486,-0.015832319855690002,0.014372297562658787
1772527344400315400,6.6443154296875,0.026901472359895706,-0.011197355575859547,0.012033243663609028
1772527344410312200,6.654312255859375,0.02956021949648857,-0.01525664608925581,0.01162458211183548
1772527344420310300,6.664310302734375,0.027491476386785507,-0.019127551466226578,0.0061392695643007755
1772527344430308400,6.674308349609375,0.027097288519144058,-0.014475151896476746,-0.0008859275840222836
1772527344440306200,6.68430615234375,0.02650872990489006,-0.016754286363720894,-0.001102176494896412
1772527344450304300,6.69430419921875,0.024971669539809227,-0.01960231363773346,-0.004395885393023491
1772527344460302300,6.70430224609375,0.022864842787384987,-0.02171926014125347,-0.0018304623663425446
1772527344470300200,6.714300048828125,0.020065058022737503,-0.019155126065015793,0.004252931568771601
1772527344480297200,6.724297119140625,0.018047979101538658,-0.008856415748596191,0.00394560256972909
1772527344490295300,6.73429541015625,0.018893994390964508,0.0033984268084168434,-0.0039814310148358345
1772527344500293400,6.74429345703125,0.014974353834986687,0.01273600198328495,-0.01063187699764967
1772527344510291500,6.75429150390625,0.013184328563511372,0.015940789133310318,-0.010723467916250229
1772527344520289300,6.764289306640625,0.012210676446557045,0.013348201289772987,-0.008615309372544289
1772527344530287400,6.774287353515625,0.010477262549102306,0.015978585928678513,-0.007413490675389767
1772527344540284200,6.7842841796875,0.011202707886695862,0.020497970283031464,-0.013237823732197285
1772527344550282200,6.7942822265625,0.004299224354326725,0.033672913908958435,-0.01945224404335022
1772527344560280300,6.8042802734375,-0.004431150853633881,0.04148583114147186,-0.027780748903751373
1772527344570278100,6.814278076171875,-0.007160967215895653,0.045965775847435,-0.03573809564113617
1772527344580276200,6.824276123046875,-0.015727557241916656,0.0418916717171669,-0.0358470194041729
1772527344590274300,6.8342744140625,-0.01654062420129776,0.036823730915784836,-0.033362600952386856
1772527344600272100,6.844272216796875,-0.022947655990719795,0.03461144492030144,-0.02954202890396118
1772527344610269200,6.854269287109375,-0.028597205877304077,0.03280019760131836,-0.023216623812913895
1772527344620267300,6.864267333984375,-0.019077204167842865,0.02340882457792759,-0.012455853633582592
1772527344630265300,6.874265380859375,-0.014844262972474098,0.021021200343966484,0.0001018834300339222
1772527344640263400,6.884263427734375,-0.004694689996540546,0.01034645177423954,0.008400559425354004
1772527344650261200,6.89426123046875,0.005048819817602634,0.00015582190826535225,0.01720190979540348
1772527344660259300,6.90425927734375,0.012357865460216999,-0.00261812680400908,0.025338932871818542
1772527344670256000,6.914256103515625,0.020024694502353668,-0.004329451359808445,0.029014136642217636
1772527344680254200,6.924254150390625,0.025784313678741455,-0.00815481599420309,0.027927033603191376
1772527344690252300,6.934252197265625,0.024343159049749374,-0.01442108117043972,0.031743697822093964
1772527344700250000,6.94425,0.021296236664056778,-0.019256582483649254,0.03641301766037941
1772527344710248200,6.954248291015625,0.018132444471120834,-0.012988371774554253,0.03740875422954559
1772527344720246300,6.964246337890625,0.011431664228439331,0.004807137418538332,0.03486650064587593
1772527344730243000,6.9742431640625,0.0030004004947841167,0.015562087297439575,0.03529435768723488
1772527344740241200,6.9842412109375,-0.0022388361394405365,0.015276063233613968,0.0354088731110096
1772527344750239000,6.994239013671875,-0.009274108335375786,0.019825171679258347,0.03486383706331253
1772527344760237000,7.004237060546875,-0.00930526852607727,0.01742938905954361,0.029355352744460106
1772527344770235100,7.014235107421875,-0.020937345921993256,0.028913866728544235,0.024855919182300568
1772527344780233000,7.02423291015625,-0.01615643873810768,0.03660028427839279,0.024899594485759735
1772527344790231000,7.03423095703125,-0.009650489315390587,0.031178679317235947,0.017700251191854477
1772527344800227800,7.044227783203125,-0.006249100901186466,0.014641781337559223,0.002105844672769308
1772527344810226000,7.054225830078125,-0.006761493161320686,0.007897858507931232,0.005404702853411436
1772527344820224000,7.06422412109375,-0.0019709989428520203,-0.002263698959723115,0.015201939269900322
1772527344830221800,7.074221923828125,0.003123475704342127,-0.004430548753589392,0.012717077508568764
1772527344840220000,7.084219970703125,0.0017863023094832897,-0.0027817857917398214,0.0029502008110284805
1772527344850218000,7.094218017578125,-0.0048377010971307755,-0.006341924425214529,-0.005299318581819534
1772527344860215000,7.104215087890625,-0.005461679771542549,-0.0029426657129079103,-0.0077262576669454575
1772527344870213000,7.114213134765625,-0.011619364842772484,0.002861183602362871,-0.0156426802277565
1772527344880211000,7.1242109375,-0.014881204813718796,0.011642690747976303,-0.02329207770526409
1772527344890209000,7.134208984375,-0.022489020600914955,0.016508057713508606,-0.02939295955002308
1772527344900207000,7.14420703125,-0.02204427309334278,0.01845269836485386,-0.02181067317724228
1772527344910205000,7.154204833984375,-0.02828611060976982,0.014871776103973389,-0.013870058581233025
1772527344920202000,7.164201904296875,-0.02605651319026947,0.011915933340787888,-0.005473111290484667
1772527344930200000,7.174199951171875,-0.023247485980391502,0.007451180834323168,0.00803217664361
1772527344940198000,7.184197998046875,-0.01926259882748127,0.005641562398523092,0.012815481051802635
1772527344950196000,7.194196044921875,-0.012262404896318913,-0.0017221616581082344,0.013097443617880344
1772527344960194000,7.204194091796875,-0.00002171844244003296,-0.00789110828191042,0.01397415529936552
1772527344970192000,7.21419189453125,0.010789116844534874,-0.014732884243130684,0.014599023386836052
1772527344980190000,7.22418994140625,0.01978181302547455,-0.02493172697722912,0.01531195268034935
1772527344990187000,7.23418701171875,0.03177551180124283,-0.03179064393043518,0.01777717098593712
1772527345000185000,7.24418505859375,0.035658665001392365,-0.028273938223719597,0.020397190004587173
1772527345010183200,7.25418310546875,0.037690773606300354,-0.029453180730342865,0.022264622151851654
1772527345020181000,7.264180908203125,0.030779071152210236,-0.021868765354156494,0.022575411945581436
1772527345030179000,7.274178955078125,0.021909337490797043,-0.011945107951760292,0.02093379572033882
1772527345040177200,7.28417724609375,0.01289293821901083,-0.002138550393283367,0.021115155890583992
1772527345050174000,7.294174072265625,0.003140635322779417,0.008349120616912842,0.017928972840309143
1772527345060172000,7.304172119140625,-0.004643783904612064,0.01827019453048706,0.017465315759181976
1772527345070169900,7.314169921875,-0.012606069445610046,0.02526187151670456,0.010801378637552261
1772527345080168000,7.32416796875,-0.021500762552022934,0.02966940402984619,0.017303751781582832
1772527345090166000,7.334166015625,-0.03171439841389656,0.029956351965665817,0.02397889643907547
1772527345100163800,7.344163818359375,-0.023915331810712814,0.039151981472969055,0.028901483863592148
1772527345110162000,7.354161865234375,-0.027288492769002914,0.03467259556055069,0.02843858301639557
1772527345120159000,7.364158935546875,-0.021410897374153137,0.033145006746053696,0.022676832973957062
1772527345130157000,7.374156982421875,-0.016972165554761887,0.026555638760328293,0.022147485986351967
1772527345140155100,7.384155029296875,-0.016962580382823944,0.030778612941503525,0.016525818035006523
1772527345150153000,7.394153076171875,-0.01409447006881237,0.027642201632261276,0.01241760328412056
1772527345160151000,7.404151123046875,-0.011191090568900108,0.02675510197877884,0.001974817831069231
1772527345170149000,7.414149169921875,-0.009742519818246365,0.018204618245363235,-0.0012982292100787163
1772527345180146000,7.42414599609375,-0.008058871142566204,0.01448018942028284,-0.00039275456219911575
1772527345190144000,7.43414404296875,-0.004383631981909275,0.01361873373389244,-0.002276897430419922
1772527345200141800,7.444141845703125,-0.0006940886378288269,0.011782217770814896,0.002680843695998192
1772527345210140000,7.454139892578125,0.004902733489871025,0.007203470449894667,0.004762215539813042
1772527345220138000,7.464137939453125,0.00935793574899435,0.008635718375444412,0.0016841338947415352
1772527345230135800,7.4741357421875,0.01370219886302948,0.005623269826173782,-0.002275520469993353
1772527345240134000,7.4841337890625,0.015185846015810966,0.0012130755931138992,-0.011470350436866283
1772527345250131000,7.494130859375,0.010717670433223248,-0.000033690594136714935,-0.016005735844373703
1772527345260129000,7.50412890625,0.010346692055463791,0.003808718640357256,-0.016139959916472435
1772527345270127000,7.514127197265625,-0.0002019749954342842,0.008099988102912903,-0.01856110617518425
1772527345280125000,7.524125,-0.002125576138496399,0.015374945476651192,-0.013417743146419525
1772527345290123000,7.534123046875,-0.011184204369783401,0.015384431928396225,-0.007403126917779446
1772527345300121000,7.54412109375,-0.010071268305182457,0.017905380576848984,-0.006266223732382059
1772527345310118000,7.554117919921875,-0.008572138845920563,0.016315512359142303,0.0054297358728945255
1772527345320116000,7.564115966796875,-0.003747023642063141,0.012213444337248802,0.013968629762530327
1772527345330113800,7.57411376953125,0.000955815427005291,0.008540641516447067,0.014841990545392036
1772527345340112000,7.58411181640625,0.0037401504814624786,0.01277213729918003,0.010137783363461494
1772527345350110000,7.59410986328125,0.006549633573740721,0.016197822988033295,0.011073863133788109
1772527345360107800,7.604107666015625,0.004485417623072863,0.018322492018342018,0.004115554969757795
1772527345370105000,7.61410498046875,0.007366463076323271,0.01846485026180744,-0.006531719118356705
1772527345380103200,7.624103271484375,0.0050332676619291306,0.023045754060149193,-0.012212773784995079
1772527345390101000,7.63410107421875,-0.00010214466601610184,0.01753360591828823,-0.013260195031762123
1772527345400099000,7.64409912109375,0.00025125686079263687,0.015342889353632927,-0.011125138029456139
1772527345410097000,7.654096923828125,-0.003429042175412178,0.017605813220143318,-0.005633567459881306
1772527345420095000,7.664094970703125,-0.004143035039305687,0.02062663622200489,-0.006369132548570633
1772527345430093000,7.674093017578125,-0.006114077754318714,0.025178205221891403,-0.009752035140991211
1772527345440089900,7.68408984375,-0.00780838169157505,0.03297407925128937,-0.011202126741409302
1772527345450088000,7.694087890625,-0.01177002489566803,0.03466473147273064,-0.010851609520614147
1772527345460086000,7.7040859375,-0.01809529960155487,0.0392024926841259,-0.012791989371180534
1772527345470083800,7.714083740234375,-0.019678888842463493,0.042036283761262894,-0.007544807158410549
1772527345480082000,7.72408203125,-0.02194497361779213,0.04281339421868324,-0.004716264083981514
1772527345490080000,7.734080078125,-0.0233592689037323,0.03964647650718689,-0.006674019154161215
1772527345500077000,7.7440771484375,-0.018646804615855217,0.039006251841783524,-0.003990085795521736
1772527345510075100,7.7540751953125,-0.014609524980187416,0.03535737842321396,-0.002039631363004446
1772527345520073000,7.764072998046875,-0.011553546413779259,0.030694983899593353,-0.00030085351318120956
1772527345530071000,7.774071044921875,-0.01256672851741314,0.030714042484760284,-0.004405783023685217
1772527345540069000,7.784069091796875,-0.005455022677779198,0.02562873438000679,-0.006608217488974333
1772527345550067000,7.79406689453125,-0.007929215207695961,0.016267232596874237,-0.004710537381470203
1772527345560064000,7.80406396484375,-0.005465257912874222,0.014769470319151878,-0.002366422675549984
1772527345570061800,7.814061767578125,-0.008670181035995483,0.01622854731976986,-0.0006830613128840923
1772527345580060000,7.824059814453125,-0.004360920749604702,0.020293330773711205,0.0014408091083168983
1772527345590058000,7.83405810546875,0.00036170240491628647,0.015634914860129356,0.0032823183573782444
1772527345600055800,7.844055908203125,0.0034885196946561337,0.003239762969315052,0.009747408330440521
1772527345610054100,7.85405419921875,0.014301486313343048,-0.004957818426191807,0.023868929594755173
1772527345620052200,7.86405224609375,0.018193962052464485,-0.012572328560054302,0.02691931463778019
1772527345630049000,7.874049072265625,0.023938627913594246,-0.015125378966331482,0.03254706412553787
1772527345640047000,7.884047119140625,0.020488502457737923,-0.015500353649258614,0.030894573777914047
1772527345650045000,7.894044921875,0.019615063443779945,-0.01005475502461195,0.026166528463363647
1772527345660043000,7.90404296875,0.013876750133931637,-0.0028042993508279324,0.023552369326353073
1772527345670041000,7.914041015625,0.010004779323935509,0.0025763013400137424,0.019837327301502228
1772527345680039000,7.924038818359375,0.011178167536854744,0.007517264690250158,0.010913340374827385
1772527345690036000,7.934035888671875,0.010006187483668327,0.014125866815447807,0.003998576197773218
1772527345700033800,7.94403369140625,0.01174043770879507,0.016414586454629898,-0.0016124383546411991
1772527345710032000,7.954031982421875,0.010668477043509483,0.0179583802819252,0.003494017757475376
1772527345720030000,7.964030029296875,0.01010388694703579,0.014995614066720009,0.013974355533719063
1772527345730028000,7.974028076171875,0.011409292928874493,0.015256639569997787,0.02397066354751587
1772527345740026000,7.984026123046875,0.006144755985587835,0.013862207531929016,0.021830547600984573
1772527345750024000,7.99402392578125,0.003773170057684183,0.01849186234176159,0.02125350758433342
1772527345760021000,8.00402099609375,0.000911337323486805,0.032007671892642975,0.017555175349116325
1772527345770019000,8.01401904296875,-0.005247409455478191,0.0379217192530632,0.00870748795568943
1772527345780017000,8.024016845703125,-0.009769456461071968,0.04284431040287018,-0.002054345328360796
1772527345790015000,8.034014892578124,-0.0031564095988869667,0.035721518099308014,-0.004299789201468229
1772527345800013000,8.044012939453125,-0.0028722500428557396,0.026751723140478134,0.0005484954454004765
1772527345810011000,8.054010986328125,-0.0016902629286050797,0.023900404572486877,-0.0026715551503002644
1772527345820008000,8.064008056640626,0.0040318043902516365,0.019907260313630104,-0.007679629139602184
1772527345830005800,8.074005859375,0.0007098158821463585,0.017504863440990448,-0.012392470613121986
1772527345840003800,8.08400390625,-0.006627725437283516,0.014236897230148315,-0.003955576103180647
1772527345850002200,8.094002197265626,-0.012076781131327152,0.018108373507857323,0.004203971941024065
1772527345860000000,8.104,-0.016472063958644867,0.02393856644630432,0.009797675535082817
1772527345869998000,8.113998046875,-0.01680857129395008,0.03076973930001259,0.013505727984011173
1772527345879995000,8.123994873046875,-0.016110556200146675,0.030564144253730774,0.01815081387758255
1772527345889993000,8.133992919921875,-0.013699255883693695,0.02400325983762741,0.018421966582536697
1772527345899991000,8.143990966796874,-0.00855722464621067,0.017652418464422226,0.021668625995516777
1772527345909988900,8.15398876953125,-0.008269032463431358,0.014703484252095222,0.017266619950532913
1772527345919987000,8.163987060546875,-0.005436494015157223,0.010143885388970375,0.014164838008582592
1772527345929985000,8.173985107421874,-0.005799482576549053,0.012504939921200275,0.008928375318646431
1772527345939982800,8.18398291015625,-0.0031168805435299873,0.011812516488134861,0.006239914335310459
1772527345949980000,8.19397998046875,-0.0010197171941399574,0.005696755833923817,0.011358996853232384
1772527345959978000,8.20397802734375,-0.0011350326240062714,0.0007624509744346142,0.018767379224300385
1772527345969976000,8.21397607421875,0.0012780195102095604,-0.0013616685755550861,0.021962173283100128
1772527345979974100,8.22397412109375,0.00798252783715725,0.0005677915178239346,0.014382816851139069
1772527345989972000,8.233971923828125,0.006731299217790365,0.002949273679405451,0.002830090932548046
1772527345999970000,8.243969970703125,0.0034731882624328136,0.005526148248463869,-0.0039250170812010765
1772527346009966800,8.253966796875,-0.0014506541192531586,0.008806118741631508,-0.00799423735588789
1772527346019965000,8.26396484375,-0.0021734358742833138,0.006598092149943113,-0.008405162952840328
1772527346029963000,8.273962890625,-0.005515171214938164,0.008635039441287518,-0.008100386708974838
1772527346039960800,8.2839609375,-0.007494165562093258,0.003670906648039818,-0.005677176173776388
1772527346049959000,8.293958984375,-0.008385185152292252,0.00580907566472888,-0.0059147970750927925
1772527346059957000,8.30395703125,-0.005681277252733707,0.005561934318393469,-0.00400184839963913
1772527346069954800,8.313954833984376,-0.008867597207427025,0.008428709581494331,-0.007882007397711277
1772527346079952100,8.3239521484375,-0.010226873680949211,0.013785658404231071,-0.012609384953975677
1772527346089950000,8.333949951171874,-0.008607825264334679,0.01760687865316868,-0.016497932374477386
1772527346099948000,8.343947998046875,-0.00891648605465889,0.018566947430372238,-0.011961504817008972
1772527346109946000,8.353946044921875,-0.009979888796806335,0.015450132079422474,-0.011849828064441681
1772527346119944000,8.36394384765625,-0.009835546836256981,0.013835723511874676,-0.013404847122728825
1772527346129942000,8.37394189453125,-0.003437942825257778,0.00939852837473154,-0.012213261798024178
1772527346139939000,8.38393896484375,0.001478784717619419,-0.003492502961307764,-0.009925873018801212
1772527346149937000,8.39393701171875,0.004563485272228718,-0.008445966057479382,-0.005184846930205822
1772527346159935000,8.40393505859375,0.008121734485030174,-0.017579276114702225,0.0005241716280579567
1772527346169932800,8.413932861328124,0.011539977043867111,-0.014801152050495148,0.0000537908636033535
1772527346179931000,8.423930908203126,0.01465880498290062,-0.005203384906053543,-0.006974557414650917
1772527346189929000,8.433928955078125,0.011725220829248428,-0.0026338170282542706,-0.0057680788449943066
1772527346199926000,8.443926025390626,0.008717180229723454,0.00602065771818161,-0.007377959787845612
1772527346209924000,8.453924072265625,0.006126950029283762,0.008316213265061378,-0.010740289464592934
1772527346219922200,8.463922119140625,0.005281928926706314,0.006197135429829359,-0.016774745658040047
1772527346229920000,8.473919921875,0.004326840862631798,-0.00314659858122468,-0.017821744084358215
1772527346239918000,8.48391796875,-0.0006109261885285378,-0.009999444708228111,-0.01670827716588974
1772527346249916000,8.493916015625,-0.0021208208054304123,-0.004392199218273163,-0.016954531893134117
1772527346259914000,8.5039140625,-0.0050532277673482895,-0.0066162049770355225,-0.011487327516078949
1772527346269911000,8.5139111328125,-0.004541976377367973,-0.008077502250671387,-0.009610154666006565
1772527346279908900,8.523908935546874,-0.004534252919256687,-0.007003449369221926,-0.013417143374681473
1772527346289907000,8.533906982421875,-0.0028988057747483253,-0.004476908594369888,-0.01616898737847805
1772527346299905000,8.543905029296875,0.0012285616248846054,-0.009326258674263954,-0.012632044032216072
1772527346309902800,8.55390283203125,-0.002408936619758606,-0.006941336207091808,-0.010186751373112202
1772527346319901000,8.56390087890625,-0.001843014732003212,-0.002649652073159814,-0.009132139384746552
1772527346329898000,8.57389794921875,-0.0004039201885461807,-0.005848874803632498,-0.006488020531833172
1772527346339896000,8.58389599609375,-0.0000052442774176597595,-0.010042554698884487,-0.0002711373381316662
1772527346349894100,8.59389404296875,-0.00039495155215263367,-0.011501142755150795,-0.0001788567751646042
1772527346359892000,8.60389208984375,0.0038581169210374355,-0.014892412349581718,-0.00022759241983294487
1772527346369890000,8.61389013671875,0.0003476254642009735,-0.01906406693160534,0.005343116819858551
1772527346379888000,8.62388818359375,0.0011473726481199265,-0.013192329555749893,0.0035790391266345978
1772527346389885000,8.633885009765624,-0.0010146573185920715,-0.009323843754827976,0.009403817355632782
1772527346399883000,8.643883056640625,-0.002806166186928749,-0.00596053758636117,0.009528985247015953
1772527346409880800,8.653880859375,-0.009518053382635117,-0.007838682271540165,0.014764159917831421
1772527346419879000,8.66387890625,-0.007161689922213554,-0.00802297331392765,0.01428132876753807
1772527346429877000,8.673876953125,-0.0018382584676146507,-0.010711022652685642,0.0160656925290823
1772527346439874800,8.683874755859375,-0.00201562512665987,-0.009922727011144161,0.014584440737962723
1772527346449873000,8.693872802734376,0.0018272018060088158,-0.013057490810751915,0.01434839516878128
1772527346459870000,8.703869873046875,0.005710623227059841,-0.02380228042602539,0.018210778012871742
1772527346469868000,8.713867919921874,0.00567995710298419,-0.027767550200223923,0.017340902239084244
1772527346479866000,8.7238662109375,0.0058037941344082355,-0.022256936877965927,0.008850743994116783
1772527346489864000,8.733864013671875,0.008779460564255714,-0.019575659185647964,0.012571468017995358
1772527346499862000,8.743862060546874,0.007052400149405003,-0.02015569806098938,0.015256200917065144
1772527346509860000,8.753860107421875,0.01086585596203804,-0.023606009781360626,0.02108297497034073
1772527346519857000,8.76385693359375,0.015147419646382332,-0.03379419818520546,0.027193333953619003
1772527346529855000,8.77385498046875,0.019816890358924866,-0.03738468885421753,0.03162851929664612
1772527346539852800,8.783852783203125,0.02315170131623745,-0.03539663925766945,0.032566215842962265
1772527346549851000,8.793850830078124,0.02511235885322094,-0.03210844099521637,0.03283275291323662
1772527346559849000,8.803848876953126,0.023114189505577087,-0.02850545197725296,0.030793040990829468
1772527346569846800,8.8138466796875,0.020443953573703766,-0.017822012305259705,0.023754969239234924
1772527346579844000,8.823843994140624,0.020014384761452675,-0.02548872120678425,0.023402633145451546
1772527346589842000,8.833842041015625,0.01745375618338585,-0.025658631697297096,0.01952533796429634
1772527346599840000,8.843840087890625,0.018553107976913452,-0.021876676008105278,0.015374800190329552
1772527346609838000,8.853838134765626,0.01736282929778099,-0.02636709436774254,0.010323071852326393
1772527346619836000,8.8638359375,0.014359848573803902,-0.030328013002872467,0.002247036434710026
1772527346629834000,8.873833984375,0.017841093242168427,-0.03184781223535538,0.0031027109362185
1772527346639832000,8.88383203125,0.013075366616249084,-0.029891453683376312,-0.003764516208320856
1772527346649828900,8.893828857421875,0.015492679551243782,-0.02075253240764141,-0.007976772263646126
1772527346659827000,8.903826904296874,0.008905617520213127,-0.018261412158608437,-0.004297348670661449
1772527346669824800,8.91382470703125,0.005189975257962942,-0.0170251727104187,-0.004641961771994829
1772527346679822800,8.92382275390625,0.002308701165020466,-0.018487514927983284,-0.0004299059510231018
1772527346689821000,8.933821044921874,0.0028817360289394855,-0.020554104819893837,0.002770526334643364
1772527346699818800,8.94381884765625,0.0033949273638427258,-0.0198435727506876,0.004837672226130962
1772527346709816000,8.953816162109375,0.006910034455358982,-0.0184822678565979,-0.000016893725842237473
1772527346719814100,8.963814208984376,0.008870387449860573,-0.008296741172671318,-0.008120359852910042
1772527346729812000,8.97381201171875,0.009603288024663925,-0.0023337078746408224,-0.01720380410552025
1772527346739809800,8.983809814453124,0.007976628839969635,0.002502859104424715,-0.024989554658532143
1772527346749807900,8.993807861328126,0.006709232926368713,-0.0004359930753707886,-0.02413090690970421
1772527346759806000,9.003805908203125,0.005359010770916939,-0.007223325315862894,-0.021343909204006195
1772527346769803800,9.0138037109375,0.000506274402141571,-0.01328476332128048,-0.013158218003809452
1772527346779800800,9.02380078125,-0.0007470101118087769,-0.018061941489577293,-0.00711257616057992
1772527346789798700,9.033798583984375,0.0025306902825832367,-0.011931628920137882,-0.002731453161686659
1772527346799796700,9.043796630859376,0.004959227051585913,-0.009424262680113316,-0.005404734052717686
1772527346809794800,9.053794921875,0.004695921670645475,-0.007951289415359497,-0.007648559287190437
1772527346819792600,9.063792724609375,0.002113454509526491,-0.010330557823181152,-0.014456131495535374
1772527346829790700,9.073790771484376,0.0010204538702964783,-0.0063260020688176155,-0.015900518745183945
1772527346839787800,9.083787841796875,-0.0016981009393930435,-0.008001396432518959,-0.012447730638086796
1772527346849785900,9.093785888671874,-0.003632201813161373,-0.01361294835805893,-0.00820107664912939
1772527346859784000,9.103783935546875,-0.0032609570771455765,-0.01685800962150097,-0.007659922353923321
1772527346869781800,9.11378173828125,-0.0018394393846392632,-0.00985573511570692,-0.004899976775050163
1772527346879779800,9.12377978515625,-0.00008441600948572159,-0.003744313260540366,-0.006563387345522642
1772527346889778000,9.13377783203125,0.006057059392333031,-0.004035172052681446,-0.00948156788945198
1772527346899774700,9.143774658203125,0.0066083334386348724,-0.004906824789941311,-0.01173247117549181
1772527346909772800,9.153772705078126,0.009915599599480629,-0.012080110609531403,-0.006169904489070177
1772527346919770600,9.1637705078125,0.010022392496466637,-0.015605069696903229,-0.009089794009923935
1772527346929768700,9.173768798828124,0.007604663260281086,-0.015558199025690556,-0.00935986265540123
1772527346939766800,9.183766845703126,0.005111678037792444,-0.0158519446849823,-0.004431416280567646
1772527346949764600,9.1937646484375,-0.002078552730381489,-0.018473627045750618,-0.0043808165937662125
1772527346959762700,9.2037626953125,-0.008361216634511948,-0.01081730518490076,-0.004135805647820234
1772527346969760000,9.213760009765625,-0.008393059484660625,-0.0017893952317535877,-0.0071521238423883915
1772527346979757800,9.2237578125,-0.015121002681553364,0.006081311497837305,-0.005703097674995661
1772527346989756000,9.233755859375,-0.004466877318918705,0.005554636009037495,-0.01061409991234541
1772527346999753700,9.243753662109375,-0.006329492665827274,0.004630519077181816,-0.013343839906156063
1772527347009751800,9.253751708984375,-0.005214880220592022,-0.0026259322185069323,-0.015112202614545822
1772527347019750000,9.26375,-0.006276416592299938,-0.007452112622559071,-0.011219458654522896
1772527347029746700,9.27374658203125,-0.007804614491760731,-0.009865015745162964,-0.007180819287896156
1772527347039744800,9.283744873046874,-0.009058165363967419,-0.002758636837825179,-0.012413663789629936
1772527347049742800,9.293742919921876,-0.010463327169418335,-0.0032953456975519657,-0.015641726553440094
1772527347059740700,9.30374072265625,-0.014377376064658165,0.00368719594553113,-0.012180148623883724
1772527347069738800,9.31373876953125,-0.013437085784971714,0.004510312806814909,-0.012776453047990799
1772527347079736800,9.32373681640625,-0.007248166017234325,0.00033128028735518456,-0.012775920331478119
1772527347089735000,9.33373486328125,-0.008469225838780403,-0.0008758245967328548,-0.019429940730333328
1772527347099732000,9.34373193359375,-0.0047019170597195625,-0.004744865000247955,-0.018756959587335587
1772527347109729800,9.353729736328125,-0.003202405758202076,-0.01064249686896801,-0.01950768195092678
1772527347119727900,9.363727783203124,-0.003920926712453365,-0.012366892769932747,-0.018635496497154236
1772527347129726000,9.373725830078126,-0.0061865923926234245,-0.012815004214644432,-0.012965228408575058
1772527347139723800,9.383723876953125,-0.004424378275871277,-0.006620757281780243,-0.017472095787525177
1772527347149721900,9.393721923828124,-0.00480601005256176,-0.0004600668326020241,-0.01814880594611168
1772527347159718700,9.40371875,-0.004957277327775955,-0.007496937643736601,-0.01780046336352825
1772527347169716700,9.413716796875,-0.002858060412108898,-0.012783250771462917,-0.01489497721195221
1772527347179714800,9.42371484375,-0.0006010308861732483,-0.01084553450345993,-0.018007678911089897
1772527347189712600,9.433712646484375,0.002190913539379835,-0.013674406334757805,-0.017992209643125534
1772527347199710700,9.443710693359375,0.0033762864768505096,-0.008506275713443756,-0.010424305684864521
1772527347209709000,9.453708984375,0.0013167504221200943,-0.0064337593503296375,-0.012505654245615005
1772527347219707000,9.463706787109375,0.002684815786778927,-0.005556248128414154,-0.0031275993678718805
1772527347229704000,9.473703857421874,0.007153598591685295,-0.01406392827630043,0.007253624033182859
1772527347239701800,9.48370166015625,0.016251755878329277,-0.028639407828450203,0.0026572751812636852
1772527347249699800,9.493699951171875,0.020477548241615295,-0.03183664754033089,0.0013025915250182152
1772527347259698000,9.503697998046874,0.01586122438311577,-0.02710261382162571,0.010007132776081562
1772527347269695700,9.51369580078125,0.025664813816547394,-0.041270773857831955,0.008568715304136276
1772527347279693800,9.52369384765625,0.018096376210451126,-0.03324267268180847,0.001195753924548626
1772527347289690600,9.533690673828126,0.002998074982315302,-0.001051550731062889,0.004954695701599121
1772527347299688700,9.543688720703125,-0.0027732616290450096,0.002374339383095503,0.002891012467443943
1772527347309686800,9.553686767578125,-0.007228381931781769,0.005555198062211275,0.001050922553986311
1772527347319684900,9.563684814453126,-0.0036634746938943863,0.003766086418181658,-0.0015035816468298435
1772527347329683000,9.573682861328125,-0.005635206587612629,-0.004335278645157814,0.009611276909708977
1772527347339681000,9.583680908203124,-0.00035602226853370667,-0.0034926545340567827,0.01306086964905262
1772527347349677800,9.593677734375,0.00201221602037549,0.006907140836119652,0.014830605126917362
1772527347359676000,9.603676025390625,0.010624346323311329,0.011353820562362671,0.008307991549372673
1772527347369673700,9.613673828125,0.010460825636982918,0.013603447005152702,-0.003614225657656789
1772527347379671800,9.623671875,0.009061601012945175,0.017454378306865692,-0.0061676641926169395
1772527347389670000,9.633669921875,0.00358610600233078,0.009259900078177452,-0.007873686030507088
1772527347399667700,9.643667724609376,0.005432741716504097,-0.004136599134653807,-0.0020488197915256023
1772527347409664800,9.653664794921875,0.0048121861182153225,-0.010399757884442806,0.0033779041841626167
1772527347419662600,9.66366259765625,0.004906462039798498,-0.01285918802022934,0.0010234038345515728
1772527347429660700,9.67366064453125,0.007187915965914726,-0.013006956316530704,-0.0007839510217308998
1772527347439659000,9.683658935546875,0.012738476507365704,-0.017323141917586327,-0.0011000684462487698
1772527347449656800,9.69365673828125,0.015111885964870453,-0.015432087704539299,0.00012449780479073524
1772527347459655000,9.703655029296876,0.017409928143024445,-0.017647571861743927,0.0007538027130067348
1772527347469653000,9.713653076171875,0.021368108689785004,-0.026112983003258705,0.0028400346636772156
1772527347479649800,9.72364990234375,0.01881280541419983,-0.024923881515860558,-0.0014292793348431587
1772527347489647900,9.73364794921875,0.014941739849746227,-0.02351090870797634,-0.003354055341333151
1772527347499645700,9.743645751953125,0.008077974431216717,-0.02361423894762993,-0.005139438435435295
1772527347509643800,9.753643798828126,0.001120016910135746,-0.019027724862098694,-0.0030487917829304934
1772527347519641900,9.763641845703125,-0.002864604815840721,-0.013280621729791164,-0.003850136883556843
1772527347529639700,9.7736396484375,-0.0016379887238144875,-0.013579409569501877,-0.001387711614370346
1772527347539636700,9.78363671875,-0.003032419830560684,-0.010917846113443375,0.003679218702018261
1772527347549634800,9.793634765625,0.0065498617477715015,-0.014767322689294815,0.008699765428900719
1772527347559633000,9.8036328125,0.010075354017317295,-0.019643571227788925,0.008232380263507366
1772527347569631000,9.813630859375,0.014945438131690025,-0.025576705113053322,0.007971080020070076
1772527347579629000,9.823629150390625,0.01653854176402092,-0.025105325505137444,0.011291243135929108
1772527347589627000,9.833626953125,0.020284581929445267,-0.031935494393110275,0.010514287278056145
1772527347599625000,9.843625,0.023525116965174675,-0.030926689505577087,0.007958984933793545
1772527347609621800,9.853621826171874,0.02171393856406212,-0.022357720881700516,-0.0012079481966793537
1772527347619619800,9.863619873046876,0.019223883748054504,-0.021548651158809662,-0.0058013685047626495
1772527347629618000,9.873617919921875,0.013882415369153023,-0.013253078795969486,-0.0062651801854372025
1772527347639615700,9.88361572265625,0.008856764994561672,-0.010124397464096546,-0.013883685693144798
1772527347649613800,9.89361376953125,0.0016116001643240452,-0.005568458698689938,-0.017841409891843796
1772527347659612000,9.90361181640625,-0.007064445875585079,-0.007860641926527023,-0.016324473544955254
1772527347669608700,9.913608642578126,-0.014323007315397263,-0.0035837723407894373,-0.014760530553758144
1772527347679607000,9.92360693359375,-0.020601676777005196,0.005581496749073267,-0.01759413443505764
1772527347689604900,9.93360498046875,-0.023187795653939247,0.01141175627708435,-0.013480059802532196
1772527347699603000,9.94360302734375,-0.01605318672955036,0.015291716903448105,-0.007229621056467295
1772527347709601000,9.95360107421875,-0.017905227839946747,0.013161269016563892,-0.009883128106594086
1772527347719598800,9.963598876953125,-0.011526424437761307,0.0032252809032797813,-0.00611528754234314
1772527347729596200,9.97359619140625,-0.009697322733700275,0.0028879595920443535,-0.014539554715156555
1772527347739594000,9.983593994140625,-0.011684573255479336,0.0030874302610754967,-0.011815674602985382
1772527347749592000,9.993592041015624,-0.012633192352950573,-0.00551005220040679,-0.0031596014741808176
1772527347759590100,10.003590087890625,-0.011275512166321278,-0.002869261661544442,-0.0005955100059509277
1772527347769588000,10.013587890625,-0.011320252902805805,0.005226851906627417,-0.004797822795808315
1772527347779586000,10.0235859375,-0.009958845563232899,0.009013334289193153,-0.005677464883774519
1772527347789584100,10.033584228515625,-0.002571084536612034,0.008153766393661499,-0.006185463164001703
1772527347799581000,10.043580810546874,-0.0006083343178033829,0.002679373137652874,-0.009412415325641632
1772527347809579000,10.0535791015625,0.006087726913392544,-0.00817309133708477,-0.01284236740320921
1772527347819577000,10.0635771484375,0.007062177639454603,-0.007194380275905132,-0.010056434199213982
1772527347829575200,10.0735751953125,0.008386528119444847,-0.0077903312630951405,-0.008652415126562119
1772527347839573200,10.0835732421875,0.013497401028871536,-0.009450012817978859,-0.0014237971045076847
1772527347849571000,10.093571044921875,0.011277844198048115,-0.008649272844195366,-0.000017937272787094116
1772527347859568000,10.103568115234374,0.009081801399588585,-0.010163012892007828,0.0026271147653460503
1772527347869566000,10.11356591796875,0.00962318666279316,-0.013361193239688873,0.003079630434513092
1772527347879564000,10.12356396484375,0.009233299642801285,-0.005259058438241482,-0.0011364198289811611
1772527347889562000,10.13356201171875,0.005119438748806715,-0.0033316921908408403,-0.009343083947896957
1772527347899560000,10.143559814453125,0.00411063339561224,-0.008843636140227318,-0.010898370295763016
1772527347909558000,10.15355810546875,0.0024322718381881714,-0.011567290872335434,-0.008444156497716904
1772527347919556000,10.16355615234375,-0.0025864550843834877,-0.010325724259018898,-0.009859893471002579
1772527347929553200,10.17355322265625,-0.002053404226899147,-0.004659377504140139,0.00028703873977065086
1772527347939551200,10.18355126953125,-0.003893914632499218,-0.008172353729605675,0.009963368065655231
1772527347949549000,10.193549072265625,-0.0032901382073760033,-0.0020449142903089523,0.013182485476136208
1772527347959547100,10.203547119140625,0.0026364601217210293,0.004640951287001371,0.012906849384307861
1772527347969545200,10.213545166015624,0.008296629413962364,0.0023645255714654922,0.011062522418797016
1772527347979543000,10.22354296875,0.008586913347244263,0.0005634301342070103,0.01786237210035324
1772527347989540000,10.2335400390625,0.011457152664661407,-0.011664697900414467,0.023202186450362206
1772527347999538200,10.2435380859375,0.007152685895562172,-0.01198720745742321,0.026228338479995728
1772527348009536000,10.253535888671875,0.01045424584299326,-0.010381119325757027,0.022175004705786705
1772527348019534000,10.2635341796875,0.009406824596226215,0.0013972437009215355,0.009660545736551285
1772527348029532200,10.2735322265625,0.010269878432154655,0.01673196814954281,-0.0034329756163060665
1772527348039530000,10.283530029296875,0.011501857079565525,0.006487321574240923,-0.010396609082818031
1772527348049527300,10.29352734375,0.008450292982161045,-0.006883833557367325,-0.010055546648800373
1772527348059525000,10.303525146484375,0.006767707876861095,-0.011875130236148834,-0.01114637777209282
1772527348069523200,10.313523193359375,0.009446239098906517,-0.016619734466075897,-0.012557253241539001
1772527348079521300,10.323521240234374,0.006353244185447693,-0.012706486508250237,-0.01670086570084095
1772527348089519000,10.33351904296875,-0.002111690118908882,0.002143915742635727,-0.024019164964556694
1772527348099517200,10.34351708984375,-0.011166438460350037,0.015656262636184692,-0.025668993592262268
1772527348109515300,10.353515380859376,-0.019665077328681946,0.019658928737044334,-0.026791783049702644
1772527348119512000,10.363511962890625,-0.028310496360063553,0.02377883903682232,-0.025157667696475983
1772527348129510100,10.37351025390625,-0.03295668959617615,0.02749001979827881,-0.02410784922540188
1772527348139508000,10.383508056640625,-0.03514447435736656,0.030872497707605362,-0.020250525325536728
1772527348149506000,10.393506103515625,-0.03645722568035126,0.03277669474482536,-0.01745567098259926
1772527348159504100,10.403504150390624,-0.03269524499773979,0.030140962451696396,-0.010503490455448627
1772527348169502000,10.413501953125,-0.01983807049691677,0.016751348972320557,-0.0045472197234630585
1772527348179499300,10.423499267578125,-0.011564427986741066,0.008854810148477554,-0.003724835580214858
1772527348189497000,10.4334970703125,0.0011308612301945686,0.006493491120636463,-0.00430338503792882
1772527348199495200,10.4434951171875,0.008617539890110493,0.0036135483533143997,-0.011981278657913208
1772527348209493200,10.4534931640625,0.003514657262712717,0.0005793035961687565,-0.013568145222961903
1772527348219491000,10.463490966796876,0.007770921103656292,0.0033399369567632675,-0.013004087843000889
1772527348229489200,10.4734892578125,0.004542369395494461,0.0005701426416635513,-0.013460176065564156
1772527348239487200,10.4834873046875,0.006987417116761208,-0.003640847746282816,-0.0059918733313679695
1772527348249484000,10.493484130859375,0.004535712767392397,-0.005144789349287748,0.004736981354653835
1772527348259482000,10.503482177734375,0.0025322167202830315,-0.0069837020710110664,0.01059726718813181
1772527348269480000,10.51347998046875,0.0033960328437387943,-0.011455210857093334,0.01288068387657404
1772527348279478000,10.52347802734375,0.0010753544047474861,-0.012560156174004078,0.01516967173665762
1772527348289476000,10.53347607421875,0.00018197763711214066,-0.0028529781848192215,0.015931423753499985
1772527348299474000,10.543473876953126,-0.004186938516795635,0.003881623037159443,0.005845500156283379
1772527348309471200,10.55347119140625,-0.006690767593681812,0.015199918299913406,-0.0014827423729002476
1772527348319469000,10.563468994140624,-0.00878614280372858,0.019357645884156227,-0.008113481104373932
1772527348329467100,10.573467041015626,-0.01206046249717474,0.015668082982301712,-0.018420245498418808
1772527348339465200,10.58346533203125,-0.014095650054514408,0.011407291516661644,-0.024908239021897316
1772527348349463000,10.593463134765624,-0.010850816033780575,0.0006132251583039761,-0.026989543810486794
1772527348359461000,10.603461181640625,-0.017222430557012558,-0.009166700765490532,-0.024365797638893127
1772527348369459200,10.613459228515625,-0.019018348306417465,-0.0048567974008619785,-0.018241148442029953
1772527348379456000,10.6234560546875,-0.023105235770344734,-0.002045032102614641,-0.011072984896600246
1772527348389454000,10.6334541015625,-0.021207010373473167,-0.0020371684804558754,-0.0008938289247453213
1772527348399452000,10.643451904296874,-0.023835549131035805,-0.004468368366360664,0.006480996962636709
1772527348409450000,10.653449951171876,-0.019480673596262932,-0.0036219940520823,0.014229553751647472
1772527348419448000,10.663447998046875,-0.012330619618296623,-0.012021603994071484,0.018467441201210022
1772527348429446000,10.67344580078125,-0.0007941145449876785,-0.012837795540690422,0.01622455008327961
1772527348439443200,10.683443115234375,0.004997727926820517,-0.01234031654894352,0.0050310175865888596
1772527348449441300,10.693441162109375,0.01194736361503601,-0.0163764338940382,0.0023623965680599213
1772527348459439000,10.703439208984374,0.01747874915599823,-0.0295561533421278,0.0003924560733139515
1772527348469437200,10.713437255859375,0.011375395581126213,-0.03222919628024101,0.004583871923387051
1772527348479435000,10.72343505859375,0.006947091780602932,-0.029605718329548836,0.007141306065022945
1772527348489433000,10.73343310546875,0.008424460887908936,-0.029259076341986656,0.0022321678698062897
1772527348499430100,10.74343017578125,0.007862000726163387,-0.020901011303067207,-0.0024552620016038418
1772527348509428000,10.753427978515624,0.002684242557734251,-0.013028102926909924,-0.012086561881005764
1772527348519426000,10.763426025390626,-0.006578497588634491,-0.006741710938513279,-0.0082422886043787
1772527348529424100,10.773424072265625,-0.0083434097468853,0.0006305198185145855,0.0027997088618576527
1772527348539422000,10.783421875,-0.010614553466439247,-0.0035620946437120438,0.04649019613862038
1772527348549420000,10.793419921875,-0.007025106810033321,0.009837212041020393,0.05750454589724541
1772527348559417900,10.80341796875,-0.003715064376592636,0.016959570348262787,0.03355979546904564
1772527348569415200,10.813415283203126,0.0023058862425386906,-0.0038786830846220255,-0.003927458077669144
1772527348579413200,10.823413330078125,0.0011239759624004364,-0.02697255089879036,-0.013538805767893791
1772527348589411000,10.8334111328125,-0.0017516687512397766,-0.036429453641176224,0.00199321610853076
1772527348599409200,10.8434091796875,-0.0052598509937524796,-0.026911314576864243,0.008281204849481583
1772527348609407200,10.8534072265625,-0.02008129470050335,0.002011795062571764,0.0034461701288819313
1772527348619405000,10.863405029296874,-0.018544916063547134,0.012095320969820023,-0.010506663471460342
1772527348629402000,10.873402099609375,-0.019344434142112732,0.012291664257645607,-0.017010636627674103
1772527348639400000,10.88339990234375,-0.025077687576413155,0.01188366673886776,-0.012342114001512527
1772527348649398000,10.89339794921875,-0.03225269913673401,0.012633532285690308,-0.004515683278441429
1772527348659396000,10.90339599609375,-0.03407536819577217,0.023216933012008667,0.017606664448976517
