time,seconds_elapsed,z,y,x
1772480079517294800,0.073294921875,2.7460747776582837,-0.8822913688182831,1.8087518419697879
1772480079527291600,0.083291748046875,2.2060306198626756,-0.6643705024272203,1.9092171262815594
1772480079537290000,0.0932900390625,1.7668366540431975,-0.3107540483891964,1.8303794441491363
1772480079547288000,0.1032880859375,1.4163959074318409,-0.1049959134787321,1.563527958111465
1772480079557286000,0.113285888671875,0.9608087329551577,0.12375380544066428,1.5237874838754535
1772480079567283000,0.123282958984375,0.5194382998794317,0.3493973750382662,1.6749439677655695
1772480079577280800,0.13328076171875,0.2691977569028735,0.4337953216463327,1.8089970489025116
1772480079587278800,0.14327880859375,0.13338701844364403,0.4684884493649006,1.8371701272025702
1772480079597277000,0.15327685546875,0.056824295505881306,0.3899760536640882,1.5741735630273819
1772480079607273700,0.163273681640625,0.08641980782449245,0.12000468204021453,1.0545794880643486
1772480079617271800,0.173271728515625,0.30734803933799265,-0.23807693471312522,0.5775260394498706
1772480079627270000,0.183269775390625,0.5796966614872217,-0.6001765549361705,0.18496464546769856
1772480079637267000,0.193266845703125,0.8043354379564523,-0.8760515976458787,-0.04684124615192413
1772480079647265000,0.20326513671875,1.0462389452204108,-1.0091220974862576,-0.15616262161433697
1772480079657262800,0.213262939453125,1.2647989862978457,-1.1298644461512566,-0.2259393376737833
1772480079667261000,0.223260986328125,1.4286401797160506,-1.2704694331496953,-0.20984043578803538
1772480079677257700,0.2332578125,1.6517250047415495,-1.336465461626649,-0.23448797031044957
1772480079687255800,0.243255859375,1.6198445963561534,-1.3527864818304776,-0.4964987383186817
1772480079697254000,0.25325390625,1.393032567501068,-1.1858394313514231,-0.604819412305951
1772480079707251700,0.263251708984375,1.1108341669887303,-1.0924918700903654,-0.6364791636779904
1772480079717249000,0.2732490234375,0.8012558843806386,-0.9994950219631195,-0.7269194591902196
1772480079727246800,0.283246826171875,0.5068269478484988,-0.7008166112929582,-0.8817619381166995
1772480079737245000,0.293244873046875,0.3917623525589704,-0.5540519326210022,-1.150850243295729
1772480079747242000,0.303241943359375,0.582292230938375,-0.581126402029395,-1.3931560477502642
1772480079757239800,0.31323974609375,0.8607461842253804,-0.5315197828173637,-1.4886881134435535
1772480079767238000,0.32323779296875,1.0423822697922587,-0.4885685298413038,-1.581823493258655
1772480079777235700,0.333235595703125,1.1366700345128773,-0.3624976796299219,-1.5165386817909776
1772480079787232800,0.343232666015625,1.186276069203019,-0.24077801036536692,-1.379367176372558
1772480079797230800,0.35323095703125,1.1684557503521442,0.009672083708643912,-1.1664486483134329
1772480079807229000,0.36322900390625,1.0445622441798448,0.10950842246711254,-1.1330287554010747
1772480079817227000,0.37322705078125,0.9260270501703023,0.17091536958813666,-1.2096524147458374
1772480079827223800,0.383223876953125,0.8315265194818378,0.19721534749269484,-1.3502932037100195
1772480079837222000,0.393221923828125,0.7113771682739257,0.14484920043945312,-1.5106070997849106
1772480079847220000,0.403219970703125,0.6008098844036459,0.10575754550099373,-1.54636055021137
1772480079857217800,0.4132177734375,0.5034393512368202,0.08804010250270367,-1.5357552773058414
1772480079867214800,0.42321484375,0.3894537833556533,0.12821429198086262,-1.3953329533979295
1772480079877212700,0.433212646484375,0.3059159607082605,0.10780395663678645,-1.1471461280807853
1772480079887210800,0.443210693359375,0.2697460384353995,0.008328267884254455,-0.8999702333718538
1772480079897208000,0.4532080078125,0.34511925932765003,-0.2114554697692394,-0.706100689175725
1772480079907206000,0.463205810546875,0.45889673741608855,-0.5293956302702426,-0.6358335592508315
1772480079917204000,0.473203857421875,0.42554947134852406,-0.5303419712096452,-0.5629042243793606
1772480079927201800,0.483201904296875,0.26159108129143716,-0.30723873374462124,-0.5737319078639149
1772480079937198800,0.49319873046875,-0.11700900735557078,0.10670271739661694,-0.47751083699315783
1772480079947197000,0.503197021484375,-0.9014362142711877,0.47030163626670834,-0.4666895832493901
1772480079957194800,0.51319482421875,-1.649717172050476,0.8094207783967257,-0.3686921503558755
1772480079967192800,0.52319287109375,-2.3242571863144637,1.1683803470283747,-0.07511749256551266
1772480079977190000,0.53318994140625,-3.0421219630420206,1.7069751827985047,0.3811915664449334
1772480079987188000,0.54318798828125,-3.5953830375462767,2.2889883045345543,0.5203396326333284
1772480079997186000,0.55318603515625,-3.8557588978290553,2.532103817936778,0.33812764687463637
1772480080007182800,0.563182861328125,-3.8634073667556046,2.4797335792303086,0.14696999198570845
1772480080017181000,0.573180908203125,-3.631963001924753,2.262529921197891,-0.11002645499184727
1772480080027178800,0.5831787109375,-3.1593647791534663,1.8772984317123889,-0.316022490311414
1772480080037176800,0.5931767578125,-2.561085582271218,1.3976765939146278,-0.2806377270668745
1772480080047174000,0.603173828125,-1.8660177437633274,0.981080828872323,-0.027323037341982125
1772480080057171700,0.613171630859375,-1.235851708754897,0.6650994012236595,0.432580685159564
1772480080067169800,0.623169677734375,-0.8317916001588106,0.2274327911019325,0.8860404922187328
1772480080077167900,0.63316796875,-0.6081207919389009,-0.13075403959155082,1.2143999015338718
1772480080087165000,0.6431650390625,-0.479789595580101,-0.259054840812087,1.3473399068623781
1772480080097163000,0.6531630859375,-0.2715659473389387,-0.3775590551614761,1.4018413123786448
1772480080107160800,0.663160888671875,-0.18961217901259658,-0.4686421786218881,1.6267080523848532
1772480080117158000,0.673157958984375,-0.2838356463253498,-0.4564782780975103,1.8281360491365193
1772480080127155700,0.68315576171875,-0.40495705743581056,-0.40340369051396846,1.7876207911357282
1772480080137153800,0.69315380859375,-0.5877879057452082,-0.46221594496667384,1.54118490113914
1772480080147152000,0.70315185546875,-0.8279729186534881,-0.4368307438194752,1.4324109304264188
1772480080157149000,0.71314892578125,-1.0863067517146467,-0.4196311872154474,1.3059389520682394
1772480080167147300,0.723147216796875,-1.2247092602327465,-0.5388917728900909,1.2822193460457025
1772480080177145300,0.733145263671875,-1.249122985999286,-0.693815792620182,1.3678241842254995
1772480080187143400,0.743143310546875,-1.1622791075438261,-0.8665244753658771,1.4417301090441643
1772480080197140200,0.75314013671875,-0.9932961673229932,-1.0224182169109581,1.4707564431726932
1772480080207138300,0.76313818359375,-0.7573451387226581,-1.1933254031926392,1.4769628965973853
1772480080217136000,0.77313623046875,-0.5307558127075434,-1.3132763092190027,1.5397504844218493
1772480080227134200,0.78313427734375,-0.2961655510663986,-1.3423019126951694,1.5230888340868054
1772480080237131300,0.79313134765625,-0.002469312722980976,-1.385803785291314,1.3799514060012996
1772480080247129000,0.803129150390625,0.3002437602907419,-1.4450339728951453,1.0390895118571817
1772480080257127200,0.813127197265625,0.5807040849640965,-1.4917261659651995,0.5730677448667586
1772480080267124200,0.823124267578125,0.8041840467870235,-1.5650433311104774,0.11964695464372634
1772480080277122300,0.833122314453125,1.0030360555708409,-1.7240099042296408,-0.30348522642999887
1772480080287120400,0.843120361328125,1.1119076414391398,-1.8035715167224406,-0.527496518650651
1772480080297118200,0.8531181640625,1.0059770774587988,-1.8179589385151862,-0.5297841911964118
1772480080307115300,0.863115234375,0.8597568809270858,-1.7674936566472053,-0.4434636059626937
1772480080317113000,0.873113037109375,0.6615706425756216,-1.6652309675246477,-0.4143088231489062
1772480080327111200,0.883111083984375,0.3443254786014557,-1.5201315917164087,-0.4279151775665581
1772480080337109200,0.893109130859375,-0.04082008616626263,-1.3756371960639953,-0.5252310579366982
1772480080347106300,0.903106201171875,-0.39446225916743277,-1.2001684009552,-0.6767649968370795
1772480080357104400,0.9131044921875,-0.6665761957779527,-1.1163315953612327,-0.9116187317200004
1772480080367102200,0.923102294921875,-0.5420984599769115,-1.06941319231987,-1.0352036103345452
1772480080377099300,0.933099365234375,-0.37505876277834177,-1.005829485681653,-1.147303072208166
1772480080387097300,0.943097412109375,-0.44161037931144237,-0.8097381737828254,-1.2282691446714102
1772480080397095200,0.95309521484375,-0.5476087478309869,-0.6102344230920076,-1.2758100635252891
1772480080407093200,0.96309326171875,-0.7773971621483564,-0.37058629353940487,-1.2480481963746248
1772480080417090300,0.97309033203125,-1.0178460866898298,-0.11363631605207919,-1.1952804827831685
1772480080427088400,0.98308837890625,-1.1563295514896512,0.1110825399160385,-1.2414077354468405
1772480080437086500,0.99308642578125,-1.2016983870014548,0.31515549821853633,-1.2420851963169872
1772480080447084300,1.003084228515625,-1.0875693189963698,0.3731237030625343,-1.218782062140852
1772480080457081300,1.013081298828125,-0.7629565488636493,0.4711819262325763,-1.1527496471762657
1772480080467079200,1.0230791015625,-0.31822453040033577,0.41477439483404155,-1.2737760734796524
1772480080477077200,1.0330771484375,0.11978197920024394,0.28636896419525143,-1.5721781514264643
1772480080487075300,1.043075439453125,0.4970230544537306,0.18294833720922468,-1.714385605185479
1772480080497072000,1.053072021484375,0.983700948242843,0.0029611878931522367,-1.6429451936975121
1772480080507070200,1.0630703125,1.318253513109684,-0.23368191462457177,-1.4769026908427476
1772480080517068000,1.073068115234375,1.4888225534781814,-0.4599783951729536,-1.0116896098867059
1772480080527065300,1.0830654296875,1.426757142448425,-0.5189420407950878,-0.7197004677221178
1772480080537063200,1.093063232421875,1.1023989315986633,-0.2277431722253561,-0.5979375438377261
1772480080547061200,1.103061279296875,0.4380111857756972,0.34124212563335893,-0.25523250604495407
1772480080557059300,1.113059326171875,-0.38962534053027625,0.6106868430346251,-0.08739274450987577
1772480080567056100,1.12305615234375,-1.2970078959852456,0.5349269609123468,-0.191316060321033
1772480080577054200,1.13305419921875,-2.1245728183597326,0.7355243520587682,-0.209408474111557
1772480080587052300,1.14305224609375,-2.9282392710134384,1.1321738921374083,-0.1528697175487876
1772480080597049300,1.15304931640625,-3.5907027707755566,1.5547387947171925,-0.06392199868187308
1772480080607047400,1.16304736328125,-4.002157665798068,2.0122212814211844,0.05060425194725394
1772480080617045200,1.173045166015625,-4.124637798041105,2.2975737620502708,0.13893135469779372
1772480080627043300,1.183043212890625,-3.889374751704931,2.339384028297663,0.351848275321722
1772480080637040000,1.1930400390625,-3.4480709541246295,2.1928689404726027,0.8510670862540602
1772480080647038200,1.2030380859375,-2.855020305545628,1.9319068047344683,1.4978477175854146
1772480080657036300,1.213036376953125,-2.122466785991192,1.591823786008358,2.0115607716858386
1772480080667034000,1.2230341796875,-1.17827338001132,1.233335926541686,2.4223252002261577
1772480080677031200,1.23303125,-0.27121464968323705,0.8267074287623166,2.647617033776641
1772480080687029200,1.243029296875,0.3690244510501623,0.5025391875267029,2.7417653900265693
1772480080697027300,1.25302734375,0.841792769691348,0.17182956182360648,2.804659653095901
1772480080707025400,1.263025390625,1.2400123355656862,0.016757073533535,2.9614772314876316
1772480080717022200,1.273022216796875,1.6848691494524477,-0.1794195785611868,3.0913363680660724
1772480080727020300,1.283020263671875,2.0590330092176794,-0.4023597344189882,3.0956770276188847
1772480080737018400,1.293018310546875,2.2496640098839995,-0.5830506480902433,2.9317268208682536
1772480080747015200,1.30301513671875,2.346501459087431,-0.6414636740922928,2.493739892750978
1772480080757013200,1.31301318359375,2.406430442610383,-0.570303979241848,1.8889333399266004
1772480080767011000,1.323010986328125,2.2342069130331277,-0.3436357427716255,1.4488937170632183
1772480080777009200,1.333009033203125,1.885110859028995,-0.19729776507914065,0.9667425069183111
1772480080787006200,1.343006103515625,1.442154910327494,-0.11833353395760059,0.534622717268765
1772480080797004300,1.35300439453125,0.9082137455821037,-0.04458382261395454,0.3277284179352224
1772480080807002400,1.36300244140625,0.3325847719252109,-0.07660919242799281,0.11844342407286167
1772480080817000200,1.373000244140625,-0.17253098809123038,-0.07650865466296672,-0.06933350233659148
1772480080826997200,1.382997314453125,-0.4675912082642317,-0.13624679178893565,-0.1535090383656323
1772480080836995000,1.3929951171875,-0.5792611926794051,-0.22437691066265106,-0.21513576571717857
1772480080846993200,1.4029931640625,-0.565572274544835,-0.31374387785494323,-0.3036572219960391
1772480080856990500,1.412990478515625,-0.44446050804555415,-0.41667993619441984,-0.13742898731082678
1772480080866988300,1.42298828125,-0.18232436009198427,-0.5334633181005716,-0.04869841832593083
1772480080876986400,1.432986328125,0.10836159051954745,-0.6526461623638868,-0.033511370588093996
1772480080886984400,1.442984375,0.31975276288092136,-0.7629425203382968,0.07877849929109215
1772480080896981200,1.452981201171875,0.5115057533144951,-0.8321306228548287,0.09104629858136176
1772480080906979300,1.462979248046875,0.7087894898682833,-0.8262842349141836,0.10653320604860782
1772480080916977200,1.47297705078125,0.7596569227963685,-0.6827373492449521,0.15997633468359707
1772480080926975200,1.482975341796875,0.5715753143519163,-0.44964463268518445,0.07054828495383263
1772480080936972000,1.492971923828125,0.42327918832898137,-0.2774012293636799,-0.10303250445127486
1772480080946970000,1.50297021484375,0.33709260473847386,-0.06365384926497936,-0.20869243479669092
1772480080956968200,1.51296826171875,0.24090777422487733,0.2083925750672817,-0.24588877750784158
1772480080966965200,1.52296533203125,0.21348113037794827,0.5617810655683279,-0.2585053902357817
1772480080976963300,1.53296337890625,0.27481296643614767,0.7786258271604776,-0.39134558845162387
1772480080986961200,1.542961181640625,0.36759821763932704,0.8959761952996254,-0.4276593031093478
1772480080996959200,1.552959228515625,0.6152087043732405,0.9743050511270761,-0.40717940966039895
1772480081006956300,1.562956298828125,0.9724579619556665,0.931516295236349,-0.41170740847885606
1772480081016954000,1.5729541015625,1.243895606739819,0.7724012535572051,-0.3190083742544055
1772480081026952200,1.5829521484375,1.4790420409590006,0.5599421597033739,-0.09693827922940254
1772480081036950300,1.5929501953125,1.6571411845713853,0.3836813374340534,0.07422580442279576
1772480081046947300,1.602947265625,1.6326315972149372,0.22403321179151534,0.22166502135545013
1772480081056945400,1.6129453125,1.4688430107668042,0.08048457255661487,0.39738662218153475
1772480081066943200,1.622943115234375,1.2122522219806908,-0.0912543883740902,0.5556257578089833
1772480081076940300,1.632940185546875,1.0196844080328942,-0.24044717097580431,0.6357879665434361
1772480081086938000,1.642938232421875,0.8615285667747259,-0.3761217158347368,0.49541298890858887
1772480081096936200,1.652936279296875,0.6688251437485218,-0.5469020608663558,0.23498802878707645
1772480081106934300,1.662934326171875,0.4803869769513607,-0.7113777527958154,0.026128128468990323
1772480081116931300,1.672931396484375,0.3200298262566328,-0.8407312779396772,-0.08258271387964486
1772480081126929400,1.682929443359375,0.16608488069176672,-0.8979542173743248,-0.12508943795859814
1772480081136927200,1.69292724609375,0.05975275017321109,-0.8527584003418683,-0.13137392505556345
1772480081146925300,1.70292529296875,0.034762685823440546,-0.8101046690076589,-0.19697773934453724
1772480081156922400,1.71292236328125,0.021605098086595532,-0.6307365283727645,-0.15811024855077266
1772480081166920200,1.722920166015625,0.11650777983516454,-0.4278413816779852,-0.20422785660326478
1772480081176917800,1.732917724609375,0.4230354427009821,-0.2883534160107374,-0.41102381012886763
1772480081186914800,1.742914794921875,0.7757984947800636,-0.18363398138582707,-0.633031361311674
1772480081196912600,1.75291259765625,1.1319079346776009,-0.08623276081979274,-0.8404498306497931
1772480081206911000,1.762910888671875,1.413053611266613,0.1486363177627325,-0.9218377817869186
1772480081216909000,1.772908935546875,1.597763697451353,0.25912322987318037,-1.0421820710450411
1772480081226905900,1.78290576171875,1.6573229708790778,0.331902050358057,-1.0297001906126737
1772480081236904000,1.792904052734375,1.5838959156185388,0.30166122587323185,-1.0208733255565166
1772480081246901800,1.80290185546875,0.9691954530283808,0.6283925955951214,-0.9052128102004527
1772480081256899800,1.81289990234375,-0.3462342348322272,1.5550041676551103,-0.9235928087607026
1772480081266897000,1.82289697265625,-1.9034411732286214,3.013500848713517,-1.130301960785687
1772480081276894700,1.832894775390625,-3.4916356628239154,3.646946051523089,-1.127687102112174
1772480081286892800,1.842892822265625,-4.523314460033178,3.4401123963356017,-0.9626236734226346
1772480081296889900,1.852889892578125,-4.596562067073584,2.773627678233385,-0.740310417291522
1772480081306888000,1.862887939453125,-3.7496570689350364,1.7236165209978818,-0.6764201289221644
1772480081316886000,1.872885986328125,-2.9345094373241065,0.5532184044063091,-0.521323382973671
1772480081326883800,1.8828837890625,-2.2865713065207003,-0.2968804213374853,0.19212065470218656
1772480081336881000,1.892880859375,-1.7372914106070994,-0.917457959267497,1.119941602551937
1772480081346878700,1.902878662109375,-1.3544427246049047,-1.5320990928858518,1.9381150117248296
1772480081356876800,1.912876708984375,-1.1402636750906705,-1.8576140725553034,2.422089199513197
1772480081366875000,1.922875,-1.0674503678143024,-1.8578449587017296,2.633798644043505
1772480081376872000,1.932871826171875,-1.3845032240867614,-1.729526621824503,2.1372724331960082
1772480081386870000,1.9428701171875,-2.015741272240877,-1.4594301625162363,1.4466989834979176
1772480081396867800,1.952867919921875,-2.155948784354329,-1.2068132457971572,1.0701733630374073
1772480081406865000,1.962864990234375,-2.114490108023584,-1.1947416997313498,0.641121728786826
1772480081416863000,1.972863037109375,-2.0979387861952183,-1.2855021671086548,0.43463469507992264
1772480081426860800,1.98286083984375,-2.132514717274904,-1.3475392288267611,0.5564743374623358
1772480081436859000,1.99285888671875,-2.1743682381421325,-1.2273346403002738,0.828530844797194
1772480081446855700,2.002855712890625,-2.263000753580034,-1.1088239962100983,0.9585669453777372
1772480081456853800,2.012853759765625,-2.285059440653026,-1.1787959425806998,0.8214080071799457
1772480081466851800,2.022851806640625,-2.239112805253267,-1.279368194398284,0.6244215000070631
1772480081476850000,2.032849853515625,-2.211449430041015,-1.3011772906243801,0.5498761082410812
1772480081486847000,2.042846923828125,-2.2311773360788822,-1.30322896245718,0.41435426972582934
1772480081496844800,2.0528447265625,-2.284852519904077,-1.2118331197857857,0.3590494388721883
1772480081506843000,2.0628427734375,-2.227650038735568,-1.1408008507072924,0.3690887484580278
1772480081516840000,2.07283984375,-2.0533350898370144,-1.0532289502382277,0.3859181565754115
1772480081526837800,2.082837646484375,-1.8010104340627788,-1.0194891777217387,0.4126221852362156
1772480081536835800,2.0928359375,-1.5418626542702316,-1.025695631146431,0.4634963401660323
1772480081546833700,2.102833740234375,-1.3317480777159332,-1.0025509024024009,0.48930605033561586
1772480081556831000,2.1128310546875,-1.1294950283169747,-1.0379998169243334,0.5148756681390106
1772480081566829000,2.1228291015625,-1.0327964030623435,-1.11249479367733,0.46600876137837766
1772480081576827000,2.132826904296875,-1.0076318589285016,-1.173997017866373,0.5345373770728707
1772480081586825000,2.142824951171875,-0.9710299749791622,-1.2277286080539225,0.7036898286417126
1772480081596821800,2.15282177734375,-1.0409785404741763,-1.3581430404275654,0.6424680288292467
1772480081606819800,2.16281982421875,-1.2212731483042238,-1.508522986987233,0.4788143208071589
1772480081616818000,2.17281787109375,-1.4362760814219713,-1.5776649122744797,0.24128508310467003
1772480081626814700,2.182814697265625,-1.6660183185100554,-1.4683686712533235,-0.06903276582434772
1772480081636812800,2.192812744140625,-1.9042577503085136,-1.2629010437220334,-0.3652534080788493
1772480081646811000,2.202810791015625,-2.124858649563789,-1.0980629482209683,-0.5504278969049453
1772480081656809000,2.21280908203125,-2.248115319137275,-0.9500234273076057,-0.67813482388556
1772480081666806000,2.222805908203125,-2.291559031805396,-0.9083668903172015,-0.8079973214648664
1772480081676803800,2.232803955078125,-2.3021043912172314,-0.9209943167001008,-0.7368424489200115
1772480081686802000,2.242802001953125,-2.295751807320118,-0.8486509650230407,-0.41596828079372644
1772480081696799700,2.2527998046875,-2.2508517583638428,-0.7897977940380573,-0.08132949894815683
1772480081706796800,2.262796875,-2.137927097712457,-0.7640373298376798,0.09030643999949096
1772480081716795000,2.272794921875,-1.9316192199647426,-0.7712766334414481,0.15661679512262344
1772480081726792700,2.282792724609375,-1.7137421927154064,-0.8651467572718858,0.12746128165647386
1772480081736790000,2.2927900390625,-1.5529314530342817,-0.9177736010879277,0.14865692215934395
1772480081746787800,2.302787841796875,-1.520229791393876,-0.9109615829855203,0.1754563740186393
1772480081756786000,2.312785888671875,-1.5839686885938047,-0.9097393477141856,0.22816417411640286
1772480081766784000,2.322783935546875,-1.6362340056210756,-0.9188485368430614,0.32317674598023294
1772480081776780800,2.33278076171875,-1.6587880749955772,-0.9407026412546634,0.3903337810605764
1772480081786779000,2.34277880859375,-1.6654247365310788,-0.908235372892022,0.36313261653259393
1772480081796776700,2.352776611328125,-1.6433663417190312,-0.8575520643591881,0.18976488535627722
1772480081806774800,2.36277490234375,-1.606021822708845,-0.8729074544012546,0.022822072660923003
1772480081816772000,2.372772216796875,-1.5327353449627756,-0.8659107273817062,-0.10898059920072554
1772480081826770000,2.38277001953125,-1.3908938019067048,-0.8910399079412221,-0.1679087351180613
1772480081836768000,2.39276806640625,-1.2081225748300553,-0.9488245729118585,-0.14504530753344297
1772480081846764800,2.402764892578125,-1.0289730453819035,-1.0881430272310972,-0.06327084129676222
1772480081856763000,2.412762939453125,-0.9164011436909436,-1.1608265706479548,0.05355696427300572
1772480081866761000,2.422760986328125,-0.9145520086929202,-1.195791501045227,0.010980535958707332
1772480081876758800,2.4327587890625,-0.9533794597372413,-1.2037760700583457,-0.030556758566200732
1772480081886755800,2.442755859375,-1.036803300616145,-1.187410041669011,-0.06385770127400756
1772480081896753700,2.452753662109375,-1.2534282819777727,-1.136150394552946,-0.041047465181350704
1772480081906751700,2.462751708984375,-1.5565394143983722,-1.0273761315792798,-0.06003142098411917
1772480081916748800,2.472748779296875,-1.8311039590314029,-0.8195119643002748,-0.10384732796549796
1772480081926747000,2.482746826171875,-2.021005768640339,-0.5698743556529283,-0.23465602035373448
1772480081936745000,2.492744873046875,-2.2365303875446316,-0.3105991500884294,-0.43053631985038515
1772480081946742800,2.50274267578125,-2.406869126288593,-0.11147884575724601,-0.5562174400918185
1772480081956739800,2.51273974609375,-2.425841830044985,0.1691974597543478,-0.6617017216093838
1772480081966737700,2.522737548828125,-2.3206708522602915,0.3559399285495281,-0.7421906780801713
1772480081976735700,2.53273583984375,-2.15217920268774,0.40415246305465696,-0.7818510728172957
1772480081986733800,2.54273388671875,-1.9478426250129937,0.42142040871977804,-0.8111034707866609
1772480081996731000,2.55273095703125,-1.6758672200903295,0.37850188896954057,-0.7304775900632142
1772480082006729000,2.56272900390625,-1.358302322642505,0.2819640072345733,-0.6462807189851999
1772480082016727000,2.57272705078125,-1.0470072992444037,0.09568681786358356,-0.46726592183262106
1772480082026723800,2.582723876953125,-0.7179895721510052,-0.0891536167025566,-0.08116495603621006
1772480082036722000,2.592721923828125,-0.3540519228458404,-0.2680097161620855,0.3698617786571383
1772480082046719700,2.6027197265625,0.036707390150427816,-0.5298123943775892,0.6272295431651175
1772480082056717800,2.6127177734375,0.45869829223453995,-0.7688163808077574,0.7346382168740033
1772480082066715000,2.62271484375,0.7718640779405832,-0.7497779183387756,0.9618873219721019
1772480082076713000,2.632712890625,0.9448229360550642,-0.619245412543416,1.0645509931109844
1772480082086711000,2.6427109375,0.896737827321887,-0.43846506702303883,0.9819185948707163
1772480082096708900,2.652708984375,0.6588695669233798,-0.23177461969852445,0.9245227830871939
1772480082106706000,2.662705810546875,0.5489040483385325,-0.047855391630530354,0.8349797286756336
1772480082116703700,2.672703857421875,0.3701344581186771,0.1275263097167015,0.4960702837735414
1772480082126701800,2.682701904296875,0.08862287082672118,0.20098785176873205,0.09375044297352432
1772480082136699000,2.692698974609375,-0.1408592540204525,0.25556875226199627,-0.23680048503652212
1772480082146696700,2.70269677734375,-0.24454583846628664,0.18905425286889074,-0.4855765084184706
1772480082156694800,2.71269482421875,-0.2914297547161579,0.12278291458189487,-0.6218174549885094
1772480082166692900,2.72269287109375,-0.40006460921913384,0.051342064702510834,-0.6354429524980485
1772480082176690700,2.732690673828125,-0.6041600716143846,-0.037600539597868916,-0.46569487312361596
1772480082186688800,2.742688720703125,-0.8585609491407871,-0.0834369926214218,-0.17625132378861308
1772480082196686600,2.7526865234375,-1.1494891840755939,-0.08502630763947963,0.09567658873051405
1772480082206683600,2.76268359375,-1.4411203065827487,-0.09095803577601909,0.37383945011645553
1772480082216681700,2.772681640625,-1.7093521410629153,-0.1864940469920635,0.5431055911928415
1772480082226679600,2.782679443359375,-1.9417370016142725,-0.21990356464087962,0.8379384323507547
1772480082236677600,2.792677734375,-2.0266306227847934,-0.22949030815362928,1.090452180956304
1772480082246674400,2.80267431640625,-1.880515347932279,-0.17783669328391552,1.308747433617711
1772480082256672500,2.812672607421875,-1.5474711418017744,-0.11129121423065662,1.5200810305729509
1772480082266670600,2.822670654296875,-1.2857529269993304,0.10807809740304947,1.6092752715468406
1772480082276668700,2.832668701171875,-0.9683291915878653,0.3125789257287979,1.7165734706185758
1772480082286665700,2.842665771484375,-0.4358902480989694,0.4843073652654886,1.7179199167914687
1772480082296663600,2.85266357421875,0.1346060388445854,0.567715131792426,1.6503670142613351
1772480082306661600,2.86266162109375,0.6550456247210502,0.7197206337273121,1.4984735943987966
1772480082316658400,2.872658447265625,1.1784855614572762,0.8562146782755852,1.227369711613655
1772480082326656500,2.882656494140625,1.6996891174435615,1.0381447783529758,0.9758259770840406
1772480082336654600,2.892654541015625,2.0388526832371947,1.2269769129037857,0.4983851365871727
1772480082346652400,2.90265234375,2.154213631124794,1.2574059534370898,-0.22625220301523805
1772480082356649700,2.912649658203125,2.305848838442564,1.3492267435222864,-0.6996436219908296
1772480082366647800,2.922647705078125,2.3348835020080205,1.2637404171556235,-1.27454954207018
1772480082376645600,2.932645751953125,2.216525710391998,0.939351226645708,-1.9407323546163737
1772480082386643700,2.942643798828125,2.0131910032361744,0.7245932081997394,-2.1798652281232176
1772480082396640500,2.952640625,1.706064497694373,0.46791444886922834,-2.0942077829733488
1772480082406638600,2.962638671875,1.395201728233695,0.19672610267102716,-1.6318481917522847
1772480082416636700,2.97263671875,1.0268772421464323,0.04354220460653305,-1.0735660742156208
1772480082426633500,2.982633544921875,0.6257426656082272,-0.21327450188994407,-0.8048677912674844
1772480082436631600,2.992631591796875,0.24463702388107775,-0.5129688116043806,-0.5567673290595412
1772480082446629600,3.002629638671875,-0.09277326850444077,-0.8009662537842989,-0.40168841102868313
1772480082456627700,3.012627685546875,-0.2890644868895411,-1.0320371091276406,-0.4269755586288869
1772480082466624500,3.02262451171875,-0.3465829021394253,-1.208962532785535,-0.5531830408319831
1772480082476622600,3.03262255859375,-0.2656955940008163,-1.397678347480297,-0.6040190557084977
1772480082486620700,3.04262060546875,-0.09482669390290975,-1.3847808719843626,-0.5960027763828635
1772480082496617500,3.052617431640625,0.11882365556210278,-1.3102122454732656,-0.5918154076956212
1772480082506615600,3.062615478515625,0.3428863857090473,-1.2236977451026438,-0.5941865207411349
1772480082516613600,3.072613525390625,0.5692620689734816,-1.1962719780385493,-0.5552426037102938
1772480082526611500,3.082611572265625,0.7732581626474857,-1.0981605633765459,-0.4210368162296712
1772480082536608800,3.09260888671875,0.801655989614129,-0.9122241502672433,-0.25526085535660387
1772480082546606600,3.102606689453125,0.6165042971417307,-0.6190484286665916,-0.13280176590159534
1772480082556604700,3.112604736328125,0.4972501412078738,-0.29474633191823957,-0.1387529293909669
1772480082566602800,3.122602783203125,0.48796442646831273,-0.03887538183927536,-0.3549645076461136
1772480082576599600,3.132599609375,0.7505246450528502,0.05003682732284069,-0.6681611268818378
1772480082586597600,3.14259765625,1.1682377236872912,0.0682534520149231,-0.6779945386320352
1772480082596595500,3.152595458984375,1.4727686597779392,0.12063479663729668,-0.5427664223663509
1772480082606592800,3.1625927734375,1.52535137219131,0.1819768618285656,-0.29687194577008486
1772480082616590600,3.172590576171875,1.1333201395630836,0.2549573423653841,0.024810908390581605
1772480082626588700,3.182588623046875,0.4735214750960469,0.4111147032827139,0.3058035863749683
1772480082636586800,3.192586669921875,-0.13315847038477657,0.7097814235150813,0.3800384508870542
1772480082646583600,3.20258349609375,-0.6721604256510734,0.979191654124856,0.34635333116725087
1772480082656581600,3.21258154296875,-1.2834145471796392,1.2165630709171293,0.37269846338778734
1772480082666579700,3.222579833984375,-1.9197516720384358,1.344346570265293,0.34384207899868485
1772480082676576500,3.232576416015625,-2.3677175578564404,1.2781547269552946,0.22033114240318535
1772480082686574600,3.24257470703125,-2.5593296785145996,1.205174246418476,0.17181202616691588
1772480082696572400,3.252572509765625,-2.5862960113734004,1.2271323957264422,0.23533479639813304
1772480082706570800,3.26257080078125,-2.6121383086383343,1.2225257787138224,0.17226751484945416
1772480082716567600,3.272567626953125,-2.6314368833482265,1.1978303133964538,0.0075138827614486215
1772480082726565600,3.282565673828125,-2.552346395498514,1.2781021199852227,-0.1972683928541839
1772480082736563700,3.292563720703125,-2.320162902738154,1.1616408096402884,-0.3290970759399235
1772480082746561500,3.3025615234375,-1.9700477348193526,0.9100777858883142,-0.3012061755821109
1772480082756558600,3.31255859375,-1.58056443310827,0.439076476919651,-0.20389760173559188
1772480082766556400,3.322556396484375,-1.1925041499376297,-0.10509703576564788,0.1034324635542929
1772480082776554500,3.332554443359375,-0.8927569409921765,-0.40098143180310725,0.5349065026462078
1772480082786551800,3.3425517578125,-0.639723260165751,-0.6438830101937055,0.878075650819391
1772480082796549600,3.352549560546875,-0.3133025638282299,-0.8368494680702686,1.0532634370297194
1772480082806547700,3.362547607421875,-0.17444003658294677,-0.9715209733664989,1.2363335009224712
1772480082816545800,3.3725458984375,-0.1687149369344115,-1.0330465784311293,1.4294900745436547
1772480082826542600,3.38254248046875,-0.20485212598145006,-0.9790992996662855,1.53071772153005
1772480082836540700,3.392540771484375,-0.41151422399431464,-0.9277467135697602,1.4149839948073029
1772480082846538500,3.40253857421875,-0.704233726260066,-0.8420704175889492,1.061453173226118
1772480082856535600,3.41253564453125,-0.8472679862320422,-0.7112216854512691,0.8212025477357209
1772480082866533600,3.42253369140625,-0.9671320907577872,-0.5988824234724044,0.7030946392275392
1772480082876531700,3.43253173828125,-1.0065452327355742,-0.6409720911830663,0.5845442476488649
1772480082886529800,3.44252978515625,-0.8781587990581988,-0.8037713743329048,0.4365171478256583
1772480082896526600,3.452526611328125,-0.590231499505043,-1.0305629449218512,0.31346257669553157
1772480082906524700,3.462524658203125,-0.19149054010510444,-1.1663830357313156,0.2288524486415088
1772480082916522500,3.4725224609375,0.15310820247977971,-1.2390472899258136,0.23837620992064473
1772480082926520600,3.4825205078125,0.4050423976317048,-1.3288608318418265,0.3573236379928887
1772480082936517600,3.492517578125,0.5632958540454507,-1.3173586100965737,0.5422874066777527
1772480082946515500,3.502515380859375,0.6604436843723058,-1.285446053007245,0.6466250023782253
1772480082956513500,3.512513427734375,0.6975172774866223,-1.2901093686431646,0.5705149916440249
1772480082966510600,3.522510498046875,0.6629676498919725,-1.268161156207323,0.4498569602616131
1772480082976508700,3.5325087890625,0.6231728151202202,-1.1775000575512646,0.3585201543010771
1772480082986506800,3.5425068359375,0.49693771425783634,-1.1039654502630234,0.15149974436983465
1772480082996504600,3.552504638671875,0.33664486097097396,-1.1367150426983832,-0.20382409810796379
1772480083006501600,3.562501708984375,0.17132307360619306,-1.209484510833025,-0.49312180923148985
1772480083016499500,3.57249951171875,-0.035655250748991965,-1.2204799520999192,-0.69409928573668
1772480083026497500,3.58249755859375,-0.31242665777653456,-1.1775725382655857,-0.9003215310275554
1772480083036494800,3.592494873046875,-0.6183171917825937,-1.0835972004950045,-1.157936548294872
1772480083046492700,3.60249267578125,-0.8967068476617336,-0.8974901069939136,-1.2271671747788786
1772480083056490800,3.61249072265625,-1.109814760813117,-0.7329781747072934,-1.2665911304116249
1772480083066488600,3.622488525390625,-1.1612988643348217,-0.5350806901693343,-1.3323245624296367
1772480083076485600,3.632485595703125,-1.024856257712841,-0.35872225274443625,-1.4250073761716484
1772480083086483700,3.642483642578125,-0.7393874572277068,-0.2644154910624027,-1.6075934559397398
1772480083096481500,3.6524814453125,-0.37578853835761544,-0.22849369833171365,-1.773611262744665
1772480083106478600,3.662478515625,-0.01988631146997213,-0.1937619921684265,-1.8594307665884493
1772480083116476400,3.672476318359375,0.19176526539325714,-0.18912556453943252,-1.9304402393132447
1772480083126474500,3.682474609375,0.2870969862088561,-0.27721418235898015,-1.8778497819848357
1772480083136472600,3.69247265625,0.29134236869364977,-0.3724140934884548,-1.6822778177849946
1772480083146469600,3.7024697265625,0.29509646053016186,-0.44562312208414073,-1.4482183020196855
1772480083156467700,3.7124677734375,0.29603549494594333,-0.5066407776266336,-1.163971736805886
1772480083166465500,3.722465576171875,0.3577732814565301,-0.5904927807897329,-0.9162713798314333
1772480083176463000,3.732463134765625,0.38181788164973257,-0.6411123764365911,-0.7335371237643062
1772480083186460000,3.7424599609375,0.4060223485797643,-0.6510089165508747,-0.6557469048582018
1772480083196458000,3.7524580078125,0.44484395440518854,-0.6389929000645875,-0.6979284886360168
1772480083206456000,3.7624560546875,0.5068865690812469,-0.7041174064040183,-0.8446287237696349
1772480083216453000,3.772453125,0.49469344246238467,-0.7180588379949331,-1.0604355206161737
1772480083226451000,3.782450927734375,0.39533495034873484,-0.705427319958806,-1.2192382814757525
1772480083236449000,3.792448974609375,0.2649859844267368,-0.6831961989283561,-1.2840575212582945
1772480083246447000,3.802447021484375,0.16722060672342776,-0.6281272226572037,-1.1970830021604895
1772480083256444000,3.81244384765625,0.05915770688951015,-0.5463046794950962,-0.9706710785388946
1772480083266442000,3.82244189453125,-0.33116321468949317,-0.287363820451498,-0.845423089017719
1772480083276440000,3.832440185546875,-0.9356745839595794,0.2810568292617798,-0.6756487061582506
1772480083286437000,3.84243701171875,-1.5386901617139577,0.9746475809544324,-0.7018497537329793
1772480083296435200,3.852435302734375,-2.124802535462379,1.5708821202665566,-1.0558565222628413
1772480083306433000,3.86243310546875,-2.6334727730900047,2.048514830073714,-1.4120802361898124
1772480083316431000,3.87243115234375,-3.0826044878169894,2.313388586297631,-1.490107917113602
1772480083326428000,3.882427978515625,-3.2377231533363457,2.400806757509708,-1.2791131967239082
1772480083336426000,3.892426025390625,-3.2133930142000318,2.382938507863879,-1.2365608799375594
1772480083346424000,3.902424072265625,-3.1748174920901655,2.166890449607372,-1.2064137250855564
1772480083356422000,3.912421875,-3.019286446377635,1.8383610905528067,-0.968568553301692
1772480083366419200,3.922419189453125,-2.7219828311920162,1.6276140613138674,-0.6190642107576132
1772480083376417000,3.9324169921875,-2.280105909898877,1.4974690935313701,-0.14735241543203592
1772480083386415000,3.9424150390625,-1.6722782556876539,1.3338999950528143,0.43585663809031244
1772480083396412200,3.952412109375,-0.8965507803171873,1.215553017091751,1.010291579657048
1772480083406410000,3.962409912109375,-0.207608731213212,0.9991250196069479,1.3382448923893273
1772480083416408000,3.972407958984375,0.3619304011359811,0.7015367422610521,1.6432295635968446
1772480083426406100,3.98240625,0.9731915369272232,0.5224614470928907,1.985945853435993
1772480083436403000,3.99240283203125,1.4955916092216968,0.3938075946509838,2.280076099282503
1772480083446401000,4.002401123046875,1.8906676163733005,0.2404687982857227,2.7351126541391015
1772480083456398800,4.01239892578125,2.2127152121931313,0.09018763592541218,3.1603345009684563
1772480083466396200,4.022396240234375,2.3981673489168287,-0.29386896456182,3.505045179495215
1772480083476394000,4.03239404296875,2.4835604440420864,-0.6315975291162729,3.8517417711421844
1772480083486392000,4.04239208984375,2.3249168192669747,-0.800147338616848,4.032697473229468
1772480083496390100,4.05239013671875,1.7671110870704054,-0.8255372159391641,3.9430987431079147
1772480083506387000,4.062386962890625,1.0155746346265078,-0.6512094075590372,3.601931436276436
1772480083516385000,4.072385009765625,0.3679091832846403,-0.24619828184843062,3.116376701298356
1772480083526382800,4.0823828125,-0.04244973319470882,0.19322832368314266,2.5912492498666047
1772480083536380200,4.092380126953125,-0.23521453101933001,0.44773909132480616,1.7984782852366565
1772480083546378200,4.102378173828125,-0.2634434311598539,0.6323480552226305,1.0859420100554824
1772480083556376000,4.1123759765625,-0.136031687733531,0.763826317435503,0.5908952241107821
1772480083566374100,4.1223740234375,0.2543535312533379,0.8421177638620138,0.40508346029445524
1772480083576371000,4.132370849609375,0.8186848658263682,0.7873767043709754,0.39468642331212755
1772480083586369000,4.142369140625,1.4918468697354197,0.6810732154250144,0.41234512186050415
1772480083596367000,4.1523671875,2.097965089680254,0.5453489862054586,0.3140520670212805
1772480083606365000,4.162364990234375,2.486055183467269,0.3570902676284313,0.04629705627262592
1772480083616362000,4.172362060546875,2.671519595150649,0.1318313134342432,-0.28909429750591514
1772480083626360000,4.182360107421875,2.711806305092573,-0.172617497330904,-0.5280725649729371
1772480083636358100,4.192358154296875,2.6271365558058024,-0.4881804073065519,-0.6403564435027539
1772480083646355000,4.20235498046875,2.4239272285953164,-0.7503729616224766,-0.7245432315781712
1772480083656353000,4.21235302734375,2.0783377214074132,-1.0265426033645868,-0.8389666063547134
1772480083666351000,4.22235107421875,1.6354992616057396,-1.266801558291912,-0.9826448633186519
1772480083676349000,4.232348876953125,1.1998334699124098,-1.4572311911672353,-1.092393670412898
1772480083686346000,4.242345947265625,0.673116118940711,-1.6173697306752204,-1.2495887038148938
1772480083696344000,4.252343994140625,0.3111801648467779,-1.6460072116166353,-1.2358851726330815
1772480083706342000,4.262341796875,0.0013406009539961815,-1.4877929181694984,-1.2009950610376894
1772480083716339200,4.272339111328125,-0.1532633930414915,-1.3662035972863436,-1.2337572206936775
1772480083726337000,4.2823369140625,-0.25436492943018674,-1.3267963005274535,-1.241822453727573
1772480083736335000,4.292335205078125,-0.45670682615637775,-1.124186400514841,-1.2160273566052318
1772480083746333200,4.302333251953125,-0.719963210311532,-0.8945061227470635,-1.3386309690974652
1772480083756330000,4.312330078125,-0.7999521083056926,-0.7229881110906601,-1.5808306828290224
1772480083766328000,4.322328125,-0.5283014052927494,-0.4579600410878658,-1.9008745376110077
1772480083776326000,4.332325927734375,-0.08867723136246204,-0.3020762364149093,-2.1518688215643165
1772480083786323000,4.342322998046875,0.42758331526368853,-0.13478431802093982,-2.2397502263739706
1772480083796321000,4.352321044921875,0.8491109837502241,0.02782791812419891,-2.1292579074360427
1772480083806319000,4.362319091796875,1.1556290020048618,0.18774550835788248,-1.8055973234616218
1772480083816317200,4.372317138671875,1.4247250520989299,0.27573943363130093,-1.4019868583291768
1772480083826314000,4.38231396484375,1.706202737121284,0.3883873231679201,-1.0140218522265554
1772480083836312000,4.39231201171875,1.8487658724501728,0.47596156172454357,-0.8628089619740843
1772480083846310100,4.40231005859375,1.7881272793531418,0.5103939926803112,-0.9650145140819251
1772480083856308000,4.412307861328125,1.6458049670428037,0.5933955164939165,-1.0497459304280579
1772480083866305000,4.422304931640625,1.472554432505369,0.6502969688892364,-1.068112484984845
1772480083876302800,4.432302734375,1.2998764371588825,0.591270194903016,-1.0399427676856516
1772480083886301000,4.442301025390625,1.2655839991956948,0.5982032090365886,-0.9339157575935125
1772480083896298000,4.452298095703125,1.353335640145838,0.5681500160783529,-0.9085419546231627
1772480083906296000,4.462296142578125,1.2752604668185115,0.4563584511101246,-0.9345093395724892
1772480083916294100,4.472294189453125,0.9838602304577827,0.4024994351506233,-0.6231747148163617
1772480083926292000,4.4822919921875,0.5070470203399657,0.6676707130163908,-0.2109748466454446
1772480083936289000,4.4922890625,-0.23602993905544278,1.1600468184471129,-0.06655804627388716
1772480083946286800,4.502286865234375,-1.164184941165149,1.713216707536578,0.238192962308228
1772480083956285000,4.512284912109375,-2.033155056117475,2.227299033340812,0.5170481898725032
1772480083966282200,4.5222822265625,-2.734553558951616,2.8481279156833885,0.788652277264744
1772480083976280000,4.532280029296875,-3.1132962709397076,3.141656103983521,1.0114036325521767
1772480083986278100,4.542278076171875,-2.9928993747115133,3.0663264299720523,0.8689046485006808
1772480083996276200,4.552276123046875,-2.274024251897633,2.6642139483124017,0.5486315150074661
1772480084006273000,4.56227294921875,-1.120958086118102,2.0673305897027254,0.10838716335222125
1772480084016271000,4.57227099609375,0.21344372097700834,1.759535975641012,0.020874884115904567
1772480084026269000,4.58226904296875,1.0966162565439939,1.7379086657226084,0.1329911509938538
1772480084036266000,4.592265869140625,1.3099360588803886,1.7165630953550337,-0.06904167978316546
1772480084046263800,4.602263916015625,1.0435650498360394,1.6509803238540888,-0.30768910786062476
1772480084056262100,4.61226220703125,0.48292438647449015,1.6349673466861248,-0.2842608860000968
1772480084066260200,4.62226025390625,-0.15306407107710837,1.6057576188147067,-0.0224595229588449
1772480084076257000,4.632257080078125,-0.5949132275804877,1.3667629847347735,0.3191879686050117
1772480084086255000,4.642255126953125,-0.6945765478596091,0.8635457518160342,0.5674630567274987
1772480084096253000,4.6522529296875,-0.6675187373250723,0.14916472555100918,0.5579521549299359
1772480084106250000,4.66225,-0.16402736364006995,-0.5864519809663296,0.7506824659630655
1772480084116248000,4.672248046875,0.33630934540629387,-1.2283575536072253,0.9955100439801812
1772480084126246000,4.682245849609375,0.5350274986773729,-1.6429940012753008,1.3531687591463326
1772480084136244000,4.692243896484375,0.39861061101853845,-1.7819979828178882,1.9751111556887626
1772480084146241000,4.702240966796875,-0.020028058028221128,-1.8506115003168582,2.413235738711059
1772480084156239000,4.712239013671875,-0.6316629955679178,-1.8490946660131216,2.6314447743937373
1772480084166237200,4.7222373046875,-1.3292951316058634,-1.7034955239892005,2.7018027974724768
1772480084176234000,4.73223388671875,-1.8763909614786505,-1.4841852490663527,2.5616277263239025
1772480084186232000,4.742232177734375,-2.2729560381442306,-1.2206377730101345,2.4446003065288067
1772480084196230100,4.752230224609375,-2.4559707185879347,-1.0449994665533304,2.2719950841575858
1772480084206228000,4.76222802734375,-2.4292241659596563,-0.9565583820343017,1.766303862340748
1772480084216225000,4.77222509765625,-2.173718834322691,-1.027646180692315,1.193273380744457
1772480084226223000,4.78222314453125,-1.5540993277698754,-1.1045119782298802,0.7868257924899459
1772480084236221200,4.79222119140625,-0.835345493248105,-1.1453080989986657,0.5256336473882198
1772480084246219300,4.80221923828125,-0.2138917570054531,-1.2068483171105384,0.32976006989330053
1772480084256216000,4.812216064453125,0.18040829733759164,-1.0346242030113935,0.4351752316974103
1772480084266214100,4.822214111328125,0.4368015177249908,-0.8718027080297469,0.5359828997060656
1772480084276212200,4.832212158203125,0.7230313657104969,-0.8525783675998448,0.49903468653708694
1772480084286209000,4.842208984375,0.9961746453687548,-0.8619821557611227,0.5494768797904253
1772480084296207000,4.85220703125,1.1601496942996978,-0.9345821125477551,0.546169801069051
1772480084306205000,4.862204833984375,1.2224997674897313,-1.0507803880423308,0.40325989812910557
1772480084316202200,4.8722021484375,1.2460180057212709,-1.0358008455753325,0.2300803830012679
1772480084326200000,4.882199951171875,1.2261334478169679,-1.0413923819720745,0.06300400705412029
1772480084336198100,4.8921982421875,1.175300793941319,-1.0608680668145418,-0.10669146535024046
1772480084346196200,4.9021962890625,1.0436641262963413,-0.9617635494619607,-0.3543992749787867
1772480084356193000,4.912193115234375,0.7736071222156286,-0.8994032471388578,-0.6078823070079088
1772480084366191000,4.922191162109375,0.4975020701423287,-0.8828758907079696,-0.8462599782332777
1772480084376189200,4.932189208984375,0.2667661458417773,-0.8826081796824932,-1.0116811343193053
1772480084386187000,4.94218701171875,0.040863048525154586,-0.7702560582220553,-1.1035586230278014
1772480084396184300,4.952184326171875,-0.2674298704475164,-0.751836019912362,-1.197645604479313
1772480084406182100,4.96218212890625,-0.5866013263091444,-0.6495043572068214,-1.1384103023089467
1772480084416180200,4.97218017578125,-0.7940051826000213,-0.5744119990825652,-0.9849443724326788
1772480084426177000,4.982177001953125,-0.8349164541810751,-0.4764174887984991,-0.9163597887672483
1772480084436175000,4.992175048828125,-0.7982283532530069,-0.4694160856038332,-0.8786782928876579
1772480084446173200,5.002173095703125,-0.6767255416095257,-0.47793607666790483,-0.8771887849822639
1772480084456171000,5.0121708984375,-0.49218730486035345,-0.4464315158575773,-0.8691592077836394
1772480084466168000,5.02216796875,-0.3636377895757556,-0.47201954610049723,-0.8740351432569324
1772480084476166000,5.032165771484375,-0.2671913855165243,-0.38329964464008803,-0.8115512145541608
1772480084486164000,5.0421640625,-0.21513737315237522,-0.36319150711297987,-0.7214546179130673
1772480084496161300,5.052161376953125,-0.027242227190732955,-0.3098883714705705,-0.5817287518367171
1772480084506159000,5.0621591796875,0.1908294458478689,-0.19189035307765007,-0.4551232102267444
1772480084516157200,5.0721572265625,0.4587228421539068,-0.11034370424747467,-0.514169857957214
1772480084526155300,5.0821552734375,0.8060340585678816,-0.010195230799913406,-0.552058420716226
1772480084536152000,5.092152099609375,1.0724667346715926,-0.02188157694041729,-0.4922625620536506
1772480084546150100,5.102150146484375,1.281824355378747,-0.0490121604502201,-0.577476647350192
1772480084556148000,5.11214794921875,1.3612486052274704,-0.04979132812917232,-0.657157210047543
1772480084566145300,5.122145263671875,1.3132593580842018,-0.008766074779629707,-0.6712114543631672
1772480084576143000,5.13214306640625,1.2563567366451025,-0.017673603856563566,-0.6653584905512631
1772480084586141200,5.14214111328125,1.0927771167725324,-0.01801028846502304,-0.6876837196059524
1772480084596139300,5.15213916015625,0.7390875974982977,0.11110650531351565,-0.6282521642111242
1772480084606136000,5.162135986328125,0.11739245371520518,0.5375689998537302,-0.41856282733157274
1772480084616134100,5.172134033203125,-0.7160609421759844,1.234251287820935,-0.07641644633486866
1772480084626132000,5.182132080078125,-1.611986284071207,1.8331366339027881,0.09777283035740256
1772480084636129000,5.19212890625,-2.4479718287885186,2.296352111300826,0.03627718203961849
1772480084646127000,5.202127197265625,-3.1227494512006637,2.773202146297693,-0.4069184206366539
1772480084656125200,5.212125244140625,-3.7029008707180617,3.015895634895563,-0.9359605612941085
1772480084666123300,5.222123291015625,-4.053856288853288,3.0169910289168356,-1.3639587409690022
1772480084676120000,5.2321201171875,-3.9089308083072303,2.624519066783786,-1.3768920184306799
1772480084686118100,5.2421181640625,-3.3406647646337744,1.8997709602832793,-1.4029315918333827
1772480084696116200,5.2521162109375,-2.4346873998016116,1.3019903605729342,-1.0625907989539205
1772480084706113000,5.262113037109375,-1.5893810690313577,0.9166565797567368,-0.17344401128292083
1772480084716111000,5.272111083984375,-0.850791484183073,0.6459755985587835,0.9961384050115942
1772480084726109000,5.28210888671875,-0.002294248417019844,0.3198240745514631,1.79142675928995
1772480084736107000,5.29210693359375,0.8554191439837217,0.056144496548175805,2.2683232637770474
1772480084746104000,5.30210400390625,1.4182804060041903,-0.09150865539610385,2.5491622125044464
1772480084756102100,5.31210205078125,1.684520189884305,-0.3220990337461233,2.7273636474475262
1772480084766100200,5.322100341796875,1.8474872308164834,-0.5691542246848345,2.895882769548893
1772480084776098000,5.33209814453125,1.8799667741388082,-0.7355798816382885,3.018160364957154
1772480084786095000,5.34209521484375,1.6954314599990843,-0.7330144150644541,3.0140257493704556
1772480084796093200,5.35209326171875,1.3607652056246995,-0.6197048467487096,2.8414497530937193
1772480084806091000,5.362091064453125,1.0176838818654417,-0.47310851038098334,2.362785800542682
1772480084816088300,5.37208837890625,0.6384618619278073,-0.25121932488083837,1.801145604749769
1772480084826086100,5.382086181640625,0.20137246717214582,0.027793431332707404,1.1451079002514482
1772480084836084200,5.392084228515625,-0.27397885369956493,0.26712065836787224,0.6779368170954286
1772480084846082300,5.402082275390625,-0.7183493453741073,0.27183599645197387,0.5156318933337927
1772480084856079000,5.4120791015625,-1.0417243904054165,0.1710176609188318,0.41753406880572436
1772480084866077200,5.4220771484375,-1.2240417362347245,0.11336451337337493,0.3729435241900384
1772480084876075000,5.432074951171875,-1.1640744665279983,0.07637830628156661,0.43647900777235626
1772480084886072000,5.442072021484375,-0.8531587978363037,-0.04873918872773647,0.4159722263164818
1772480084896070000,5.45206982421875,-0.3367354618638754,-0.26382570847570896,0.28793139120638367
1772480084906068000,5.46206787109375,0.22782032911479472,-0.522382536637783,0.1300996673360467
1772480084916066000,5.472066162109375,0.731173755633831,-0.7828431525945663,-0.05671732800006866
1772480084926063000,5.48206298828125,1.180002395761013,-0.9428297164112329,-0.18013897887691854
1772480084936061200,5.492061279296875,1.6272294459104537,-1.0295996528476477,-0.22048180292025207
1772480084946059300,5.502059326171875,1.9199238137349486,-1.1238567301690578,-0.24214579158723354
1772480084956056000,5.51205615234375,2.094506181398034,-1.2017641457140444,-0.22893369718417525
1772480084966054100,5.52205419921875,2.1169488993525505,-1.1974153028547763,-0.2120594270117581
1772480084976052000,5.532052001953125,1.8429349743396042,-1.143291498479247,-0.2294229420058429
1772480084986050000,5.542050048828125,1.1302695198208093,-1.018884197565913,-0.3023107758231461
1772480084996047000,5.552047119140625,0.5667717134624719,-0.8358294773727655,-0.3575372807435691
1772480085006045200,5.562045166015625,0.2922846179798245,-0.5983417407244443,-0.43278132229819893
1772480085016043300,5.572043212890625,0.06924246305227279,-0.32813129964768883,-0.49997196738719935
1772480085026040000,5.5820400390625,-0.02863397381007671,-0.09114449825882912,-0.6973243852630258
1772480085036038100,5.5920380859375,-0.07398527366518974,0.11418693567216395,-0.9650608374416828
1772480085046036000,5.602035888671875,-0.124371645078063,0.3315186039984226,-1.163059882657975
1772480085056034000,5.612033935546875,-0.10404518862515687,0.5165747271418571,-1.2539923456013202
1772480085066031000,5.622031005859375,0.001263151803612709,0.7552467051386833,-1.3018747713692485
1772480085076029200,5.632029296875,0.1503665025562048,0.9295254136800766,-1.4005990572325884
1772480085086027300,5.64202734375,0.332679756732285,1.0380611917227507,-1.5151374366909265
1772480085096024000,5.652024169921875,0.6158098851367831,1.0511392844825982,-1.5133734957583247
1772480085106022100,5.662022216796875,0.944151904925704,1.0225281070262193,-1.2319545551858841
1772480085116020200,5.672020263671875,1.2722948950111865,0.9238274942994117,-0.9541450372822582
1772480085126018000,5.68201806640625,1.5213751620367169,0.7494143457233905,-0.7183116437122226
1772480085136015000,5.69201513671875,1.6465806275904178,0.5689250921040773,-0.4706131864339113
1772480085146013000,5.702012939453125,1.612603539186716,0.43864276167750355,-0.4730763616770506
1772480085156011000,5.712010986328125,1.3934440709114073,0.3614747663229704,-0.38430736037790775
1772480085166008300,5.72200830078125,1.148815814858675,0.28452596667706964,-0.2608712425842881
1772480085176006400,5.73200634765625,0.9037041592031717,0.16690379585921764,-0.21534400164037942
1772480085186004200,5.742004150390625,0.679559595991671,0.11901216387152672,-0.07856880206316709
1772480085196002300,5.752002197265625,0.47944297409951686,0.030083588096499442,-0.04925298346877098
1772480085205999000,5.7619990234375,0.3601820961639285,0.01033317796587944,0.13595833023637532
1772480085215997200,5.7719970703125,0.2766331676006317,-0.21605098086595534,0.33389263965338467
1772480085225995300,5.781995361328125,0.1887055855616927,-0.3481067507058382,0.5806526470378041
1772480085235992300,5.791992431640625,-0.2170762322604656,-0.24837094971239565,0.8956246053829788
1772480085245990400,5.801990478515625,-0.7912386404961347,-0.050502106747031206,0.9958137031018733
1772480085255988200,5.81198828125,-1.2789140208899974,0.2030640735208988,0.9050055971905588
1772480085265986300,5.821986328125,-1.78197577098608,0.5183920056968927,0.8107432591721415
1772480085275983400,5.8319833984375,-2.2407018280103803,0.808316032025218,0.8159723919972777
1772480085285981200,5.841981201171875,-2.388841302166879,1.0430343039602041,0.8297861055552959
1772480085295979300,5.851979248046875,-2.2714701835006474,1.1357979278534651,0.8459715166807175
1772480085305976000,5.86197607421875,-1.9721867926746606,1.0347650727868078,0.7578834833830594
1772480085315974100,5.87197412109375,-1.6124451337546108,0.8567717276364565,0.6814820884868502
1772480085325972200,5.88197216796875,-1.4306021274387835,0.6086386783331632,0.7069979302763938
1772480085335970000,5.891969970703125,-1.2654437139421701,0.5750532195955514,0.9085743955880403
1772480085345967400,5.90196728515625,-1.1133403045907615,0.7129933712989092,1.0695879643648862
1772480085355965200,5.911965087890625,-0.976461060117185,0.80499244056046,1.0499000980764628
1772480085365963300,5.92196337890625,-0.7129837266877294,0.8129898690551519,0.8750070570290088
1772480085375960300,5.931960205078125,-0.3089063746958971,0.7488333309650421,0.6993012382939457
1772480085385958100,5.941958251953125,0.16007541114389895,0.4788000000208616,0.5325070402890444
1772480085395956200,5.951956298828125,0.5467983082309364,-0.004610708665847778,0.2579182379975915
1772480085405954000,5.9619541015625,0.7099141099840403,-0.45156303352713584,0.14913900658786297
1772480085415951400,5.971951416015625,0.6503373008996248,-0.6647866820126771,0.39455549040883775
1772480085425949400,5.981949462890625,0.3816384334295988,-0.8460685473144054,0.5737032662913203
1772480085435947300,5.991947265625,0.04239566491991281,-1.037258643168211,0.7710428246855735
1772480085445944300,6.0019443359375,-0.36282208927869797,-1.1956377717882394,1.1192977516904472
1772480085455942100,6.011942138671875,-0.7553656553432345,-1.2497493012040852,1.463203543575108
1772480085465940200,6.021940185546875,-1.2061258480548858,-1.4114093511909245,1.6317971922174095
1772480085475938300,6.031938232421875,-1.6566142380878328,-1.64217508610785,1.6330916159421205
1772480085485935000,6.04193505859375,-2.0832813152894376,-1.6539239760905504,1.5471826802492141
1772480085495933200,6.05193310546875,-2.5300007081776856,-1.5525100127518177,1.3817054100617765
1772480085505931300,6.06193115234375,-2.886591209590435,-1.4751000253349542,1.258752399609983
1772480085515928300,6.07192822265625,-3.1109020692795513,-1.338046593338251,1.2644774992585182
1772480085525926400,6.081926513671875,-3.130527683986723,-1.1744582056373356,1.3575892059370875
1772480085535924200,6.09192431640625,-2.920862312504649,-0.9341215092986822,1.372036541223526
1772480085545922300,6.10192236328125,-2.586276722151041,-0.8416554070472717,1.2216954653695224
1772480085555919000,6.111919189453125,-2.1108131730765103,-0.8342138588696718,0.9535296818628907
1772480085565917200,6.121917236328125,-1.4856103134334087,-0.74398822902143,0.8785606578573584
1772480085575915300,6.131915283203125,-0.8976678016483783,-0.6958540204495192,0.8699091493681073
1772480085585912300,6.141912353515625,-0.529327825731039,-0.5998340251088142,0.903373319813609
1772480085595910400,6.151910400390625,-0.2890525041908026,-0.45352410446703434,0.9225728180631995
1772480085605908200,6.161908203125,-0.04694938270151615,-0.3311310659855604,0.8458104809001088
1772480085615906300,6.17190625,0.20876140837967394,-0.2769283511549234,0.7676213258042931
1772480085625903000,6.181903076171875,0.40651130114048717,-0.23623276815116404,0.6157955643504858
1772480085635901200,6.191901123046875,0.4410080295041203,-0.12537117750942706,0.3456716325134039
1772480085645899300,6.201899169921875,0.3077779551878571,0.017882278171181678,0.13526464888378978
1772480085655896000,6.21189599609375,0.1828343554407358,0.09069032475054263,-0.0224561619579792
1772480085665894100,6.22189404296875,0.039433600243926045,0.18822364726364613,-0.2377900805957615
1772480085675892500,6.231892578125,-0.13651859446763992,0.3302490224540233,-0.4366946963496506
1772480085685890300,6.241890380859375,-0.3311830884337425,0.4529407516211271,-0.5734700420573353
1772480085695887400,6.251887451171875,-0.46212768216133115,0.4080851263284683,-0.6968484383143484
1772480085705885200,6.26188525390625,-0.5388672229707241,0.5166454542905092,-0.6360574311345816
1772480085715883300,6.27188330078125,-0.7562754636645317,0.4999626150369644,-0.5754138696014881
1772480085725880000,6.281880126953125,-0.9875041399180888,0.3026777094393968,-0.5801376832529902
1772480085735878100,6.291878173828125,-1.1470242552667855,0.18549626812636852,-0.3905227277614176
1772480085745876200,6.301876220703125,-1.1378092676758766,-0.09537935934960842,-0.21627572953253985
1772480085755874000,6.3118740234375,-0.9918711029559373,-0.3812456347197294,-0.1241886897265911
1772480085765871400,6.321871337890625,-0.9557479424342512,-0.5970026010751723,-0.10536050900742411
1772480085775869200,6.331869140625,-0.9496540094733238,-0.8760387381643057,-0.1985875126287341
1772480085785867300,6.3418671875,-1.0063409423351288,-1.0559370401531458,-0.22890052556693552
1772480085795864300,6.3518642578125,-1.0854840371549128,-1.1830781499445437,-0.15046630966886876
1772480085805862100,6.361862060546875,-1.1642436856150626,-1.3072358600109815,-0.08865238918215036
1772480085815860200,6.371860107421875,-1.2776517458692191,-1.236627953824401,-0.06977203988432884
1772480085825858300,6.3818583984375,-1.3999077139675615,-1.1772282548725603,-0.08273834283277393
1772480085835855400,6.39185546875,-1.4556944831192493,-1.1313999851554633,-0.13868497872129082
1772480085845853400,6.401853515625,-1.4357646247684954,-1.0924170512884854,-0.2211050493851304
1772480085855851300,6.411851318359375,-1.3726514582514762,-1.0194283874452112,-0.21847718509957192
1772480085865848300,6.421848388671875,-1.288584935554862,-0.9466893144488334,-0.27681130064651366
1772480085875846100,6.43184619140625,-1.2994365844368934,-0.8566454709082841,-0.443904919989407
1772480085885844200,6.44184423828125,-1.3620599216103553,-0.8233896825164556,-0.5880515251174568
1772480085895842300,6.45184228515625,-1.4185948787808418,-0.8142986135661602,-0.7727947829194366
1772480085905839000,6.461839111328125,-1.5311778863877057,-0.7731348285287618,-0.8406498832665383
1772480085915837200,6.471837158203125,-1.6523665175154805,-0.7821551703304052,-0.903769771785289
1772480085925835000,6.4818349609375,-1.7736884196341036,-0.7730436431139707,-0.8715278366111219
1772480085935832300,6.491832275390625,-1.841962037654221,-0.8495891226559877,-0.7179083236083388
1772480085945830400,6.501830322265625,-1.7949726152032612,-1.0277671767234802,-0.5010137315250933
1772480085955828200,6.511828125,-1.661313501819968,-1.2247042917966842,-0.2934780655480921
1772480085965826300,6.521826416015625,-1.4823136099755763,-1.3915396985948085,-0.2211955041475594
1772480085975823000,6.531822998046875,-1.298840372109413,-1.6552525943458078,-0.1819599106937647
1772480085985821200,6.5418212890625,-1.0549234791964293,-1.8758289436817168,-0.29127427189350125
1772480085995819300,6.5518193359375,-1.0560814170598982,-1.8715940825909374,-0.19285291449949143
1772480086005816300,6.56181640625,-1.3265499245509504,-1.721818531665206,0.18773630213811993
1772480086015814400,6.571814453125,-1.6182251784607766,-1.5715630882680416,0.5131060281179846
1772480086025812200,6.581812255859375,-2.00214967700094,-1.1770955684036015,0.9737199447154998
1772480086035810300,6.591810302734375,-2.525707979419827,-0.741778151756525,1.2465342846803367
1772480086045807000,6.60180712890625,-2.903116227933764,-0.29528818370997906,1.1943744738541542
1772480086055805200,6.61180517578125,-3.1063977435976264,-0.029434184277057646,0.9287624664835631
1772480086065803300,6.62180322265625,-3.015347061102092,0.2979746463149786,0.49748614192083473
1772480086075800000,6.631800048828125,-2.8602734037682414,0.24835166049003599,0.20918679418489336
1772480086085798100,6.641798095703125,-2.5144679157420993,0.14341478372216224,0.22120617167204618
1772480086095796200,6.651796142578125,-1.8997130926162002,-0.02604512636065483,0.09342267232388257
1772480086105794300,6.661794189453125,-1.1034078163802623,-0.15464344922304152,-0.03935775852873921
1772480086115791400,6.671791259765625,-0.4418056096225977,-0.11545067199766636,0.0743415397569537
1772480086125789200,6.6817890625,-0.03691431089937687,-0.14638123231232164,0.44751025100499386
1772480086135787300,6.691787353515625,0.19161562778949737,-0.10095394461154937,0.8853067711167038
1772480086145784000,6.7017841796875,0.33031390438377856,-0.01578384458720684,1.2134274032399057
1772480086155782100,6.7117822265625,0.384456121198833,0.08429448623359202,1.182086362428218
1772480086165780200,6.7217802734375,0.39947161176204676,0.11663608238995074,0.8667949628703295
1772480086175778000,6.731778076171875,0.34774990009218454,0.0979635306239128,0.5639996184006333
1772480086185775000,6.741775146484375,0.2445867549985647,0.06806348240077495,0.22482786930054424
1772480086195773200,6.751773193359375,0.30422493888139723,-0.05530512311458587,0.039732583190500735
1772480086205771300,6.761771240234375,0.33528730888217684,-0.21971476407051085,-0.01749532468020916
1772480086215768000,6.77176806640625,0.32071137878000733,-0.5052689047515392,-0.1426867617085576
1772480086225766100,6.78176611328125,0.19708441458940504,-0.7853530895888805,-0.09524769579395652
1772480086235764000,6.791763916015625,0.06265548587739467,-1.0307803870648145,0.08342983222827315
1772480086245762000,6.801761962890625,-0.20027064341008663,-0.9822779297024011,0.372137614634633
1772480086255759000,6.811759033203125,-0.6915864261329173,-1.0212883360981941,0.46018341622576114
1772480086265757200,6.821757080078125,-1.343630238689482,-1.0280570995807647,0.3097814039647579
1772480086275755300,6.83175537109375,-1.9063801492899655,-0.8872644810557365,0.22297566556259987
1772480086285752000,6.841751953125,-2.2434391440197823,-0.6280886442124843,0.16434680485278366
1772480086295750100,6.851750244140625,-2.228449372419715,-0.6687783819973468,-0.023107903864979743
1772480086305748200,6.861748291015625,-1.87161717120558,-0.6626824032098054,-0.18013707918077707
1772480086315746000,6.87174609375,-1.4009890794634818,-0.5858019926249981,-0.09708411744087934
1772480086325743000,6.8817431640625,-1.0340186383336782,-0.5255722725898027,0.09355594331473112
1772480086335741000,6.891740966796875,-0.7259563132464886,-0.6381991193383931,0.23202917898148298
1772480086345739000,6.901739013671875,-0.5313192918092012,-0.4846493105709552,0.490828583727777
1772480086355736000,6.911736083984375,-0.5619269037798047,-0.42522038552463054,0.6391326007962227
1772480086365734100,6.921734130859375,-0.749061002241075,-0.3870481835186481,0.8004889916613698
1772480086375732200,6.931732177734375,-0.9935478039965033,-0.26900983311533927,1.012588604553044
1772480086385730000,6.94172998046875,-1.1756471231609582,-0.1482744987130165,1.1769172892272473
1772480086395727000,6.95172705078125,-1.2833841520413756,-0.03491466151475906,1.158483806914091
1772480086405725000,6.961724853515625,-1.3658400246709583,0.043946693754196166,1.2311810865953563
1772480086415723000,6.971722900390625,-1.3892545102670788,0.16495909153223037,1.3163523556634782
1772480086425720300,6.98172021484375,-1.3430667595878243,0.3783960905075073,1.401316996243596
1772480086435718100,6.99171826171875,-1.3610446070879696,0.6207955645948648,1.4158996483474968
1772480086445716200,7.00171630859375,-1.3783973084270953,0.8410831601172685,1.3043190957814454
1772480086455714300,7.01171435546875,-1.3261445586204528,1.1726157926410437,1.4063234262287616
1772480086465711000,7.021711181640625,-1.2193161690175534,1.3484493294090032,1.501732596194744
1772480086475709200,7.031709228515625,-1.0006821859210728,1.4135510393947361,1.5973390422984957
1772480086485707000,7.04170703125,-0.6529264406099915,1.4146809202075004,1.5661664899215102
1772480086495704000,7.0517041015625,-0.18953502212315795,1.3373486742019653,1.4569962133675813
1772480086505702100,7.0617021484375,0.3244464736551046,1.2627011372357606,1.3534659885272382
1772480086515700200,7.0717001953125,0.7118021156877279,1.253064124840498,1.2197265033841131
1772480086525698300,7.0816982421875,0.9113219407305121,1.1076391703397035,0.7289239308804273
1772480086535695000,7.091695068359375,0.9583037643969058,1.0040303273051976,0.3552215511471033
1772480086545693200,7.101693115234375,0.9778118902042507,0.9621171852052212,-0.04099222786277532
1772480086555691000,7.11169091796875,1.011948260822892,0.8415811727672815,-0.4346203742936253
1772480086565688000,7.12168798828125,0.9281234379276633,0.6745008512973785,-0.665988166756928
1772480086575686100,7.13168603515625,0.7821566316351294,0.4722872571259737,-0.6657248396456241
1772480086585684000,7.14168408203125,0.6212488613203168,0.17812603161931037,-0.518024049167335
1772480086595682000,7.15168212890625,0.49839142019748683,-0.07036474508047104,-0.27768413795828817
1772480086605679000,7.16167919921875,0.38032325917780396,-0.32060207318663597,-0.03509849364906549
1772480086615677200,7.17167724609375,0.2584741183146834,-0.6038455988377333,0.1733271069049835
1772480086625675300,7.18167529296875,0.24205665199905632,-0.732514648848772,0.3788806591540575
1772480086635672000,7.191672119140625,0.248694774839282,-0.9088339233070611,0.3745248020321131
1772480086645670100,7.201670166015625,0.18668284756243228,-1.1290993069976567,0.3581096738040447
1772480086655668000,7.21166796875,-0.0008373276069760322,-1.166818504539132,0.26126637938171626
1772480086665665000,7.2216650390625,-0.3216802238121629,-1.0947662447631359,0.16168080051392317
1772480086675663400,7.231663330078125,-0.6800757288202643,-1.0373796391993761,0.07554360902309418
1772480086685661200,7.2416611328125,-0.9975222605854273,-0.9549655598849057,0.08442541913688183
1772480086695659300,7.2516591796875,-1.1997235797971486,-0.8274462644308805,0.20261340714395046
1772480086705656000,7.261656005859375,-1.3952987588673829,-0.7500953137248754,0.1749351266235113
1772480086715654100,7.271654052734375,-1.5074872141987083,-0.6589408785939216,0.09037906684428453
1772480086725652200,7.28165234375,-1.5606617550253867,-0.571695141339302,0.11991349662542343
1772480086735650000,7.291650146484375,-1.5192828659325837,-0.40591304298639297,0.25404461143463847
1772480086745647000,7.301647216796875,-1.3665356057196856,-0.2587245859444141,0.29057226110398765
1772480086755645000,7.31164501953125,-1.1540554690778255,-0.18999124145805835,0.32910949703007936
1772480086765643000,7.32164306640625,-0.8087450710922479,-0.1440875684171915,0.32666093483418224
1772480086775640000,7.33164013671875,-0.38750761772394177,-0.14383154782950877,0.21829145326912403
1772480086785638100,7.34163818359375,-0.036219314372539516,-0.14845920763015746,0.04296528150141239
1772480086795636200,7.35163623046875,0.2051926099821925,-0.21452420969009398,-0.20640286255478857
1772480086805633000,7.361633056640625,0.36363603601008654,-0.2828413745909929,-0.3172147688359022
1772480086815631000,7.371631103515625,0.4755526886627078,-0.2516851888269186,-0.20466712480336427
1772480086825629200,7.381629150390625,0.49542029543220995,-0.20610241830348966,-0.2123229002535343
1772480086835627000,7.391626953125,0.4667342991739511,-0.23988252283036707,-0.4618970882758498
1772480086845624300,7.401624267578125,0.3996937300801277,-0.2643622995704412,-0.7683589924290776
1772480086855622100,7.4116220703125,0.4461114901229739,-0.30958032843470573,-1.0213099634081124
1772480086865620200,7.4216201171875,0.5568883250907063,-0.38176176754832264,-1.0808423488289116
1772480086875617000,7.431616943359375,0.6871314925506711,-0.42523266048431396,-0.9819052969977259
1772480086885615000,7.441614990234375,0.7499731486499309,-0.48854982514083384,-0.8849892296001315
1772480086895613200,7.45161328125,0.7405553319633007,-0.5769850644409656,-0.838452519352734
1772480086905611000,7.461611083984375,0.7136439441621303,-0.7470335880666971,-0.702711923520267
1772480086915608000,7.471608154296875,0.6986942123115062,-0.9312970995277166,-0.6573349047020077
1772480086925606000,7.48160595703125,0.6261147137910127,-0.965135071721673,-0.5095446823745966
1772480086935604000,7.49160400390625,0.47227790477573867,-1.0922469554185867,-0.41779257361143823
1772480086945601300,7.501601318359375,0.28993045606911183,-1.3208143035084008,-0.43611090511232614
1772480086955599000,7.51159912109375,0.13387772457003594,-1.4586463186621665,-0.49051440321207046
1772480086965597200,7.52159716796875,-0.15295739583224058,-1.4548206228941678,-0.45233810955286025
1772480086975595000,7.531594970703125,-0.6432789068207144,-1.1504431237995625,-0.25718933920115233
1772480086985592000,7.541592041015625,-1.2676584673821925,-0.5482862087011336,-0.16262158849537373
1772480086995590100,7.551590087890625,-1.945534932592511,0.10387713858187198,-0.28120179069042206
1772480087005588000,7.561587890625,-2.616467862275243,0.8824766622573137,-0.4111953673034906
1772480087015585300,7.571585205078125,-3.2166146065950394,1.6480524537086485,-0.500080688458681
1772480087025583000,7.5815830078125,-3.642392041480541,2.024543002855778,-0.47307694619894025
1772480087035581200,7.591581298828125,-3.6948140103742477,1.785713203948736,-0.37968116188198325
1772480087045579300,7.601579345703125,-3.316905411122739,1.2931196563750504,-0.5930751984983682
1772480087055576000,7.611576171875,-2.861415267279744,0.6934206558227539,-0.6189449682921171
1772480087065574100,7.62157421875,-2.351144608718157,0.29401567955613134,-0.07494915026128292
1772480087075572000,7.631572021484375,-1.7398311582177877,-0.14581483060121536,0.4992208567589521
1772480087085569000,7.641569091796875,-1.1364230740144847,-0.6933972749471664,1.2053411274179815
1772480087095567000,7.651567138671875,-0.6920958369597793,-1.0006406848669052,1.955923347876966
1772480087105565200,7.661565185546875,-0.44596272930204867,-1.1102227570921182,2.3017831964388487
1772480087115563300,7.671563232421875,-0.19767799656838178,-1.3362906895816324,2.076682355415821
1772480087125560000,7.68156005859375,0.014822890600562095,-1.271947104486823,1.9382696177646517
1772480087135558100,7.69155810546875,0.34669045416712757,-1.2116145085990428,1.6870184364408254
1772480087145556200,7.70155615234375,0.6761509565919638,-1.2964713048905134,1.435256382985413
1772480087155553000,7.711552978515625,0.9880237798780203,-1.450612649810314,1.386917591752112
1772480087165551000,7.721551025390625,1.1070493877530097,-1.5175316383510826,1.3168790098860859
1772480087175549400,7.731549560546875,0.9751113990738988,-1.3684931695282458,1.0297057435706258
1772480087185546500,7.74154638671875,0.4740256252259016,-1.2255354819238184,0.6132473411723971
1772480087195544600,7.751544677734375,-0.1456058640256524,-1.0297510440170765,0.38740065021812914
1772480087205542700,7.761542724609375,-0.7626637033969164,-0.8438117082983255,0.20193360818624495
1772480087215540500,7.77154052734375,-1.2846259687960147,-0.8209908046811819,0.11672229936867952
1772480087225537500,7.78153759765625,-1.7349790420114992,-0.8490250590324402,0.13583558063954115
1772480087235535400,7.791535400390625,-2.1628595866560936,-0.853363380497694,0.15338877298682926
1772480087245533400,7.801533447265625,-2.459840545758605,-0.7707002948582172,0.24816490574628114
1772480087255530500,7.811530517578125,-2.8753403322577475,-0.7184218260884284,0.2994727759182453
1772480087265528300,7.8215283203125,-3.27744024669677,-0.5607154821634293,0.3240706260800361
1772480087275526400,7.8315263671875,-3.5095953901454804,-0.33047172529399393,0.2627529646776616
1772480087285524500,7.8415244140625,-3.5896243278890845,-0.06189969907402992,0.19918255591243506
1772480087295521500,7.851521484375,-3.475856494411826,0.1257493631720543,0.15700345635265112
1772480087305519600,7.86151953125,-3.199152599662542,0.23917875847518444,0.1752612898379564
1772480087315517400,7.871517333984375,-2.6464070734649896,0.1557943728238344,0.18637319709137082
1772480087325514500,7.881514404296875,-2.1451573412269354,-0.15795242764055728,0.3279281782910228
1772480087335512300,7.89151220703125,-1.592765450772643,-0.30044600486457346,0.49988122036382554
1772480087345510400,7.901510498046875,-0.9961538948416709,-0.4909790981143713,0.5150936948038637
1772480087355508500,7.911508544921875,-0.4554331529587507,-0.6550321807175874,0.48263826300948853
1772480087365505500,7.921505615234375,-0.11808628119826316,-0.682407678899169,0.43074601707831023
1772480087375503600,7.931503662109375,0.07110767240226268,-0.6324497620314359,0.2867690694287419
1772480087385501400,7.94150146484375,0.22778759588897227,-0.5353641832858324,0.08708280177786946
1772480087395498500,7.95149853515625,0.3994628439337015,-0.516060347878933,-0.042628450762480494
1772480087405496600,7.96149658203125,0.4722673833817243,-0.43077860417366026,-0.0750476421996951
1772480087415494400,7.971494384765625,0.4874316347658634,-0.4022136039465666,-0.23824659219160674
1772480087425492500,7.981492431640625,0.37042467323690653,-0.5161088631957769,-0.290242444627732
1772480087435489500,7.991489501953125,0.10637217026799917,-0.6329857686042786,-0.23432284287661312
1772480087445487600,8.001487548828125,-0.24139409643709658,-0.7908721452713012,-0.19571414914950727
1772480087455485700,8.011485595703125,-0.6152917064815759,-0.8200678446173667,-0.1764459695778787
1772480087465482500,8.021482421875,-0.9505965510204434,-0.7479337517768144,-0.07485621128082275
1772480087475480600,8.03148046875,-1.1643930309578776,-0.6994950073003768,0.07057868009209632
1772480087485478400,8.041478515625,-1.3728899431824684,-0.7152531329244375,0.2122026348747313
1772480087495475500,8.051475341796875,-1.48279174888134,-0.6441922222733497,0.2757319809772074
1772480087505473300,8.061473388671875,-1.387896373656392,-0.6376192736238241,0.1526248028770089
1772480087515471400,8.071471435546876,-1.1489116764485836,-0.6911112098366021,0.0977960651025176
1772480087525469400,8.081469482421875,-0.8423565410539507,-0.5965548573076724,0.17852686750516295
1772480087535466500,8.091466552734374,-0.5127668592914939,-0.5389671762138605,0.2292136831693351
1772480087545464600,8.101464599609375,-0.08295213171392679,-0.4756114331126213,0.2362143557116389
1772480087555462700,8.111462646484375,0.32610388547331093,-0.39602410165667534,0.24641323977336285
1772480087565459500,8.12145947265625,0.5921566223487258,-0.2473492054492235,0.25683584958836436
1772480087575457500,8.13145751953125,0.8514747902721166,-0.0966612158536911,0.15769158474728465
1772480087585455400,8.141455322265625,1.1167349154651165,0.1016366661787033,0.011955664601176976
1772480087595453400,8.151453369140626,1.2597419951692224,0.2258686105251312,-0.27292130747064947
1772480087605450500,8.161450439453125,1.2130004099994898,0.2656353882461786,-0.5106482597023249
1772480087615448600,8.171448486328124,1.3143231879234314,0.25830899088084697,-0.6325261882685125
1772480087625446700,8.18144677734375,1.2811539087712764,0.32805706536769863,-0.5904429502986371
1772480087635443500,8.191443359375,1.1065443608403205,0.4451595962256193,-0.4271430241502821
1772480087645441500,8.201441650390626,0.7515460970550775,0.5733943464726209,-0.3993718046493828
1772480087655439400,8.211439453125,0.16902911745011806,0.7444979321092366,-0.49163785428404805
1772480087665436400,8.2214365234375,-0.6243634862095118,1.002293128249049,-0.629887948719412
1772480087675434500,8.2314345703125,-1.5379165469929574,1.275056176418066,-0.850254308566451
1772480087685432300,8.241432373046875,-2.437344636312127,1.7210247509390115,-0.956866571200639
1772480087695430400,8.251430419921874,-3.221023655208945,2.118626477175951,-1.057123765719682
1772480087705427500,8.261427490234375,-3.811581902450323,2.4413269839465617,-1.1430245181061327
1772480087715425500,8.271425537109375,-4.179349923698604,2.5416701031833884,-1.2014847442507743
1772480087725423600,8.281423583984376,-4.037490260463953,2.2736334990143776,-0.9877582608096301
1772480087735421400,8.29142138671875,-3.407246484044194,1.8666051882624626,-0.6687392190307379
1772480087745418500,8.30141845703125,-2.776523984196782,1.5982564494043587,-0.35786198265329
1772480087755416300,8.311416259765625,-2.0816987222731114,1.3824322630316017,0.16883052613809704
1772480087765414400,8.321414306640625,-1.2422054616957903,1.1933254031926392,0.6363305489875376
1772480087775411700,8.33141162109375,-0.31033260810673235,0.8567962775558233,0.8217077207788824
1772480087785409500,8.341409423828125,0.5226838576719165,0.3969149130165577,0.9264531666278839
1772480087795407600,8.35140771484375,1.1362328121393919,-0.009334814578294753,1.3085238539949058
1772480087805404400,8.361404296875,1.6404115835666655,-0.30123861654698847,1.8480150540828704
1772480087815402500,8.371402587890625,2.087279152753949,-0.6177192258894443,2.362424127623439
1772480087825400600,8.381400634765624,2.5079905364215374,-1.0316495711147784,2.68203689751178
1772480087835398400,8.3913984375,2.7929420350342986,-1.3599258321911096,2.877446949148178
1772480087845397500,8.4013974609375,2.9475051124975082,-1.9429636207997798,2.81372500308305
1772480087855394600,8.41139453125,2.8146979397684335,-1.969731800737977,2.516023913012445
1772480087865392400,8.421392333984375,2.281435112676024,-1.6147493190437554,2.262275946436822
1772480087875390500,8.431390380859375,1.535925665436685,-1.153825167453289,1.9803157385945318
1772480087885388300,8.44138818359375,0.8221884900331496,-0.7560030764639377,1.6242697193220257
1772480087895385600,8.451385498046875,0.20422493399381636,-0.2756967635333538,1.310241179306805
1772480087905383700,8.4613837890625,-0.37086101882755756,0.13845394644439218,1.0002470093742013
1772480087915381500,8.471381591796876,-0.7764274403333663,0.4720891042053699,0.6749287213206291
1772480087925378600,8.481378662109375,-0.9388400622531771,0.7819815673291682,0.4454638398692012
1772480087935376400,8.49137646484375,-0.9664426471889018,0.9907745398908853,0.3269219238579273
1772480087945374500,8.50137451171875,-0.6762479872256517,1.1466045685499906,0.2896303040787577
1772480087955371300,8.511371337890624,-0.14496084412038326,1.1159329514324665,0.11012217045128345
1772480087965369300,8.521369384765626,0.31261370478123424,0.9465221411883831,-0.17181158777549863
1772480087975367400,8.531367431640625,0.7386731714785099,0.7412362999647856,-0.37970118175670503
1772480087985365500,8.541365478515624,1.0935036774814129,0.5009662391215562,-0.5683426160410047
1772480087995362600,8.551362548828125,1.233350831849873,0.3604384090125561,-0.5145847223684191
1772480088005360600,8.561360595703125,1.2787778272897004,0.18941139574348925,-0.6122833184458315
1772480088015358500,8.5713583984375,1.3116846561133861,-0.049074119770526885,-0.8292448382854462
1772480088025355500,8.58135546875,1.3048507184401155,-0.23454642249941823,-0.8951419364325701
1772480088035353300,8.591353271484374,1.350713767209649,-0.3417968369066715,-0.8245880985207855
1772480088045351400,8.601351318359375,1.3614894282460213,-0.4445750743359327,-0.7533420405611395
1772480088055349500,8.611349609375,1.375262809793651,-0.5539268449366093,-0.6095712830081582
1772480088065346600,8.6213466796875,1.346454063938558,-0.558839751419425,-0.44730625286549325
1772480088075344600,8.6313447265625,1.2389692562535404,-0.5213496864587068,-0.27915172629281876
1772480088085342500,8.641342529296875,1.0627765307843684,-0.41380759562849995,-0.2558729959055781
1772480088095339500,8.651339599609376,0.854607243078947,-0.2417904022783041,-0.4115037026003003
1772480088105337300,8.66133740234375,0.6986050727233291,-0.15405717376768588,-0.6525941399157047
1772480088115335400,8.67133544921875,0.6050409461021423,-0.03842822259366512,-0.7958500798143446
1772480088125332500,8.68133251953125,0.6283426189735531,-0.039327217260003086,-0.9464135662473737
1772480088135330600,8.69133056640625,0.8313561313509941,-0.15214637171030043,-1.0885704588629306
1772480088145328600,8.70132861328125,1.1055781461566685,-0.2736895153641701,-1.1120607861742378
1772480088155326700,8.71132666015625,1.356245097851753,-0.33216566973030565,-1.1370239625170826
1772480088165323500,8.721323486328124,1.4621873522698878,-0.3503799563348293,-1.084976672154665
1772480088175320600,8.731320556640625,1.5055565383970737,-0.3754325645267963,-0.9532219310879707
1772480088185318700,8.741318603515625,1.43389123211205,-0.35609424232840536,-0.8671452376127242
1772480088195315700,8.751315673828126,1.2020794952735303,-0.38624212783277034,-0.9071870328828692
1772480088205313800,8.761313720703125,0.9202736012101173,-0.41637013959288594,-0.9135505765654146
1772480088215312000,8.771311767578124,0.6346604238182306,-0.3897194485545158,-0.8531231420010328
1772480088225310000,8.78131005859375,0.3844780407696962,-0.3408101639568806,-0.756360511599481
1772480088235306800,8.791306640625,0.13982757288515568,-0.26586510534882546,-0.6520813680879771
1772480088245304800,8.801304931640624,-0.023275077125430105,-0.15528876138925551,-0.5074871653228998
1772480088255302700,8.811302734375,-0.06487725358009339,0.009492050966620445,-0.3886040346585214
1772480088265299700,8.8212998046875,0.01872486647516489,0.12904548210799693,-0.31857012896761294
1772480088275297500,8.831297607421876,0.17692220878750084,0.20993045215904713,-0.4550713339090347
1772480088285295600,8.841295654296875,0.41676586091220374,0.337105464220047,-0.663022594949603
1772480088295293700,8.851293701171874,0.6183411571800709,0.42973406355679034,-0.9474506542101502
1772480088305290800,8.861290771484375,0.7551493822440505,0.3869020530462265,-1.2419310286685823
1772480088315288800,8.871288818359375,0.7240911038964987,0.3545575342804193,-1.435805687431246
1772480088325286700,8.88128662109375,0.6068512103945016,0.42497547085285187,-1.3020493972837923
1772480088335283700,8.89128369140625,0.30076310798972844,0.5909077913314104,-1.093878356012702
1772480088345281800,8.90128173828125,-0.28516806397289035,0.7424585352361202,-0.940197906602919
1772480088355279600,8.911279541015626,-0.9796507960692048,1.1679255889981985,-0.651266544573754
1772480088365277000,8.92127685546875,-1.7153244934707879,1.6775532734811305,-0.2747879781253636
1772480088375274800,8.931274658203124,-2.2934815243005753,2.0585575006604193,0.07753887449353933
1772480088385272800,8.94127294921875,-2.619284088739753,2.2587930727571246,0.3736744688130915
1772480088395271000,8.95127099609375,-2.6415619715213774,2.2231688016682862,0.5999760639280081
1772480088405267700,8.961267822265626,-2.374634205377102,2.1107751791536806,0.7442584242649376
1772480088415265800,8.971265869140625,-1.8019447923034428,2.003139564821124,0.8046826439589262
1772480088425263600,8.981263671875,-1.0483230580180882,1.890754125612974,0.6815773655548691
1772480088435260700,8.9912607421875,-0.31374387785494323,1.6605390103161335,0.5983550385974348
1772480088445258800,9.0012587890625,0.18866788389980793,1.4412778352320192,0.7451815304592251
1772480088455256600,9.011256591796876,0.4646779511660337,1.102188503718376,0.8518881933785974
1772480088465254000,9.02125390625,0.7153261981606484,0.48491585255265235,0.7975225430712103
1772480088475251700,9.031251708984374,0.8821639430463314,0.004303834673762321,0.9699864572755992
1772480088485249800,9.041249755859376,1.0194044220477343,-0.4233417321711778,1.275803049262613
1772480088495248000,9.051247802734375,1.1007774678766726,-0.8698772929251194,1.6400810364380478
1772480088505244700,9.06124462890625,0.952232920050621,-1.101550790336728,1.9298884506493805
1772480088515242800,9.07124267578125,0.6079293610200286,-1.2176637256354093,2.013978938743472
1772480088525240600,9.081240478515625,0.08850830453634262,-1.2806477128148077,1.9537185313090681
1772480088535238000,9.09123779296875,-0.5702306217446923,-1.1040542975902556,1.7762042018473148
1772480088545235700,9.101235595703125,-1.2862515241712331,-0.8545429456710815,1.4854466473042964
1772480088555233800,9.11123388671875,-1.9355156428813933,-0.7999012549012899,1.303313572000712
1772480088565231900,9.12123193359375,-2.240097432376444,-0.7683160300701856,1.4108243909098208
1772480088575228700,9.131228759765625,-2.0500804719552397,-0.7983546099811792,1.5314613795042038
1772480088585226800,9.141226806640624,-1.7981024376615882,-0.8376309738367795,1.5791513514399527
1772480088595224800,9.151224853515625,-1.5768763922452926,-0.8130974210828542,1.6366291424185038
1772480088605221600,9.1612216796875,-1.334516081124544,-0.7059773550570011,1.6781784196421503
1772480088615219700,9.1712197265625,-1.0835083531677723,-0.5989923135876655,1.6991512111745775
1772480088625217800,9.1812177734375,-0.7661562216877937,-0.48424306785762306,1.5291646468691527
1772480088635216000,9.1912158203125,-0.4673132681056857,-0.28497838661968705,1.2276659180812537
1772480088645212700,9.201212646484375,-0.1972474961966276,-0.04905833767950535,0.8436053720712662
1772480088655210800,9.211210693359375,0.08728753056973218,0.040595629760622975,0.4730285770125687
1772480088665208800,9.221208740234376,0.2742109088897705,-0.03700082013905048,0.1875742434442043
1772480088675205600,9.23120556640625,0.5483133889690042,-0.1886556089401245,0.01798208528384566
1772480088685203700,9.24120361328125,0.8175947325021028,-0.31975276288092136,-0.07162585105746984
1772480088695201500,9.251201416015626,0.8872697417527436,-0.4182119680672884,-0.018873627296090125
1772480088705198800,9.26119873046875,0.8577373577982187,-0.46959085764884945,-0.07124518117681146
1772480088715197000,9.271197021484374,0.7550748557031154,-0.49797640965580936,-0.10990282861217855
1772480088725194800,9.28119482421875,0.6074690500319003,-0.40561259873509403,-0.15351692941114306
1772480088735192800,9.29119287109375,0.425234414049983,-0.40886663209497925,-0.22204335314854978
1772480088745189600,9.301189697265626,0.2757739204227924,-0.460979096648097,-0.2771935779623687
1772480088755187700,9.311187744140625,0.17380729163736103,-0.4938631291180849,-0.3564705282948911
1772480088765185800,9.321185791015624,0.0846703338086605,-0.5845043540298939,-0.3510641392067075
1772480088775182800,9.331182861328125,-0.02777969506829977,-0.5776748002707958,-0.10520254196673631
1772480088785181000,9.341180908203125,-0.0898921601101756,-0.5266185667723416,0.0783089820832014
1772480088795178800,9.3511787109375,-0.10394318955540656,-0.5218476991087198,-0.003266308319568634
1772480088805176800,9.3611767578125,-0.09196282890439032,-0.45265492041707034,-0.05616729290187358
1772480088815173600,9.371173583984374,-0.03670096040964126,-0.32848259730339047,-0.12583221914991735
1772480088825171700,9.381171630859376,0.069008946557343,-0.28221242903769017,-0.36247108388394117
1772480088835169800,9.391169677734375,0.17071487857997417,-0.28077508971095083,-0.4696398113571107
1772480088845166600,9.40116650390625,0.2771875866129994,-0.4019897320628166,-0.5222225237704813
1772480088855164700,9.41116455078125,0.37347149358689785,-0.45146600289344785,-0.4613333169132471
1772480088865162800,9.421162841796875,0.3812663852468133,-0.4912076461732387,-0.3524501867376268
1772480088875159800,9.431159912109376,0.33014906921088694,-0.4594774599134922,-0.2344388704717159
1772480088885158000,9.441157958984375,0.3788233760088682,-0.3901338745743036,-0.2478526249267161
1772480088895155700,9.45115576171875,0.5050947172284126,-0.3407762616872787,-0.3635879590846598
1772480088905153800,9.46115380859375,0.628382074201107,-0.235332019919157,-0.5158703782647848
1772480088915150600,9.471150634765625,0.766509857431054,-0.18166881879270075,-0.7286646954223513
1772480088925148700,9.481148681640626,0.889852159461379,-0.16270108347237108,-1.019033542908728
1772480088935146800,9.491146728515625,0.9102443746268749,-0.07990063518881797,-1.1314688126079737
1772480088945143800,9.501143798828124,0.7982751150041818,0.03820318166613579,-1.231074849741906
1772480088955142000,9.511141845703126,0.6510065784633159,0.09084639209508895,-1.4378808862701058
1772480088965139700,9.5211396484375,0.5137684375494719,0.2718704832434654,-1.4308834285981953
1772480088975137800,9.5311376953125,0.3701090314164758,0.20107436100840567,-1.5612680503554641
1772480088985134800,9.541134765625,0.31012860996723174,0.11788988184332846,-1.7229668249174952
1772480088995132700,9.551132568359375,0.3288262961745262,0.06142506729960441,-1.7310932866193354
1772480089005130800,9.561130859375,0.3089543054908514,-0.10317103613913059,-1.6151825958944857
1772480089015127600,9.57112744140625,0.23630992504060266,-0.33494857844710346,-1.443844763110578
1772480089025125600,9.581125732421874,0.16707213816344738,-0.36821956440806386,-1.171201249668002
1772480089035123700,9.591123779296876,0.047718613508343694,-0.4821235914856195,-0.9940805956989526
1772480089045120800,9.601120849609375,0.018315116630494593,-0.5648813696712255,-0.8197541024930775
1772480089055118800,9.611118896484374,0.01762684210538864,-0.6059253277212381,-0.5952749004997313
1772480089065116700,9.62111669921875,0.07166355271935462,-0.6447048479706049,-0.4519239757940173
1772480089075114800,9.63111474609375,0.015320610989630222,-0.6223515618652105,-0.3384599475689232
1772480089085111800,9.64111181640625,-0.3330307621270418,-0.3092506580889225,-0.3046089697629213
1772480089095109600,9.651109619140625,-0.9778688810884952,0.08538988025486469,-0.4522999694995582
1772480089105107700,9.661107666015624,-1.7689704512014983,0.5787181718438863,-0.8493759182967245
1772480089115104800,9.671104736328125,-2.4579718292772768,1.2400643580138682,-1.4152769864045083
1772480089125102800,9.681102783203125,-2.873959107032418,1.7684668855935335,-1.934403736116737
1772480089135101000,9.691100830078126,-3.2015544001072644,2.1715952662974596,-2.2796575816094875
1772480089145098800,9.7010986328125,-3.2687335008889433,2.362685993430018,-2.43685846023038
1772480089155095800,9.711095703125,-2.973524519895017,2.274333171716332,-2.2853885264769196
1772480089165093600,9.72109375,-2.576915896348655,1.9020622860908507,-1.8146577050127088
1772480089175092500,9.731092529296875,-2.2215829937815665,1.5497212588161229,-1.1136319810137152
1772480089185089300,9.74108935546875,-1.8874393019765614,1.2837865953624248,-0.31008272499889133
1772480089195087400,9.75108740234375,-1.4830314028561113,1.0608534537672996,0.3157634009838104
1772480089205085200,9.761085205078125,-0.9456769225358962,0.7956313224971294,0.81768387209028
1772480089215082500,9.77108251953125,-0.28317104493677614,0.47457916745543477,1.2006523850798607
1772480089225080300,9.781080322265625,0.25602643290162086,0.1855266632646322,1.5586688276425003
1772480089235078400,9.791078369140624,0.4935352123379707,-0.11146014105677604,1.8334601667687296
1772480089245076500,9.801076416015626,0.7221671500965953,-0.3967559230625629,2.3345187603488564
1772480089255073300,9.8110732421875,1.0209241789609194,-0.5720546223014593,2.770129022462666
1772480089265071400,9.8210712890625,1.1338351033478975,-0.5782791959047318,3.254053233629465
1772480089275069400,9.8310693359375,1.0409396697685123,-0.6919839010179042,3.6339483305230735
1772480089285066200,9.841066162109374,0.8964496580302714,-0.5816618240803479,3.9510958793416617
1772480089295064600,9.851064697265626,0.7208914310723543,-0.37730887979269023,3.9106408270955084
1772480089305062400,9.8610625,0.5689084332302212,-0.3299462401151657,3.494247306627035
1772480089315060500,9.871060546875,0.5246697707921266,-0.06758066731989383,2.8375302415624257
1772480089325057300,9.881057373046875,0.39573476332128044,0.15324702642858026,1.9981366419672966
1772480089335055400,9.891055419921875,0.18771745130717754,0.2980348520696163,1.1696835385814308
1772480089345053400,9.901053466796874,0.0031631402060389516,0.45457565934658045,0.5595557907342911
1772480089355050200,9.91105029296875,-0.23298341096639633,0.5989040507823229,0.38579818345755335
1772480089365048300,9.92104833984375,-0.4226671939104795,0.7273416301250457,0.46951370075941085
1772480089375046100,9.931046142578126,-0.3821984053999185,0.7295593061745166,0.5505488929361104
1772480089385043500,9.94104345703125,-0.22845541214793919,0.7962725430101156,0.7521864407852291
1772480089395041500,9.95104150390625,0.02010287683010101,0.703441114577651,0.8743865870431065
1772480089405039400,9.961039306640625,0.38887452216297386,0.5374678775668144,0.8254574287012219
1772480089415037400,9.971037353515625,0.7887962157800793,0.36225510304570196,0.6366102427117526
1772480089425034200,9.9810341796875,1.1213327646493911,0.0967044704735279,0.204524939853698
1772480089435032300,9.9910322265625,1.2413903459206224,-0.12349252415597438,0.0002421381928026676
1772480089445030400,10.001030517578124,1.2664961456045507,-0.33487668225467204,-0.07251520111262798
1772480089455027500,10.01102734375,1.2907348070651292,-0.46902504045963284,-0.0894365252971649
1772480089465025500,10.021025634765625,1.3470476459175347,-0.6807102273315191,-0.1619052569195628
1772480089475023400,10.0310234375,1.370631935122609,-0.8683610431432723,-0.23477204794883727
1772480089485020400,10.0410205078125,1.274281977175176,-0.9298960005581378,-0.26281243977993723
1772480089495018500,10.0510185546875,1.10023240121454,-0.9103121791660785,-0.3570680557966232
1772480089505016300,10.061016357421876,0.8358855914741754,-0.9265864376187324,-0.452722724956274
1772480089515014400,10.071014404296875,0.5478180066674947,-1.0552490578889846,-0.4867243632793426
1772480089525011200,10.08101123046875,0.25462884106338024,-1.2084025608152151,-0.589478050789237
1772480089535009300,10.09100927734375,-0.01552285556346178,-1.23314186527431,-0.6710206079661846
1772480089545007400,10.10100732421875,-0.324594942215085,-1.1364157674908637,-0.6638324500277638
1772480089555004400,10.11100439453125,-0.5647030904948711,-0.9263795168697834,-0.44041941596120593
1772480089565002500,10.12100244140625,-0.6888283595964312,-0.6536965481996536,-0.32126433648765085
1772480089575000300,10.131000244140624,-0.6256470962792635,-0.44448096631169315,-0.2726791692778468
1772480089584998400,10.140998291015626,-0.4170961157798767,-0.20034721577763556,-0.21659166361391544
1772480089594995200,10.1509951171875,-0.19863105950951576,-0.06841653362214564,-0.18802344851642847
1772480089604993300,10.1609931640625,0.054790451590716834,-0.24289748673737047,-0.2793596699550748
1772480089614991400,10.170991455078125,0.4127379205703735,-0.38551615164577957,-0.38530046306848525
1772480089624988400,10.180988525390624,0.5988967442587018,-0.45287937682271,-0.6128615567252039
1772480089634986500,10.190986572265626,0.4419049783438444,-0.4217383886277675,-0.8539829737007617
1772480089644984600,10.200984619140625,0.2736863004937768,-0.37520752359926696,-1.1098749665677548
1772480089654981400,10.2109814453125,0.2796794034287333,-0.1584177070647478,-1.1949141336888074
1772480089664979500,10.2209794921875,0.2497100893616676,0.02927987049818039,-1.2500959226846695
1772480089674977300,10.230977294921875,0.19299889884144067,0.13117957152724266,-1.2610691521197557
1772480089684975400,10.240975341796876,0.14265548978745937,0.24520050298273563,-1.1997981063380836
1772480089694972200,10.25097216796875,0.1467155788332224,0.3108475718915462,-1.0767694003015755
1772480089704970200,10.26097021484375,0.1960126937046647,0.2875473603248596,-0.989976959772408
1772480089714968300,10.27096826171875,0.18703852913230656,0.25552082146704197,-0.9014271541818976
1772480089724965400,10.28096533203125,0.295648249194026,0.17643968596756457,-0.8535068806216121
1772480089734963500,10.29096337890625,0.42293782754540443,0.08192658805847168,-0.849747235827148
1772480089744961300,10.300961181640625,0.5203334951534867,-0.02939911296367645,-0.8320879527568816
1772480089754959400,10.31095947265625,0.5062897722318768,-0.1154617779135704,-0.730166624417901
1772480089764956400,10.320956298828126,0.5274605705544352,-0.22695991289317607,-0.599625643055141
1772480089774954200,10.330954345703125,0.5441007397100329,-0.27890052801072596,-0.37675241495370865
1772480089784952300,10.340952392578124,0.45218905647099017,-0.13100421496033668,-0.0919680896013975
1772480089794949400,10.350949462890625,0.23528701173365116,0.17600889333486555,0.11935294013321399
1772480089804947500,10.360947509765625,-0.025777707596123217,0.3930488852381706,0.14563304429352283
1772480089814945500,10.370945556640624,-0.3629030455604195,0.37795769909024235,0.1972521723717451
1772480089824942300,10.3809423828125,-0.7664625111579895,0.2980594019889831,0.18231354643702505
1772480089834940400,10.3909404296875,-1.1617547914087771,0.3376765421062708,0.1850087768703699
1772480089844938200,10.400938232421876,-1.4014420839279889,0.32697628439366816,0.1365089498564601
1772480089854936300,10.410936279296875,-1.4123539385646582,0.14133622388243675,0.06853373026102781
1772480089864933400,10.420933349609374,-1.366303258268535,0.05327215598225593,-0.010546236194670199
1772480089874931500,10.430931396484375,-1.4098235433042048,0.14406652562916278,-0.02890811457633972
1772480089884929500,10.440929443359375,-1.428700969992578,0.2705325126379728,0.1650841792166233
1772480089894926300,10.45092626953125,-1.315112584735453,0.3304670491188764,0.3774070794701576
1772480089904924400,10.46092431640625,-1.1075704890176654,0.4362362850576639,0.5686167568072676
1772480089914922500,10.470922607421874,-0.9326087666481733,0.5508785632818937,0.5939259701088071
1772480089924919300,10.480919189453125,-0.8044789380803704,0.6390706414759159,0.42065643860995766
1772480089934917400,10.49091748046875,-0.6653966306045651,0.6374293040096759,0.13520078986734152
1772480089944915200,10.500915283203126,-0.5211901119828224,0.6285971782565116,-0.0309960267663002
1772480089954913300,10.510913330078125,-0.42612376410514113,0.5768050316989421,0.02181406466215849
1772480089964910300,10.520910400390624,-0.44596360608488317,0.35726796228289603,0.15240560716837645
1772480089974908400,10.530908447265626,-0.5109133403792977,0.14396014264523982,0.3359562941849232
1772480089984906500,10.540906494140625,-0.6013087738364935,-0.10308043524622916,0.5042527134463191
1772480089994903300,10.5509033203125,-0.6677659900844096,-0.40500235788226124,0.38586160408258435
1772480090004901400,10.5609013671875,-0.7978466604590415,-0.6625386108249426,0.2882102081477642
1772480090014899200,10.570899169921875,-0.9305649858608841,-0.8626391583651304,0.3136751965329051
1772480090024897300,10.580897216796876,-1.0636050905629992,-1.017981695768237,0.49702480801939963
1772480090034894600,10.59089453125,-1.301104517649114,-0.9713403561025857,0.7950666743516922
1772480090044892400,10.600892333984374,-1.5445912024512887,-0.9034504767030477,1.2068424718916415
1772480090054890500,10.610890380859376,-1.755958993937075,-0.8008084328740834,1.6178922932446003
1772480090064887300,10.62088720703125,-2.0079925578102467,-0.6698200000047684,1.8477376984462142
1772480090074885400,10.630885498046876,-2.175342343871295,-0.6902484555274248,1.925256699195504
1772480090084883500,10.640883544921875,-2.170835095579922,-0.6767325558722019,1.9427876797109842
1772480090094880300,10.65088037109375,-2.074895471999049,-0.7151601939439773,1.8600328241348265
1772480090104878300,10.66087841796875,-1.9201535308375954,-0.7329507021784782,1.7784946508720516
1772480090114876200,10.670876220703125,-1.7316297315835951,-0.677909198436141,1.4877932104304432
1772480090124874200,10.680874267578124,-1.6278677438139915,-0.6289040522485971,1.009850411760807
1772480090134871600,10.69087158203125,-1.4500985628083347,-0.6218243231207132,0.6839169144183397
1772480090144869400,10.700869384765625,-1.2322536842629312,-0.7255705287992954,0.6052864452958107
1772480090154867500,10.710867431640626,-0.8815554557591676,-1.201917874971032,0.6531356994464993
1772480090164864300,10.7208642578125,-0.6045116615310311,-1.4970973376095293,0.7856111560031771
1772480090174862000,10.730862060546874,-0.017031798821687698,-0.8165800025016069,0.9756266551196574
1772480090184860200,10.740860107421875,0.17280805146694184,-0.4801940847277641,1.0910086457952857
1772480090194857200,10.750857177734375,0.2598398537099361,-0.39154257232844825,0.7338555420637131
1772480090204855300,10.760855224609376,0.2633867325365543,-0.3024585137307644,0.2767953724250197
1772480090214853000,10.77085302734375,0.29846096852719783,-0.19160685996115207,0.08458382456898689
1772480090224851200,10.780851318359375,0.48801001917570824,-0.0444201564848423,0.12381371893435716
1772480090234848300,10.79084814453125,0.58559331831038,-0.22880817110836504,-0.0862587720438838
1772480090244846000,10.80084619140625,0.5380050531834364,-0.41084114703834057,-0.552306550258398
1772480090254844200,10.81084423828125,0.3986959512144327,-0.5352887799620628,-1.1676190072670578
1772480090264841000,10.820841064453125,0.07898088999539614,-0.4204050941973924,-1.5150696321517227
1772480090274839000,10.830839111328125,-0.44276890169680116,-0.32895021481513975,-1.5405544942811131
