time,seconds_elapsed,z,y,x
1772480079517294800,0.073294921875,-0.08696608245372772,0.32567986845970154,0.00946249533444643
1772480079527291600,0.083291748046875,-0.0314202606678009,0.3430364727973938,-0.15705005824565887
1772480079537290000,0.0932900390625,-0.003813132643699646,0.312527060508728,-0.3055374026298523
1772480079547288000,0.1032880859375,0.04292933642864227,0.2449919581413269,-0.40710797905921936
1772480079557286000,0.113285888671875,0.11366620659828186,0.1390744000673294,-0.44777554273605347
1772480079567283000,0.123282958984375,0.18325833976268768,0.022252168506383896,-0.4722942113876343
1772480079577280800,0.13328076171875,0.2632284164428711,-0.10991885513067245,-0.49014046788215637
1772480079587278800,0.14327880859375,0.31976091861724854,-0.2678499221801758,-0.4727068841457367
1772480079597277000,0.15327685546875,0.33994439244270325,-0.38686415553092957,-0.4306434988975525
1772480079607273700,0.163273681640625,0.3258852958679199,-0.4892467260360718,-0.3847236633300781
1772480079617271800,0.173271728515625,0.2709406912326813,-0.5394574403762817,-0.326772004365921
1772480079627270000,0.183269775390625,0.2334335297346115,-0.5345209836959839,-0.26679813861846924
1772480079637267000,0.193266845703125,0.20569729804992676,-0.5288312435150146,-0.23055964708328247
1772480079647265000,0.20326513671875,0.20125487446784973,-0.5207149982452393,-0.21150793135166168
1772480079657262800,0.213262939453125,0.22773945331573486,-0.4696939289569855,-0.2052529752254486
1772480079667261000,0.223260986328125,0.24274370074272156,-0.44057172536849976,-0.22135205566883087
1772480079677257700,0.2332578125,0.2552322447299957,-0.45097410678863525,-0.24372825026512146
1772480079687255800,0.243255859375,0.29265549778938293,-0.4469743072986603,-0.29427292943000793
1772480079697254000,0.25325390625,0.33336734771728516,-0.34303054213523865,-0.3207300305366516
1772480079707251700,0.263251708984375,0.3732907772064209,-0.17871801555156708,-0.291374534368515
1772480079717249000,0.2732490234375,0.39063963294029236,-0.07166242599487305,-0.2060829997062683
1772480079727246800,0.283246826171875,0.3744041919708252,-0.06471796333789825,-0.10234782099723816
1772480079737245000,0.293244873046875,0.33115148544311523,-0.04566220939159393,-0.03776933625340462
1772480079747242000,0.303241943359375,0.2750661373138428,-0.02500619925558567,-0.020671576261520386
1772480079757239800,0.31323974609375,0.21229158341884613,-0.06889577955007553,-0.029229389503598213
1772480079767238000,0.32323779296875,0.15783552825450897,-0.1581268459558487,-0.032624389976263046
1772480079777235700,0.333235595703125,0.12376268953084946,-0.2579675018787384,-0.05434224754571915
1772480079787232800,0.343232666015625,0.110908143222332,-0.34060993790626526,-0.0665493756532669
1772480079797230800,0.35323095703125,0.09938880801200867,-0.376604825258255,-0.06759574264287949
1772480079807229000,0.36322900390625,0.09071408957242966,-0.395172655582428,-0.07409679144620895
1772480079817227000,0.37322705078125,0.07440206408500671,-0.41575226187705994,-0.07611477375030518
1772480079827223800,0.383223876953125,0.051161717623472214,-0.4372873604297638,-0.07175783812999725
1772480079837222000,0.393221923828125,0.027901574969291687,-0.46090078353881836,-0.06394881010055542
1772480079847220000,0.403219970703125,-0.003101348876953125,-0.4878232181072235,-0.06484150141477585
1772480079857217800,0.4132177734375,-0.027006449177861214,-0.5531591773033142,-0.06595354527235031
1772480079867214800,0.42321484375,-0.03648277372121811,-0.6743050217628479,-0.06403633952140808
1772480079877212700,0.433212646484375,-0.03879525512456894,-0.8185957670211792,-0.06458307057619095
1772480079887210800,0.443210693359375,-0.032688893377780914,-0.9673935174942017,-0.07458457350730896
1772480079897208000,0.4532080078125,0.015081408433616161,-1.0665545463562012,-0.10708625614643097
1772480079907206000,0.463205810546875,0.07718658447265625,-1.0635827779769897,-0.1415422409772873
1772480079917204000,0.473203857421875,0.14461472630500793,-0.9884303212165833,-0.20796699821949005
1772480079927201800,0.483201904296875,0.21792463958263397,-0.8496417999267578,-0.25262048840522766
1772480079937198800,0.49319873046875,0.27916550636291504,-0.6889575719833374,-0.2498491257429123
1772480079947197000,0.503197021484375,0.34129810333251953,-0.5189128518104553,-0.219198539853096
1772480079957194800,0.51319482421875,0.42685791850090027,-0.3054383099079132,-0.181499183177948
1772480079967192800,0.52319287109375,0.551459789276123,-0.10434327274560928,-0.13277319073677063
1772480079977190000,0.53318994140625,0.629807710647583,0.047077566385269165,-0.0676959976553917
1772480079987188000,0.54318798828125,0.6663366556167603,0.14522863924503326,0.018092945218086243
1772480079997186000,0.55318603515625,0.6714252829551697,0.1352235972881317,0.10875675082206726
1772480080007182800,0.563182861328125,0.6025152206420898,0.021033115684986115,0.16711753606796265
1772480080017181000,0.573180908203125,0.4711374342441559,-0.1703227013349533,0.19974268972873688
1772480080027178800,0.5831787109375,0.3073359727859497,-0.4548947811126709,0.1987043172121048
1772480080037176800,0.5931767578125,0.15900851786136627,-0.7215721607208252,0.19889099895954132
1772480080047174000,0.603173828125,0.04876057803630829,-0.8294616341590881,0.20954391360282898
1772480080057171700,0.613171630859375,-0.013338685967028141,-0.825039803981781,0.2467738687992096
1772480080067169800,0.623169677734375,-0.04841943830251694,-0.8308532238006592,0.3079826533794403
1772480080077167900,0.63316796875,-0.06832998245954514,-0.8338642120361328,0.3644213080406189
1772480080087165000,0.6431650390625,-0.050434600561857224,-0.8049686551094055,0.39037325978279114
1772480080097163000,0.6531630859375,0.02659662254154682,-0.716986358165741,0.38103675842285156
1772480080107160800,0.663160888671875,0.13612604141235352,-0.5666205286979675,0.34623828530311584
1772480080117158000,0.673157958984375,0.23587238788604736,-0.4029196798801422,0.3081795275211334
1772480080127155700,0.68315576171875,0.3306814432144165,-0.28049468994140625,0.2803332507610321
1772480080137153800,0.69315380859375,0.396746963262558,-0.21727438271045685,0.24729500710964203
1772480080147152000,0.70315185546875,0.4425448179244995,-0.1889018714427948,0.2087835669517517
1772480080157149000,0.71314892578125,0.48759156465530396,-0.15704777836799622,0.17766757309436798
1772480080167147300,0.723147216796875,0.5229500532150269,-0.1563313901424408,0.16569453477859497
1772480080177145300,0.733145263671875,0.5541162490844727,-0.2431388795375824,0.1726640909910202
1772480080187143400,0.743143310546875,0.5715652704238892,-0.4018917679786682,0.1856323629617691
1772480080197140200,0.75314013671875,0.5823514461517334,-0.514118492603302,0.2087881714105606
1772480080207138300,0.76313818359375,0.6031320691108704,-0.577033281326294,0.23941558599472046
1772480080217136000,0.77313623046875,0.6338289380073547,-0.6181365251541138,0.2691224217414856
1772480080227134200,0.78313427734375,0.6570000052452087,-0.6794781684875488,0.2840326428413391
1772480080237131300,0.79313134765625,0.6528688669204712,-0.7486241459846497,0.2960992753505707
1772480080247129000,0.803129150390625,0.6388455629348755,-0.7419686317443848,0.3001704514026642
1772480080257127200,0.813127197265625,0.6074747443199158,-0.6558142900466919,0.2947602868080139
1772480080267124200,0.823124267578125,0.5684402585029602,-0.5873068571090698,0.25310710072517395
1772480080277122300,0.833122314453125,0.5316347479820251,-0.5269513726234436,0.1750856339931488
1772480080287120400,0.843120361328125,0.5076359510421753,-0.44239047169685364,0.11333625018596649
1772480080297118200,0.8531181640625,0.5013970732688904,-0.3925916254520416,0.061686623841524124
1772480080307115300,0.863115234375,0.5009134411811829,-0.3828599154949188,0.007246016059070826
1772480080317113000,0.873113037109375,0.5030047297477722,-0.3583027720451355,-0.026568232104182243
1772480080327111200,0.883111083984375,0.5020194053649902,-0.26192376017570496,-0.01962803490459919
1772480080337109200,0.893109130859375,0.499218225479126,-0.12999238073825836,0.02402471750974655
1772480080347106300,0.903106201171875,0.4887722432613373,-0.04999341443181038,0.08030689507722855
1772480080357104400,0.9131044921875,0.46338194608688354,0.0058821733109653,0.09347574412822723
1772480080367102200,0.923102294921875,0.42479220032691956,0.039339467883110046,0.07037495076656342
1772480080377099300,0.933099365234375,0.3849708139896393,0.02748614363372326,0.0248981062322855
1772480080387097300,0.943097412109375,0.3419479727745056,-0.007807134184986353,-0.02534908428788185
1772480080397095200,0.95309521484375,0.30692756175994873,-0.03272799402475357,-0.0522649772465229
1772480080407093200,0.96309326171875,0.26290228962898254,-0.06744150072336197,-0.06382576376199722
1772480080417090300,0.97309033203125,0.20802241563796997,-0.16103963553905487,-0.0547589473426342
1772480080427088400,0.98308837890625,0.1320621371269226,-0.26197609305381775,-0.019484050571918488
1772480080437086500,0.99308642578125,0.0674310103058815,-0.3590030372142792,0.016719333827495575
1772480080447084300,1.003084228515625,0.017408592626452446,-0.42028743028640747,0.021337253972887993
1772480080457081300,1.013081298828125,-0.048896294087171555,-0.4410803020000458,-0.002583526074886322
1772480080467079200,1.0230791015625,-0.15607121586799622,-0.46665650606155396,-0.018726276233792305
1772480080477077200,1.0330771484375,-0.26292088627815247,-0.45460113883018494,-0.061653558164834976
1772480080487075300,1.043075439453125,-0.37762561440467834,-0.47392743825912476,-0.12345540523529053
1772480080497072000,1.053072021484375,-0.46744826436042786,-0.4907709062099457,-0.20416724681854248
1772480080507070200,1.0630703125,-0.5064553618431091,-0.4348876476287842,-0.2879526913166046
1772480080517068000,1.073068115234375,-0.5199465155601501,-0.3581525981426239,-0.3658066987991333
1772480080527065300,1.0830654296875,-0.5181081295013428,-0.20887631177902222,-0.4287574291229248
1772480080537063200,1.093063232421875,-0.4528413712978363,0.010610777884721756,-0.5005192160606384
1772480080547061200,1.103061279296875,-0.3766539394855499,0.20892652869224548,-0.5512207746505737
1772480080557059300,1.113059326171875,-0.305026113986969,0.2823723554611206,-0.5578933954238892
1772480080567056100,1.12305615234375,-0.24534466862678528,0.27846601605415344,-0.5498210787773132
1772480080577054200,1.13305419921875,-0.19085557758808136,0.29279017448425293,-0.5058254599571228
1772480080587052300,1.14305224609375,-0.13874869048595428,0.3562447726726532,-0.4219297766685486
1772480080597049300,1.15304931640625,-0.11441277712583542,0.40000221133232117,-0.3038794696331024
1772480080607047400,1.16304736328125,-0.11488761752843857,0.3291562795639038,-0.17565573751926422
1772480080617045200,1.173045166015625,-0.14915885031223297,0.1967611312866211,-0.037355806678533554
1772480080627043300,1.183043212890625,-0.1940443068742752,0.0815594419836998,0.11891476064920425
1772480080637040000,1.1930400390625,-0.23441588878631592,-0.03879665955901146,0.2864772379398346
1772480080647038200,1.2030380859375,-0.2730271816253662,-0.17540083825588226,0.4668230414390564
1772480080657036300,1.213036376953125,-0.30460432171821594,-0.25099432468414307,0.6189581155776978
1772480080667034000,1.2230341796875,-0.3051731586456299,-0.29267704486846924,0.7574248909950256
1772480080677031200,1.23303125,-0.30328208208084106,-0.2663751542568207,0.8892121911048889
1772480080687029200,1.243029296875,-0.2904056906700134,-0.19682565331459045,0.9888772368431091
1772480080697027300,1.25302734375,-0.22974829375743866,-0.14414580166339874,1.0420732498168945
1772480080707025400,1.263025390625,-0.13519755005836487,-0.1226855143904686,1.011681318283081
1772480080717022200,1.273022216796875,-0.03159276396036148,-0.12254652380943298,0.9180184006690979
1772480080727020300,1.283020263671875,0.07177942991256714,-0.1732371300458908,0.791962206363678
1772480080737018400,1.293018310546875,0.1407955288887024,-0.2654969096183777,0.6329454183578491
1772480080747015200,1.30301513671875,0.19474825263023376,-0.34378665685653687,0.4469289481639862
1772480080757013200,1.31301318359375,0.23965683579444885,-0.35811394453048706,0.24909745156764984
1772480080767011000,1.323010986328125,0.2529457211494446,-0.36215531826019287,0.06900782883167267
1772480080777009200,1.333009033203125,0.26498767733573914,-0.3596891760826111,-0.09251224994659424
1772480080787006200,1.343006103515625,0.281024694442749,-0.3661856949329376,-0.2340075969696045
1772480080797004300,1.35300439453125,0.2764774262905121,-0.39895904064178467,-0.3158665597438812
1772480080807002400,1.36300244140625,0.26663145422935486,-0.43925079703330994,-0.33112862706184387
1772480080817000200,1.373000244140625,0.25589287281036377,-0.4916098117828369,-0.30304285883903503
1772480080826997200,1.382997314453125,0.21223220229148865,-0.5512513518333435,-0.24244184792041779
1772480080836995000,1.3929951171875,0.17138418555259705,-0.6239522099494934,-0.15695245563983917
1772480080846993200,1.4029931640625,0.14661014080047607,-0.6761461496353149,-0.062016088515520096
1772480080856990500,1.412990478515625,0.10890336334705353,-0.7302319407463074,0.013682473450899124
1772480080866988300,1.42298828125,0.08808702975511551,-0.7912707924842834,0.07070820778608322
1772480080876986400,1.432986328125,0.09972266107797623,-0.8280667066574097,0.11910770833492279
1772480080886984400,1.442984375,0.10521649569272995,-0.8433623313903809,0.16036087274551392
1772480080896981200,1.452981201171875,0.11910015344619751,-0.8460588455200195,0.17287275195121765
1772480080906979300,1.462979248046875,0.16680215299129486,-0.8069918751716614,0.17664645612239838
1772480080916977200,1.47297705078125,0.21609839797019958,-0.7520779371261597,0.17810916900634766
1772480080926975200,1.482975341796875,0.25407135486602783,-0.7096260786056519,0.19520533084869385
1772480080936972000,1.492971923828125,0.2809177339076996,-0.6653032302856445,0.22826789319515228
1772480080946970000,1.50297021484375,0.30074551701545715,-0.5945326685905457,0.283931702375412
1772480080956968200,1.51296826171875,0.30445653200149536,-0.5545766949653625,0.3393407464027405
1772480080966965200,1.52296533203125,0.289804607629776,-0.5909565687179565,0.39292246103286743
1772480080976963300,1.53296337890625,0.26751509308815,-0.6108553409576416,0.4298315644264221
1772480080986961200,1.542961181640625,0.2454390823841095,-0.6383559703826904,0.4302898943424225
1772480080996959200,1.552959228515625,0.21143606305122375,-0.6907168626785278,0.38698235154151917
1772480081006956300,1.562956298828125,0.18656079471111298,-0.7309290170669556,0.3281691074371338
1772480081016954000,1.5729541015625,0.17484022676944733,-0.7505724430084229,0.2607360780239105
1772480081026952200,1.5829521484375,0.16324934363365173,-0.7900897264480591,0.19604893028736115
1772480081036950300,1.5929501953125,0.1686304658651352,-0.869406521320343,0.13241137564182281
1772480081046947300,1.602947265625,0.18531011044979095,-0.9498571753501892,0.08717572689056396
1772480081056945400,1.6129453125,0.22683414816856384,-0.9812291264533997,0.05888796225190163
1772480081066943200,1.622943115234375,0.2846018373966217,-0.9861181378364563,0.033008694648742676
1772480081076940300,1.632940185546875,0.3244554400444031,-1.0194307565689087,0.007317725569009781
1772480081086938000,1.642938232421875,0.3425249755382538,-1.0607291460037231,-0.013975312933325768
1772480081096936200,1.652936279296875,0.35500645637512207,-1.057079792022705,-0.020107125863432884
1772480081106934300,1.662934326171875,0.36082810163497925,-1.0256561040878296,-0.014358692802488804
1772480081116931300,1.672931396484375,0.35767149925231934,-0.9977439045906067,0.0068191466853022575
1772480081126929400,1.682929443359375,0.36344361305236816,-0.9465808868408203,0.051655858755111694
1772480081136927200,1.69292724609375,0.36608654260635376,-0.9179981350898743,0.11180874705314636
1772480081146925300,1.70292529296875,0.37495672702789307,-0.9007991552352905,0.176895871758461
1772480081156922400,1.71292236328125,0.3694462776184082,-0.9401072263717651,0.23243357241153717
1772480081166920200,1.722920166015625,0.35428011417388916,-0.9957518577575684,0.25337135791778564
1772480081176917800,1.732917724609375,0.3338337540626526,-1.0347238779067993,0.24735215306282043
1772480081186914800,1.742914794921875,0.31469202041625977,-1.0588375329971313,0.21232867240905762
1772480081196912600,1.75291259765625,0.29566359519958496,-1.0666743516921997,0.1449909806251526
1772480081206911000,1.762910888671875,0.2727859914302826,-1.107260823249817,0.07184593379497528
1772480081216909000,1.772908935546875,0.27160435914993286,-1.1526190042495728,0.001005049329251051
1772480081226905900,1.78290576171875,0.33025461435317993,-1.115381121635437,-0.06600407510995865
1772480081236904000,1.792904052734375,0.44114950299263,-0.8931021690368652,-0.09959443658590317
1772480081246901800,1.80290185546875,0.5712954998016357,-0.5574756860733032,-0.11644558608531952
1772480081256899800,1.81289990234375,0.6627911925315857,-0.2591879963874817,-0.11823511123657227
1772480081266897000,1.82289697265625,0.7413845062255859,-0.01767284981906414,-0.04484690725803375
1772480081276894700,1.832894775390625,0.7979956269264221,0.11518536508083344,0.0975683182477951
1772480081286892800,1.842892822265625,0.7811974883079529,0.011031001806259155,0.23246540129184723
1772480081296889900,1.852889892578125,0.6320661306381226,-0.40625354647636414,0.3207497000694275
1772480081306888000,1.862887939453125,0.48392969369888306,-0.902793824672699,0.36961203813552856
1772480081316886000,1.872885986328125,0.4099920988082886,-1.1890028715133667,0.37555360794067383
1772480081326883800,1.8828837890625,0.40739789605140686,-1.2642704248428345,0.3734169602394104
1772480081336881000,1.892880859375,0.46152082085609436,-1.367390751838684,0.37200453877449036
1772480081346878700,1.902878662109375,0.5446133017539978,-1.5929391384124756,0.3596738278865814
1772480081356876800,1.912876708984375,0.6310791373252869,-1.8576592206954956,0.33730006217956543
1772480081366875000,1.922875,0.6915755271911621,-1.9744596481323242,0.3812621831893921
1772480081376872000,1.932871826171875,0.7741522789001465,-1.8990728855133057,0.4326190650463104
1772480081386870000,1.9428701171875,0.8563768267631531,-1.7714935541152954,0.43656694889068604
1772480081396867800,1.952867919921875,0.9124315977096558,-1.7200993299484253,0.4206226170063019
1772480081406865000,1.962864990234375,0.9571078419685364,-1.6888818740844727,0.4121644198894501
1772480081416863000,1.972863037109375,1.0316280126571655,-1.6558291912078857,0.40246281027793884
1772480081426860800,1.98286083984375,1.1244261264801025,-1.6306793689727783,0.40676701068878174
1772480081436859000,1.99285888671875,1.1948291063308716,-1.6468225717544556,0.42973172664642334
1772480081446855700,2.002855712890625,1.2279125452041626,-1.6773500442504883,0.4687073528766632
1772480081456853800,2.012853759765625,1.2580053806304932,-1.6814266443252563,0.49757763743400574
1772480081466851800,2.022851806640625,1.254574179649353,-1.6763147115707397,0.5178767442703247
1772480081476850000,2.032849853515625,1.2297354936599731,-1.695074200630188,0.5589916110038757
1772480081486847000,2.042846923828125,1.2017635107040405,-1.7059271335601807,0.6336930394172668
1772480081496844800,2.0528447265625,1.1677591800689697,-1.694411039352417,0.7098325490951538
1772480081506843000,2.0628427734375,1.1286001205444336,-1.6795042753219604,0.762556254863739
1772480081516840000,2.07283984375,1.0940407514572144,-1.689534306526184,0.7936843037605286
1772480081526837800,2.082837646484375,1.070833444595337,-1.7002053260803223,0.813458263874054
1772480081536835800,2.0928359375,1.0601065158843994,-1.7010680437088013,0.8080546259880066
1772480081546833700,2.102833740234375,1.0425187349319458,-1.713785171508789,0.7841543555259705
1772480081556831000,2.1128310546875,1.0352439880371094,-1.754953145980835,0.7455358505249023
1772480081566829000,2.1228291015625,1.0418074131011963,-1.773783564567566,0.699765682220459
1772480081576827000,2.132826904296875,1.0616190433502197,-1.784299373626709,0.6529657244682312
1772480081586825000,2.142824951171875,1.0870977640151978,-1.8138903379440308,0.6204980611801147
1772480081596821800,2.15282177734375,1.1279709339141846,-1.8354557752609253,0.5932896733283997
1772480081606819800,2.16281982421875,1.1581690311431885,-1.8349337577819824,0.553439736366272
1772480081616818000,2.17281787109375,1.1640580892562866,-1.8489488363265991,0.5201261639595032
1772480081626814700,2.182814697265625,1.158024787902832,-1.8765634298324585,0.4972149729728699
1772480081636812800,2.192812744140625,1.1403000354766846,-1.8706862926483154,0.48271507024765015
1772480081646811000,2.202810791015625,1.116288185119629,-1.8433440923690796,0.4636510908603668
1772480081656809000,2.21280908203125,1.0659706592559814,-1.830948829650879,0.4263343811035156
1772480081666806000,2.222805908203125,1.0224857330322266,-1.8319040536880493,0.3740679621696472
1772480081676803800,2.232803955078125,0.9913576245307922,-1.8891149759292603,0.34035825729370117
1772480081686802000,2.242802001953125,0.9637225270271301,-1.913934588432312,0.3371206521987915
1772480081696799700,2.2527998046875,0.943593442440033,-1.917359709739685,0.35088080167770386
1772480081706796800,2.262796875,0.9174630045890808,-1.9293838739395142,0.3671383559703827
1772480081716795000,2.272794921875,0.8960580825805664,-1.92645263671875,0.3655109107494354
1772480081726792700,2.282792724609375,0.8825185894966125,-1.8926331996917725,0.3488709628582001
1772480081736790000,2.2927900390625,0.8686298131942749,-1.847057580947876,0.331650048494339
1772480081746787800,2.302787841796875,0.8536138534545898,-1.8020610809326172,0.3371358811855316
1772480081756786000,2.312785888671875,0.8489933609962463,-1.7559586763381958,0.3576951026916504
1772480081766784000,2.322783935546875,0.8567428588867188,-1.7020351886749268,0.37971916794776917
1772480081776780800,2.33278076171875,0.8607675433158875,-1.6556596755981445,0.40786731243133545
1772480081786779000,2.34277880859375,0.8443874716758728,-1.589282751083374,0.4313891530036926
1772480081796776700,2.352776611328125,0.8235377073287964,-1.4929410219192505,0.44358599185943604
1772480081806774800,2.36277490234375,0.7955420017242432,-1.4063024520874023,0.4443711042404175
1772480081816772000,2.372772216796875,0.7580674886703491,-1.350386381149292,0.4343760013580322
1772480081826770000,2.38277001953125,0.7285205125808716,-1.3139647245407104,0.4084109663963318
1772480081836768000,2.39276806640625,0.7081695199012756,-1.3155096769332886,0.3493744432926178
1772480081846764800,2.402764892578125,0.6900038123130798,-1.3497971296310425,0.2796030640602112
1772480081856763000,2.412762939453125,0.6733797788619995,-1.3996111154556274,0.21979159116744995
1772480081866761000,2.422760986328125,0.6553011536598206,-1.4208513498306274,0.1588563323020935
1772480081876758800,2.4327587890625,0.644055187702179,-1.4374353885650635,0.09834404289722443
1772480081886755800,2.442755859375,0.6374401450157166,-1.45899498462677,0.07556895166635513
1772480081896753700,2.452753662109375,0.642822265625,-1.4492089748382568,0.09511961787939072
1772480081906751700,2.462751708984375,0.6619466543197632,-1.4307972192764282,0.1353064477443695
1772480081916748800,2.472748779296875,0.6710187196731567,-1.411804437637329,0.18011385202407837
1772480081926747000,2.482746826171875,0.676750898361206,-1.367069959640503,0.24670271575450897
1772480081936745000,2.492744873046875,0.6712766289710999,-1.2953208684921265,0.3272280693054199
1772480081946742800,2.50274267578125,0.6501452326774597,-1.248963713645935,0.398835152387619
1772480081956739800,2.51273974609375,0.6265701055526733,-1.2454837560653687,0.45109525322914124
1772480081966737700,2.522737548828125,0.5987979173660278,-1.2291574478149414,0.46609312295913696
1772480081976735700,2.53273583984375,0.5695681571960449,-1.1897865533828735,0.4471611976623535
1772480081986733800,2.54273388671875,0.5372658967971802,-1.1580568552017212,0.40734267234802246
1772480081996731000,2.55273095703125,0.48610737919807434,-1.150805115699768,0.3735085725784302
1772480082006729000,2.56272900390625,0.4270933270454407,-1.166200876235962,0.36016133427619934
1772480082016727000,2.57272705078125,0.38642415404319763,-1.1965891122817993,0.3530430495738983
1772480082026723800,2.582723876953125,0.3679463565349579,-1.2450411319732666,0.3678523600101471
1772480082036722000,2.592721923828125,0.3452633023262024,-1.309226155281067,0.39707598090171814
1772480082046719700,2.6027197265625,0.330684095621109,-1.3649672269821167,0.4163482189178467
1772480082056717800,2.6127177734375,0.34975218772888184,-1.400194764137268,0.41198211908340454
1772480082066715000,2.62271484375,0.38992810249328613,-1.416416049003601,0.3907037377357483
1772480082076713000,2.632712890625,0.43701496720314026,-1.3800479173660278,0.37009668350219727
1772480082086711000,2.6427109375,0.5322626829147339,-1.3482401371002197,0.34355801343917847
1772480082096708900,2.652708984375,0.6123047471046448,-1.332492470741272,0.26907607913017273
1772480082106706000,2.662705810546875,0.6511959433555603,-1.410501480102539,0.1938851773738861
1772480082116703700,2.672703857421875,0.6590469479560852,-1.5260202884674072,0.12739914655685425
1772480082126701800,2.682701904296875,0.6468190550804138,-1.5918365716934204,0.08197573572397232
1772480082136699000,2.692698974609375,0.6346592903137207,-1.6001428365707397,0.013271858915686607
1772480082146696700,2.70269677734375,0.5979892015457153,-1.5963547229766846,-0.07283825427293777
1772480082156694800,2.71269482421875,0.5470510125160217,-1.6043726205825806,-0.14467038214206696
1772480082166692900,2.72269287109375,0.5009754300117493,-1.5826971530914307,-0.18753528594970703
1772480082176690700,2.732690673828125,0.4660388231277466,-1.5378680229187012,-0.2122144252061844
1772480082186688800,2.742688720703125,0.4595244824886322,-1.4550882577896118,-0.21295905113220215
1772480082196686600,2.7526865234375,0.4494999647140503,-1.3822293281555176,-0.19678977131843567
1772480082206683600,2.76268359375,0.44162607192993164,-1.3037749528884888,-0.14224423468112946
1772480082216681700,2.772681640625,0.4542992413043976,-1.2071632146835327,-0.0449487566947937
1772480082226679600,2.782679443359375,0.4692715108394623,-1.1160612106323242,0.07546713203191757
1772480082236677600,2.792677734375,0.49822357296943665,-1.0521613359451294,0.18930013477802277
1772480082246674400,2.80267431640625,0.5310882925987244,-1.0094096660614014,0.2785690426826477
1772480082256672500,2.812672607421875,0.5651351809501648,-0.9704365730285645,0.37884286046028137
1772480082266670600,2.822670654296875,0.6184993386268616,-0.9132121801376343,0.4677277207374573
1772480082276668700,2.832668701171875,0.6699636578559875,-0.8704813718795776,0.5194205641746521
1772480082286665700,2.842665771484375,0.7369237542152405,-0.8831010460853577,0.5319544672966003
1772480082296663600,2.85266357421875,0.7949104309082031,-0.9047973155975342,0.5300037860870361
1772480082306661600,2.86266162109375,0.8499113321304321,-0.9422485828399658,0.5017455220222473
1772480082316658400,2.872658447265625,0.9207291603088379,-0.9668001532554626,0.43030789494514465
1772480082326656500,2.882656494140625,0.9609335660934448,-0.9847291111946106,0.3383960723876953
1772480082336654600,2.892654541015625,0.9701700806617737,-1.0437473058700562,0.2480178326368332
1772480082346652400,2.90265234375,0.9741964936256409,-1.0319057703018188,0.09647411853075027
1772480082356649700,2.912649658203125,0.9083355665206909,-0.9354560375213623,-0.03867127001285553
1772480082366647800,2.922647705078125,0.8045218586921692,-0.8801530599594116,-0.1571875363588333
1772480082376645600,2.932645751953125,0.6911319494247437,-0.903786838054657,-0.2520976662635803
1772480082386643700,2.942643798828125,0.5833993554115295,-0.883759081363678,-0.30988559126853943
1772480082396640500,2.952640625,0.5428158044815063,-0.8541020154953003,-0.35234197974205017
1772480082406638600,2.962638671875,0.532526969909668,-0.9347497224807739,-0.36900779604911804
1772480082416636700,2.97263671875,0.5219616293907166,-1.055883526802063,-0.35382208228111267
1772480082426633500,2.982633544921875,0.5326384902000427,-1.1297314167022705,-0.3087374269962311
1772480082436631600,2.992631591796875,0.5544835925102234,-1.1636511087417603,-0.25063639879226685
1772480082446629600,3.002629638671875,0.5546290278434753,-1.2204121351242065,-0.17842958867549896
1772480082456627700,3.012627685546875,0.5421310067176819,-1.2350704669952393,-0.1187271997332573
1772480082466624500,3.02262451171875,0.5163470506668091,-1.1944265365600586,-0.0660802349448204
1772480082476622600,3.03262255859375,0.4839971959590912,-1.1328808069229126,-0.02070930041372776
1772480082486620700,3.04262060546875,0.44819313287734985,-1.0954396724700928,0.016028206795454025
1772480082496617500,3.052617431640625,0.4075874984264374,-1.1024322509765625,0.04849167540669441
1772480082506615600,3.062615478515625,0.36638975143432617,-1.114727258682251,0.052782561630010605
1772480082516613600,3.072613525390625,0.32826709747314453,-1.1230969429016113,0.039232444018125534
1772480082526611500,3.082611572265625,0.2877503037452698,-1.103844165802002,0.05369793623685837
1772480082536608800,3.09260888671875,0.2517997920513153,-1.071829080581665,0.11972875893115997
1772480082546606600,3.102606689453125,0.22058357298374176,-1.0019477605819702,0.20699122548103333
1772480082556604700,3.112604736328125,0.16048584878444672,-0.9562544226646423,0.2909809947013855
1772480082566602800,3.122602783203125,0.08646835386753082,-0.9363749623298645,0.34385061264038086
1772480082576599600,3.132599609375,0.024305474013090134,-0.8861523270606995,0.3442928194999695
1772480082586597600,3.14259765625,-0.013249091804027557,-0.8272964358329773,0.29499053955078125
1772480082596595500,3.152595458984375,-0.01827530935406685,-0.7672907114028931,0.23820163309574127
1772480082606592800,3.1625927734375,0.010435697622597218,-0.6600310802459717,0.20935533940792084
1772480082616590600,3.172590576171875,0.057595375925302505,-0.52449631690979,0.19278423488140106
1772480082626588700,3.182588623046875,0.11333959549665451,-0.3872569799423218,0.16011790931224823
1772480082636586800,3.192586669921875,0.16907304525375366,-0.2661988139152527,0.11935026943683624
1772480082646583600,3.20258349609375,0.2145204097032547,-0.1867026537656784,0.08250010758638382
1772480082656581600,3.21258154296875,0.24296042323112488,-0.13027141988277435,0.08538815379142761
1772480082666579700,3.222579833984375,0.25077202916145325,-0.11058826744556427,0.1210382878780365
1772480082676576500,3.232576416015625,0.25732874870300293,-0.13324829936027527,0.1403341442346573
1772480082686574600,3.24257470703125,0.2455112338066101,-0.2249387949705124,0.1452159732580185
1772480082696572400,3.252572509765625,0.19506525993347168,-0.43333956599235535,0.15928030014038086
1772480082706570800,3.26257080078125,0.1295216679573059,-0.7022778391838074,0.1798124611377716
1772480082716567600,3.272567626953125,0.04040859639644623,-0.9101586937904358,0.18770229816436768
1772480082726565600,3.282565673828125,-0.03653012961149216,-1.0003210306167603,0.17408102750778198
1772480082736563700,3.292563720703125,-0.11192184686660767,-1.0687670707702637,0.15989376604557037
1772480082746561500,3.3025615234375,-0.18137522041797638,-1.1591718196868896,0.16780894994735718
1772480082756558600,3.31255859375,-0.23033389449119568,-1.2409988641738892,0.1747359186410904
1772480082766556400,3.322556396484375,-0.2211925983428955,-1.256980538368225,0.19685320556163788
1772480082776554500,3.332554443359375,-0.17986507713794708,-1.239782691001892,0.22112640738487244
1772480082786551800,3.3425517578125,-0.11981505155563354,-1.202957272529602,0.22618108987808228
1772480082796549600,3.352549560546875,-0.027149546891450882,-1.1196649074554443,0.24640214443206787
1772480082806547700,3.362547607421875,0.09619183093309402,-0.983400285243988,0.24162764847278595
1772480082816545800,3.3725458984375,0.2219206839799881,-0.8366633653640747,0.22041262686252594
1772480082826542600,3.38254248046875,0.3242017924785614,-0.7714883685112,0.2057146430015564
1772480082836540700,3.392540771484375,0.39279118180274963,-0.7366379499435425,0.20508907735347748
1772480082846538500,3.40253857421875,0.44759395718574524,-0.673101544380188,0.20587098598480225
1772480082856535600,3.41253564453125,0.4735233783721924,-0.6307117342948914,0.2244051992893219
1772480082866533600,3.42253369140625,0.486178994178772,-0.6374649405479431,0.2696128785610199
1772480082876531700,3.43253173828125,0.47918006777763367,-0.6412687301635742,0.3270571827888489
1772480082886529800,3.44252978515625,0.458312064409256,-0.6361285448074341,0.3615749478340149
1772480082896526600,3.452526611328125,0.423103392124176,-0.6377925276756287,0.37407347559928894
1772480082906524700,3.462524658203125,0.3829229474067688,-0.6615104079246521,0.36910322308540344
1772480082916522500,3.4725224609375,0.3604270815849304,-0.6792584657669067,0.35533037781715393
1772480082926520600,3.4825205078125,0.3648870885372162,-0.7006790637969971,0.3308708667755127
1772480082936517600,3.492517578125,0.3817566931247711,-0.744672417640686,0.295821875333786
1772480082946515500,3.502515380859375,0.40237224102020264,-0.7910881638526917,0.2578792870044708
1772480082956513500,3.512513427734375,0.43361350893974304,-0.8015770316123962,0.2226313054561615
1772480082966510600,3.522510498046875,0.4729955494403839,-0.7771611213684082,0.17671148478984833
1772480082976508700,3.5325087890625,0.5007874369621277,-0.7389188408851624,0.1455187201499939
1772480082986506800,3.5425068359375,0.5129652619361877,-0.7510104179382324,0.10918308794498444
1772480082996504600,3.552504638671875,0.508786678314209,-0.7310355305671692,0.07318112254142761
1772480083006501600,3.562501708984375,0.510357677936554,-0.6844933032989502,0.03997363522648811
1772480083016499500,3.57249951171875,0.4914255738258362,-0.6381138563156128,0.024748265743255615
1772480083026497500,3.58249755859375,0.46855488419532776,-0.5914525985717773,0.03268475458025932
1772480083036494800,3.592494873046875,0.45156165957450867,-0.5228880643844604,0.07203027606010437
1772480083046492700,3.60249267578125,0.4291330575942993,-0.4570768177509308,0.13260520994663239
1772480083056490800,3.61249072265625,0.40522822737693787,-0.3883403539657593,0.20167671144008636
1772480083066488600,3.622488525390625,0.37675929069519043,-0.3124277591705322,0.26308920979499817
1772480083076485600,3.632485595703125,0.3316946029663086,-0.2652153968811035,0.2996441721916199
1772480083086483700,3.642483642578125,0.27158039808273315,-0.2509898543357849,0.2968534529209137
1772480083096481500,3.6524814453125,0.20216387510299683,-0.2574712038040161,0.2567110061645508
1772480083106478600,3.662478515625,0.12054064124822617,-0.2879646420478821,0.19977925717830658
1772480083116476400,3.672476318359375,0.05405470356345177,-0.29367563128471375,0.1435178816318512
1772480083126474500,3.682474609375,-0.005730333738029003,-0.2427394688129425,0.09886999428272247
1772480083136472600,3.69247265625,-0.054729681462049484,-0.19064225256443024,0.06984487175941467
1772480083146469600,3.7024697265625,-0.07519501447677612,-0.18343625962734222,0.04533260315656662
1772480083156467700,3.7124677734375,-0.08812801539897919,-0.1670028120279312,0.02093086764216423
1772480083166465500,3.722465576171875,-0.08671174943447113,-0.12043504416942596,0.001031460240483284
1772480083176463000,3.732463134765625,-0.088193878531456,-0.10363279283046722,-0.024891944602131844
1772480083186460000,3.7424599609375,-0.10133364796638489,-0.1277860701084137,-0.06372722238302231
1772480083196458000,3.7524580078125,-0.11948879063129425,-0.16634656488895416,-0.12204258888959885
1772480083206456000,3.7624560546875,-0.1488512009382248,-0.22169211506843567,-0.1907108724117279
1772480083216453000,3.772453125,-0.1836451292037964,-0.2609492242336273,-0.26035359501838684
1772480083226451000,3.782450927734375,-0.21374285221099854,-0.32205304503440857,-0.32210591435432434
1772480083236449000,3.792448974609375,-0.22869285941123962,-0.39825576543807983,-0.38518640398979187
1772480083246447000,3.802447021484375,-0.22418811917304993,-0.47805553674697876,-0.4268009662628174
1772480083256444000,3.81244384765625,-0.2018808275461197,-0.5349636077880859,-0.4231303632259369
1772480083266442000,3.82244189453125,-0.14202815294265747,-0.46327826380729675,-0.3779982924461365
1772480083276440000,3.832440185546875,-0.10618346184492111,-0.34284472465515137,-0.3045240342617035
1772480083286437000,3.84243701171875,-0.10375732183456421,-0.2275061160326004,-0.20067965984344482
1772480083296435200,3.852435302734375,-0.12628647685050964,-0.10232104361057281,-0.08893528580665588
1772480083306433000,3.86243310546875,-0.13893944025039673,0.06802166253328323,0.015686731785535812
1772480083316431000,3.87243115234375,-0.1259571611881256,0.24953901767730713,0.0809558555483818
1772480083326428000,3.882427978515625,-0.13756321370601654,0.3202025294303894,0.11747711151838303
1772480083336426000,3.892426025390625,-0.1768815666437149,0.29405730962753296,0.1382361501455307
1772480083346424000,3.902424072265625,-0.23098979890346527,0.2668299376964569,0.1507657915353775
1772480083356422000,3.912421875,-0.3050443232059479,0.22563616931438446,0.1736450046300888
1772480083366419200,3.922419189453125,-0.3813132643699646,0.13937771320343018,0.22852823138237
1772480083376417000,3.9324169921875,-0.4315008223056793,0.06185301020741463,0.29305747151374817
1772480083386415000,3.9424150390625,-0.4739265739917755,0.03494975343346596,0.331815242767334
1772480083396412200,3.952412109375,-0.5118603706359863,0.036884114146232605,0.3786770701408386
1772480083406410000,3.962409912109375,-0.5425780415534973,0.07140693813562393,0.432851105928421
1772480083416408000,3.972407958984375,-0.554402768611908,0.13866867125034332,0.473732590675354
1772480083426406100,3.98240625,-0.5407562255859375,0.19049325585365295,0.5140789151191711
1772480083436403000,3.99240283203125,-0.4777005612850189,0.19159899652004242,0.5045315027236938
1772480083446401000,4.002401123046875,-0.39589357376098633,0.17056241631507874,0.4598684310913086
1772480083456398800,4.01239892578125,-0.27175217866897583,0.16335557401180267,0.36526599526405334
1772480083466396200,4.022396240234375,-0.12039006501436234,0.16049639880657196,0.17149199545383453
1772480083476394000,4.03239404296875,0.03644377738237381,0.17648719251155853,-0.05964501574635506
1772480083486392000,4.04239208984375,0.17174886167049408,0.19096094369888306,-0.22882258892059326
1772480083496390100,4.05239013671875,0.2820044159889221,0.24246951937675476,-0.2931627035140991
1772480083506387000,4.062386962890625,0.36618348956108093,0.30720749497413635,-0.2955949604511261
1772480083516385000,4.072385009765625,0.41603919863700867,0.32605910301208496,-0.2633897662162781
1772480083526382800,4.0823828125,0.40681588649749756,0.34804990887641907,-0.20696726441383362
1772480083536380200,4.092380126953125,0.35709020495414734,0.37894755601882935,-0.11649074405431747
1772480083546378200,4.102378173828125,0.28766292333602905,0.3812003433704376,-0.017886672168970108
1772480083556376000,4.1123759765625,0.22511717677116394,0.35681623220443726,0.062219370156526566
1772480083566374100,4.1223740234375,0.18543128669261932,0.3226286768913269,0.10504300892353058
1772480083576371000,4.132370849609375,0.16003669798374176,0.2715063989162445,0.09584249556064606
1772480083586369000,4.142369140625,0.1362655758857727,0.19824735820293427,0.04772982746362686
1772480083596367000,4.1523671875,0.11378464102745056,0.11598895490169525,-0.02518104761838913
1772480083606365000,4.162364990234375,0.08588909357786179,0.034061335027217865,-0.11731284111738205
1772480083616362000,4.172362060546875,0.05612396076321602,-0.025107482448220253,-0.19966845214366913
1772480083626360000,4.182360107421875,0.04666893929243088,-0.07297993451356888,-0.2909797430038452
1772480083636358100,4.192358154296875,0.04205113649368286,-0.1023063212633133,-0.36797574162483215
1772480083646355000,4.20235498046875,0.047426193952560425,-0.11973324418067932,-0.4231548607349396
1772480083656353000,4.21235302734375,0.07780493795871735,-0.12075991928577423,-0.4602135419845581
1772480083666351000,4.22235107421875,0.09533172845840454,-0.01804792694747448,-0.45690909028053284
1772480083676349000,4.232348876953125,0.1176946684718132,0.1178237721323967,-0.405229389667511
1772480083686346000,4.242345947265625,0.1572929322719574,0.249909907579422,-0.32237815856933594
1772480083696344000,4.252343994140625,0.20703350007534027,0.3209896981716156,-0.22524964809417725
1772480083706342000,4.262341796875,0.2577393054962158,0.3448771834373474,-0.14625683426856995
1772480083716339200,4.272339111328125,0.297775536775589,0.2973119914531708,-0.0959855392575264
1772480083726337000,4.2823369140625,0.3259935975074768,0.26500892639160156,-0.06559141725301743
1772480083736335000,4.292335205078125,0.3340615928173065,0.2763622999191284,-0.011471698060631752
1772480083746333200,4.302333251953125,0.31369584798812866,0.25691989064216614,0.07193984091281891
1772480083756330000,4.312330078125,0.2587150037288666,0.19994977116584778,0.14551861584186554
1772480083766328000,4.322328125,0.1789914071559906,0.12761618196964264,0.18947888910770416
1772480083776326000,4.332325927734375,0.0844588428735733,0.05308031290769577,0.19399330019950867
1772480083786323000,4.342322998046875,-0.004535743035376072,-0.03983258083462715,0.18105699121952057
1772480083796321000,4.352321044921875,-0.07395794987678528,-0.1201595664024353,0.17522650957107544
1772480083806319000,4.362319091796875,-0.11413678526878357,-0.17026428878307343,0.18855774402618408
1772480083816317200,4.372317138671875,-0.1073378399014473,-0.21061797440052032,0.1820598989725113
1772480083826314000,4.38231396484375,-0.10990273207426071,-0.2377939373254776,0.1529472917318344
1772480083836312000,4.39231201171875,-0.12419206649065018,-0.23151437938213348,0.12184908241033554
1772480083846310100,4.40231005859375,-0.13028216361999512,-0.23952090740203857,0.0837717354297638
1772480083856308000,4.412307861328125,-0.14764265716075897,-0.2745443880558014,0.03539203852415085
1772480083866305000,4.422304931640625,-0.1776929646730423,-0.31189629435539246,-0.007520273793488741
1772480083876302800,4.432302734375,-0.20483596622943878,-0.3445279598236084,-0.045241691172122955
1772480083886301000,4.442301025390625,-0.2541100084781647,-0.41881871223449707,-0.10539557784795761
1772480083896298000,4.452298095703125,-0.2882794141769409,-0.40588057041168213,-0.14683128893375397
1772480083906296000,4.462296142578125,-0.25515130162239075,-0.2624957263469696,-0.1772768199443817
1772480083916294100,4.472294189453125,-0.20537878572940826,-0.10731767863035202,-0.18177060782909393
1772480083926292000,4.4822919921875,-0.1599969118833542,0.020953742787241936,-0.17601551115512848
1772480083936289000,4.4922890625,-0.08793449401855469,0.19058215618133545,-0.16734321415424347
1772480083946286800,4.502286865234375,-0.019835595041513443,0.3758699893951416,-0.1447521448135376
1772480083956285000,4.512284912109375,0.06795310974121094,0.51861172914505,-0.09971170127391815
1772480083966282200,4.5222822265625,0.13340014219284058,0.5525381565093994,-0.000804985873401165
1772480083976280000,4.532280029296875,0.1317964345216751,0.4384876787662506,0.08663152158260345
1772480083986278100,4.542278076171875,0.051923975348472595,0.12354810535907745,0.15909133851528168
1772480083996276200,4.552276123046875,-0.08312857151031494,-0.2529059052467346,0.16094191372394562
1772480084006273000,4.56227294921875,-0.1858227401971817,-0.4598662853240967,0.07427333295345306
1772480084016271000,4.57227099609375,-0.2675400972366333,-0.5199519991874695,-0.049116428941488266
1772480084026269000,4.58226904296875,-0.3553692698478699,-0.5893015265464783,-0.1380220651626587
1772480084036266000,4.592265869140625,-0.44239842891693115,-0.6338984966278076,-0.19711385667324066
1772480084046263800,4.602263916015625,-0.4931443929672241,-0.5780549049377441,-0.2493206113576889
1772480084056262100,4.61226220703125,-0.5044384002685547,-0.47895780205726624,-0.2716670334339142
1772480084066260200,4.62226025390625,-0.471792072057724,-0.3872111141681671,-0.25404834747314453
1772480084076257000,4.632257080078125,-0.4461088180541992,-0.3165738582611084,-0.18545155227184296
1772480084086255000,4.642255126953125,-0.4209541976451874,-0.2973293364048004,-0.10082774609327316
1772480084096253000,4.6522529296875,-0.3879566192626953,-0.326951801776886,-0.07306890934705734
1772480084106250000,4.66225,-0.33777788281440735,-0.35911986231803894,-0.07489423453807831
1772480084116248000,4.672248046875,-0.2521209418773651,-0.3472387194633484,-0.10849092900753021
1772480084126246000,4.682245849609375,-0.11760493367910385,-0.2280244380235672,-0.15624086558818817
1772480084136244000,4.692243896484375,0.03218725323677063,-0.09628807753324509,-0.19295436143875122
1772480084146241000,4.702240966796875,0.19244830310344696,-0.012468012049794197,-0.19113676249980927
1772480084156239000,4.712239013671875,0.3503737151622772,0.0560847707092762,-0.14832808077335358
1772480084166237200,4.7222373046875,0.4714990556240082,0.10226026177406311,-0.06934832036495209
1772480084176234000,4.73223388671875,0.561705470085144,0.12263667583465576,0.05247580260038376
1772480084186232000,4.742232177734375,0.62821364402771,0.09853587299585342,0.2133464515209198
1772480084196230100,4.752230224609375,0.6370643377304077,0.054630085825920105,0.3891203999519348
1772480084206228000,4.76222802734375,0.5958929061889648,0.0655146911740303,0.5344246029853821
1772480084216225000,4.77222509765625,0.5209488868713379,0.07327474653720856,0.6046096086502075
1772480084226223000,4.78222314453125,0.43069517612457275,0.02937866374850273,0.5976042151451111
1772480084236221200,4.79222119140625,0.33674752712249756,-0.030202791094779968,0.5394682288169861
1772480084246219300,4.80221923828125,0.28486567735671997,-0.08225853741168976,0.4754897356033325
1772480084256216000,4.812216064453125,0.24057823419570923,-0.11811258643865585,0.412141889333725
1772480084266214100,4.822214111328125,0.20659416913986206,-0.16009971499443054,0.34702226519584656
1772480084276212200,4.832212158203125,0.19222001731395721,-0.185289666056633,0.28059467673301697
1772480084286209000,4.842208984375,0.18383798003196716,-0.1626991331577301,0.22911496460437775
1772480084296207000,4.85220703125,0.17976219952106476,-0.13609182834625244,0.1885581761598587
1772480084306205000,4.862204833984375,0.1789989322423935,-0.1447758674621582,0.14491614699363708
1772480084316202200,4.8722021484375,0.18215546011924744,-0.12297948449850082,0.12040966004133224
1772480084326200000,4.882199951171875,0.1780398041009903,-0.07546070218086243,0.09807213395833969
1772480084336198100,4.8921982421875,0.17023785412311554,-0.06824149191379547,0.06824183464050293
1772480084346196200,4.9021962890625,0.16035085916519165,-0.07019998133182526,0.04423423483967781
1772480084356193000,4.912193115234375,0.14697426557540894,-0.018468821421265602,0.023310784250497818
1772480084366191000,4.922191162109375,0.14182743430137634,0.07833895087242126,-0.017733588814735413
1772480084376189200,4.932189208984375,0.1407368928194046,0.11190899461507797,-0.04986695200204849
1772480084386187000,4.94218701171875,0.13309600949287415,0.09722006320953369,-0.058788277208805084
1772480084396184300,4.952184326171875,0.14278331398963928,0.0981772392988205,-0.03810694441199303
1772480084406182100,4.96218212890625,0.15216723084449768,0.08372293412685394,-0.014613336883485317
1772480084416180200,4.97218017578125,0.158763587474823,0.03809908404946327,0.01321018859744072
1772480084426177000,4.982177001953125,0.16030290722846985,-0.015444837510585785,0.054116878658533096
1772480084436175000,4.992175048828125,0.1446247398853302,-0.05635029822587967,0.07857927680015564
1772480084446173200,5.002173095703125,0.10607655346393585,-0.0622076541185379,0.09070277959108353
1772480084456171000,5.0121708984375,0.06677617132663727,-0.057250261306762695,0.0849064514040947
1772480084466168000,5.02216796875,0.03286134451627731,-0.05380972474813461,0.07793456315994263
1772480084476166000,5.032165771484375,-0.013972259126603603,-0.06858248263597488,0.07595063000917435
1772480084486164000,5.0421640625,-0.0554501973092556,-0.08649597316980362,0.07321396470069885
1772480084496161300,5.052161376953125,-0.09078945219516754,-0.08745606243610382,0.08245129883289337
1772480084506159000,5.0621591796875,-0.12631334364414215,-0.10830408334732056,0.07469964027404785
1772480084516157200,5.0721572265625,-0.15416070818901062,-0.12734907865524292,0.043539635837078094
1772480084526155300,5.0821552734375,-0.16752205789089203,-0.14758138358592987,-0.013730046339333057
1772480084536152000,5.092152099609375,-0.20579984784126282,-0.17851987481117249,-0.09251497685909271
1772480084546150100,5.102150146484375,-0.2591480314731598,-0.24103544652462006,-0.16484802961349487
1772480084556148000,5.11214794921875,-0.3155798614025116,-0.3042098879814148,-0.24090398848056793
1772480084566145300,5.122145263671875,-0.35339540243148804,-0.34975314140319824,-0.3181167542934418
1772480084576143000,5.13214306640625,-0.3803243339061737,-0.373599648475647,-0.3765604794025421
1772480084586141200,5.14214111328125,-0.38084977865219116,-0.3742726445198059,-0.4028536081314087
1772480084596139300,5.15213916015625,-0.32131168246269226,-0.24051213264465332,-0.39186927676200867
1772480084606136000,5.162135986328125,-0.2082950919866562,-0.029918145388364792,-0.3615342676639557
1772480084616134100,5.172134033203125,-0.05576179176568985,0.20505554974079132,-0.2936107814311981
1772480084626132000,5.182132080078125,0.07515653967857361,0.3286914527416229,-0.21731704473495483
1772480084636129000,5.19212890625,0.12749718129634857,0.3598361015319824,-0.14164596796035767
1772480084646127000,5.202127197265625,0.10686567425727844,0.3924321234226227,-0.04285920411348343
1772480084656125200,5.212125244140625,0.05579280108213425,0.4340074062347412,0.08086778968572617
1772480084666123300,5.222123291015625,-0.02589966356754303,0.4698261022567749,0.2256776988506317
1772480084676120000,5.2321201171875,-0.1900603175163269,0.3825669586658478,0.33777040243148804
1772480084686118100,5.2421181640625,-0.37826642394065857,0.26172494888305664,0.38835182785987854
1772480084696116200,5.2521162109375,-0.5032122135162354,0.20141635835170746,0.45346516370773315
1772480084706113000,5.262113037109375,-0.566983699798584,0.17546091973781586,0.5551044344902039
1772480084716111000,5.272111083984375,-0.6153477430343628,0.09238827228546143,0.6461489796638489
1772480084726109000,5.28210888671875,-0.6192681789398193,0.023764465004205704,0.708446204662323
1772480084736107000,5.29210693359375,-0.5841072201728821,0.054423555731773376,0.7319296002388
1772480084746104000,5.30210400390625,-0.522854208946228,0.14550286531448364,0.7174742817878723
1772480084756102100,5.31210205078125,-0.41805189847946167,0.23902195692062378,0.6619805693626404
1772480084766100200,5.322100341796875,-0.27723991870880127,0.3100817799568176,0.5585409998893738
1772480084776098000,5.33209814453125,-0.12367674708366394,0.35720983147621155,0.4278925359249115
1772480084786095000,5.34209521484375,0.007004300132393837,0.3674648702144623,0.29241272807121277
1772480084796093200,5.35209326171875,0.10058407485485077,0.31422317028045654,0.1556881219148636
1772480084806091000,5.362091064453125,0.1516653597354889,0.2819051742553711,0.021080246195197105
1772480084816088300,5.37208837890625,0.1502228081226349,0.30004391074180603,-0.11004309356212616
1772480084826086100,5.382086181640625,0.14079388976097107,0.32239821553230286,-0.2060476541519165
1772480084836084200,5.392084228515625,0.13711732625961304,0.30989882349967957,-0.25181442499160767
1772480084846082300,5.402082275390625,0.10859087854623795,0.22429415583610535,-0.2539559006690979
1772480084856079000,5.4120791015625,0.08011031150817871,0.11772607266902924,-0.1830274611711502
1772480084866077200,5.4220771484375,0.05694986879825592,0.021447736769914627,-0.07090916484594345
1772480084876075000,5.432074951171875,0.054174747318029404,-0.09238189458847046,0.03896353766322136
1772480084886072000,5.442072021484375,0.034801848232746124,-0.20730875432491302,0.11239088326692581
1772480084896070000,5.45206982421875,0.02212364785373211,-0.28157442808151245,0.1666906327009201
1772480084906068000,5.46206787109375,0.0047158957459032536,-0.2901434302330017,0.19234725832939148
1772480084916066000,5.472066162109375,-0.009084654040634632,-0.27877166867256165,0.16820715367794037
1772480084926063000,5.48206298828125,-0.020337041467428207,-0.28292620182037354,0.11238064616918564
1772480084936061200,5.492061279296875,-0.01798037625849247,-0.2895682454109192,0.03708526864647865
1772480084946059300,5.502059326171875,-0.003131922334432602,-0.2816767692565918,-0.061356883496046066
1772480084956056000,5.51205615234375,0.03724943473935127,-0.3102335035800934,-0.18448187410831451
1772480084966054100,5.52205419921875,0.08467314392328262,-0.26215624809265137,-0.2643599212169647
1772480084976052000,5.532052001953125,0.1355833262205124,-0.18790559470653534,-0.27488988637924194
1772480084986050000,5.542050048828125,0.17894917726516724,-0.17240066826343536,-0.24578258395195007
1772480084996047000,5.552047119140625,0.21405813097953796,-0.12579534947872162,-0.1770727038383484
1772480085006045200,5.562045166015625,0.24430684745311737,-0.09270796924829483,-0.10107965767383575
1772480085016043300,5.572043212890625,0.2588963508605957,-0.09575404971837997,-0.037333227694034576
1772480085026040000,5.5820400390625,0.2529577612876892,-0.10338560491800308,0.009499259293079376
1772480085036038100,5.5920380859375,0.2292380928993225,-0.09985493868589401,0.061716727912425995
1772480085046036000,5.602035888671875,0.19599811732769012,-0.11128123104572296,0.10330278426408768
1772480085056034000,5.612033935546875,0.1548396199941635,-0.1432487666606903,0.13948963582515717
1772480085066031000,5.622031005859375,0.09308969974517822,-0.19345921277999878,0.16393719613552094
1772480085076029200,5.632029296875,0.010934345424175262,-0.26835209131240845,0.17944857478141785
1772480085086027300,5.64202734375,-0.05979521945118904,-0.33984917402267456,0.18033380806446075
1772480085096024000,5.652024169921875,-0.1118733212351799,-0.4151533544063568,0.15869760513305664
1772480085106022100,5.662022216796875,-0.15933537483215332,-0.5346472859382629,0.11980614066123962
1772480085116020200,5.672020263671875,-0.1921377182006836,-0.6505341529846191,0.06630393117666245
1772480085126018000,5.68201806640625,-0.2154366374015808,-0.7167891263961792,0.0010463637299835682
1772480085136015000,5.69201513671875,-0.23413123190402985,-0.7726969718933105,-0.06220173090696335
1772480085146013000,5.702012939453125,-0.25648072361946106,-0.8505353331565857,-0.1211654469370842
1772480085156011000,5.712010986328125,-0.2775799334049225,-0.9388492107391357,-0.18072724342346191
1772480085166008300,5.72200830078125,-0.2932502329349518,-1.0308661460876465,-0.2249559462070465
1772480085176006400,5.73200634765625,-0.324563592672348,-1.1017011404037476,-0.2379874587059021
1772480085186004200,5.742004150390625,-0.3569982349872589,-1.1632601022720337,-0.24223653972148895
1772480085196002300,5.752002197265625,-0.3580854535102844,-1.1629712581634521,-0.23905207216739655
1772480085205999000,5.7619990234375,-0.32135382294654846,-1.1188368797302246,-0.24822719395160675
1772480085215997200,5.7719970703125,-0.2514950931072235,-0.95407634973526,-0.2465149611234665
1772480085225995300,5.781995361328125,-0.14782144129276276,-0.6962323188781738,-0.21084164083003998
1772480085235992300,5.791992431640625,-0.03138037398457527,-0.4519237279891968,-0.1619558483362198
1772480085245990400,5.801990478515625,0.05463333800435066,-0.25453102588653564,-0.11226071417331696
1772480085255988200,5.81198828125,0.1259886920452118,-0.0681753009557724,-0.048422906547784805
1772480085265986300,5.821986328125,0.19128939509391785,0.10615868866443634,0.048402972519397736
1772480085275983400,5.8319833984375,0.23053725063800812,0.2426728904247284,0.15632492303848267
1772480085285981200,5.841981201171875,0.26552239060401917,0.2800428867340088,0.24836404621601105
1772480085295979300,5.851979248046875,0.2745301127433777,0.2593551576137543,0.27926698327064514
1772480085305976000,5.86197607421875,0.24341905117034912,0.20750422775745392,0.25878220796585083
1772480085315974100,5.87197412109375,0.2170896828174591,0.11729253828525543,0.2465902715921402
1772480085325972200,5.88197216796875,0.20291580259799957,-0.0028913936112076044,0.20836031436920166
1772480085335970000,5.891969970703125,0.18299223482608795,-0.1381552517414093,0.1705637276172638
1772480085345967400,5.90196728515625,0.15224391222000122,-0.32377520203590393,0.16761107742786407
1772480085355965200,5.911965087890625,0.11262969672679901,-0.4951232671737671,0.1880764663219452
1772480085365963300,5.92196337890625,0.06630613654851913,-0.6220812201499939,0.18859978020191193
1772480085375960300,5.931960205078125,0.00957005936652422,-0.7191488742828369,0.15879537165164948
1772480085385958100,5.941958251953125,-0.07203745096921921,-0.8201716542243958,0.11850228905677795
1772480085395956200,5.951956298828125,-0.13191160559654236,-0.8601586222648621,0.07503577321767807
1772480085405954000,5.9619541015625,-0.13875672221183777,-0.8438171744346619,0.014806522987782955
1772480085415951400,5.971951416015625,-0.10632260143756866,-0.7996098399162292,-0.04609895125031471
1772480085425949400,5.981949462890625,-0.0386442206799984,-0.7409332394599915,-0.07908566296100616
1772480085435947300,5.991947265625,0.07235246896743774,-0.6839074492454529,-0.09113442152738571
1772480085445944300,6.0019443359375,0.2226485013961792,-0.6257450580596924,-0.08641663193702698
1772480085455942100,6.011942138671875,0.36730653047561646,-0.5495126247406006,-0.0527939535677433
1772480085465940200,6.021940185546875,0.4983636140823364,-0.467244416475296,-0.014881989918649197
1772480085475938300,6.031938232421875,0.6155913472175598,-0.38194140791893005,0.02570047602057457
1772480085485935000,6.04193505859375,0.6971098780632019,-0.31040650606155396,0.10317396372556686
1772480085495933200,6.05193310546875,0.7485175728797913,-0.291078120470047,0.21438689529895782
1772480085505931300,6.06193115234375,0.7914786338806152,-0.3268590271472931,0.3315465450286865
1772480085515928300,6.07192822265625,0.8091106414794922,-0.36854395270347595,0.44559869170188904
1772480085525926400,6.081926513671875,0.8184868693351746,-0.42774415016174316,0.5357384085655212
1772480085535924200,6.09192431640625,0.7981497049331665,-0.5646877288818359,0.6418883800506592
1772480085545922300,6.10192236328125,0.7678087949752808,-0.6887060403823853,0.7192641496658325
1772480085555919000,6.111919189453125,0.7367304563522339,-0.73384690284729,0.7450457215309143
1772480085565917200,6.121917236328125,0.7069385051727295,-0.728398323059082,0.7217230796813965
1772480085575915300,6.131915283203125,0.6989185810089111,-0.694561779499054,0.6927983164787292
1772480085585912300,6.141912353515625,0.7024062275886536,-0.6345983147621155,0.6693060398101807
1772480085595910400,6.151910400390625,0.709915041923523,-0.5920227766036987,0.6443769335746765
1772480085605908200,6.161908203125,0.7144306898117065,-0.5436611175537109,0.6091672778129578
1772480085615906300,6.17190625,0.7133603692054749,-0.5066197514533997,0.5547729730606079
1772480085625903000,6.181903076171875,0.7026267647743225,-0.4653250277042389,0.4861108362674713
1772480085635901200,6.191901123046875,0.6862132549285889,-0.3921610116958618,0.43120312690734863
1772480085645899300,6.201899169921875,0.665584921836853,-0.31823644042015076,0.3847797214984894
1772480085655896000,6.21189599609375,0.6267172694206238,-0.2678978443145752,0.3528432846069336
1772480085665894100,6.22189404296875,0.5932631492614746,-0.22997257113456726,0.31784510612487793
1772480085675892500,6.231892578125,0.5384662747383118,-0.2320789247751236,0.30195149779319763
1772480085685890300,6.241890380859375,0.4847436547279358,-0.2826848328113556,0.2581859230995178
1772480085695887400,6.251887451171875,0.4443838596343994,-0.3063294589519501,0.19355250895023346
1772480085705885200,6.26188525390625,0.38711151480674744,-0.3331054151058197,0.16137780249118805
1772480085715883300,6.27188330078125,0.3399887979030609,-0.38538312911987305,0.15172302722930908
1772480085725880000,6.281880126953125,0.3136029839515686,-0.39835962653160095,0.14642652869224548
1772480085735878100,6.291878173828125,0.2796086072921753,-0.4198263883590698,0.14106619358062744
1772480085745876200,6.301876220703125,0.2641769349575043,-0.46617576479911804,0.11549370735883713
1772480085755874000,6.3118740234375,0.24624420702457428,-0.5171518921852112,0.08656491339206696
1772480085765871400,6.321871337890625,0.2183084338903427,-0.559374988079071,0.053057022392749786
1772480085775869200,6.331869140625,0.19551923871040344,-0.5842744708061218,0.021257279440760612
1772480085785867300,6.3418671875,0.1954294890165329,-0.5930488109588623,-0.004318919964134693
1772480085795864300,6.3518642578125,0.20674249529838562,-0.6036014556884766,-0.00753523176535964
1772480085805862100,6.361862060546875,0.21810993552207947,-0.6138335466384888,-0.002518102992326021
1772480085815860200,6.371860107421875,0.23908978700637817,-0.6100483536720276,0.01888560689985752
1772480085825858300,6.3818583984375,0.265224426984787,-0.6026538014411926,0.0577901229262352
1772480085835855400,6.39185546875,0.29572948813438416,-0.6046764850616455,0.08637090772390366
1772480085845853400,6.401853515625,0.3390207886695862,-0.6161432862281799,0.08654135465621948
1772480085855851300,6.411851318359375,0.3699966073036194,-0.6407655477523804,0.06872424483299255
1772480085865848300,6.421848388671875,0.39221617579460144,-0.6928809285163879,0.05588434636592865
1772480085875846100,6.43184619140625,0.39945918321609497,-0.7401371598243713,0.0510125458240509
1772480085885844200,6.44184423828125,0.3971094787120819,-0.7720983028411865,0.047060415148735046
1772480085895842300,6.45184228515625,0.38167423009872437,-0.770803689956665,0.06041182577610016
1772480085905839000,6.461839111328125,0.36336979269981384,-0.7734745740890503,0.08249715715646744
1772480085915837200,6.471837158203125,0.33880263566970825,-0.7916730046272278,0.12512972950935364
1772480085925835000,6.4818349609375,0.320099800825119,-0.8222048282623291,0.18584634363651276
1772480085935832300,6.491832275390625,0.32144656777381897,-0.8863015174865723,0.24450230598449707
1772480085945830400,6.501830322265625,0.317599356174469,-0.9577421545982361,0.2946658730506897
1772480085955828200,6.511828125,0.3307483196258545,-1.01261305809021,0.3319980204105377
1772480085965826300,6.521826416015625,0.337141752243042,-1.0506457090377808,0.3357861042022705
1772480085975823000,6.531822998046875,0.32375702261924744,-1.1060880422592163,0.2848433256149292
1772480085985821200,6.5418212890625,0.34286201000213623,-1.0900808572769165,0.22792331874370575
1772480085995819300,6.5518193359375,0.3738202750682831,-1.0803911685943604,0.22548939287662506
1772480086005816300,6.56181640625,0.4410616159439087,-1.1162745952606201,0.24776646494865417
1772480086015814400,6.571814453125,0.5555927157402039,-1.1411758661270142,0.28433462977409363
1772480086025812200,6.581812255859375,0.6890370845794678,-1.1406844854354858,0.35981687903404236
1772480086035810300,6.591810302734375,0.8081632852554321,-1.1082521677017212,0.48135673999786377
1772480086045807000,6.60180712890625,0.8936827182769775,-1.0461440086364746,0.5927802324295044
1772480086055805200,6.61180517578125,0.9025028944015503,-1.0614196062088013,0.6740082502365112
1772480086065803300,6.62180322265625,0.8865060806274414,-1.0974271297454834,0.7448430061340332
1772480086075800000,6.631800048828125,0.8659850358963013,-1.1170164346694946,0.7826656103134155
1772480086085798100,6.641798095703125,0.8156835436820984,-1.1879920959472656,0.7598239183425903
1772480086095796200,6.651796142578125,0.7367739081382751,-1.3139233589172363,0.6702330708503723
1772480086105794300,6.661794189453125,0.6649630665779114,-1.407146692276001,0.5836958289146423
1772480086115791400,6.671791259765625,0.6326429843902588,-1.4990689754486084,0.5091495513916016
1772480086125789200,6.6817890625,0.6485614776611328,-1.5497430562973022,0.457454651594162
1772480086135787300,6.691787353515625,0.6855363845825195,-1.564932107925415,0.4391387104988098
1772480086145784000,6.7017841796875,0.7025436162948608,-1.5746997594833374,0.42353126406669617
1772480086155782100,6.7117822265625,0.698767364025116,-1.5854384899139404,0.42305561900138855
1772480086165780200,6.7217802734375,0.6903110146522522,-1.5489684343338013,0.44664058089256287
1772480086175778000,6.731778076171875,0.646489679813385,-1.5057408809661865,0.487077534198761
1772480086185775000,6.741775146484375,0.6245090365409851,-1.4228483438491821,0.48762187361717224
1772480086195773200,6.751773193359375,0.603712260723114,-1.338715672492981,0.4525124728679657
1772480086205771300,6.761771240234375,0.5717676281929016,-1.3408282995224,0.37446239590644836
1772480086215768000,6.77176806640625,0.5266679525375366,-1.39821195602417,0.29595646262168884
1772480086225766100,6.78176611328125,0.5360622406005859,-1.4711191654205322,0.18073293566703796
1772480086235764000,6.791763916015625,0.5579054951667786,-1.529699683189392,0.06741249561309814
1772480086245762000,6.801761962890625,0.5644347667694092,-1.6097819805145264,0.01227467879652977
1772480086255759000,6.811759033203125,0.5371169447898865,-1.7218204736709595,0.038393378257751465
1772480086265757200,6.821757080078125,0.523547351360321,-1.7696974277496338,0.12330932915210724
1772480086275755300,6.83175537109375,0.48981568217277527,-1.7844219207763672,0.26032352447509766
1772480086285752000,6.841751953125,0.43725207448005676,-1.8221272230148315,0.3995695412158966
1772480086295750100,6.851750244140625,0.35774368047714233,-1.844291090965271,0.4907063841819763
1772480086305748200,6.861748291015625,0.30562934279441833,-1.8251017332077026,0.5098968744277954
1772480086315746000,6.87174609375,0.26053038239479065,-1.8144546747207642,0.5051217079162598
1772480086325743000,6.8817431640625,0.2569654881954193,-1.7889784574508667,0.4614584147930145
1772480086335741000,6.891740966796875,0.2811931371688843,-1.7363355159759521,0.3889302611351013
1772480086345739000,6.901739013671875,0.30777227878570557,-1.6799771785736084,0.3367903530597687
1772480086355736000,6.911736083984375,0.34500691294670105,-1.6438488960266113,0.3269839882850647
1772480086365734100,6.921734130859375,0.3933537006378174,-1.5973213911056519,0.3624740540981293
1772480086375732200,6.931732177734375,0.44979047775268555,-1.5253347158432007,0.4288545548915863
1772480086385730000,6.94172998046875,0.48220035433769226,-1.4618818759918213,0.5097677707672119
1772480086395727000,6.95172705078125,0.525169849395752,-1.4183802604675293,0.5938981175422668
1772480086405725000,6.961724853515625,0.5794775485992432,-1.3318212032318115,0.6551159620285034
1772480086415723000,6.971722900390625,0.6446222066879272,-1.236552119255066,0.6933738589286804
1772480086425720300,6.98172021484375,0.6913082599639893,-1.1452754735946655,0.7270620465278625
1772480086435718100,6.99171826171875,0.7291954755783081,-1.075515627861023,0.7656556367874146
1772480086445716200,7.00171630859375,0.7684342265129089,-1.046167254447937,0.7956646680831909
1772480086455714300,7.01171435546875,0.8020646572113037,-1.094130039215088,0.8290730118751526
1772480086465711000,7.021711181640625,0.8213304877281189,-1.2007728815078735,0.8449131846427917
1772480086475709200,7.031709228515625,0.8328068852424622,-1.3378891944885254,0.8445478677749634
1772480086485707000,7.04170703125,0.8128232955932617,-1.5090152025222778,0.8184134364128113
1772480086495704000,7.0517041015625,0.8088024258613586,-1.6851495504379272,0.7581928968429565
1772480086505702100,7.0617021484375,0.7807846069335938,-1.8085745573043823,0.687997579574585
1772480086515700200,7.0717001953125,0.7401884198188782,-1.8402800559997559,0.6169201731681824
1772480086525698300,7.0816982421875,0.6979581713676453,-1.8098078966140747,0.5507318377494812
1772480086535695000,7.091695068359375,0.659883439540863,-1.7364118099212646,0.478979229927063
1772480086545693200,7.101693115234375,0.6049496531486511,-1.6915189027786255,0.40671995282173157
1772480086555691000,7.11169091796875,0.5370374917984009,-1.6565203666687012,0.32371801137924194
1772480086565688000,7.12168798828125,0.48305681347846985,-1.6027863025665283,0.2662278413772583
1772480086575686100,7.13168603515625,0.4604516625404358,-1.5830281972885132,0.22317084670066833
1772480086585684000,7.14168408203125,0.451693594455719,-1.6117702722549438,0.17716076970100403
1772480086595682000,7.15168212890625,0.46140217781066895,-1.6090811491012573,0.13798066973686218
1772480086605679000,7.16167919921875,0.4896109104156494,-1.6066712141036987,0.12395139038562775
1772480086615677200,7.17167724609375,0.5266790390014648,-1.6329014301300049,0.10624533891677856
1772480086625675300,7.18167529296875,0.5450662970542908,-1.640802264213562,0.08150377869606018
1772480086635672000,7.191672119140625,0.5616282224655151,-1.6049156188964844,0.051597271114587784
1772480086645670100,7.201670166015625,0.5780969858169556,-1.5362598896026611,0.043181151151657104
1772480086655668000,7.21166796875,0.5977461338043213,-1.455299973487854,0.05651933699846268
1772480086665665000,7.2216650390625,0.6254227757453918,-1.3765840530395508,0.10568475723266602
1772480086675663400,7.231663330078125,0.6643833518028259,-1.3037468194961548,0.15172997117042542
1772480086685661200,7.2416611328125,0.7031115889549255,-1.2619678974151611,0.18599234521389008
1772480086695659300,7.2516591796875,0.7283962368965149,-1.239377498626709,0.22979019582271576
1772480086705656000,7.261656005859375,0.7498708963394165,-1.2121384143829346,0.2735331356525421
1772480086715654100,7.271654052734375,0.7765315771102905,-1.2082889080047607,0.3220713436603546
1772480086725652200,7.28165234375,0.7894713878631592,-1.2160205841064453,0.35785195231437683
1772480086735650000,7.291650146484375,0.8011173009872437,-1.236085057258606,0.3988783359527588
1772480086745647000,7.301647216796875,0.8139142990112305,-1.257988452911377,0.4461723566055298
1772480086755645000,7.31164501953125,0.8129410743713379,-1.2867919206619263,0.47021594643592834
1772480086765643000,7.32164306640625,0.8026332855224609,-1.3003958463668823,0.4623795747756958
1772480086775640000,7.33164013671875,0.783828854560852,-1.2866454124450684,0.4345545172691345
1772480086785638100,7.34163818359375,0.7430680990219116,-1.2657188177108765,0.4059492349624634
1772480086795636200,7.35163623046875,0.711334764957428,-1.2423733472824097,0.37840545177459717
1772480086805633000,7.361633056640625,0.689886212348938,-1.23800790309906,0.35931456089019775
1772480086815631000,7.371631103515625,0.6742240190505981,-1.2582359313964844,0.3652634918689728
1772480086825629200,7.381629150390625,0.646143913269043,-1.2421538829803467,0.3819383382797241
1772480086835627000,7.391626953125,0.5985399484634399,-1.1786479949951172,0.4004392921924591
1772480086845624300,7.401624267578125,0.5385624170303345,-1.1263262033462524,0.41673436760902405
1772480086855622100,7.4116220703125,0.4912997782230377,-1.1168372631072998,0.417986661195755
1772480086865620200,7.4216201171875,0.4522956311702728,-1.1250883340835571,0.3998534381389618
1772480086875617000,7.431616943359375,0.41731369495391846,-1.120076298713684,0.3666996955871582
1772480086885615000,7.441614990234375,0.3895348012447357,-1.13458251953125,0.32763671875
1772480086895613200,7.45161328125,0.379966676235199,-1.195900559425354,0.2740996778011322
1772480086905611000,7.461611083984375,0.3659243583679199,-1.3069500923156738,0.2010318785905838
1772480086915608000,7.471608154296875,0.35438272356987,-1.431797742843628,0.13961929082870483
1772480086925606000,7.48160595703125,0.3573460280895233,-1.5572552680969238,0.11949936300516129
1772480086935604000,7.49160400390625,0.36051541566848755,-1.663822054862976,0.1313876509666443
1772480086945601300,7.501601318359375,0.36507049202919006,-1.7117335796356201,0.15333449840545654
1772480086955599000,7.51159912109375,0.40597739815711975,-1.6329400539398193,0.19271570444107056
1772480086965597200,7.52159716796875,0.5029596090316772,-1.4145851135253906,0.25820764899253845
1772480086975595000,7.531594970703125,0.5926481485366821,-1.1562551259994507,0.3384366035461426
1772480086985592000,7.541592041015625,0.7098733186721802,-0.9280416965484619,0.4039975106716156
1772480086995590100,7.551590087890625,0.8299331068992615,-0.7660573720932007,0.4370805323123932
1772480087005588000,7.561587890625,0.9309797883033752,-0.6651344895362854,0.4469025433063507
1772480087015585300,7.571585205078125,1.0144767761230469,-0.7084223628044128,0.44053879380226135
1772480087025583000,7.5815830078125,1.0491650104522705,-0.9012293815612793,0.4308025538921356
1772480087035581200,7.591581298828125,0.944927990436554,-1.1737172603607178,0.4296383857727051
1772480087045579300,7.601579345703125,0.8298450708389282,-1.413161039352417,0.4554300308227539
1772480087055576000,7.611576171875,0.735612154006958,-1.5860737562179565,0.47828251123428345
1772480087065574100,7.62157421875,0.6544560194015503,-1.7430393695831299,0.48407089710235596
1772480087075572000,7.631572021484375,0.6223965287208557,-1.8895472288131714,0.463874876499176
1772480087085569000,7.641569091796875,0.6275417804718018,-2.0349173545837402,0.43805739283561707
1772480087095567000,7.651567138671875,0.6141480207443237,-2.118866443634033,0.4354490339756012
1772480087105565200,7.661565185546875,0.6046037673950195,-2.1579835414886475,0.5042640566825867
1772480087115563300,7.671563232421875,0.6110388040542603,-2.1427536010742188,0.5999985337257385
1772480087125560000,7.68156005859375,0.6266268491744995,-2.113161563873291,0.6746416091918945
1772480087135558100,7.69155810546875,0.6422121524810791,-2.0447614192962646,0.7358901500701904
1772480087145556200,7.70155615234375,0.6884949803352356,-1.8277738094329834,0.7482424378395081
1772480087155553000,7.711552978515625,0.7515093088150024,-1.5551042556762695,0.7134206295013428
1772480087165551000,7.721551025390625,0.8013690114021301,-1.3166964054107666,0.6540819406509399
1772480087175549400,7.731549560546875,0.8441386222839355,-1.1079233884811401,0.6307293176651001
1772480087185546500,7.74154638671875,0.8980838656425476,-0.9417756199836731,0.6217643022537231
1772480087195544600,7.751544677734375,0.9421336054801941,-0.8515651822090149,0.6125609874725342
1772480087205542700,7.761542724609375,0.9712329506874084,-0.8014476895332336,0.6076487898826599
1772480087215540500,7.77154052734375,0.9922264814376831,-0.7795824408531189,0.6248775124549866
1772480087225537500,7.78153759765625,1.025183916091919,-0.7770878076553345,0.6364127397537231
1772480087235535400,7.791535400390625,1.0570191144943237,-0.8222315311431885,0.6388617753982544
1772480087245533400,7.801533447265625,1.0732252597808838,-0.8894230723381042,0.6594240069389343
1772480087255530500,7.811530517578125,1.0833743810653687,-0.9340924024581909,0.6947583556175232
1772480087265528300,7.8215283203125,1.077897071838379,-0.9843449592590332,0.734966516494751
1772480087275526400,7.8315263671875,1.05950927734375,-1.0931404829025269,0.7669782042503357
1772480087285524500,7.8415244140625,1.028735637664795,-1.2111749649047852,0.7990109920501709
1772480087295521500,7.851521484375,0.9845063090324402,-1.3516368865966797,0.8056090474128723
1772480087305519600,7.86151953125,0.910936176776886,-1.4393681287765503,0.8262144923210144
1772480087315517400,7.871517333984375,0.8687169551849365,-1.4936649799346924,0.8617866039276123
1772480087325514500,7.881514404296875,0.8327786922454834,-1.508209228515625,0.8918353319168091
1772480087335512300,7.89151220703125,0.8111468553543091,-1.504486083984375,0.9016053080558777
1772480087345510400,7.901510498046875,0.804949164390564,-1.4622654914855957,0.8883742094039917
1772480087355508500,7.911508544921875,0.8115653991699219,-1.3773874044418335,0.8621588945388794
1772480087365505500,7.921505615234375,0.8194292187690735,-1.266093134880066,0.8279075026512146
1772480087375503600,7.931503662109375,0.8221903443336487,-1.1510809659957886,0.780751645565033
1772480087385501400,7.94150146484375,0.8336126208305359,-1.04727303981781,0.7112715840339661
1772480087395498500,7.95149853515625,0.8413846492767334,-0.9958787560462952,0.620278000831604
1772480087405496600,7.96149658203125,0.8277303576469421,-1.0134609937667847,0.52276611328125
1772480087415494400,7.971494384765625,0.8158528804779053,-0.9995344877243042,0.41619718074798584
1772480087425492500,7.981492431640625,0.8143982291221619,-0.9229129552841187,0.32699698209762573
1772480087435489500,7.991489501953125,0.7949022650718689,-0.8301963806152344,0.26169466972351074
1772480087445487600,8.001487548828125,0.7626268863677979,-0.7728582620620728,0.23922769725322723
1772480087455485700,8.011485595703125,0.7260340452194214,-0.7836180329322815,0.24926920235157013
1772480087465482500,8.021482421875,0.6822876334190369,-0.8373669981956482,0.263121634721756
1772480087475480600,8.03148046875,0.6580767631530762,-0.8266163468360901,0.29032814502716064
1772480087485478400,8.041478515625,0.6325423717498779,-0.78829026222229,0.3377787470817566
1772480087495475500,8.051475341796875,0.5676676034927368,-0.7906429171562195,0.3951430916786194
1772480087505473300,8.061473388671875,0.4988464415073395,-0.746216893196106,0.44548800587654114
1772480087515471400,8.071471435546876,0.4435994625091553,-0.6493242383003235,0.4974040687084198
1772480087525469400,8.081469482421875,0.39594727754592896,-0.5908689498901367,0.5445973873138428
1772480087535466500,8.091466552734374,0.35799917578697205,-0.5545370578765869,0.5320586562156677
1772480087545464600,8.101464599609375,0.33392634987831116,-0.5389112234115601,0.4561430811882019
1772480087555462700,8.111462646484375,0.2995268404483795,-0.5547627806663513,0.35856226086616516
1772480087565459500,8.12145947265625,0.2659587562084198,-0.5726714730262756,0.23238755762577057
1772480087575457500,8.13145751953125,0.21732893586158752,-0.6234687566757202,0.09083902090787888
1772480087585455400,8.141455322265625,0.12755748629570007,-0.6777985692024231,-0.044310279190540314
1772480087595453400,8.151453369140626,0.05121348053216934,-0.751422643661499,-0.16585394740104675
1772480087605450500,8.161450439453125,-0.047626812011003494,-0.8581349849700928,-0.29700160026550293
1772480087615448600,8.171448486328124,-0.10950032621622086,-0.917095422744751,-0.4076193869113922
1772480087625446700,8.18144677734375,-0.14915291965007782,-0.8710312247276306,-0.4894354045391083
1772480087635443500,8.191443359375,-0.15869849920272827,-0.7132830619812012,-0.5368805527687073
1772480087645441500,8.201441650390626,-0.15356844663619995,-0.46156132221221924,-0.5476671457290649
1772480087655439400,8.211439453125,-0.14027073979377747,-0.18380802869796753,-0.5286043286323547
1772480087665436400,8.2214365234375,-0.14039164781570435,0.06704815477132797,-0.4874451756477356
1772480087675434500,8.2314345703125,-0.11868000030517578,0.2744898200035095,-0.4238394498825073
1772480087685432300,8.241432373046875,-0.09518585354089737,0.43262648582458496,-0.3396366834640503
1772480087695430400,8.251430419921874,-0.09444114565849304,0.5193541646003723,-0.26147618889808655
1772480087705427500,8.261427490234375,-0.12951551377773285,0.4937361478805542,-0.15926700830459595
1772480087715425500,8.271425537109375,-0.18608057498931885,0.37775078415870667,-0.07133112102746964
1772480087725423600,8.281423583984376,-0.27780649065971375,0.1148507297039032,-0.03399493917822838
1772480087735421400,8.29142138671875,-0.3736579716205597,-0.17300859093666077,0.00988863781094551
1772480087745418500,8.30141845703125,-0.455036461353302,-0.3376753032207489,0.08872672915458679
1772480087755416300,8.311416259765625,-0.5282702445983887,-0.40373745560646057,0.18900510668754578
1772480087765414400,8.321414306640625,-0.6189442276954651,-0.514697790145874,0.29174211621284485
1772480087775411700,8.33141162109375,-0.7092096209526062,-0.6099676489830017,0.3501119315624237
1772480087785409500,8.341409423828125,-0.7716125845909119,-0.632807195186615,0.3896087408065796
1772480087795407600,8.35140771484375,-0.7529308199882507,-0.5874782204627991,0.4147885739803314
1772480087805404400,8.361404296875,-0.6745654344558716,-0.5061178207397461,0.4086686372756958
1772480087815402500,8.371402587890625,-0.5558125972747803,-0.41410937905311584,0.3442150354385376
1772480087825400600,8.381400634765624,-0.421152263879776,-0.3107638359069824,0.23732241988182068
1772480087835398400,8.3913984375,-0.25862497091293335,-0.21262991428375244,0.10557200759649277
1772480087845397500,8.4013974609375,-0.1167924702167511,-0.10709044337272644,-0.07344221323728561
1772480087855394600,8.41139453125,0.003722540568560362,-0.003485908731818199,-0.28313979506492615
1772480087865392400,8.421392333984375,0.1251344531774521,0.10002530366182327,-0.43647104501724243
1772480087875390500,8.431390380859375,0.23200161755084991,0.21738892793655396,-0.5053178668022156
1772480087885388300,8.44138818359375,0.3119491636753082,0.32415348291397095,-0.5273903608322144
1772480087895385600,8.451385498046875,0.38894468545913696,0.4216984808444977,-0.5113294124603271
1772480087905383700,8.4613837890625,0.4508700966835022,0.5113508701324463,-0.4470082223415375
1772480087915381500,8.471381591796876,0.4815889000892639,0.5681588053703308,-0.34583255648612976
1772480087925378600,8.481378662109375,0.49000927805900574,0.5372661352157593,-0.22742922604084015
1772480087935376400,8.49137646484375,0.502083420753479,0.43960484862327576,-0.0725409984588623
1772480087945374500,8.50137451171875,0.5057638883590698,0.3048323690891266,0.03494338318705559
1772480087955371300,8.511371337890624,0.4614540934562683,0.12658630311489105,0.08717112988233566
1772480087965369300,8.521369384765626,0.43059659004211426,-0.07723314315080643,0.10005789995193481
1772480087975367400,8.531367431640625,0.3719199001789093,-0.2646743357181549,0.06861062347888947
1772480087985365500,8.541365478515624,0.32047829031944275,-0.386531800031662,0.003777033183723688
1772480087995362600,8.551362548828125,0.2925401031970978,-0.43807700276374817,-0.05295008420944214
1772480088005360600,8.561360595703125,0.24838677048683167,-0.5039069056510925,-0.08928465843200684
1772480088015358500,8.5713583984375,0.226583793759346,-0.5537921190261841,-0.11650248616933823
1772480088025355500,8.58135546875,0.20222440361976624,-0.5251200199127197,-0.1359046846628189
1772480088035353300,8.591353271484374,0.20169520378112793,-0.49488043785095215,-0.1564752757549286
1772480088045351400,8.601351318359375,0.20168614387512207,-0.49507617950439453,-0.17228487133979797
1772480088055349500,8.611349609375,0.22346541285514832,-0.5240492820739746,-0.20060619711875916
1772480088065346600,8.6213466796875,0.25321370363235474,-0.5445098280906677,-0.23453593254089355
1772480088075344600,8.6313447265625,0.30184701085090637,-0.5283380746841431,-0.24023014307022095
1772480088085342500,8.641342529296875,0.36661297082901,-0.4885970652103424,-0.21796877682209015
1772480088095339500,8.651339599609376,0.4029258191585541,-0.4377574920654297,-0.1628410965204239
1772480088105337300,8.66133740234375,0.4140831232070923,-0.37839776277542114,-0.08464589715003967
1772480088115335400,8.67133544921875,0.4214738607406616,-0.31725335121154785,-0.0026171677745878696
1772480088125332500,8.68133251953125,0.4020855128765106,-0.26025423407554626,0.09196393191814423
1772480088135330600,8.69133056640625,0.3902758061885834,-0.1902870535850525,0.16025196015834808
1772480088145328600,8.70132861328125,0.3746323883533478,-0.12524333596229553,0.1696193516254425
1772480088155326700,8.71132666015625,0.3548257648944855,-0.1193704903125763,0.13876384496688843
1772480088165323500,8.721323486328124,0.3439427614212036,-0.14813317358493805,0.08333680033683777
1772480088175320600,8.731320556640625,0.3526363670825958,-0.1846921443939209,0.002548434305936098
1772480088185318700,8.741318603515625,0.350635290145874,-0.1972782462835312,-0.08075951039791107
1772480088195315700,8.751315673828126,0.3399180769920349,-0.19465431571006775,-0.1360032856464386
1772480088205313800,8.761313720703125,0.33049046993255615,-0.2025386095046997,-0.17436692118644714
1772480088215312000,8.771311767578124,0.32332924008369446,-0.21547792851924896,-0.20670875906944275
1772480088225310000,8.78131005859375,0.3154689073562622,-0.2661946415901184,-0.2227867990732193
1772480088235306800,8.791306640625,0.30603936314582825,-0.2965027987957001,-0.21874326467514038
1772480088245304800,8.801304931640624,0.3038997948169708,-0.3355194330215454,-0.19301366806030273
1772480088255302700,8.811302734375,0.29053860902786255,-0.41459932923316956,-0.16426785290241241
1772480088265299700,8.8212998046875,0.2748347222805023,-0.5377337336540222,-0.12921851873397827
1772480088275297500,8.831297607421876,0.2266087383031845,-0.6888104677200317,-0.08562770485877991
1772480088285295600,8.841295654296875,0.1679169237613678,-0.7670624256134033,-0.060342054814100266
1772480088295293700,8.851293701171874,0.07616928964853287,-0.7851967811584473,-0.04369771480560303
1772480088305290800,8.861290771484375,-0.024569842964410782,-0.7470049262046814,-0.018759608268737793
1772480088315288800,8.871288818359375,-0.12218105792999268,-0.5959391593933105,0.012846974655985832
1772480088325286700,8.88128662109375,-0.1769188791513443,-0.3625602722167969,0.007279903162270784
1772480088335283700,8.89128369140625,-0.19899657368659973,-0.027434198185801506,-0.01886104792356491
1772480088345281800,8.90128173828125,-0.2096116691827774,0.29391905665397644,-0.05404060706496239
1772480088355279600,8.911279541015626,-0.1957266479730606,0.5311670303344727,-0.061749495565891266
1772480088365277000,8.92127685546875,-0.15660642087459564,0.6924850940704346,-0.03985538333654404
1772480088375274800,8.931274658203124,-0.10845987498760223,0.8233721256256104,0.01018717885017395
1772480088385272800,8.94127294921875,-0.061593834310770035,0.8635602593421936,0.10190271586179733
1772480088395271000,8.95127099609375,-0.029269374907016754,0.7903566956520081,0.21939919888973236
1772480088405267700,8.961267822265626,-0.01649073138833046,0.6419304609298706,0.32343557476997375
1772480088415265800,8.971265869140625,-0.032716087996959686,0.3879270851612091,0.36751630902290344
1772480088425263600,8.981263671875,-0.09992175549268723,0.04421737417578697,0.34754154086112976
1772480088435260700,8.9912607421875,-0.18599873781204224,-0.24442186951637268,0.3054470717906952
1772480088445258800,9.0012587890625,-0.25643134117126465,-0.4095655381679535,0.26112568378448486
1772480088455256600,9.011256591796876,-0.3116224706172943,-0.5342378616333008,0.2476629763841629
1772480088465254000,9.02125390625,-0.36511898040771484,-0.7066370844841003,0.22651243209838867
1772480088475251700,9.031251708984374,-0.38206803798675537,-0.8314785957336426,0.18623493611812592
1772480088485249800,9.041249755859376,-0.3633683919906616,-0.8614397048950195,0.11057772487401962
1772480088495248000,9.051247802734375,-0.29292401671409607,-0.7975477576255798,0.01590263657271862
1772480088505244700,9.06124462890625,-0.1783236712217331,-0.659225583076477,-0.07534950971603394
1772480088515242800,9.07124267578125,-0.04548633471131325,-0.443733811378479,-0.14533066749572754
1772480088525240600,9.081240478515625,0.06493018567562103,-0.20454519987106323,-0.1888749599456787
1772480088535238000,9.09123779296875,0.13711318373680115,-0.023372918367385864,-0.2151128053665161
1772480088545235700,9.101235595703125,0.17722918093204498,0.1586429625749588,-0.1931835263967514
1772480088555233800,9.11123388671875,0.2017936110496521,0.3597433865070343,-0.120078906416893
1772480088565231900,9.12123193359375,0.2470867931842804,0.5119997262954712,-0.035296641290187836
1772480088575228700,9.131228759765625,0.26549193263053894,0.5547678470611572,0.042679816484451294
1772480088585226800,9.141226806640624,0.27513444423675537,0.5005147457122803,0.12854093313217163
1772480088595224800,9.151224853515625,0.26896432042121887,0.37756210565567017,0.2010577768087387
1772480088605221600,9.1612216796875,0.27432820200920105,0.2787519097328186,0.26361116766929626
1772480088615219700,9.1712197265625,0.2742002010345459,0.22687740623950958,0.33272847533226013
1772480088625217800,9.1812177734375,0.2567809820175171,0.17598040401935577,0.3943367004394531
1772480088635216000,9.1912158203125,0.21967194974422455,0.1350208818912506,0.45257169008255005
1772480088645212700,9.201212646484375,0.1570035070180893,0.10840418189764023,0.501731276512146
1772480088655210800,9.211210693359375,0.092802494764328,0.13041764497756958,0.553000271320343
1772480088665208800,9.221208740234376,0.047074154019355774,0.2062130868434906,0.5969336628913879
1772480088675205600,9.23120556640625,-0.00881603267043829,0.24671629071235657,0.5775070190429688
1772480088685203700,9.24120361328125,-0.03272243216633797,0.2874714434146881,0.48828577995300293
1772480088695201500,9.251201416015626,-0.031028417870402336,0.36116674542427063,0.36199209094047546
1772480088705198800,9.26119873046875,-0.021149422973394394,0.41139212250709534,0.21569105982780457
1772480088715197000,9.271197021484374,-0.009763271547853947,0.456461638212204,0.09896358847618103
1772480088725194800,9.28119482421875,-0.0001460649073123932,0.4697023332118988,0.01850789412856102
1772480088735192800,9.29119287109375,0.023308951407670975,0.48513221740722656,-0.016967441886663437
1772480088745189600,9.301189697265626,0.035593580454587936,0.5196390748023987,-0.034283582121133804
1772480088755187700,9.311187744140625,0.012611711397767067,0.44300276041030884,-0.06331093609333038
1772480088765185800,9.321185791015624,-0.011519191786646843,0.3493868112564087,-0.07111746072769165
1772480088775182800,9.331182861328125,-0.0025805076584219933,0.32153159379959106,-0.05742376297712326
1772480088785181000,9.341180908203125,0.020135458558797836,0.2876122295856476,-0.03203185275197029
1772480088795178800,9.3511787109375,0.02068369649350643,0.19769570231437683,-0.00881066732108593
1772480088805176800,9.3611767578125,0.04304998740553856,0.21581824123859406,0.015583887696266174
1772480088815173600,9.371173583984374,0.04929738491773605,0.3052242696285248,0.04607761651277542
1772480088825171700,9.381171630859376,0.05359173193573952,0.3445221483707428,0.056878067553043365
1772480088835169800,9.391169677734375,0.037095360457897186,0.36424049735069275,0.043940186500549316
1772480088845166600,9.40116650390625,0.013081371784210205,0.3553042709827423,0.011300751008093357
1772480088855164700,9.41116455078125,-0.011634528636932373,0.2842906713485718,-0.05190882831811905
1772480088865162800,9.421162841796875,-0.02588137425482273,0.20361582934856415,-0.08573417365550995
1772480088875159800,9.431159912109376,-0.03615647926926613,0.15576042234897614,-0.09069154411554337
1772480088885158000,9.441157958984375,-0.04389136657118797,0.07228364795446396,-0.07480152696371078
1772480088895155700,9.45115576171875,-0.05641164258122444,-0.02111593820154667,-0.06545126438140869
1772480088905153800,9.46115380859375,-0.055101897567510605,-0.08633462339639664,-0.07632414996623993
1772480088915150600,9.471150634765625,-0.061718106269836426,-0.13615278899669647,-0.09943878650665283
1772480088925148700,9.481148681640626,-0.08286041021347046,-0.16639617085456848,-0.14617513120174408
1772480088935146800,9.491146728515625,-0.08648565411567688,-0.15556322038173676,-0.1907372772693634
1772480088945143800,9.501143798828124,-0.1081525981426239,-0.1514531672000885,-0.22419270873069763
1772480088955142000,9.511141845703126,-0.12645463645458221,-0.1776941865682602,-0.26213890314102173
1772480088965139700,9.5211396484375,-0.1350981891155243,-0.13021188974380493,-0.2858988344669342
1772480088975137800,9.5311376953125,-0.15595564246177673,-0.08879280090332031,-0.2955111265182495
1772480088985134800,9.541134765625,-0.19969379901885986,-0.09613912552595139,-0.3290539085865021
1772480088995132700,9.551132568359375,-0.24709750711917877,-0.14644257724285126,-0.3814767003059387
1772480089005130800,9.561130859375,-0.3015785813331604,-0.19748152792453766,-0.4318546652793884
1772480089015127600,9.57112744140625,-0.33848831057548523,-0.2539231777191162,-0.46563324332237244
1772480089025125600,9.581125732421874,-0.3493635952472687,-0.2674405872821808,-0.49602097272872925
1772480089035123700,9.591123779296876,-0.3734419345855713,-0.326200395822525,-0.5026427507400513
1772480089045120800,9.601120849609375,-0.38571697473526,-0.38762542605400085,-0.5027639269828796
1772480089055118800,9.611118896484374,-0.391323447227478,-0.48969903588294983,-0.5131138563156128
1772480089065116700,9.62111669921875,-0.3899969160556793,-0.5660865306854248,-0.5294254422187805
1772480089075114800,9.63111474609375,-0.34685203433036804,-0.5971072316169739,-0.5529579520225525
1772480089085111800,9.64111181640625,-0.272696316242218,-0.5420495271682739,-0.5596052408218384
1772480089095109600,9.651109619140625,-0.20097455382347107,-0.35722240805625916,-0.5347729921340942
1772480089105107700,9.661107666015624,-0.15739086270332336,-0.08848364651203156,-0.4474620819091797
1772480089115104800,9.671104736328125,-0.13080467283725739,0.1776036024093628,-0.343092143535614
1772480089125102800,9.681102783203125,-0.17083516716957092,0.4722837209701538,-0.20390921831130981
1772480089135101000,9.691100830078126,-0.21713285148143768,0.6224797368049622,-0.04922245442867279
1772480089145098800,9.7010986328125,-0.3019137978553772,0.6291781067848206,0.07175882905721664
1772480089155095800,9.711095703125,-0.396249383687973,0.5869616866111755,0.11342331022024155
1772480089165093600,9.72109375,-0.4787711501121521,0.5333507061004639,0.09758362919092178
1772480089175092500,9.731092529296875,-0.5392065048217773,0.50081467628479,0.08058775216341019
1772480089185089300,9.74108935546875,-0.5553093552589417,0.4770076274871826,0.10283686220645905
1772480089195087400,9.75108740234375,-0.5862786769866943,0.39355775713920593,0.1728878617286682
1772480089205085200,9.761085205078125,-0.6210132241249084,0.25130075216293335,0.24765744805335999
1772480089215082500,9.77108251953125,-0.6675583124160767,0.12365540117025375,0.30630671977996826
1772480089225080300,9.781080322265625,-0.7140107750892639,0.09374944120645523,0.36621639132499695
1772480089235078400,9.791078369140624,-0.7211032509803772,0.15621954202651978,0.44028276205062866
1772480089245076500,9.801076416015626,-0.6674054265022278,0.267649382352829,0.4781433045864105
1772480089255073300,9.8110732421875,-0.5838609933853149,0.3734404742717743,0.4834197163581848
1772480089265071400,9.8210712890625,-0.46290019154548645,0.40602371096611023,0.4718799591064453
1772480089275069400,9.8310693359375,-0.29435378313064575,0.4406743049621582,0.44842997193336487
1772480089285066200,9.841066162109374,-0.08004254847764969,0.5142688751220703,0.38808462023735046
1772480089295064600,9.851064697265626,0.12650440633296967,0.5420697927474976,0.3147827088832855
1772480089305062400,9.8610625,0.27167466282844543,0.4834362864494324,0.2274927943944931
1772480089315060500,9.871060546875,0.3724280595779419,0.3286505341529846,0.10511752218008041
1772480089325057300,9.881057373046875,0.4429142475128174,0.20677603781223297,0.006041540764272213
1772480089335055400,9.891055419921875,0.46714749932289124,0.20253872871398926,-0.06341889500617981
1772480089345053400,9.901053466796874,0.4417276084423065,0.2715769112110138,-0.11801742017269135
1772480089355050200,9.91105029296875,0.387561559677124,0.28992536664009094,-0.1492127776145935
1772480089365048300,9.92104833984375,0.3101200461387634,0.25478067994117737,-0.12701213359832764
1772480089375046100,9.931046142578126,0.24918484687805176,0.1808895766735077,-0.07046620547771454
1772480089385043500,9.94104345703125,0.2246486097574234,0.09587320685386658,-0.013606912456452847
1772480089395041500,9.95104150390625,0.20923522114753723,0.011932028457522392,0.027727149426937103
1772480089405039400,9.961039306640625,0.19841745495796204,-0.08460037410259247,0.019067350775003433
1772480089415037400,9.971037353515625,0.17624931037425995,-0.20280955731868744,-0.019970595836639404
1772480089425034200,9.9810341796875,0.1434095948934555,-0.31164684891700745,-0.07119463384151459
1772480089435032300,9.9910322265625,0.1159197986125946,-0.37345215678215027,-0.10362900793552399
1772480089445030400,10.001030517578124,0.09974668174982071,-0.40041160583496094,-0.1282387375831604
1772480089455027500,10.01102734375,0.10198599100112915,-0.44032448530197144,-0.16505202651023865
1772480089465025500,10.021025634765625,0.10267974436283112,-0.4755951464176178,-0.21353620290756226
1772480089475023400,10.0310234375,0.11552531272172928,-0.4799152612686157,-0.25398996472358704
1772480089485020400,10.0410205078125,0.13168483972549438,-0.4681003987789154,-0.28246819972991943
1772480089495018500,10.0510185546875,0.13552291691303253,-0.48052820563316345,-0.30523061752319336
1772480089505016300,10.061016357421876,0.1416170299053192,-0.49393323063850403,-0.30735206604003906
1772480089515014400,10.071014404296875,0.14099043607711792,-0.4809471666812897,-0.28479787707328796
1772480089525011200,10.08101123046875,0.14614205062389374,-0.42178478837013245,-0.2566128671169281
1772480089535009300,10.09100927734375,0.1364995390176773,-0.33404019474983215,-0.23423975706100464
1772480089545007400,10.10100732421875,0.13951557874679565,-0.25102704763412476,-0.19982798397541046
1772480089555004400,10.11100439453125,0.1447993367910385,-0.1901664286851883,-0.1412457674741745
1772480089565002500,10.12100244140625,0.14786703884601593,-0.19985926151275635,-0.05265730619430542
1772480089575000300,10.131000244140624,0.147330641746521,-0.26635077595710754,0.033550478518009186
1772480089584998400,10.140998291015626,0.15280291438102722,-0.34047240018844604,0.08785232901573181
1772480089594995200,10.1509951171875,0.16532807052135468,-0.41954439878463745,0.1306430846452713
1772480089604993300,10.1609931640625,0.18474836647510529,-0.5479665398597717,0.13644558191299438
1772480089614991400,10.170991455078125,0.20020800828933716,-0.6549737453460693,0.0697154775261879
1772480089624988400,10.180988525390624,0.20932799577713013,-0.6798325181007385,-0.012909892946481705
1772480089634986500,10.190986572265626,0.19980263710021973,-0.6550328731536865,-0.03471101075410843
1772480089644984600,10.200984619140625,0.1714990884065628,-0.6418851017951965,-0.02702859230339527
1772480089654981400,10.2109814453125,0.1309458613395691,-0.6251117587089539,-0.0020091189071536064
1772480089664979500,10.2209794921875,0.09875436872243881,-0.6023555994033813,0.034496694803237915
1772480089674977300,10.230977294921875,0.05997295677661896,-0.5786381363868713,0.0742306113243103
1772480089684975400,10.240975341796876,0.02682458981871605,-0.5585818290710449,0.10857260972261429
1772480089694972200,10.25097216796875,-0.007649257779121399,-0.566819429397583,0.12506206333637238
1772480089704970200,10.26097021484375,-0.03706254065036774,-0.583177924156189,0.13349096477031708
1772480089714968300,10.27096826171875,-0.06422777473926544,-0.5956469178199768,0.12747681140899658
1772480089724965400,10.28096533203125,-0.09785284101963043,-0.6333295702934265,0.1165301501750946
1772480089734963500,10.29096337890625,-0.13985852897167206,-0.6885918974876404,0.09765581786632538
1772480089744961300,10.300961181640625,-0.16784675419330597,-0.7398460507392883,0.07063271850347519
1772480089754959400,10.31095947265625,-0.19696399569511414,-0.7689732313156128,0.051094088703393936
1772480089764956400,10.320956298828126,-0.21649909019470215,-0.8151151537895203,0.05127784609794617
1772480089774954200,10.330954345703125,-0.22145448625087738,-0.8697535395622253,0.03685535490512848
1772480089784952300,10.340952392578124,-0.1721537858247757,-0.8785457015037537,0.02723921649158001
1772480089794949400,10.350949462890625,-0.11483046412467957,-0.8504647016525269,0.010797938331961632
1772480089804947500,10.360947509765625,-0.05699699744582176,-0.7967141270637512,-0.00786735862493515
1772480089814945500,10.370945556640624,0.003084566444158554,-0.7346491813659668,-0.003997701220214367
1772480089824942300,10.3809423828125,0.0823972299695015,-0.632045567035675,0.022078905254602432
1772480089834940400,10.3909404296875,0.14655648171901703,-0.5222147703170776,0.050992511212825775
1772480089844938200,10.400938232421876,0.18743254244327545,-0.47032254934310913,0.08966480195522308
1772480089854936300,10.410936279296875,0.21686285734176636,-0.4322316348552704,0.12270326167345047
1772480089864933400,10.420933349609374,0.2298462986946106,-0.3780658543109894,0.14958573877811432
1772480089874931500,10.430931396484375,0.2271093875169754,-0.3551035523414612,0.18677537143230438
1772480089884929500,10.440929443359375,0.22376099228858948,-0.3950302004814148,0.2427198588848114
1772480089894926300,10.45092626953125,0.22567805647850037,-0.4787224233150482,0.27840757369995117
1772480089904924400,10.46092431640625,0.23723271489143372,-0.5598638653755188,0.2841336131095886
1772480089914922500,10.470922607421874,0.2422817051410675,-0.6553700566291809,0.28720352053642273
1772480089924919300,10.480919189453125,0.22185233235359192,-0.7389624118804932,0.2805432081222534
1772480089934917400,10.49091748046875,0.17652533948421478,-0.7900192737579346,0.2622089684009552
1772480089944915200,10.500915283203126,0.13944187760353088,-0.8220238089561462,0.23960407078266144
1772480089954913300,10.510913330078125,0.11216019093990326,-0.8438249230384827,0.2155652791261673
1772480089964910300,10.520910400390624,0.11466062813997269,-0.8472194075584412,0.19931094348430634
1772480089974908400,10.530908447265626,0.13555854558944702,-0.8167920112609863,0.19363990426063538
1772480089984906500,10.540906494140625,0.16249002516269684,-0.7944286465644836,0.19784609973430634
1772480089994903300,10.5509033203125,0.16690944135189056,-0.8179839849472046,0.21720905601978302
1772480090004901400,10.5609013671875,0.17761960625648499,-0.8004228472709656,0.24511446058750153
1772480090014899200,10.570899169921875,0.19789361953735352,-0.7460476160049438,0.2728552520275116
1772480090024897300,10.580897216796876,0.23470409214496613,-0.6754842400550842,0.2979331910610199
1772480090034894600,10.59089453125,0.2766852080821991,-0.630389928817749,0.32932621240615845
1772480090044892400,10.600892333984374,0.3613031506538391,-0.592350959777832,0.3760652244091034
1772480090054890500,10.610890380859376,0.4497019648551941,-0.5757336616516113,0.44599688053131104
1772480090064887300,10.62088720703125,0.5412387847900391,-0.554524302482605,0.5450984239578247
1772480090074885400,10.630885498046876,0.6281139254570007,-0.554241418838501,0.6796257495880127
1772480090084883500,10.640883544921875,0.6972351670265198,-0.5840608477592468,0.8015871047973633
1772480090094880300,10.65088037109375,0.7586519718170166,-0.5959697365760803,0.9029414653778076
1772480090104878300,10.66087841796875,0.8056008219718933,-0.5705511569976807,0.958510160446167
1772480090114876200,10.670876220703125,0.8210798501968384,-0.542162299156189,0.9856101274490356
1772480090124874200,10.680874267578124,0.8031834363937378,-0.4793335497379303,1.0400573015213013
1772480090134871600,10.69087158203125,0.7399499416351318,-0.44962432980537415,1.0849616527557373
1772480090144869400,10.700869384765625,0.7022081613540649,-0.5517358183860779,1.1625299453735352
1772480090154867500,10.710867431640626,0.6407094597816467,-0.6039323806762695,1.2391282320022583
1772480090164864300,10.7208642578125,0.6474520564079285,-0.7558053135871887,1.1172449588775635
1772480090174862000,10.730862060546874,0.6449737548828125,-0.6980754137039185,0.8916369676589966
1772480090184860200,10.740860107421875,0.6879438757896423,-0.7126298546791077,0.6694231033325195
1772480090194857200,10.750857177734375,0.69305819272995,-0.7200660705566406,0.5248762369155884
1772480090204855300,10.760855224609376,0.6688205003738403,-0.7453985810279846,0.45097455382347107
1772480090214853000,10.77085302734375,0.6558755040168762,-0.8254765868186951,0.39011940360069275
1772480090224851200,10.780851318359375,0.6471757292747498,-0.8760790228843689,0.31543344259262085
1772480090234848300,10.79084814453125,0.6495576500892639,-0.8978257775306702,0.24977175891399384
1772480090244846000,10.80084619140625,0.5948992371559143,-0.898893415927887,0.16972486674785614
1772480090254844200,10.81084423828125,0.5160545706748962,-0.8652874827384949,0.05827507749199867
1772480090264841000,10.820841064453125,0.42952582240104675,-0.8505279421806335,-0.007956670597195625
1772480090274839000,10.830839111328125,0.373770534992218,-0.787451982498169,0.017027374356985092
