time,seconds_elapsed,z,y,x
1772609006514113800,0.07311376953125,0.0655418112874031,-0.07924972474575043,0.001624392345547676
1772609006524112000,0.08311181640625,0.08361401408910751,-0.1740609109401703,0.00874461978673935
1772609006534110000,0.09310986328125,0.09317827224731445,-0.14401492476463318,-0.018698520958423615
1772609006544108000,0.10310791015625,0.10409802943468094,-0.10861139744520187,-0.06916569173336029
1772609006554106000,0.113106201171875,0.11892947554588318,-0.1184995099902153,-0.0948743149638176
1772609006564104000,0.12310400390625,0.14485375583171844,-0.17431776225566864,-0.09184657037258148
1772609006574102000,0.13310205078125,0.17893680930137634,-0.18417076766490936,-0.07942081987857819
1772609006584100000,0.14310009765625,0.21062682569026947,-0.20270076394081116,-0.08705956488847733
1772609006594098000,0.153097900390625,0.22441062331199646,-0.21210312843322754,-0.10473880171775818
1772609006604096000,0.163095947265625,0.22352218627929688,-0.18203656375408173,-0.1211574599146843
1772609006614094000,0.173093994140625,0.15819668769836426,-0.1764492392539978,-0.1150909960269928
1772609006624092000,0.183091796875,0.08653341233730316,-0.12120649963617325,-0.09179340302944183
1772609006634089000,0.1930888671875,0.03386857360601425,-0.09283631294965744,-0.07058685272932053
1772609006644086800,0.203086669921875,0.016791854053735733,-0.06686729937791824,-0.04822215437889099
1772609006654084000,0.213083984375,0.010510755702853203,-0.016342971473932266,-0.035530935972929
1772609006664082200,0.223082275390625,0.028291882947087288,0.035047512501478195,-0.05978141352534294
1772609006674080300,0.233080322265625,0.05285181850194931,0.0905885398387909,-0.1040189191699028
1772609006684078300,0.243078369140625,0.09075998514890671,0.16519300639629364,-0.14003726840019226
1772609006694076400,0.253076416015625,0.1398383229970932,0.22655943036079407,-0.16449227929115295
1772609006704074500,0.263074462890625,0.19331219792366028,0.29625409841537476,-0.16899701952934265
1772609006714072300,0.273072265625,0.24667790532112122,0.40309053659439087,-0.1554097980260849
1772609006724070400,0.2830703125,0.29036945104599,0.4998144507408142,-0.1282562017440796
1772609006734068500,0.293068359375,0.32236865162849426,0.5821942090988159,-0.08862006664276123
1772609006744066300,0.30306640625,0.3518429100513458,0.6437451839447021,-0.055429358035326004
1772609006754064400,0.313064453125,0.3494877517223358,0.670776903629303,-0.17992207407951355
1772609006764062200,0.323062255859375,0.3725488781929016,0.29231855273246765,-0.2795701324939728
1772609006774060300,0.333060302734375,0.4628725051879883,0.205974280834198,-0.38966166973114014
1772609006784057300,0.343057373046875,0.6922430992126465,0.3486901521682739,-0.5316928625106812
1772609006794055200,0.35305517578125,0.9037507176399231,0.3779033422470093,-0.5866149067878723
1772609006804053200,0.36305322265625,1.0185375213623047,0.39927148818969727,-0.4741940498352051
1772609006814051300,0.37305126953125,1.0646660327911377,0.426094651222229,-0.23316998779773712
1772609006824049200,0.383049072265625,1.036312460899353,0.5052597522735596,0.06642019748687744
1772609006834047200,0.393047119140625,0.9602640867233276,0.6666148900985718,0.37830936908721924
1772609006844045000,0.403045166015625,0.8537741303443909,0.9271671175956726,0.7026224732398987
1772609006854043100,0.413043212890625,0.7458330392837524,1.2357176542282104,1.0644694566726685
1772609006864041200,0.423041259765625,0.6353190541267395,1.420536994934082,1.435222864151001
1772609006874039300,0.433039306640625,0.5450223684310913,1.401916742324829,1.729101300239563
1772609006884037400,0.443037353515625,0.44329574704170227,1.3152278661727905,1.9052385091781616
1772609006894035500,0.453035400390625,0.2621085047721863,1.524963140487671,1.6654119491577148
1772609006904033300,0.463033203125,0.17671850323677063,0.03335035964846611,1.0822826623916626
1772609006914031400,0.47303125,0.017997000366449356,-0.8101125359535217,0.3317689299583435
1772609006924029400,0.483029541015625,-0.05722265690565109,0.10166806727647781,0.0797547698020935
1772609006934026200,0.493026123046875,0.03954121097922325,0.0942041203379631,-0.03855928033590317
1772609006944024300,0.5030244140625,-0.02720799297094345,-0.2840060293674469,-0.047155965119600296
1772609006954022100,0.513022216796875,-0.18792590498924255,-0.6052290797233582,-0.016363084316253662
1772609006964020200,0.523020263671875,-0.3017568588256836,-0.42283663153648376,-0.004137044306844473
1772609006974018300,0.533018310546875,-0.15590664744377136,-0.4652230739593506,0.29792705178260803
1772609006984016100,0.54301611328125,-0.0217784084379673,-0.6755614280700684,0.6563736796379089
1772609006994014200,0.55301416015625,0.06327272951602936,-0.7485386729240417,0.9340338706970215
1772609007004012300,0.56301220703125,0.09944884479045868,-0.579659640789032,1.1202616691589355
1772609007014010000,0.573010009765625,0.17079636454582214,-0.6479134559631348,1.1998275518417358
1772609007024008200,0.58300830078125,0.23249301314353943,-0.7122008204460144,1.3036788702011108
1772609007034006300,0.59300634765625,0.3532800078392029,-0.8172836303710938,1.2765384912490845
1772609007044004000,0.603004150390625,0.4732966721057892,-0.9737675189971924,1.141762614250183
1772609007054002200,0.613002197265625,0.42407312989234924,-0.8871840834617615,0.9927456378936768
1772609007064000300,0.623000244140625,0.30644237995147705,-0.8282821178436279,0.8555986881256104
1772609007073998300,0.632998291015625,0.192884624004364,-0.7605941891670227,0.7476932406425476
1772609007083995400,0.642995361328125,0.16697552800178528,-0.38771307468414307,0.6749764084815979
1772609007093993200,0.6529931640625,0.08016126602888107,-0.1612742841243744,0.4932596683502197
1772609007103991300,0.6629912109375,0.059306055307388306,0.1498899906873703,0.41876333951950073
1772609007113989400,0.6729892578125,0.10060612857341766,0.06953686475753784,0.25778481364250183
1772609007123987200,0.6829873046875,0.08322207629680634,0.08493233472108841,0.10268817096948624
1772609007133985300,0.6929853515625,-0.005885760299861431,0.2326805293560028,0.03637528419494629
1772609007143983400,0.7029833984375,-0.11153442412614822,0.2796320617198944,-0.0927685871720314
1772609007153981200,0.712981201171875,-0.21486224234104156,0.33722761273384094,-0.35008159279823303
1772609007163979300,0.722979248046875,-0.25353536009788513,0.3712005019187927,-0.6327918171882629
1772609007173977300,0.732977294921875,-0.1858235001564026,0.4493599832057953,-0.840285062789917
1772609007183975200,0.74297509765625,-0.017652608454227448,0.502841055393219,-0.8979781866073608
1772609007193973200,0.75297314453125,0.013630848377943039,0.48701977729797363,-0.9322299361228943
1772609007203971300,0.762971435546875,-0.04931455850601196,0.5050839781761169,-0.9172459244728088
1772609007213969200,0.77296923828125,-0.11384981125593185,0.4974161982536316,-0.8074141144752502
1772609007223967200,0.78296728515625,-0.11270598322153091,0.3914051055908203,-0.6835305094718933
1772609007233964300,0.79296435546875,-0.1231735348701477,0.22242379188537598,-0.5693533420562744
1772609007243962400,0.80296240234375,-0.15533626079559326,0.05601751059293747,-0.45876237750053406
1772609007253960400,0.81296044921875,-0.24920131266117096,-0.09776649624109268,-0.3614703416824341
1772609007263958300,0.822958251953125,-0.3660179376602173,-0.2056431770324707,-0.23445408046245575
1772609007273956400,0.832956298828125,-0.46531036496162415,-0.29507529735565186,-0.11065316200256348
1772609007283954400,0.842954345703125,-0.5791447758674622,-0.259245902299881,-0.03510195016860962
1772609007293952300,0.8529521484375,-0.6991682052612305,-0.1877536028623581,0.11419499665498734
1772609007303950300,0.862950439453125,-0.7590783834457397,-0.14108330011367798,0.30432552099227905
1772609007313948400,0.872948486328125,-0.8088291883468628,-0.060716662555933,0.43936654925346375
1772609007323946200,0.8829462890625,-0.767059862613678,-0.1687408685684204,0.5373690128326416
1772609007333944300,0.8929443359375,-0.6690350770950317,-0.1447727233171463,0.6143386363983154
1772609007343942100,0.902942138671875,-0.5451943874359131,0.016440659761428833,0.636551558971405
1772609007353940200,0.912940185546875,-0.4817357361316681,0.29761484265327454,0.6079555749893188
1772609007363938300,0.922938232421875,-0.4570780396461487,0.43220940232276917,0.5997122526168823
1772609007373935000,0.93293505859375,-0.43318089842796326,0.2906559407711029,0.679945707321167
1772609007383933200,0.94293310546875,-0.4152839183807373,0.08057435601949692,0.8346021175384521
1772609007393931300,0.95293115234375,-0.4306005835533142,-0.06347868591547012,1.007648229598999
1772609007403929300,0.962929443359375,-0.4630706310272217,-0.21119490265846252,1.1724883317947388
1772609007413927400,0.972927490234375,-0.4395880401134491,-0.35268476605415344,1.263850212097168
1772609007423925200,0.98292529296875,-0.3716127276420593,-0.3748595714569092,1.3025797605514526
1772609007433923300,0.99292333984375,-0.2730540931224823,-0.30966711044311523,1.165945053100586
1772609007443921400,1.00292138671875,-0.2082279473543167,0.3483901619911194,0.8301618695259094
1772609007453919200,1.012919189453125,-0.04138526692986488,0.7610074877738953,0.5190864205360413
1772609007463917300,1.022917236328125,0.15940749645233154,0.8751891851425171,0.3530460596084595
1772609007473915400,1.032915283203125,0.2049816995859146,0.6365255117416382,0.3370260000228882
1772609007483913200,1.042913330078125,0.22910194098949432,0.3002156913280487,0.47542887926101685
1772609007493911300,1.052911376953125,0.11254357546567917,0.13356450200080872,0.6247624158859253
1772609007503909400,1.062909423828125,0.04068031162023544,0.12371961027383804,0.5753043293952942
1772609007513907200,1.0729072265625,-0.027812033891677856,0.10364557057619095,0.3955671787261963
1772609007523904300,1.082904296875,-0.2935931086540222,-0.38780003786087036,0.20173725485801697
1772609007533902000,1.092902099609375,-0.7324841022491455,-0.8392612338066101,0.3062532842159271
1772609007543900200,1.102900146484375,-0.9810305833816528,-1.0716501474380493,0.6996226906776428
1772609007553898200,1.112898193359375,-0.9976682066917419,-0.9659661650657654,1.0797146558761597
1772609007563896000,1.12289599609375,-0.8395419120788574,-0.5142927169799805,1.2765520811080933
1772609007573894100,1.13289404296875,-0.6129351258277893,0.0587979331612587,1.2154772281646729
1772609007583892200,1.142892333984375,-0.4712317883968353,0.5411563515663147,0.9707790017127991
1772609007593890300,1.152890380859375,-0.49833163619041443,0.746476948261261,0.6557745933532715
1772609007603888400,1.162888427734375,-0.6136678457260132,0.6162853837013245,0.343794584274292
1772609007613886500,1.172886474609375,-0.7162207961082458,0.2560678720474243,0.0973847508430481
1772609007623884300,1.18288427734375,-0.7395788431167603,-0.27045637369155884,-0.048610538244247437
1772609007633882400,1.19288232421875,-0.6938008069992065,-0.8132839202880859,-0.03470313176512718
1772609007643880400,1.20288037109375,-0.6010021567344666,-1.2102261781692505,0.1633119434118271
1772609007653878800,1.212878662109375,-0.5154330730438232,-1.444473147392273,0.48914211988449097
1772609007663876900,1.222876953125,-0.5148943066596985,-1.5952723026275635,0.819246768951416
1772609007673873700,1.232873779296875,-0.5843275785446167,-1.6565665006637573,1.0061649084091187
1772609007683871700,1.242871826171875,-0.6934421062469482,-1.5401616096496582,0.9497585892677307
1772609007693869600,1.25286962890625,-0.7938514351844788,-1.3335211277008057,0.6492912769317627
1772609007703867600,1.26286767578125,-0.8453764319419861,-1.1346943378448486,0.1996959149837494
1772609007713865700,1.27286572265625,-0.8582963347434998,-0.9715188145637512,-0.27953433990478516
1772609007723863600,1.282863525390625,-0.7643250823020935,-0.8118018507957458,-0.6926652193069458
1772609007733861600,1.292861572265625,-0.5691965818405151,-0.6071893572807312,-0.9303427338600159
1772609007743859700,1.302859619140625,-0.3714659512042999,-0.3913766145706177,-0.9226496815681458
1772609007753857500,1.312857421875,-0.2699681520462036,-0.20885401964187622,-0.6782780885696411
1772609007763855600,1.322855712890625,-0.23621603846549988,-0.0193682499229908,-0.2922624349594116
1772609007773853400,1.332853515625,-0.20575116574764252,0.1633225977420807,0.12419390678405762
1772609007783851500,1.3428515625,-0.16232647001743317,0.28550922870635986,0.45315900444984436
1772609007793849600,1.352849609375,-0.09244196116924286,0.2765689492225647,0.6231684684753418
1772609007803847400,1.362847412109375,-0.03852386772632599,0.11614091694355011,0.6326684951782227
1772609007813845800,1.372845703125,-0.012231475673615932,-0.17516112327575684,0.5300012826919556
1772609007823842800,1.3828427734375,-0.008080673404037952,-0.4725198447704315,0.38455143570899963
1772609007833840600,1.392840576171875,-0.02694271132349968,-0.6870105266571045,0.2729780375957489
1772609007843838700,1.402838623046875,-0.003413149155676365,-0.8156052231788635,0.18251977860927582
1772609007853836500,1.41283642578125,-0.0022817719727754593,-0.8021653890609741,0.14120925962924957
1772609007863834600,1.422834716796875,-0.0013962704688310623,-0.6717296242713928,0.161311075091362
1772609007873832700,1.432832763671875,0.00789995864033699,-0.38848695158958435,0.28599050641059875
1772609007883830500,1.44283056640625,-0.02616187185049057,-0.05586586147546768,0.4856751263141632
1772609007893828600,1.45282861328125,-0.09463463723659515,0.20695003867149353,0.6959415078163147
1772609007903826700,1.46282666015625,-0.1993914097547531,0.33138731122016907,0.868580162525177
1772609007913824500,1.472824462890625,-0.2929551303386688,0.2923361659049988,0.9692415595054626
1772609007923822600,1.482822509765625,-0.35008367896080017,0.1870315670967102,1.0185459852218628
1772609007933820700,1.492820556640625,-0.34993454813957214,0.1268327832221985,0.9928388595581055
1772609007943818500,1.502818603515625,-0.28583651781082153,0.20914363861083984,0.8865907192230225
1772609007953816600,1.512816650390625,-0.18728230893611908,0.42545613646507263,0.6695372462272644
1772609007963813600,1.522813720703125,-0.11420971155166626,0.5710812211036682,0.36938804388046265
1772609007973811700,1.532811767578125,-0.14367873966693878,0.3320524990558624,0.0030693402513861656
1772609007983809800,1.542809814453125,-0.29069748520851135,-0.37695741653442383,-0.3071567118167877
1772609007993807600,1.5528076171875,-0.4848688542842865,-0.9477241635322571,-0.30545997619628906
1772609008003805700,1.5628056640625,-0.6421034336090088,-0.6233841776847839,0.16356796026229858
1772609008013803800,1.5728037109375,-0.8431251049041748,0.08325740694999695,0.6439664363861084
1772609008023801600,1.582801513671875,-1.0647715330123901,0.1540689915418625,0.5892006754875183
1772609008033799700,1.592799560546875,-1.0873216390609741,0.1048494204878807,0.2371499240398407
1772609008043797800,1.6027978515625,-0.9635514616966248,0.3708869516849518,0.01487184502184391
1772609008053795600,1.612795654296875,-0.7241495847702026,1.0858938694000244,0.17551127076148987
1772609008063793700,1.622793701171875,-0.4857498109340668,1.6530170440673828,0.5350366830825806
1772609008073791700,1.632791748046875,-0.33340567350387573,1.6747527122497559,0.818073570728302
1772609008083789600,1.64278955078125,-0.215615913271904,1.2849385738372803,0.9382143616676331
1772609008093787600,1.65278759765625,-0.17432591319084167,0.7909491658210754,0.9311659336090088
1772609008103785700,1.66278564453125,-0.2222372442483902,0.3901335299015045,0.8763128519058228
1772609008113782500,1.672782470703125,-0.30060237646102905,0.2107951045036316,0.7815020680427551
1772609008123780600,1.682780517578125,-0.2980143129825592,0.2352471798658371,0.6397379636764526
1772609008133778700,1.69277880859375,-0.21620750427246094,0.2808997333049774,0.47275519371032715
1772609008143776800,1.70277685546875,-0.11007548123598099,0.14268964529037476,0.3068876564502716
1772609008153774800,1.71277490234375,-0.028973102569580078,-0.1831275075674057,0.1773270070552826
1772609008163772700,1.722772705078125,-0.02682579681277275,-0.5368733406066895,0.09552429616451263
1772609008173770800,1.732770751953125,-0.11002927273511887,-0.8797591328620911,0.014156095683574677
1772609008183768800,1.742768798828125,-0.2041989117860794,-1.1052135229110718,-0.09015832096338272
1772609008193766700,1.7527666015625,-0.284851610660553,-1.0920910835266113,-0.2532877027988434
1772609008203764700,1.7627646484375,-0.34934431314468384,-0.9185864925384521,-0.5283054113388062
1772609008213762800,1.7727626953125,-0.3720526099205017,-0.7011415362358093,-0.8911628127098083
1772609008223760600,1.7827607421875,-0.35578468441963196,-0.4872835874557495,-1.2474026679992676
1772609008233758700,1.7927587890625,-0.3159383237361908,-0.3450157344341278,-1.4901165962219238
1772609008243756800,1.8027568359375,-0.2452697455883026,-0.2905213534832001,-1.5385805368423462
1772609008253754600,1.812754638671875,-0.14900653064250946,-0.32303285598754883,-1.406280279159546
1772609008263751700,1.822751708984375,-0.07769773155450821,-0.4093291461467743,-1.1164807081222534
1772609008273749500,1.83274951171875,-0.059162162244319916,-0.44139835238456726,-0.7068561911582947
1772609008283747600,1.84274755859375,-0.05897121876478195,-0.2783375382423401,-0.22007401287555695
1772609008293745700,1.85274560546875,-0.07841092348098755,0.06783812493085861,0.2496829330921173
1772609008303743500,1.862743408203125,-0.09337176382541656,0.46229088306427,0.6304206848144531
1772609008313741600,1.872741455078125,-0.09026272594928741,0.6817948818206787,0.8457335829734802
1772609008323739600,1.88273974609375,-0.06663329154253006,0.6323338150978088,0.8886733055114746
1772609008333737700,1.89273779296875,0.0028279684484004974,0.35472169518470764,0.8192591667175293
1772609008343735800,1.90273583984375,0.10841511189937592,-0.04323608800768852,0.6898109316825867
1772609008353733600,1.912733642578125,0.2149723470211029,-0.4830518960952759,0.5304386615753174
1772609008363731700,1.922731689453125,0.27016448974609375,-0.8230358362197876,0.4017013907432556
1772609008373729800,1.932729736328125,0.26714739203453064,-0.9668314456939697,0.3828895688056946
1772609008383727600,1.9427275390625,0.20429623126983643,-0.9077563881874084,0.44288551807403564
1772609008393725700,1.9527255859375,0.08796264231204987,-0.6122754216194153,0.5694097876548767
1772609008403722800,1.96272265625,-0.034754760563373566,-0.1604381948709488,0.739829421043396
1772609008413720600,1.972720458984375,-0.11396379768848419,0.2371712625026703,0.8951524496078491
1772609008423718700,1.98271875,-0.16273507475852966,0.39062607288360596,0.9825728535652161
1772609008433716500,1.992716552734375,-0.175516277551651,0.31832173466682434,0.9769486784934998
1772609008443714600,2.002714599609375,-0.13868075609207153,0.1545373648405075,0.9394189119338989
1772609008453712600,2.012712646484375,-0.06076901778578758,0.12549389898777008,0.8937637805938721
1772609008463710500,2.02271044921875,0.022618286311626434,0.15904253721237183,0.731776773929596
1772609008473708500,2.03270849609375,0.08124717324972153,0.1036769226193428,0.40466198325157166
1772609008483706600,2.04270654296875,0.034187257289886475,-0.24924252927303314,-0.05621934309601784
1772609008493704400,2.052704345703125,-0.15452510118484497,-0.7026453018188477,-0.47671109437942505
1772609008503702500,2.06270263671875,-0.37929296493530273,-0.818491518497467,-0.6022524833679199
1772609008513700600,2.07270068359375,-0.5607857704162598,-0.4168952405452728,-0.3226516544818878
1772609008523698700,2.08269873046875,-0.6523354053497314,0.4034033715724945,0.27026864886283875
1772609008533696800,2.09269677734375,-0.6616391539573669,1.2786372900009155,0.7768967747688293
1772609008543693600,2.102693603515625,-0.6695394515991211,1.4459096193313599,0.8044841885566711
1772609008553691600,2.112691650390625,-0.6477752327919006,0.8744369745254517,0.4045848846435547
1772609008563689700,2.122689697265625,-0.529097318649292,0.25640997290611267,0.01821187138557434
1772609008573687600,2.1326875,-0.37062975764274597,0.04058796912431717,0.00011530006304383278
1772609008583685600,2.142685546875,-0.2005368322134018,0.13897578418254852,0.3075873553752899
1772609008593683700,2.15268359375,-0.0842394232749939,0.34015464782714844,0.7005696296691895
1772609008603681500,2.162681640625,-0.012420093640685081,0.3143845498561859,0.9317373037338257
1772609008613679600,2.1726796875,0.024662259966135025,0.09623454511165619,0.973784327507019
1772609008623677700,2.182677734375,0.01579686440527439,-0.11667373031377792,0.8814312219619751
1772609008633675500,2.192675537109375,-0.04477230831980705,-0.33101698756217957,0.6913219690322876
1772609008643673600,2.202673583984375,-0.12033923715353012,-0.4212784469127655,0.47639453411102295
1772609008653671700,2.212671630859375,-0.13212832808494568,-0.2815658152103424,0.29729944467544556
1772609008663669200,2.222669189453125,-0.038396235555410385,-0.02459208108484745,0.16362367570400238
1772609008673667300,2.232667236328125,0.12405595928430557,0.08581072092056274,0.08876052498817444
1772609008683664400,2.242664306640625,0.21408331394195557,-0.029075386002659798,0.1013980284333229
1772609008693662500,2.252662353515625,0.23837411403656006,-0.2694380581378937,0.19402658939361572
1772609008703660500,2.26266064453125,0.21670903265476227,-0.5405635833740234,0.2709674537181854
1772609008713658400,2.272658447265625,0.1692059338092804,-0.7514334917068481,0.2452383041381836
1772609008723656400,2.282656494140625,0.09174735099077225,-0.8297796845436096,0.07498376071453094
1772609008733654500,2.292654541015625,0.0053763482719659805,-0.8444095849990845,-0.20337772369384766
1772609008743652400,2.30265234375,-0.04136905074119568,-0.9034358859062195,-0.5349809527397156
1772609008753650400,2.312650390625,-0.03859294205904007,-0.9829263687133789,-0.8640226721763611
1772609008763648500,2.3226484375,-0.015887629240751266,-0.9921563267707825,-1.142362117767334
1772609008773646300,2.332646240234375,-0.008596893399953842,-0.9116355180740356,-1.3260421752929688
1772609008783644400,2.34264453125,-0.03018474392592907,-0.8057416081428528,-1.3921411037445068
1772609008793642500,2.352642578125,-0.08431682735681534,-0.6680142879486084,-1.3529319763183594
1772609008803640300,2.362640380859375,-0.1448347568511963,-0.5741551518440247,-1.2250174283981323
1772609008813638400,2.372638427734375,-0.1619713455438614,-0.5112614631652832,-1.0077658891677856
1772609008823636200,2.38263623046875,-0.14107564091682434,-0.4380066990852356,-0.7036629319190979
1772609008833633500,2.392633544921875,-0.10849429666996002,-0.3095164895057678,-0.30491140484809875
1772609008843631600,2.402631591796875,-0.055608972907066345,-0.09554669260978699,0.15019406378269196
1772609008853629400,2.41262939453125,-0.0037082266062498093,0.11985232681035995,0.5664198994636536
1772609008863627500,2.42262744140625,0.02149779349565506,0.21573598682880402,0.8442906737327576
1772609008873625600,2.43262548828125,0.031197192147374153,0.12436709553003311,0.9443576335906982
1772609008883623400,2.44262353515625,0.02503170818090439,-0.07825951278209686,0.906857967376709
1772609008893621500,2.45262158203125,0.008932261727750301,-0.3456343710422516,0.7929710149765015
1772609008903619300,2.462619384765625,-0.022293034940958023,-0.595268189907074,0.6531886458396912
1772609008913617400,2.472617431640625,-0.07414191216230392,-0.7813998460769653,0.513600766658783
1772609008923615500,2.482615478515625,-0.13400843739509583,-0.8138379454612732,0.4362180829048157
1772609008933613300,2.49261328125,-0.17599792778491974,-0.6714180111885071,0.44058534502983093
1772609008943611400,2.502611328125,-0.19794264435768127,-0.37685295939445496,0.5353952646255493
1772609008953609500,2.512609375,-0.20837312936782837,-0.01939399726688862,0.6789455413818359
1772609008963607300,2.522607177734375,-0.22402559220790863,0.2154534012079239,0.8322948813438416
1772609008973604400,2.532604248046875,-0.24574287235736847,0.20950570702552795,0.929254949092865
1772609008983602200,2.542602294921875,-0.25079646706581116,-0.006245757453143597,0.9873584508895874
1772609008993600300,2.552600341796875,-0.24981218576431274,-0.26091447472572327,1.0447940826416016
1772609009003598300,2.562598388671875,-0.23752328753471375,-0.46996650099754333,1.101252794265747
1772609009013596400,2.572596435546875,-0.20676229894161224,-0.5303923487663269,1.182525634765625
1772609009023594500,2.582594482421875,-0.17489998042583466,-0.32975488901138306,1.2522813081741333
1772609009033592600,2.592592529296875,-0.1492200344800949,-0.012184560298919678,1.1823618412017822
1772609009043590400,2.60259033203125,-0.13423867523670197,0.12369950115680695,0.8665851354598999
1772609009053588500,2.61258837890625,-0.14667733013629913,-0.15508608520030975,0.3488300144672394
1772609009063586600,2.622586669921875,-0.21002355217933655,-0.5554668307304382,-0.09372318536043167
1772609009073584400,2.63258447265625,-0.33691057562828064,-0.7028771638870239,-0.2821788489818573
1772609009083582500,2.64258251953125,-0.33321648836135864,-0.5273327827453613,-0.3146909773349762
1772609009093580500,2.65258056640625,-0.46734514832496643,-0.10090773552656174,-0.20774391293525696
1772609009103578400,2.662578369140625,-0.6908981204032898,0.5035113096237183,-0.04879874736070633
1772609009113575400,2.672575439453125,-0.7991682291030884,0.8448299169540405,0.02068611979484558
1772609009123573200,2.6825732421875,-0.7705819010734558,0.7216792702674866,-0.0679185763001442
1772609009133571300,2.6925712890625,-0.6421826481819153,0.33044517040252686,-0.16975465416908264
1772609009143569400,2.7025693359375,-0.42425641417503357,0.08535180240869522,-0.1664336919784546
1772609009153567200,2.712567138671875,-0.15928086638450623,0.0676884800195694,-0.08364398032426834
1772609009163565300,2.7225654296875,0.07423600554466248,0.15730410814285278,-0.04314449429512024
1772609009173563400,2.7325634765625,0.2011292725801468,0.2567732334136963,-0.0796511322259903
1772609009183561200,2.742561279296875,0.23721536993980408,0.2963222563266754,-0.16617856919765472
1772609009193559300,2.752559326171875,0.26454323530197144,0.16415150463581085,-0.302041620016098
1772609009203557400,2.762557373046875,0.3443496525287628,-0.0767790824174881,-0.4346316158771515
1772609009213555500,2.772555419921875,0.4636896550655365,-0.3429417312145233,-0.573851466178894
1772609009223553500,2.782553466796875,0.5333014726638794,-0.5144413113594055,-0.7368292212486267
1772609009233551600,2.792551513671875,0.5115391612052917,-0.46841710805892944,-0.889904260635376
1772609009243549400,2.802549560546875,0.4624395966529846,-0.27008548378944397,-1.0179404020309448
1772609009253546500,2.81254638671875,0.45643848180770874,-0.024728262796998024,-1.1271705627441406
1772609009263544300,2.82254443359375,0.4963885545730591,0.06716810911893845,-1.249739646911621
1772609009273542400,2.83254248046875,0.5841227173805237,-0.06342251598834991,-1.363255262374878
1772609009283540500,2.84254052734375,0.6309863328933716,-0.2774690091609955,-1.4402117729187012
1772609009293538300,2.852538330078125,0.5772956609725952,-0.41546469926834106,-1.4582406282424927
1772609009303536400,2.862536376953125,0.42887082695961,-0.5127430558204651,-1.4386818408966064
1772609009313534500,2.872534423828125,0.212948277592659,-0.49498510360717773,-1.4038323163986206
1772609009323532300,2.8825322265625,-0.02602248638868332,-0.379824697971344,-1.3539202213287354
1772609009333530400,2.8925302734375,-0.18963149189949036,-0.1822798252105713,-1.2932285070419312
1772609009343528400,2.902528564453125,-0.22011350095272064,0.03538991138339043,-1.2101173400878906
1772609009353526300,2.9125263671875,-0.13457649946212769,0.21529650688171387,-1.0816181898117065
1772609009363524400,2.9225244140625,0.01014739740639925,0.3340652287006378,-0.8590096235275269
1772609009373522400,2.9325224609375,0.18133199214935303,0.42260247468948364,-0.503961980342865
1772609009383520300,2.942520263671875,0.30811259150505066,0.511785626411438,-0.06011504679918289
1772609009393517600,2.952517578125,0.3432222008705139,0.5860573053359985,0.37708818912506104
1772609009403515400,2.962515380859375,0.3073936402797699,0.5608457326889038,0.706807553768158
1772609009413513500,2.972513427734375,0.23554274439811707,0.43600624799728394,0.8882392048835754
1772609009423511600,2.982511474609375,0.1469137966632843,0.22594168782234192,0.934601902961731
1772609009433509400,2.99250927734375,0.06036363169550896,-0.020750418305397034,0.8843525648117065
1772609009443507500,3.002507568359375,-0.028465837240219116,-0.20727315545082092,0.7685309052467346
1772609009453505500,3.012505615234375,-0.09879613667726517,-0.2323523610830307,0.644452691078186
1772609009463503400,3.02250341796875,-0.13100120425224304,-0.09121789038181305,0.5734639763832092
1772609009473501400,3.03250146484375,-0.13994762301445007,0.12112836539745331,0.5816419720649719
1772609009483499300,3.042499267578125,-0.13729165494441986,0.3989560008049011,0.6947778463363647
1772609009493497300,3.052497314453125,-0.17814719676971436,0.6575660109519958,0.9036991000175476
1772609009503495400,3.062495361328125,-0.24052509665489197,0.7601888179779053,1.1349048614501953
1772609009513493200,3.0724931640625,-0.2605738043785095,0.6414071917533875,1.3265410661697388
1772609009523491300,3.0824912109375,-0.24725987017154694,0.353062242269516,1.495084524154663
1772609009533488600,3.092488525390625,-0.22597384452819824,0.013463319279253483,1.6377551555633545
1772609009543486500,3.102486572265625,-0.1905500739812851,-0.254477322101593,1.6802035570144653
1772609009553484500,3.112484619140625,-0.15216439962387085,-0.36892077326774597,1.6202220916748047
1772609009563482600,3.122482666015625,-0.18266159296035767,-0.39629462361335754,1.426173210144043
1772609009573480400,3.13248046875,-0.27967777848243713,-0.4476759731769562,1.1034725904464722
1772609009583478500,3.142478515625,-0.4180436432361603,-0.6137661337852478,0.6519154906272888
1772609009593476400,3.152476318359375,-0.5177443623542786,-0.6347174048423767,0.27047523856163025
1772609009603474400,3.162474365234375,-0.5366703867912292,-0.25706571340560913,0.16484281420707703
1772609009613472500,3.172472412109375,-0.4797702431678772,0.4761301875114441,0.36205777525901794
1772609009623470300,3.18247021484375,-0.39832836389541626,1.2944849729537964,0.7688792943954468
1772609009633468400,3.192468505859375,-0.443818062543869,1.5667976140975952,0.963087797164917
1772609009643466500,3.202466552734375,-0.5722705721855164,1.062848448753357,0.7510477304458618
1772609009653464300,3.21246435546875,-0.7142287492752075,0.24965327978134155,0.3152320086956024
1772609009663463000,3.222462890625,-0.8366382718086243,-0.5156089663505554,-0.09417948126792908
1772609009673460000,3.2324599609375,-0.810829222202301,-0.8237202167510986,-0.2618292272090912
1772609009683457800,3.242457763671875,-0.6148722171783447,-0.610602855682373,-0.2208077609539032
1772609009693456000,3.252455810546875,-0.26847589015960693,-0.09119526296854019,-0.06597309559583664
1772609009703454000,3.262453857421875,0.06762194633483887,0.4393157660961151,0.09503070265054703
1772609009713451800,3.27245166015625,0.23884260654449463,0.7859905958175659,0.18834629654884338
1772609009723449900,3.282449951171875,0.279497355222702,0.8076580762863159,0.18518592417240143
1772609009733447700,3.29244775390625,0.3120630085468292,0.45294812321662903,0.10132244229316711
1772609009743445800,3.30244580078125,0.38847362995147705,-0.2442179173231125,-0.024942288175225258
1772609009753443800,3.31244384765625,0.48391488194465637,-0.940312922000885,-0.05976475030183792
1772609009763442000,3.32244189453125,0.5038203597068787,-1.217380404472351,0.024923505261540413
1772609009773440000,3.33243994140625,0.49678969383239746,-1.072300910949707,0.12459717690944672
1772609009783438000,3.34243798828125,0.5226383805274963,-0.6030767560005188,0.14903408288955688
1772609009793436000,3.352435791015625,0.5986354351043701,0.02399311773478985,0.052525103092193604
1772609009803434000,3.36243408203125,0.683297336101532,0.5547826886177063,-0.1759916990995407
1772609009813430800,3.3724306640625,0.7343346476554871,0.8446221947669983,-0.4804539084434509
1772609009823428900,3.382428955078125,0.6861711144447327,0.850469172000885,-0.8235052824020386
1772609009833427000,3.392427001953125,0.5220128893852234,0.5616657733917236,-1.1811788082122803
1772609009843424800,3.4024248046875,0.2764342427253723,0.06207967549562454,-1.5170263051986694
1772609009853422800,3.4124228515625,0.010993320494890213,-0.3943146765232086,-1.7245004177093506
1772609009863421000,3.4224208984375,-0.20636536180973053,-0.6813064813613892,-1.7687181234359741
1772609009873418800,3.432418701171875,-0.37980541586875916,-0.772179126739502,-1.6686985492706299
1772609009883416800,3.442416748046875,-0.4689110517501831,-0.6841904520988464,-1.4074519872665405
1772609009893415000,3.452414794921875,-0.43790915608406067,-0.5110036134719849,-1.0588610172271729
1772609009903412700,3.462412841796875,-0.31362900137901306,-0.2180827409029007,-0.6557658910751343
1772609009913410800,3.472410888671875,-0.13415610790252686,0.13795146346092224,-0.22408945858478546
1772609009923409000,3.482408935546875,0.014431493356823921,0.4363759756088257,0.17228850722312927
1772609009933406700,3.49240673828125,0.1053546741604805,0.6131415963172913,0.4461325407028198
1772609009943404800,3.50240478515625,0.14874529838562012,0.6591373085975647,0.567151665687561
1772609009953401900,3.51240185546875,0.13459713757038116,0.5890004634857178,0.5510019659996033
1772609009963400000,3.52239990234375,0.09137538075447083,0.4583183825016022,0.4357938766479492
1772609009973398000,3.53239794921875,0.043733417987823486,0.27133679389953613,0.25563016533851624
1772609009983395800,3.542395751953125,0.009438293054699898,0.05440395325422287,0.07067683339118958
1772609009993394000,3.552393798828125,-0.005763322114944458,-0.05993907153606415,-0.06126968562602997
1772609010003392000,3.56239208984375,-0.01558266393840313,-0.08491046726703644,-0.10995413362979889
1772609010013389800,3.572389892578125,-0.03982701897621155,-0.041744887828826904,-0.08200772106647491
1772609010023388000,3.582387939453125,-0.08251696079969406,0.0994172990322113,0.055620983242988586
1772609010033386000,3.592385986328125,-0.1393582969903946,0.28544557094573975,0.29365402460098267
1772609010043383800,3.6023837890625,-0.19175146520137787,0.42274537682533264,0.5833361744880676
1772609010053382000,3.6123818359375,-0.23558743298053741,0.48406243324279785,0.8793292045593262
1772609010063380000,3.6223798828125,-0.25638484954833984,0.4358091354370117,1.102156162261963
1772609010073377800,3.632377685546875,-0.23594170808792114,0.2856905460357666,1.1993696689605713
1772609010083375900,3.6423759765625,-0.1600264310836792,0.20832067728042603,1.1919050216674805
1772609010093373000,3.652373046875,-0.0763256773352623,0.2579657733440399,1.0976965427398682
1772609010103371000,3.66237109375,-0.027458537369966507,0.42192542552948,0.9280217289924622
1772609010113369000,3.672369140625,-0.034718673676252365,0.6235041618347168,0.703731119632721
1772609010123367000,3.682366943359375,-0.10448071360588074,0.6872810125350952,0.4297501742839813
1772609010133365000,3.692364990234375,-0.232143372297287,0.42682474851608276,0.09064657241106033
1772609010143363000,3.702363037109375,-0.3517307639122009,-0.1285167634487152,-0.21935948729515076
1772609010153361000,3.71236083984375,-0.37327563762664795,-0.34268414974212646,-0.2537687122821808
1772609010163359000,3.72235888671875,-0.2998453378677368,0.05927953124046326,0.06840639561414719
1772609010173357000,3.732357177734375,-0.24376116693019867,0.897821307182312,0.6031404137611389
1772609010183355000,3.74235498046875,-0.3694232106208801,1.5804407596588135,0.9732481837272644
1772609010193353000,3.75235302734375,-0.5046694278717041,1.6979516744613647,1.018937349319458
1772609010203351000,3.76235107421875,-0.5306387543678284,1.217215657234192,0.8318952918052673
1772609010213348900,3.772348876953125,-0.4302179515361786,0.5552645921707153,0.7115741968154907
1772609010223347000,3.782346923828125,-0.2799975574016571,0.28245118260383606,0.8878424763679504
1772609010233343700,3.79234375,-0.13580136001110077,0.3460807800292969,1.1714969873428345
1772609010243341800,3.802341796875,-0.03581856191158295,0.4889332950115204,1.2789875268936157
1772609010253340000,3.81233984375,0.027856554836034775,0.6148606538772583,1.1504465341567993
1772609010263337700,3.822337646484375,0.06974461674690247,0.7379303574562073,0.8629221320152283
1772609010273335800,3.832335693359375,0.10864397883415222,0.7956476211547852,0.47455787658691406
1772609010283334100,3.842334228515625,0.15556460618972778,0.726770281791687,0.0377882681787014
1772609010293332000,3.85233203125,0.25149503350257874,0.4870692193508148,-0.37117311358451843
1772609010303330000,3.862330078125,0.37114447355270386,0.12977953255176544,-0.6853997707366943
1772609010313327900,3.872327880859375,0.43622106313705444,-0.24247011542320251,-0.8704351782798767
1772609010323326000,3.882325927734375,0.3992851674556732,-0.4757310748100281,-0.9150295853614807
1772609010333324000,3.892323974609375,0.29895132780075073,-0.5324209928512573,-0.8819226622581482
1772609010343321900,3.90232177734375,0.17748908698558807,-0.4042707085609436,-0.8285007476806641
1772609010353320000,3.91231982421875,0.08944924175739288,-0.18362106382846832,-0.7805892825126648
1772609010363318000,3.922318115234375,0.05459858849644661,-0.04413321986794472,-0.769523024559021
1772609010373314800,3.932314697265625,0.0664968267083168,-0.1557295322418213,-0.8302330374717712
1772609010383313000,3.94231298828125,0.09468478709459305,-0.4908830225467682,-0.9361264705657959
1772609010393310700,3.952310791015625,0.0924646258354187,-0.8965615630149841,-1.0582377910614014
1772609010403308800,3.962308837890625,0.04978347569704056,-1.1710751056671143,-1.1521531343460083
1772609010413307000,3.972306884765625,-0.06538300961256027,-1.2578063011169434,-1.2195017337799072
1772609010423304700,3.9823046875,-0.23761282861232758,-1.2012921571731567,-1.2551676034927368
1772609010433302800,3.992302734375,-0.40136483311653137,-1.0466609001159668,-1.2698252201080322
1772609010443300900,4.00230078125,-0.5180906057357788,-0.7696455717086792,-1.2475517988204956
1772609010453298700,4.012298583984375,-0.516075074672699,-0.4122030735015869,-1.1593468189239502
1772609010463296800,4.022296875,-0.40560877323150635,-0.2298620045185089,-1.061164379119873
1772609010473294800,4.032294921875,-0.2335146963596344,-0.23916640877723694,-0.9590490460395813
1772609010483293000,4.04229296875,-0.06579520553350449,-0.25484684109687805,-0.7820338010787964
1772609010493291000,4.052291015625,0.03962909057736397,-0.22350837290287018,-0.5445039868354797
1772609010503287800,4.062287841796875,0.05969574302434921,-0.18820364773273468,-0.3152305781841278
1772609010513286000,4.072285888671875,0.02432919666171074,-0.19138696789741516,-0.13493835926055908
1772609010523284000,4.082283935546875,-0.03780847787857056,-0.26568329334259033,-0.02384299784898758
1772609010533281800,4.09228173828125,-0.0972219705581665,-0.39081841707229614,0.03402554616332054
1772609010543279900,4.10227978515625,-0.1374434232711792,-0.5177979469299316,0.02252575382590294
1772609010553278000,4.11227783203125,-0.14621157944202423,-0.6048867702484131,-0.00513546634465456
1772609010563275800,4.12227587890625,-0.12784110009670258,-0.5442215800285339,-0.0031527432147413492
1772609010573273900,4.13227392578125,-0.11082585901021957,-0.39681974053382874,0.03151716664433479
1772609010583272000,4.14227197265625,-0.10009971261024475,-0.19747520983219147,0.10186269879341125
1772609010593269800,4.152269775390625,-0.12945111095905304,0.01298966072499752,0.20494936406612396
1772609010603267800,4.162267822265625,-0.17881812155246735,0.16560769081115723,0.32320916652679443
1772609010613266000,4.172265869140625,-0.19478930532932281,0.24002216756343842,0.44159790873527527
1772609010623263700,4.182263671875,-0.16757845878601074,0.2214476764202118,0.5310510993003845
1772609010633261800,4.19226171875,-0.10195820033550262,0.14725138247013092,0.5888408422470093
1772609010643260000,4.202260009765625,-0.031143147498369217,0.0673472210764885,0.6395154595375061
1772609010653257000,4.212257080078125,0.046287860721349716,0.011218734085559845,0.7356517910957336
1772609010663254000,4.22225390625,0.13897386193275452,0.07133027166128159,0.8776823878288269
1772609010673252000,4.232252197265625,0.24266113340854645,0.23022110760211945,1.0584880113601685
1772609010683250200,4.242250244140625,0.3077237606048584,0.30431878566741943,1.1899908781051636
1772609010693248000,4.252248046875,0.3015297055244446,0.15102607011795044,1.165587067604065
1772609010703246000,4.26224609375,0.2481764853000641,-0.2506297528743744,0.909911036491394
1772609010713244000,4.272243896484375,0.19903871417045593,-0.714755117893219,0.49637895822525024
1772609010723242000,4.282241943359375,0.2118607759475708,-0.7632169127464294,0.19036470353603363
1772609010733240000,4.292239990234375,0.22008498013019562,-0.4800529181957245,0.030345577746629715
1772609010743238000,4.30223779296875,0.04266040027141571,-0.2939309775829315,-0.18979212641716003
1772609010753236000,4.312236083984375,-0.28352320194244385,-0.09517170488834381,-0.531284749507904
1772609010763234000,4.322234130859375,-0.5152064561843872,0.206960991024971,-0.8107731342315674
1772609010773231900,4.33223193359375,-0.4849805235862732,0.6057024598121643,-0.8369567394256592
1772609010783229200,4.342229248046875,-0.23599599301815033,0.9678923487663269,-0.48513346910476685
1772609010793227000,4.35222705078125,0.04399867355823517,1.154001235961914,0.0949501097202301
1772609010803225000,4.36222509765625,0.2654261291027069,1.023445963859558,0.6196386218070984
1772609010813223200,4.37222314453125,0.3944729268550873,0.6457156538963318,0.9062234163284302
1772609010823221000,4.382220947265625,0.45870622992515564,0.33632609248161316,0.9638171792030334
1772609010833219000,4.392218994140625,0.5015154480934143,0.2503175735473633,0.8433505892753601
1772609010843217200,4.402217041015625,0.5205695033073425,0.1733865737915039,0.5406304597854614
1772609010853215000,4.412215087890625,0.5595152378082275,-0.12724514305591583,0.10230854898691177
1772609010863213000,4.422213134765625,0.6024147868156433,-0.4469374120235443,-0.30312126874923706
1772609010873211100,4.432211181640625,0.581338107585907,-0.5420847535133362,-0.5473260879516602
1772609010883209000,4.442208984375,0.5208308100700378,-0.46019765734672546,-0.6671825051307678
1772609010893207000,4.45220703125,0.48598799109458923,-0.2642773985862732,-0.7064844369888306
1772609010903205000,4.462205078125,0.48306944966316223,-0.05418407917022705,-0.7070394158363342
1772609010913203000,4.472202880859375,0.4969908595085144,0.12247712910175323,-0.689007043838501
1772609010923200300,4.4822001953125,0.4878538250923157,0.18726305663585663,-0.6717305779457092
1772609010933198000,4.492197998046875,0.4524812698364258,0.1563984453678131,-0.65671706199646
1772609010943196200,4.502196044921875,0.3718050718307495,0.03212468698620796,-0.659173846244812
1772609010953194200,4.5121943359375,0.24359031021595,-0.203415647149086,-0.7123301029205322
1772609010963192000,4.522192138671875,0.12341997027397156,-0.4502403438091278,-0.8706172108650208
1772609010973190100,4.532190185546875,0.056846991181373596,-0.6388157606124878,-1.1402208805084229
1772609010983188200,4.542188232421875,0.025914642959833145,-0.6790965795516968,-1.4078701734542847
1772609010993186000,4.55218603515625,0.011815803125500679,-0.6065747737884521,-1.5491141080856323
1772609011003184000,4.56218408203125,0.0017583747394382954,-0.39995691180229187,-1.5148223638534546
1772609011013182200,4.57218212890625,-0.021967891603708267,0.02445853315293789,-1.2402783632278442
1772609011023180000,4.582179931640625,-0.04729588329792023,0.5027702450752258,-0.7888200283050537
1772609011033178000,4.59217822265625,-0.08561864495277405,0.7858482003211975,-0.31341353058815
1772609011043176200,4.60217626953125,-0.1322798877954483,0.7881052494049072,0.07108274847269058
1772609011053174000,4.612174072265625,-0.1780368983745575,0.6072588562965393,0.3196086585521698
1772609011063171000,4.622171142578125,-0.2141786515712738,0.3583696782588959,0.43463778495788574
1772609011073169000,4.6321689453125,-0.21038177609443665,0.1091080754995346,0.42775630950927734
1772609011083167000,4.6421669921875,-0.15984749794006348,-0.11788992583751678,0.3397827744483948
1772609011093165000,4.6521650390625,-0.09542080760002136,-0.2002909630537033,0.25576889514923096
1772609011103163000,4.662162841796875,-0.048376865684986115,-0.09429527819156647,0.23446016013622284
1772609011113161000,4.672160888671875,-0.032647065818309784,0.10108575224876404,0.2790515720844269
1772609011123159300,4.6821591796875,-0.029692290350794792,0.32543522119522095,0.37393733859062195
1772609011133157000,4.6921572265625,-0.04758673533797264,0.49332818388938904,0.505799412727356
1772609011143155200,4.7021552734375,-0.06885527819395065,0.5316404104232788,0.6278629899024963
1772609011153153300,4.7121533203125,-0.0950661450624466,0.46597054600715637,0.7022470235824585
1772609011163151000,4.722151123046875,-0.12753620743751526,0.3230738639831543,0.7469441294670105
1772609011173149200,4.732149169921875,-0.13676334917545319,0.0866754949092865,0.7526964545249939
1772609011183147000,4.74214697265625,-0.11881125718355179,-0.1994236409664154,0.7723918557167053
1772609011193145000,4.75214501953125,-0.07042613625526428,-0.4104230999946594,0.8296210169792175
1772609011203142100,4.76214208984375,0.021248381584882736,-0.3940558433532715,0.9506939053535461
1772609011213140000,4.772139892578125,0.11572431772947311,-0.07710764557123184,1.1089335680007935
1772609011223138000,4.782137939453125,0.19650651514530182,0.3784002363681793,1.2157231569290161
1772609011233136000,4.79213623046875,0.2523922026157379,0.6927036643028259,1.1385128498077393
1772609011243134000,4.802134033203125,0.2226249724626541,0.5855655074119568,0.7966825366020203
1772609011253132000,4.812132080078125,0.13569223880767822,0.32858264446258545,0.3262726068496704
1772609011263130000,4.822130126953125,0.025648564100265503,0.3803635537624359,-0.009746682830154896
1772609011273128000,4.8321279296875,-0.26010164618492126,0.019998909905552864,-0.4480471611022949
1772609011283126000,4.8421259765625,-0.5557883977890015,-0.8200095295906067,-0.9560070633888245
1772609011293123800,4.852123779296875,-0.6881982088088989,-1.4368653297424316,-1.14128577709198
1772609011303122000,4.862121826171875,-0.5783995389938354,-1.3970463275909424,-0.8447034358978271
1772609011313120000,4.8721201171875,-0.26742810010910034,-0.6133858561515808,-0.03850758820772171
1772609011323118000,4.8821181640625,0.02199919894337654,0.4382946193218231,0.9231470823287964
1772609011333115100,4.892115234375,0.044303275644779205,1.191110610961914,1.6628857851028442
1772609011343113200,4.90211328125,0.20518244802951813,1.392028570175171,1.9243797063827515
1772609011353111000,4.912111083984375,0.271014928817749,0.9475982189178467,1.5699422359466553
1772609011363109000,4.922109130859375,0.2828492224216461,0.38828277587890625,0.9384050369262695
1772609011373107000,4.93210693359375,0.21668998897075653,-0.102866992354393,0.2771308422088623
1772609011383105000,4.94210498046875,0.11868751794099808,-0.4201783835887909,-0.26389962434768677
1772609011393103000,4.95210302734375,0.07639216631650925,-0.6211403608322144,-0.6296329498291016
1772609011403101000,4.962100830078125,0.04751311615109444,-0.6814503073692322,-0.8304877877235413
1772609011413099000,4.97209912109375,0.0032762130722403526,-0.5813760757446289,-0.8669202923774719
1772609011423097000,4.98209716796875,-0.04369822144508362,-0.3977852463722229,-0.7742745280265808
1772609011433095000,4.992094970703125,-0.07263234257698059,-0.27881208062171936,-0.5649473071098328
1772609011443093000,5.002093017578125,-0.07499562948942184,-0.311861127614975,-0.3254300057888031
1772609011453091000,5.012091064453125,-0.0770573765039444,-0.4855800271034241,-0.18321797251701355
1772609011463089000,5.0220888671875,-0.11389395594596863,-0.6561176776885986,-0.2439953088760376
1772609011473086200,5.032086181640625,-0.18423838913440704,-0.8191997408866882,-0.5502417087554932
1772609011483084000,5.042083984375,-0.27747035026550293,-0.9114372134208679,-1.0191357135772705
1772609011493082000,5.05208203125,-0.3723817765712738,-0.9090195298194885,-1.5088615417480469
1772609011503080200,5.062080078125,-0.43356844782829285,-0.8151705265045166,-1.856061339378357
1772609011513078000,5.072078125,-0.43802720308303833,-0.6347333788871765,-1.988499402999878
1772609011523076000,5.082076171875,-0.37179651856422424,-0.4234086573123932,-1.9392756223678589
1772609011533074200,5.09207421875,-0.2433905005455017,-0.15091058611869812,-1.7547153234481812
1772609011543072000,5.102072021484375,-0.080718494951725,0.17178624868392944,-1.4319566488265991
1772609011553070000,5.112070068359375,0.058412399142980576,0.3566669523715973,-1.0530766248703003
1772609011563068200,5.122068115234375,0.17387880384922028,0.27511003613471985,-0.7313967943191528
1772609011573066000,5.13206591796875,0.25505319237709045,-0.02755041979253292,-0.5268405675888062
1772609011583064000,5.14206396484375,0.2854859232902527,-0.4077768325805664,-0.3792807161808014
1772609011593062100,5.152062255859375,0.24780556559562683,-0.7213999629020691,-0.2752108573913574
1772609011603060000,5.16206005859375,0.21903224289417267,-0.8558821678161621,-0.19234499335289001
1772609011613057000,5.17205712890625,0.20099136233329773,-0.7627089023590088,-0.10570518672466278
1772609011623055000,5.18205517578125,0.1779416799545288,-0.508512556552887,-0.027399728074669838
1772609011633053200,5.19205322265625,0.15308788418769836,-0.18065330386161804,0.04254160076379776
1772609011643051300,5.20205126953125,0.12676891684532166,0.13471637666225433,0.12908528745174408
1772609011653049000,5.212049072265625,0.09839263558387756,0.4063464403152466,0.24833115935325623
1772609011663047000,5.222046875,0.05337003618478775,0.5253031849861145,0.3880395293235779
1772609011673044700,5.232044677734375,-0.0047649359330534935,0.4238276481628418,0.5405446290969849
1772609011683042800,5.242042724609375,-0.06771513819694519,0.15064725279808044,0.6839047074317932
1772609011693041000,5.252041015625,-0.10530872642993927,-0.0531306155025959,0.8531285524368286
1772609011703038700,5.262038818359375,-0.12619268894195557,-0.10903356224298477,1.0249886512756348
1772609011713036800,5.272036865234375,-0.11154551059007645,-0.0599929541349411,1.1224247217178345
1772609011723035000,5.282034912109375,-0.07780352234840393,-0.0035632350482046604,1.1111412048339844
1772609011733032700,5.29203271484375,-0.08898980170488358,-0.023497167974710464,0.9403649568557739
1772609011743029800,5.30202978515625,-0.16919276118278503,-0.13939660787582397,0.60943204164505
1772609011753027600,5.312027587890625,-0.25906991958618164,-0.14542238414287567,0.30319714546203613
1772609011763025700,5.322025634765625,-0.3591445982456207,0.14915971457958221,0.20472383499145508
1772609011773023700,5.332023681640625,-0.4525369703769684,0.7850968241691589,0.38374119997024536
1772609011783020800,5.342020751953125,-0.6068375706672668,1.0109493732452393,0.5347155332565308
1772609011793019000,5.352018798828125,-0.7888633012771606,0.5584320425987244,0.39437335729599
1772609011803016700,5.3620166015625,-0.8437878489494324,0.05179595947265625,0.22875401377677917
1772609011813014800,5.372014892578125,-0.8253989815711975,-0.2081192284822464,0.23343104124069214
1772609011823012900,5.382012939453125,-0.7510121464729309,-0.33168724179267883,0.4175886809825897
1772609011833010700,5.3920107421875,-0.6153808236122131,-0.2909587323665619,0.7030052542686462
1772609011843008800,5.4020087890625,-0.4292331039905548,-0.028980253264307976,0.9895253777503967
1772609011853006800,5.4120068359375,-0.21586011350154877,0.28188467025756836,1.1373703479766846
1772609011863004700,5.422004638671875,-0.06676585972309113,0.41620227694511414,1.0817376375198364
1772609011873002800,5.432002685546875,0.008201328106224537,0.41470715403556824,0.8811551332473755
1772609011883000800,5.442000732421875,0.0626593753695488,0.37400996685028076,0.6317855715751648
1772609011892998700,5.45199853515625,0.16151031851768494,0.2997554540634155,0.41602370142936707
1772609011902996700,5.461996826171875,0.3273012638092041,0.1432313323020935,0.2807251214981079
1772609011912993800,5.471993896484375,0.48553669452667236,-0.060207534581422806,0.24116092920303345
1772609011922991900,5.481991943359375,0.5551371574401855,-0.1798125058412552,0.29465410113334656
1772609011932990000,5.491989990234375,0.5339708924293518,-0.19909459352493286,0.3675075173377991
1772609011942987800,5.50198779296875,0.4842012822628021,-0.1711708903312683,0.39931514859199524
1772609011952985900,5.51198583984375,0.40767136216163635,-0.1412537395954132,0.35428109765052795
1772609011962984000,5.52198388671875,0.3126325011253357,-0.17398399114608765,0.20222361385822296
1772609011972981800,5.531981689453125,0.19498629868030548,-0.33654388785362244,-0.12490498274564743
1772609011982979800,5.541979736328125,0.06913518905639648,-0.5485664010047913,-0.5934299230575562
1772609011992978000,5.55197802734375,-0.06603701412677765,-0.7219946384429932,-1.0579233169555664
1772609012002975700,5.561975830078125,-0.18425872921943665,-0.7881206274032593,-1.4225515127182007
1772609012012973800,5.571973876953125,-0.26321613788604736,-0.7175905704498291,-1.6648832559585571
1772609012022972000,5.581971923828125,-0.29957494139671326,-0.5064077973365784,-1.7817529439926147
1772609012032969700,5.5919697265625,-0.3044394552707672,-0.2183256894350052,-1.7777528762817383
1772609012042967800,5.6019677734375,-0.29788723587989807,0.09287649393081665,-1.6510769128799438
1772609012052964600,5.611964599609375,-0.29287755489349365,0.4380354881286621,-1.4188170433044434
1772609012062962700,5.621962646484375,-0.29152822494506836,0.7716167569160461,-1.097841501235962
1772609012072960800,5.631960693359375,-0.2909385859966278,0.9532613754272461,-0.7237762808799744
1772609012082958600,5.64195849609375,-0.2837097644805908,0.9247512817382812,-0.3660967946052551
1772609012092956700,5.651956787109375,-0.2677920460700989,0.7124126553535461,-0.08269942551851273
1772609012102954800,5.661954833984375,-0.23055121302604675,0.3846862316131592,0.11346534639596939
1772609012112952800,5.671952880859375,-0.17520782351493835,0.05233677476644516,0.22864758968353271
1772609012122951000,5.681950927734375,-0.09912959486246109,-0.22836188971996307,0.2680308520793915
1772609012132949000,5.691948974609375,-0.011558199301362038,-0.5001435875892639,0.23982824385166168
1772609012142947600,5.701947509765625,0.04420466721057892,-0.6397832632064819,0.2198641151189804
1772609012152945000,5.71194482421875,0.06316667795181274,-0.6065831780433655,0.2533717155456543
1772609012162943000,5.72194287109375,0.0792795941233635,-0.4634164273738861,0.3269575238227844
1772609012172940800,5.73194091796875,0.07969777286052704,-0.23608176410198212,0.4435123801231384
1772609012182939000,5.74193896484375,0.0617174468934536,0.02130582183599472,0.5890099406242371
1772609012192937000,5.75193701171875,0.029130712151527405,0.17348992824554443,0.726371705532074
1772609012202934800,5.761934814453125,0.010159949772059917,0.21685950458049774,0.869666576385498
1772609012212932900,5.771932861328125,0.007564995437860489,0.18732701241970062,1.0045973062515259
1772609012222930700,5.7819306640625,0.05148078873753548,0.11866779625415802,1.0938159227371216
1772609012232928800,5.7919287109375,0.1259537637233734,0.020294127985835075,1.1551108360290527
1772609012242926800,5.8019267578125,0.20507654547691345,-0.0250999853014946,1.2157872915267944
1772609012252924700,5.811924560546875,0.27827075123786926,0.06334803253412247,1.2625923156738281
1772609012262922800,5.8219228515625,0.2983453869819641,0.3188178837299347,1.1883524656295776
1772609012272920800,5.8319208984375,0.41305264830589294,1.1840656995773315,1.1136927604675293
1772609012282918700,5.841918701171875,0.4103197157382965,1.2804808616638184,0.6802372336387634
1772609012292915700,5.851915771484375,0.07244066894054413,-0.032848864793777466,-0.479138046503067
1772609012302913800,5.861913818359375,-0.41045379638671875,-1.4897964000701904,-1.6679985523223877
1772609012312912000,5.871911865234375,-0.8460246324539185,-2.5934884548187256,-2.281358480453491
1772609012322910000,5.881909912109375,-0.9926098585128784,-2.557830810546875,-2.1050913333892822
1772609012332907800,5.89190771484375,-0.6067214012145996,-1.2038164138793945,-1.1764631271362305
1772609012342905900,5.90190576171875,-0.25601184368133545,0.4818980097770691,-0.06895346939563751
1772609012352904000,5.911904052734375,-0.035316288471221924,2.2080113887786865,1.0501047372817993
1772609012362901800,5.92190185546875,0.2517314553260803,2.9874820709228516,1.6529693603515625
1772609012372899800,5.93189990234375,0.3390119969844818,2.666045665740967,1.536196231842041
1772609012382898000,5.94189794921875,0.349795937538147,1.9487521648406982,1.021449327468872
1772609012392895700,5.951895751953125,0.24990153312683105,0.8989444375038147,0.25818851590156555
1772609012402893800,5.961893798828125,0.05082651972770691,0.09029930830001831,-0.3860527575016022
1772609012412892000,5.971891845703125,-0.2171992063522339,-0.4542407691478729,-0.7673433423042297
1772609012422889700,5.9818896484375,-0.20404958724975586,-0.6593007445335388,-0.8395283818244934
1772609012432886800,5.99188671875,-0.168418288230896,-0.6667924523353577,-0.7529715895652771
1772609012442884600,6.001884521484375,-0.14069238305091858,-0.4121132791042328,-0.540716826915741
1772609012452882700,6.011882568359375,-0.11840349435806274,-0.1086566224694252,-0.29528871178627014
1772609012462880800,6.021880859375,-0.031265389174222946,0.0431094728410244,-0.046293023973703384
1772609012472878600,6.031878662109375,0.11087045073509216,-0.03080000914633274,0.18652571737766266
1772609012482876700,6.041876708984375,0.2382502406835556,-0.3152671456336975,0.31500086188316345
1772609012492874800,6.051874755859375,0.2940989136695862,-0.6652465462684631,0.2689746916294098
1772609012502872800,6.061872802734375,0.27986884117126465,-0.9659275412559509,0.02300698682665825
1772609012512871000,6.071870849609375,0.2373938113451004,-1.0832505226135254,-0.354103147983551
1772609012522869000,6.081868896484375,0.0536319836974144,-0.9835565090179443,-0.735374927520752
1772609012532866800,6.09186669921875,-0.1507326364517212,-0.7900916337966919,-1.036718726158142
1772609012542865000,6.101864990234375,-0.2621789872646332,-0.5463830828666687,-1.1952677965164185
1772609012552863000,6.111863037109375,-0.3015420436859131,-0.29078367352485657,-1.2450833320617676
1772609012562859800,6.12185986328125,-0.26092246174812317,-0.13674429059028625,-1.2084866762161255
1772609012572857900,6.13185791015625,-0.1957232505083084,-0.051358990371227264,-1.0380451679229736
1772609012582855700,6.141855712890625,-0.14298786222934723,0.10190805792808533,-0.680920422077179
1772609012592853800,6.151853759765625,-0.13152474164962769,0.2653835117816925,-0.20670072734355927
1772609012602851800,6.161851806640625,-0.12887994945049286,0.32464736700057983,0.2320430725812912
1772609012612849700,6.171849609375,-0.10907302796840668,0.27465322613716125,0.5532419681549072
1772609012622847700,6.18184765625,-0.09149963408708572,0.10684262961149216,0.7116276025772095
1772609012632845800,6.191845703125,-0.044825006276369095,-0.2022743672132492,0.663379430770874
1772609012642843600,6.20184375,0.030648179352283478,-0.5192222595214844,0.47915154695510864
1772609012652841700,6.211841796875,0.10961636900901794,-0.6506941914558411,0.2691638469696045
1772609012662840800,6.2218408203125,0.14563588798046112,-0.6131148338317871,0.1092466413974762
1772609012672838700,6.231838623046875,0.1302068531513214,-0.5194600820541382,0.03904692456126213
1772609012682836700,6.241836669921875,0.09135880321264267,-0.3020193576812744,0.10421207547187805
1772609012692834800,6.251834716796875,0.04401988163590431,0.03046013042330742,0.2877182364463806
1772609012702831900,6.261831787109375,0.02342751994729042,0.36513638496398926,0.5225810408592224
1772609012712830000,6.271829833984375,0.04110078141093254,0.5068738460540771,0.7225902080535889
1772609012722827800,6.281827880859375,0.09835554659366608,0.41324910521507263,0.860660195350647
1772609012732825900,6.291825927734375,0.17651021480560303,0.22188879549503326,0.9943019151687622
1772609012742824000,6.301823974609375,0.2401040941476822,0.027127569541335106,1.1254743337631226
1772609012752821800,6.31182177734375,0.2942616641521454,-0.05791926383972168,1.2332926988601685
1772609012762819800,6.32181982421875,0.29369494318962097,-0.14542700350284576,1.1794230937957764
1772609012772818000,6.33181787109375,0.21145310997962952,-0.42680948972702026,0.8552431464195251
1772609012782815700,6.341815673828125,0.0736028403043747,-0.8419816493988037,0.2868393361568451
1772609012792813800,6.351813720703125,-0.07201055437326431,-1.0174086093902588,-0.2567155659198761
1772609012802812000,6.36181201171875,-0.18838749825954437,-0.8149982690811157,-0.51618492603302
1772609012812809700,6.371809814453125,-0.3327954411506653,-0.24886554479599,-0.40336987376213074
1772609012822807800,6.381807861328125,-0.4474557042121887,0.43271303176879883,0.0057161967270076275
1772609012832806000,6.391805908203125,-0.47899818420410156,1.0260441303253174,0.5307003259658813
1772609012842802700,6.401802734375,-0.41396644711494446,1.5295366048812866,1.0155954360961914
1772609012852800800,6.41180078125,-0.39142659306526184,1.4966471195220947,1.0936405658721924
1772609012862798600,6.421798583984375,-0.38745635747909546,0.7947392463684082,0.7678132653236389
1772609012872796700,6.431796630859375,-0.34471067786216736,-0.20313136279582977,0.3562263250350952
1772609012882794800,6.441794677734375,-0.30232566595077515,-0.7537175416946411,0.16507847607135773
1772609012892792600,6.45179248046875,-0.2676374018192291,-0.8170667290687561,0.25824955105781555
1772609012902791000,6.461791015625,-0.21452465653419495,-0.4822964668273926,0.5226979851722717
1772609012912789000,6.4717890625,-0.13994094729423523,0.0892028659582138,0.8576734662055969
1772609012922786800,6.481786865234375,-0.018702402710914612,0.5973939299583435,1.116028070449829
1772609012932785000,6.491784912109375,0.06086323782801628,0.7991640567779541,1.1590015888214111
1772609012942783000,6.501782958984375,0.10500939190387726,0.7158814072608948,1.0221377611160278
1772609012952780800,6.51178076171875,0.12973907589912415,0.513872504234314,0.7779712677001953
1772609012962779000,6.52177880859375,0.1207122951745987,0.3288204073905945,0.5134711861610413
1772609012972777000,6.53177685546875,0.0829792246222496,0.2345900535583496,0.2986670732498169
1772609012982773800,6.541773681640625,0.07759244740009308,0.21787099540233612,0.18688513338565826
1772609012992771800,6.551771728515625,0.10916095972061157,0.1704595983028412,0.15677128732204437
1772609013002769700,6.561769775390625,0.15043704211711884,0.02228265069425106,0.1794837862253189
1772609013012767700,6.571767822265625,0.16603198647499084,-0.14669688045978546,0.253387987613678
1772609013022765800,6.581765869140625,0.13567432761192322,-0.32329508662223816,0.29554980993270874
1772609013032763600,6.591763671875,0.10547997802495956,-0.4762042164802551,0.2627795934677124
1772609013042761700,6.60176171875,0.09659114480018616,-0.5735118985176086,0.12399265915155411
1772609013052759800,6.611759765625,0.0955623984336853,-0.6467747688293457,-0.13252213597297668
1772609013062757600,6.621757568359375,0.08387324959039688,-0.6827530264854431,-0.47704464197158813
1772609013072755700,6.631755615234375,0.059632860124111176,-0.6077356934547424,-0.7998126745223999
1772609013082753800,6.64175390625,0.0373949334025383,-0.41468340158462524,-1.0160589218139648
1772609013092751600,6.651751708984375,0.0022372351959347725,-0.1655234396457672,-1.1247245073318481
1772609013102750000,6.66175,-0.05267741158604622,0.07374934107065201,-1.1641695499420166
1772609013112747800,6.671747802734375,-0.14809466898441315,0.2031262218952179,-1.1790698766708374
1772609013122744800,6.681744873046875,-0.2687310576438904,0.12198156863451004,-1.1946344375610352
1772609013132743000,6.691742919921875,-0.385611355304718,-0.1420024186372757,-1.233111023902893
1772609013142740700,6.70174072265625,-0.4853861331939697,-0.4094247817993164,-1.2820593118667603
1772609013152738800,6.71173876953125,-0.5305595993995667,-0.5263288021087646,-1.2624107599258423
1772609013162737000,6.72173681640625,-0.5205456018447876,-0.41682198643684387,-1.1535391807556152
1772609013172734700,6.731734619140625,-0.43522000312805176,-0.1329050213098526,-0.957057774066925
1772609013182732800,6.74173291015625,-0.29560884833335876,0.27388882637023926,-0.6878857016563416
1772609013192730600,6.751730712890625,-0.17378561198711395,0.574079155921936,-0.41839292645454407
1772609013202728700,6.761728759765625,-0.05998928099870682,0.6525156497955322,-0.2241819053888321
1772609013212726800,6.771726806640625,0.04785020276904106,0.56292325258255,-0.09803490340709686
1772609013222724600,6.781724609375,0.13409294188022614,0.3075708746910095,-0.0373033806681633
1772609013232722700,6.79172265625,0.20291443169116974,-0.0325160026550293,-0.005719574633985758
1772609013242720800,6.801720703125,0.239244744181633,-0.2886825501918793,0.04267938435077667
1772609013252718600,6.811718505859375,0.2534019351005554,-0.41005977988243103,0.11347123235464096
1772609013262716000,6.8217158203125,0.24908334016799927,-0.40341120958328247,0.20376411080360413
1772609013272713700,6.831713623046875,0.21322129666805267,-0.29443350434303284,0.3044414818286896
1772609013282711800,6.8417119140625,0.18606850504875183,-0.11573273688554764,0.4096025228500366
1772609013292710000,6.8517099609375,0.20807789266109467,0.13780376315116882,0.5480984449386597
1772609013302707700,6.861707763671875,0.2638777792453766,0.40634867548942566,0.7171532511711121
1772609013312705800,6.871705810546875,0.32721373438835144,0.5629342198371887,0.8566036820411682
1772609013322704000,6.881703857421875,0.36906930804252625,0.5637142658233643,0.882087230682373
1772609013332701700,6.89170166015625,0.32961058616638184,0.34266290068626404,0.7339664697647095
1772609013342699800,6.90169970703125,0.19111821055412292,-0.20178043842315674,0.3762280344963074
1772609013352697900,6.91169775390625,0.0026084580458700657,-0.7777960300445557,-0.04334679991006851
1772609013362695700,6.92169580078125,-0.19804927706718445,-1.0996512174606323,-0.36230161786079407
1772609013372693800,6.93169384765625,-0.32946184277534485,-0.9406179189682007,-0.40333715081214905
1772609013382691800,6.94169189453125,-0.39654844999313354,-0.13208802044391632,-0.07748209685087204
1772609013392689700,6.951689697265625,-0.395126610994339,0.8409771919250488,0.49659714102745056
1772609013402686700,6.961686767578125,-0.3054307997226715,1.470390796661377,1.0278476476669312
1772609013412684800,6.971684814453125,-0.1266583502292633,1.6163183450698853,1.260991096496582
1772609013422683000,6.981682861328125,0.008192939683794975,1.370280146598816,1.190982460975647
1772609013432681000,6.991680908203125,-0.0032839514315128326,0.9252276420593262,0.8960883617401123
1772609013442678800,7.0016787109375,-0.0911450982093811,0.418768972158432,0.5391570925712585
1772609013452676900,7.0116767578125,-0.19252708554267883,0.07732877135276794,0.2838006317615509
1772609013462675000,7.021675048828125,-0.23277489840984344,0.01024454366415739,0.21534113585948944
1772609013472672800,7.0316728515625,-0.17249608039855957,0.19365009665489197,0.29411447048187256
1772609013482670800,7.0416708984375,-0.06130724400281906,0.45748335123062134,0.40352725982666016
1772609013492669000,7.0516689453125,0.05452438443899155,0.552369236946106,0.37952160835266113
1772609013502666800,7.061666748046875,0.17391309142112732,0.47223100066185,0.19871507585048676
1772609013512664800,7.071664794921875,0.2936432361602783,0.258201539516449,-0.05570415034890175
1772609013522663000,7.081662841796875,0.3862879276275635,-0.06665591150522232,-0.27164098620414734
1772609013532660700,7.09166064453125,0.45218491554260254,-0.4142782688140869,-0.39910033345222473
1772609013542657800,7.10165771484375,0.42576155066490173,-0.6898504495620728,-0.44836243987083435
1772609013552655600,7.111655517578125,0.3235777020454407,-0.8005049228668213,-0.47462156414985657
1772609013562653700,7.12165380859375,0.2322176992893219,-0.7832899689674377,-0.5432251691818237
1772609013572651800,7.13165185546875,0.22013984620571136,-0.7631136178970337,-0.7144425511360168
1772609013582649600,7.141649658203125,0.266734778881073,-0.7633320093154907,-0.9483916759490967
1772609013592647700,7.151647705078125,0.3207702040672302,-0.7522051930427551,-1.1776185035705566
1772609013602645800,7.161645751953125,0.3693619668483734,-0.7792490720748901,-1.3799703121185303
1772609013612643800,7.171643798828125,0.39479485154151917,-0.8582746386528015,-1.541377305984497
1772609013622642000,7.181641845703125,0.3882557153701782,-0.9259615540504456,-1.6463444232940674
1772609013632640000,7.191639892578125,0.3312128484249115,-0.9140192866325378,-1.690474271774292
1772609013642637800,7.201637939453125,0.23065586388111115,-0.7995611429214478,-1.7024723291397095
1772609013652636000,7.211635986328125,0.09884537756443024,-0.6171788573265076,-1.715295433998108
1772609013662634000,7.221634033203125,-0.05235159397125244,-0.42024314403533936,-1.7360403537750244
1772609013672630800,7.231630859375,-0.1839025765657425,-0.22926974296569824,-1.7569975852966309
1772609013682628900,7.24162890625,-0.28658527135849,-0.003685629228129983,-1.7570501565933228
1772609013692626700,7.251626708984375,-0.33746713399887085,0.24071431159973145,-1.7249150276184082
1772609013702624800,7.261624755859375,-0.29043808579444885,0.4546132981777191,-1.6357431411743164
1772609013712622800,7.271622802734375,-0.16651864349842072,0.6322348713874817,-1.4770264625549316
1772609013722620700,7.28162060546875,0.01338933315128088,0.7286050915718079,-1.2845443487167358
1772609013732618800,7.29161865234375,0.20887260138988495,0.6560975909233093,-1.076622486114502
1772609013742616800,7.301616943359375,0.36943939328193665,0.39557358622550964,-0.862979531288147
1772609013752614700,7.31161474609375,0.4728454351425171,-0.013380752876400948,-0.6764627695083618
1772609013762612700,7.32161279296875,0.5351762175559998,-0.45192375779151917,-0.5080394148826599
1772609013772610600,7.331610595703125,0.5477256774902344,-0.7611079216003418,-0.3417367935180664
1772609013782608600,7.341608642578125,0.5062061548233032,-0.9443554878234863,-0.19292974472045898
1772609013792606700,7.351606689453125,0.4381398856639862,-0.9645034670829773,-0.0563204362988472
1772609013802604800,7.361604736328125,0.38232722878456116,-0.7960441708564758,0.07783390581607819
1772609013812603000,7.371602783203125,0.33711180090904236,-0.4479335844516754,0.2228720486164093
1772609013822600000,7.381599853515625,0.3253909647464752,0.021887175738811493,0.3627023994922638
1772609013832597800,7.39159765625,0.3330412209033966,0.4687408208847046,0.4848819971084595
1772609013842595800,7.401595947265625,0.3248472213745117,0.7325850129127502,0.6096583008766174
1772609013852593700,7.41159375,0.3225417137145996,0.8382318615913391,0.7587520480155945
1772609013862591700,7.421591796875,0.3174545466899872,0.8336331248283386,0.9405260682106018
1772609013872589800,7.43158984375,0.27928411960601807,0.7802449464797974,1.119954228401184
1772609013882587600,7.441587646484375,0.18083451688289642,0.5989079475402832,1.185810923576355
1772609013892585700,7.451585693359375,0.04339269921183586,0.16703560948371887,1.0154774188995361
1772609013902583800,7.461583740234375,-0.1278160661458969,-0.5018050670623779,0.6438732743263245
1772609013912581600,7.47158154296875,-0.27974823117256165,-0.9140616655349731,0.3619329333305359
1772609013922579700,7.481579833984375,-0.3332657814025879,-0.522398829460144,0.432791143655777
1772609013932577800,7.491577880859375,-0.24064433574676514,0.8250383138656616,0.9942361116409302
1772609013942575600,7.50157568359375,-0.19985616207122803,1.5949456691741943,1.400122046470642
1772609013952573700,7.51157373046875,-0.3390991687774658,1.1843090057373047,1.139323353767395
1772609013962570800,7.52157080078125,-0.5520423054695129,0.33156299591064453,0.6004598736763
1772609013972568800,7.53156884765625,-0.7142853736877441,0.05721817910671234,0.31712689995765686
1772609013982567000,7.54156689453125,-0.7263465523719788,0.39530301094055176,0.47810351848602295
1772609013992564700,7.551564697265625,-0.5928266048431396,1.1324613094329834,0.994199812412262
1772609014002562800,7.561562744140625,-0.3234654664993286,1.7232939004898071,1.5159704685211182
1772609014012561000,7.571560791015625,-0.06719399243593216,1.7873518466949463,1.7366366386413574
1772609014022558700,7.581558837890625,0.06594914197921753,1.4469010829925537,1.6539348363876343
1772609014032556800,7.591556884765625,0.0627574771642685,0.9265550374984741,1.363268256187439
1772609014042555000,7.601554931640625,-0.06594643741846085,0.3283312916755676,0.9730648398399353
1772609014052552700,7.611552734375,-0.2846771776676178,-0.04918652027845383,0.6450961232185364
1772609014062550800,7.62155078125,-0.43616390228271484,-0.12089559435844421,0.3866669833660126
1772609014072548900,7.631548828125,-0.42977839708328247,0.04028508812189102,0.17573165893554688
1772609014082546700,7.641546630859375,-0.2886734902858734,0.3097999393939972,0.027398647740483284
1772609014092544800,7.651544677734375,-0.0841691792011261,0.5906562805175781,-0.06583381444215775
1772609014102542800,7.66154296875,0.08441184461116791,0.702519953250885,-0.149918332695961
1772609014112539600,7.67153955078125,0.1794033944606781,0.620404064655304,-0.261651873588562
1772609014122537700,7.681537841796875,0.22475756704807281,0.354826420545578,-0.36717990040779114
1772609014132535800,7.691535888671875,0.2294779121875763,-0.06921874731779099,-0.4489072561264038
1772609014142534000,7.701533935546875,0.22105486690998077,-0.6033151745796204,-0.5374738574028015
1772609014152532000,7.711531982421875,0.23590099811553955,-1.1447412967681885,-0.6677309274673462
1772609014162529800,7.72152978515625,0.23690687119960785,-1.5076470375061035,-0.8195369243621826
1772609014172527900,7.73152783203125,0.1931806355714798,-1.6669116020202637,-0.9790840148925781
1772609014182526000,7.74152587890625,0.10142141580581665,-1.6222703456878662,-1.1177878379821777
1772609014192523800,7.751523681640625,-0.003980002366006374,-1.3507243394851685,-1.2218873500823975
1772609014202521900,7.76152197265625,-0.10336171835660934,-0.9220892786979675,-1.304781436920166
1772609014212520000,7.77152001953125,-0.16506646573543549,-0.4910446107387543,-1.3758288621902466
1772609014222517800,7.781517822265625,-0.16778795421123505,-0.1466619223356247,-1.3775748014450073
1772609014232515800,7.791515869140625,-0.10884556919336319,0.09448529034852982,-1.2450312376022339
1772609014242514000,7.801513916015625,-0.0029723960906267166,0.29347163438796997,-1.002402901649475
1772609014252510700,7.8115107421875,0.09497084468603134,0.4108058214187622,-0.7416400909423828
1772609014262508800,7.8215087890625,0.14234474301338196,0.3837268054485321,-0.5450999140739441
1772609014272506600,7.831506591796875,0.1614757627248764,0.22516781091690063,-0.41418009996414185
1772609014282504700,7.841504638671875,0.16335143148899078,-0.06345705687999725,-0.33995407819747925
1772609014292502800,7.851502685546875,0.1646578460931778,-0.40363362431526184,-0.3093734681606293
1772609014302500600,7.86150048828125,0.16464906930923462,-0.6705859303474426,-0.29379770159721375
1772609014312498700,7.871498779296875,0.17029954493045807,-0.8482796549797058,-0.30201831459999084
1772609014322496800,7.881496826171875,0.1793724149465561,-0.912513017654419,-0.3044585883617401
1772609014332494800,7.891494873046875,0.17367088794708252,-0.8165096044540405,-0.3035631477832794
1772609014342493000,7.901492919921875,0.13954727351665497,-0.5864534974098206,-0.3031120002269745
1772609014352490800,7.91149072265625,0.06884565949440002,-0.22906236350536346,-0.2628788352012634
1772609014362488800,7.92148876953125,-0.008353279903531075,0.2241111844778061,-0.17023219168186188
1772609014372487000,7.93148681640625,-0.04811270907521248,0.6159161329269409,-0.044252242892980576
1772609014382484700,7.941484619140625,-0.015440517105162144,0.8074605464935303,0.05292171239852905
1772609014392481800,7.951481689453125,0.06257659196853638,0.7966167330741882,0.15836428105831146
1772609014402479900,7.96147998046875,0.15693159401416779,0.6378385424613953,0.2797463834285736
1772609014412477700,7.971477783203125,0.2645328938961029,0.45205965638160706,0.4392717778682709
1772609014422475800,7.981475830078125,0.35905754566192627,0.32778963446617126,0.628255307674408
1772609014432473900,7.991473876953125,0.4249890148639679,0.3416667580604553,0.7904762625694275
1772609014442471700,8.0014716796875,0.47552114725112915,0.38428157567977905,0.849758505821228
1772609014452469800,8.0114697265625,0.49884408712387085,0.2279951572418213,0.7171512842178345
1772609014462467600,8.021467529296874,0.4753139913082123,-0.18923881649971008,0.3867000937461853
1772609014472465700,8.031465576171875,0.3778264820575714,-0.5598942637443542,0.05984307825565338
1772609014482463700,8.041463623046875,0.215162456035614,-0.6944594979286194,-0.13423371315002441
1772609014492461600,8.051461669921874,-0.012855052947998047,-0.6454676389694214,-0.13412857055664062
1772609014502459600,8.061459716796875,-0.24545206129550934,-0.029276074841618538,0.15483133494853973
1772609014512457700,8.071457763671875,-0.3718126714229584,1.0830696821212769,0.652860164642334
1772609014522455800,8.081455810546874,-0.44303756952285767,1.3372942209243774,0.6544373035430908
1772609014532452900,8.091452880859375,-0.4255947172641754,0.8026219606399536,0.19922468066215515
1772609014542450700,8.10145068359375,-0.3583557605743408,0.23214727640151978,-0.19452688097953796
1772609014552448800,8.11144873046875,-0.30011460185050964,0.0761246606707573,-0.1983298361301422
1772609014562446800,8.12144677734375,-0.2126806080341339,0.1906949132680893,0.14531569182872772
1772609014572444700,8.131444580078124,-0.08890324831008911,0.4656086564064026,0.6772281527519226
1772609014582442800,8.14144287109375,0.08233588188886642,0.7353421449661255,1.1250762939453125
1772609014592440800,8.15144091796875,0.2094866931438446,0.8475980758666992,1.311959981918335
1772609014602438700,8.161438720703124,0.22489841282367706,0.7587534189224243,1.2579712867736816
1772609014612436700,8.171436767578125,0.13125045597553253,0.5715034008026123,1.0656729936599731
1772609014622434800,8.181434814453125,-0.02436204068362713,0.39383697509765625,0.8634656071662903
1772609014632432600,8.1914326171875,-0.19253693521022797,0.33855193853378296,0.696018397808075
1772609014642430700,8.2014306640625,-0.3102145493030548,0.3658176362514496,0.5874040126800537
1772609014652428800,8.2114287109375,-0.35113465785980225,0.43459761142730713,0.5094255208969116
1772609014662426000,8.221426025390626,-0.28690508008003235,0.5130274295806885,0.44981008768081665
1772609014672423200,8.231423095703125,-0.16853640973567963,0.5664033889770508,0.37796956300735474
1772609014682421200,8.241421142578124,-0.0453747883439064,0.5496920347213745,0.26542437076568604
1772609014692419000,8.251419189453125,0.08316179364919662,0.45935460925102234,0.13590098917484283
1772609014702417200,8.261417236328125,0.1823357790708542,0.2830120623111725,0.024383261799812317
1772609014712415200,8.271415283203124,0.22367632389068604,-0.004081413149833679,-0.06262905895709991
1772609014722413000,8.2814130859375,0.21166732907295227,-0.41131362318992615,-0.1279848963022232
1772609014732411100,8.2914111328125,0.164793461561203,-0.8829367160797119,-0.1973789632320404
1772609014742409200,8.3014091796875,0.11956392973661423,-1.2476742267608643,-0.2951337695121765
1772609014752407000,8.311406982421875,0.09241373836994171,-1.4370943307876587,-0.4576447010040283
1772609014762405000,8.321405029296875,0.09447210282087326,-1.4580376148223877,-0.6617797017097473
1772609014772403200,8.3314033203125,0.12986527383327484,-1.2770930528640747,-0.8748884201049805
1772609014782401000,8.341401123046875,0.14952686429023743,-0.8776106238365173,-1.0451416969299316
1772609014792399000,8.351399169921875,0.13083353638648987,-0.3271787464618683,-1.1475740671157837
1772609014802397200,8.361397216796876,0.07071133702993393,0.1972687840461731,-1.1916415691375732
1772609014812395000,8.37139501953125,-0.031411461532115936,0.5257176756858826,-1.1687359809875488
1772609014822392300,8.381392333984374,-0.1634824126958847,0.6005929708480835,-1.1228344440460205
1772609014832390100,8.39139013671875,-0.2822912633419037,0.49799811840057373,-1.0902633666992188
1772609014842388200,8.40138818359375,-0.33624106645584106,0.3258231282234192,-1.0328514575958252
1772609014852386300,8.41138623046875,-0.30009618401527405,0.14906181395053864,-0.8967061638832092
1772609014862384000,8.421384033203125,-0.2048596739768982,-0.05186702311038971,-0.7064904570579529
1772609014872382200,8.43138232421875,-0.07698240876197815,-0.24198541045188904,-0.5079069137573242
1772609014882380300,8.44138037109375,0.042427077889442444,-0.3897232115268707,-0.3654773235321045
1772609014892378000,8.451378173828125,0.14942017197608948,-0.46548065543174744,-0.30727869272232056
1772609014902376200,8.461376220703125,0.23620006442070007,-0.4908595085144043,-0.3271578550338745
1772609014912374300,8.471374267578126,0.2790507972240448,-0.5089721083641052,-0.3994603455066681
1772609014922372000,8.4813720703125,0.2805408239364624,-0.5178883671760559,-0.4877292215824127
1772609014932370200,8.4913701171875,0.28408581018447876,-0.47017985582351685,-0.5352939963340759
1772609014942368300,8.5013681640625,0.2826405167579651,-0.37231960892677307,-0.5465477108955383
1772609014952366000,8.511365966796875,0.25185826420783997,-0.22681915760040283,-0.49744245409965515
1772609014962363100,8.521363037109374,0.2187248170375824,0.022623147815465927,-0.3619040548801422
1772609014972361000,8.53136083984375,0.20984137058258057,0.31280404329299927,-0.15362738072872162
1772609014982359300,8.541359375,0.2351621836423874,0.49130693078041077,0.08200830221176147
1772609014992357400,8.551357421875,0.2951546013355255,0.5127348899841309,0.3172476887702942
1772609015002355200,8.561355224609375,0.38063061237335205,0.46860605478286743,0.543508768081665
1772609015012353300,8.571353271484375,0.45287448167800903,0.4553247392177582,0.755833625793457
1772609015022351400,8.581351318359374,0.513388454914093,0.5312722325325012,0.9422727227210999
1772609015032349200,8.59134912109375,0.518170177936554,0.5473394393920898,1.0259032249450684
1772609015042347300,8.60134716796875,0.44797858595848083,0.23708519339561462,0.8949958682060242
1772609015052345000,8.611344970703126,0.28121426701545715,-0.4098307192325592,0.5332947373390198
1772609015062343200,8.62134326171875,0.06504310667514801,-0.9300760626792908,0.15862660109996796
1772609015072341200,8.63134130859375,-0.14895619451999664,-0.992879331111908,0.018889376893639565
1772609015082339000,8.641339111328126,-0.26562637090682983,-0.5009039640426636,0.21281783282756805
1772609015092337200,8.651337158203125,-0.28053003549575806,0.5219945311546326,0.7194876074790955
1772609015102334200,8.661334228515624,-0.13511905074119568,1.5185178518295288,1.2400994300842285
1772609015112332000,8.67133203125,-0.0445941723883152,1.7075340747833252,1.2008658647537231
1772609015122330000,8.681330078125,-0.04102686792612076,0.8618134260177612,0.503795325756073
1772609015132328200,8.691328125,-0.09046456217765808,-0.24871598184108734,-0.3318174183368683
1772609015142326000,8.701325927734375,-0.18584327399730682,-0.7074707746505737,-0.62724769115448
1772609015152324000,8.711323974609375,-0.2102871984243393,-0.7108988165855408,-0.489251971244812
1772609015162322000,8.721322021484376,-0.21582470834255219,-0.35904884338378906,-0.027273962274193764
1772609015172320000,8.731320068359375,-0.18755578994750977,0.2852732241153717,0.6582598090171814
1772609015182318300,8.741318359375,-0.08542089909315109,0.9621473550796509,1.3256639242172241
1772609015192316200,8.751316162109376,-0.024943776428699493,1.1907057762145996,1.7261253595352173
1772609015202314200,8.761314208984375,-0.02101428061723709,0.8390265703201294,1.7682301998138428
1772609015212312300,8.771312255859375,-0.08126606792211533,0.09770333766937256,1.5085129737854004
1772609015222310100,8.78131005859375,-0.19245678186416626,-0.7058488130569458,1.0677385330200195
1772609015232308200,8.79130810546875,-0.28761234879493713,-1.1341723203659058,0.6054427623748779
1772609015242306300,8.801306396484375,-0.34556567668914795,-1.1185961961746216,0.26539382338523865
1772609015252303000,8.81130322265625,-0.2863389551639557,-0.7584188580513,0.0846271887421608
1772609015262301200,8.82130126953125,-0.061211563646793365,-0.2027558982372284,0.07224828749895096
1772609015272299000,8.831299072265624,0.2134183645248413,0.3140542209148407,0.1575898677110672
1772609015282297000,8.841297119140625,0.40728452801704407,0.5232162475585938,0.2223888337612152
1772609015292295200,8.851295166015625,0.5033320188522339,0.41154128313064575,0.23452714085578918
1772609015302293000,8.86129296875,0.5282520055770874,0.16177193820476532,0.18657639622688293
1772609015312291000,8.871291015625,0.53407222032547,-0.19558489322662354,0.044619120657444
1772609015322289200,8.8812890625,0.4969053566455841,-0.6382616758346558,-0.23181752860546112
1772609015332287000,8.891286865234376,0.4518730640411377,-1.0183484554290771,-0.5701495409011841
1772609015342285000,8.90128515625,0.42873525619506836,-1.1855287551879883,-0.8864350914955139
1772609015352283100,8.911283203125,0.38689514994621277,-1.0298973321914673,-1.1534245014190674
1772609015362281000,8.921281005859376,0.3030574917793274,-0.6573000550270081,-1.358267903327942
1772609015372279000,8.931279052734375,0.2232799082994461,-0.14341099560260773,-1.4705199003219604
1772609015382277400,8.94127734375,0.09833451360464096,0.37701037526130676,-1.5020173788070679
1772609015392275200,8.951275146484376,-0.024380315095186234,0.7400451898574829,-1.4457796812057495
1772609015402272300,8.961272216796875,-0.12299370020627975,0.8704066872596741,-1.2776471376419067
1772609015412270000,8.97127001953125,-0.19935253262519836,0.8028119206428528,-1.038021445274353
1772609015422268200,8.98126806640625,-0.25642940402030945,0.6286102533340454,-0.7932026982307434
1772609015432266200,8.991266357421875,-0.2483592927455902,0.4311066269874573,-0.5681830644607544
1772609015442264000,9.00126416015625,-0.18713082373142242,0.17714598774909973,-0.39122721552848816
1772609015452262100,9.01126220703125,-0.08672454953193665,-0.13924847543239594,-0.2964969873428345
1772609015462260200,9.02126025390625,0.029133077710866928,-0.3983743190765381,-0.2717154920101166
1772609015472258000,9.031258056640626,0.11685320734977722,-0.4944693446159363,-0.26140403747558594
1772609015482256100,9.041256103515625,0.1619972437620163,-0.5114811062812805,-0.26598840951919556
1772609015492254200,9.051254150390625,0.17748431861400604,-0.438216894865036,-0.2556043863296509
1772609015502252000,9.061251953125,0.16343241930007935,-0.2902766764163971,-0.21339991688728333
1772609015512250000,9.07125,0.13817070424556732,-0.09956713020801544,-0.12617014348506927
1772609015522248200,9.081248291015624,0.1074194610118866,0.12456025183200836,0.01314033754169941
1772609015532246000,9.09124609375,0.06418320536613464,0.32369309663772583,0.17924529314041138
1772609015542243300,9.101243408203125,0.026578571647405624,0.4481372833251953,0.3459213674068451
1772609015552241200,9.1112412109375,-0.0003032088279724121,0.5135247111320496,0.47768500447273254
1772609015562239200,9.1212392578125,-0.0100967176258564,0.5100942850112915,0.5495637655258179
1772609015572237300,9.1312373046875,-0.008985218591988087,0.4321941137313843,0.5897175669670105
1772609015582235100,9.141235107421876,0.0047590890899300575,0.33497995138168335,0.639361560344696
1772609015592233200,9.151233154296875,0.006380557082593441,0.2594255208969116,0.7075034976005554
1772609015602231300,9.161231201171875,0.007745693437755108,0.26506608724594116,0.8005817532539368
1772609015612229000,9.17122900390625,0.032942961901426315,0.414946973323822,0.9234615564346313
1772609015622227200,9.181227294921875,0.0701310783624649,0.6657534241676331,1.0283747911453247
1772609015632225000,9.19122509765625,0.14592254161834717,0.8550418615341187,1.0529253482818604
1772609015642223000,9.20122314453125,0.1391511857509613,0.6860089302062988,0.8757532238960266
1772609015652221200,9.21122119140625,0.04188762232661247,0.3395402729511261,0.5717754364013672
1772609015662219500,9.221219482421875,0.10311955213546753,0.39702194929122925,0.5343375205993652
1772609015672217600,9.231217529296876,-0.018124984577298164,0.35132962465286255,0.38758158683776855
1772609015682214400,9.24121435546875,-0.2806064188480377,-0.04816985875368118,-0.2356540411710739
1772609015692212500,9.25121240234375,-0.5371766090393066,-0.7166833877563477,-0.8845635652542114
1772609015702210300,9.261210205078125,-0.6371892690658569,-0.9427418112754822,-1.105968952178955
1772609015712208400,9.27120849609375,-0.3822198510169983,-0.5327915549278259,-0.8807405233383179
1772609015722206700,9.281206787109374,0.0945805236697197,0.3506533205509186,-0.30835098028182983
1772609015732204500,9.29120458984375,0.5295332074165344,0.9988479018211365,0.23210440576076508
1772609015742202600,9.30120263671875,0.7854856252670288,0.9826388359069824,0.4849012494087219
1772609015752200700,9.31120068359375,0.8532575964927673,0.6284522414207458,0.5045784711837769
1772609015762198500,9.321198486328125,0.7481298446655273,0.2527550160884857,0.46019288897514343
1772609015772195600,9.331195556640624,0.5300382971763611,0.001893987413495779,0.43513423204421997
1772609015782193400,9.341193359375,0.2288372963666916,-0.1225757896900177,0.4053378403186798
1772609015792191500,9.35119140625,0.013361732475459576,-0.2112119048833847,0.3460891842842102
1772609015802189600,9.361189453125,-0.016949599608778954,-0.25567466020584106,0.29400110244750977
1772609015812187400,9.3711875,0.05118817836046219,-0.17655587196350098,0.2792983055114746
1772609015822185500,9.381185546875,0.10538028180599213,-0.0044530234299600124,0.282162070274353
1772609015832183600,9.39118359375,0.1240551620721817,0.21563060581684113,0.2822432816028595
1772609015842181400,9.401181396484375,0.14047077298164368,0.43104735016822815,0.2542426884174347
1772609015852179500,9.411179443359375,0.1337854564189911,0.5565935373306274,0.1550692468881607
1772609015862177500,9.421177490234374,0.10040352493524551,0.5664049386978149,-0.020072462037205696
1772609015872174600,9.431174560546875,0.09306411445140839,0.40520885586738586,-0.2524993121623993
1772609015882172700,9.441172607421874,0.12334985285997391,0.13355307281017303,-0.5055428147315979
1772609015892170500,9.45117041015625,0.14647087454795837,-0.1043124869465828,-0.718923807144165
1772609015902168600,9.46116845703125,0.12899762392044067,-0.3087349534034729,-0.8848202228546143
1772609015912166700,9.471166748046874,0.08632126450538635,-0.39512869715690613,-0.9983028173446655
1772609015922164500,9.48116455078125,0.04909546673297882,-0.32466477155685425,-1.039562463760376
1772609015932162600,9.49116259765625,0.04439125955104828,-0.13514010608196259,-1.0140323638916016
1772609015942160600,9.50116064453125,0.06844502687454224,0.09209836274385452,-0.9792061448097229
1772609015952158500,9.511158447265625,0.08341439068317413,0.2624810039997101,-0.9796825647354126
1772609015962156500,9.521156494140625,0.11801048368215561,0.41896143555641174,-1.0012550354003906
1772609015972154600,9.531154541015624,0.1958743929862976,0.5706716179847717,-1.047550082206726
1772609015982152400,9.54115234375,0.3167613446712494,0.6861991882324219,-1.1267329454421997
1772609015992150500,9.551150634765625,0.45978161692619324,0.7600744962692261,-1.2120550870895386
1772609016002148600,9.561148681640624,0.5908476710319519,0.8025412559509277,-1.2719590663909912
1772609016012146400,9.571146484375,0.6669706106185913,0.8033167719841003,-1.2739982604980469
1772609016022143500,9.5811435546875,0.693003237247467,0.69514399766922,-1.249950647354126
1772609016032141600,9.5911416015625,0.707362174987793,0.5131259560585022,-1.2093355655670166
1772609016042139600,9.6011396484375,0.730238676071167,0.31292182207107544,-1.1535098552703857
1772609016052137700,9.6111376953125,0.782537579536438,0.20033001899719238,-1.079970359802246
1772609016062135600,9.621135498046876,0.8597015738487244,0.2565629482269287,-1.0121805667877197
1772609016072133600,9.631133544921875,0.9477578997612,0.41417017579078674,-0.9637722969055176
1772609016082131700,9.641131591796874,1.0362751483917236,0.6674172282218933,-0.9343120455741882
1772609016092129500,9.651129638671875,1.146538496017456,1.0495600700378418,-0.9361693263053894
1772609016102127600,9.661127685546875,1.2445602416992188,1.4546350240707397,-0.9828917384147644
1772609016112125700,9.671125732421874,1.2536884546279907,1.6905149221420288,-1.027135968208313
1772609016122123500,9.68112353515625,1.1716113090515137,1.7025631666183472,-1.0129547119140625
1772609016132121600,9.69112158203125,1.105309247970581,1.5235127210617065,-0.8426072597503662
1772609016142120700,9.70112060546875,1.129967212677002,1.3006831407546997,-0.5074955821037292
1772609016152118500,9.711118408203125,1.235641598701477,1.1125435829162598,-0.04982835426926613
1772609016162116600,9.72111669921875,1.432440996170044,1.0206307172775269,0.37271222472190857
1772609016172114700,9.73111474609375,1.5525842905044556,1.3354530334472656,0.784342885017395
1772609016182112500,9.741112548828125,1.658064603805542,1.6887133121490479,1.0315433740615845
1772609016192110600,9.751110595703125,1.626004934310913,1.6965126991271973,0.9446676969528198
1772609016202108700,9.761108642578124,1.6154862642288208,1.7310259342193604,0.7171868681907654
1772609016212106500,9.7711064453125,1.3905357122421265,1.5036978721618652,0.2055855542421341
1772609016222104600,9.7811044921875,1.0686999559402466,1.1392678022384644,-0.17538230121135712
1772609016232102700,9.7911025390625,0.8997299075126648,0.9734578132629395,-0.15063920617103577
1772609016242099500,9.801099365234375,0.9863936901092529,0.8813508152961731,0.21918438374996185
1772609016252097500,9.81109765625,1.0646703243255615,0.8520568609237671,0.6264715790748596
1772609016262095400,9.821095458984376,1.3416670560836792,0.760391891002655,0.9283528327941895
1772609016272093400,9.831093505859375,1.2859622240066528,0.9189611673355103,0.9235112071037292
1772609016282091500,9.841091552734374,1.0562978982925415,1.1125375032424927,0.5324875712394714
1772609016292089300,9.85108935546875,0.6841690540313721,1.1609879732131958,0.0009747976437211037
1772609016302087400,9.86108740234375,0.26415151357650757,1.067503571510315,-0.3523678183555603
1772609016312085500,9.87108544921875,0.03895900771021843,0.8356466889381409,-0.4403955042362213
1772609016322083600,9.88108349609375,0.052956316620111465,0.4866686761379242,-0.3143147826194763
1772609016332081700,9.89108154296875,0.28702887892723083,0.07819898426532745,-0.09801748394966125
1772609016342079700,9.901079833984374,0.5212249159812927,-0.08874846249818802,0.1719716489315033
1772609016352077600,9.91107763671875,0.6682903170585632,-0.1352100372314453,0.3834763169288635
1772609016362075600,9.92107568359375,0.7628858089447021,-0.03512844443321228,0.5046568512916565
1772609016372073500,9.931073486328126,0.8506773710250854,0.25790679454803467,0.5356548428535461
1772609016382070500,9.941070556640625,0.9211100339889526,0.6167011857032776,0.49097388982772827
1772609016392068600,9.951068603515624,0.9809178709983826,0.9260646104812622,0.39380568265914917
1772609016402066400,9.96106640625,1.0410232543945312,1.1646311283111572,0.3313199281692505
1772609016412064500,9.971064453125,1.0795032978057861,1.247076392173767,0.32375696301460266
1772609016422062600,9.9810625,1.1064646244049072,1.0773650407791138,0.32122671604156494
1772609016432060400,9.991060302734375,1.097390055656433,0.7474249601364136,0.33484235405921936
1772609016442058500,10.00105859375,1.1004983186721802,0.4375472366809845,0.38232332468032837
1772609016452056600,10.011056640625,1.024885892868042,0.19009356200695038,0.3930383026599884
1772609016462054400,10.021054443359375,0.8991082310676575,-0.06628469377756119,0.33269959688186646
1772609016472052500,10.031052490234375,0.7973230481147766,-0.275326669216156,0.21407146751880646
1772609016482050300,10.04105029296875,0.7534520030021667,-0.28520911931991577,0.09046085178852081
1772609016492048400,10.05104833984375,0.6287834048271179,-0.18867933750152588,-0.12249447405338287
1772609016502046500,10.06104638671875,0.49914127588272095,0.11590398848056793,-0.4069642722606659
1772609016512044500,10.07104443359375,0.4219234883785248,0.5923364758491516,-0.6875510811805725
1772609016522042600,10.081042724609375,0.26862820982933044,0.6995633244514465,-0.9636199474334717
1772609016532040700,10.091040771484375,0.33770567178726196,0.746597170829773,-1.0578978061676025
1772609016542037500,10.10103759765625,0.33290985226631165,0.4333266019821167,-1.113664150238037
1772609016552035600,10.11103564453125,0.4370519816875458,0.023648912087082863,-1.0884335041046143
1772609016562033400,10.121033447265624,0.5350072979927063,-0.42499998211860657,-0.9921488165855408
1772609016572031500,10.131031494140625,0.5758421421051025,-0.7150833010673523,-0.7990434765815735
1772609016582029600,10.141029541015625,0.5991442203521729,-0.8004677295684814,-0.5812432169914246
1772609016592027400,10.15102734375,0.6509681344032288,-0.687829852104187,-0.358917772769928
1772609016602025500,10.161025390625,0.8055933713912964,-0.3473779559135437,-0.16366705298423767
1772609016612023600,10.1710234375,0.9436358213424683,0.01770063303411007,-0.08421795070171356
1772609016622021400,10.181021484375,0.9906227588653564,0.3473813533782959,-0.12150487303733826
1772609016632019500,10.19101953125,0.8995051383972168,0.6455938816070557,-0.2008664757013321
1772609016642017500,10.201017578125,0.7348307371139526,0.8632838726043701,-0.26280203461647034
1772609016652015400,10.211015380859376,0.5625486969947815,0.9205566644668579,-0.3072444498538971
1772609016662013000,10.221012939453125,0.39567261934280396,0.7752391695976257,-0.314349502325058
1772609016672011000,10.231010986328124,0.23788149654865265,0.46450158953666687,-0.30756109952926636
1772609016682009000,10.241009033203126,0.11266259104013443,0.14427432417869568,-0.3168795108795166
1772609016692006000,10.251005859375,0.011465798132121563,-0.18745426833629608,-0.3581598997116089
1772609016702004000,10.26100390625,-0.03911961242556572,-0.5584414005279541,-0.38200369477272034
1772609016712001800,10.271001708984375,-0.038358382880687714,-0.839939296245575,-0.33103108406066895
1772609016722000000,10.280999755859375,-0.017109818756580353,-0.9465027451515198,-0.17133277654647827
1772609016731998000,10.290998046875,-0.001839987002313137,-0.8763554692268372,0.022905301302671432
1772609016741995800,10.300995849609375,0.010818284004926682,-0.6942886710166931,0.16522036492824554
1772609016751993900,10.310993896484375,-0.0042028771713376045,-0.39426368474960327,0.23786507546901703
1772609016761992000,10.320991943359376,-0.06833446025848389,0.037890106439590454,0.2442510575056076
1772609016771989800,10.33098974609375,-0.019945554435253143,0.14100386202335358,0.10023695230484009
1772609016781987800,10.34098779296875,0.15209466218948364,0.17103073000907898,0.0021790950559079647
1772609016791986000,10.35098583984375,0.2829225957393646,0.267462819814682,0.021918868646025658
1772609016801983700,10.360983642578125,0.3198137581348419,0.23435357213020325,0.15103957056999207
1772609016811981800,10.37098193359375,0.332215815782547,-0.05388006940484047,0.33826836943626404
1772609016821980000,10.38097998046875,0.3607124388217926,-0.3706843852996826,0.5374184846878052
1772609016831977700,10.390977783203125,0.3890824019908905,-0.44453442096710205,0.7350152730941772
1772609016841975000,10.40097509765625,0.37041816115379333,-0.2052968293428421,0.8602275252342224
1772609016851972900,10.410972900390625,0.3146747946739197,0.2034994661808014,0.9092594981193542
1772609016861971000,10.420970947265625,0.26339828968048096,0.4920676052570343,0.9124030470848083
1772609016871969000,10.430968994140626,0.27475008368492126,0.4701310694217682,0.8938835859298706
1772609016881966800,10.440966796875,0.34174829721450806,0.3578777611255646,0.8826500773429871
1772609016891965000,10.45096484375,0.24240073561668396,0.4278758466243744,0.7885991930961609
1772609016901963000,10.460962890625,-0.08590389788150787,0.58065265417099,0.5774369239807129
1772609016911960800,10.4709609375,-0.39793476462364197,0.6230136752128601,0.25732553005218506
1772609016921959000,10.480958984375,-0.5081285238265991,0.5874017477035522,-0.0983755961060524
1772609016931957000,10.49095703125,-0.5014097094535828,0.7118543982505798,-0.3620530068874359
1772609016941954800,10.500954833984375,-0.39489230513572693,0.9526031017303467,-0.5258379578590393
1772609016951953000,10.510952880859374,-0.21546095609664917,1.0799955129623413,-0.6180179715156555
1772609016961951000,10.520950927734376,-0.05226803943514824,1.0143163204193115,-0.6817484498023987
1772609016971948800,10.53094873046875,0.04900631308555603,0.8829701542854309,-0.7626780271530151
1772609016981947000,10.54094677734375,0.11707404255867004,0.8322885632514954,-0.8556521534919739
1772609016991944000,10.55094384765625,0.17781798541545868,0.8360888361930847,-0.9715468287467957
1772609017001942000,10.56094189453125,0.1929631233215332,0.7890377044677734,-1.1414998769760132
1772609017011940000,10.570940185546876,0.13537339866161346,0.6941843032836914,-1.3466471433639526
1772609017021938000,10.58093798828125,0.0721329003572464,0.5701665282249451,-1.52976655960083
1772609017031936000,10.59093603515625,0.008607191033661366,0.4252348244190216,-1.6302125453948975
1772609017041934000,10.60093408203125,-0.09615810215473175,0.334418922662735,-1.612896203994751
1772609017051932000,10.610931884765625,-0.2055053561925888,0.3249701261520386,-1.4839674234390259
1772609017061930000,10.620929931640624,-0.2702052891254425,0.46198177337646484,-1.2732415199279785
1772609017071927800,10.630927734375,-0.2901700735092163,0.6646952033042908,-1.0355074405670166
1772609017081926000,10.64092578125,-0.2800774872303009,0.8514688014984131,-0.8303945064544678
1772609017091924000,10.650924072265624,-0.30278280377388,0.9328336119651794,-0.7443606853485107
1772609017101921800,10.660921875,-0.22350475192070007,1.053528070449829,-0.608796238899231
1772609017111919900,10.670919921875,-0.15704548358917236,1.1651612520217896,-0.47062328457832336
1772609017121918000,10.68091796875,-0.0936816930770874,1.2032862901687622,-0.31345444917678833
1772609017131915800,10.690915771484375,-0.04914451763033867,1.1063778400421143,-0.1631089746952057
1772609017141912800,10.700912841796875,-0.02112593501806259,0.9333926439285278,-0.018019966781139374
1772609017151911000,10.710910888671876,-0.028054818511009216,0.8045290112495422,0.13999587297439575
1772609017161909000,10.720908935546875,-0.04939153417944908,0.7138710021972656,0.29549384117126465
1772609017171907000,10.730906982421875,-0.03573949635028839,0.6807805299758911,0.44436803460121155
1772609017181905000,10.74090478515625,0.01974000781774521,0.6698330640792847,0.563300609588623
1772609017191903000,10.750903076171875,0.12310533970594406,0.643678605556488,0.6460239887237549
1772609017201901000,10.760901123046875,0.24141228199005127,0.5864584445953369,0.6927124261856079
1772609017211899000,10.77089892578125,0.19833102822303772,0.5144109129905701,0.7487547397613525
1772609017221897000,10.78089697265625,0.11745588481426239,0.16261611878871918,0.8108417987823486
1772609017231895000,10.79089501953125,0.37556442618370056,-0.016279922798275948,0.8314296007156372
1772609017241892900,10.800892822265626,0.6473357677459717,0.15536613762378693,0.6749588251113892
1772609017251891000,10.810890869140625,0.7425457835197449,0.19716553390026093,0.3762674629688263
1772609017261889000,10.820888916015624,0.72855544090271,0.165705606341362,0.1063598245382309
1772609017271886800,10.830886962890625,0.652475893497467,0.11354082822799683,-0.10153970867395401
1772609017281885000,10.840885009765625,0.4677009880542755,0.09457139670848846,-0.2768441438674927
1772609017291883000,10.850883056640624,0.1884695440530777,0.024938959628343582,-0.3297060430049896
1772609017301880800,10.860880859375,-0.02701215073466301,-0.05011158064007759,-0.23780035972595215
1772609017311878000,10.8708779296875,-0.09020816534757614,-0.030990246683359146,-0.046623896807432175
1772609017321875700,10.880875732421876,-0.04421564191579819,0.04824838414788246,0.15144523978233337
1772609017331873800,10.890873779296875,0.03897678479552269,0.20152410864830017,0.28838610649108887
1772609017341871900,10.900871826171874,0.09355587512254715,0.379183292388916,0.3272448182106018
1772609017351869700,10.91086962890625,0.17077839374542236,0.5755814909934998,0.28289201855659485
1772609017361868000,10.920867919921875,0.18949002027511597,0.7078245282173157,0.2088278979063034
1772609017371866000,10.9308662109375,0.1304270625114441,0.6792092323303223,0.10397259891033173
1772609017381864000,10.940864013671876,0.1008681058883667,0.611023485660553,0.026092451065778732
1772609017391862000,10.950862060546875,0.08119367063045502,0.5905883312225342,0.021818436682224274
1772609017401860000,10.960860107421874,0.05370878800749779,0.5673690438270569,0.08423574268817902
1772609017411858000,10.97085791015625,0.04503876715898514,0.5748928785324097,0.19682355225086212
1772609017421856000,10.98085595703125,-0.020011071115732193,0.5137370824813843,0.3328450322151184
1772609017431854000,10.99085400390625,-0.053593359887599945,0.15894190967082977,0.2985115647315979
1772609017441852000,11.000851806640625,-0.028991881757974625,-0.0620352067053318,0.23489825427532196
1772609017451850000,11.01085009765625,-0.027073271572589874,-0.11682076007127762,0.13299040496349335
1772609017461846800,11.0208466796875,-0.035378072410821915,-0.10806135833263397,0.0004283785820007324
1772609017471844900,11.030844970703125,-0.04117937013506889,-0.023915665224194527,-0.10419464111328125
1772609017481843000,11.040843017578124,-0.020855190232396126,0.09274464100599289,-0.1307239830493927
1772609017491840800,11.0508408203125,-0.03608720749616623,0.07441890984773636,-0.11601365357637405
