time,seconds_elapsed,z,y,x
1772522045790516700,0.108516845703125,0.0714946258932352,0.009469839134812355,-0.018047314273472875
1772522045800512800,0.1185126953125,0.0598223082780838,0.006982004374451935,-0.0018455091356765479
1772522045810509600,0.128509521484375,0.0486029951274395,0.0034414456907659765,-0.0002442570846527815
1772522045820506600,0.138506591796875,0.05100713365972042,0.0024632117757573723,0.005913260898087173
1772522045830503700,0.148503662109375,0.04652385076582431,0.0022411665229126808,0.004066546186013147
1772522045840499700,0.158499755859375,0.05969371346235275,-0.004947265410143882,-0.010651030009705572
1772522045850496800,0.168496826171875,0.03680675887167453,-0.003995462844334542,-0.0006938548825215548
1772522045860493600,0.17849365234375,0.05102466931641102,0.0017589176976121961,0.0020207926373463124
1772522045870491000,0.188490966796875,0.06150105514526367,0.00717133466778323,-0.000848141261935234
1772522045880486700,0.198486572265625,0.0649462271630764,0.010474559197947382,-0.006632049292465672
1772522045890483700,0.208483642578125,0.060309215012192725,0.009914039238356053,-0.0032250995263457295
1772522045900480800,0.218480712890625,0.05208265393674373,0.004488360927812755,-0.008242306633852422
1772522045910477600,0.2284775390625,0.03622399054765701,0.002829451272264123,-0.004646665895218029
1772522045920473600,0.2384736328125,0.05043897838294506,-0.0014039667801000178,-0.008426933352602646
1772522045930470700,0.248470703125,0.06555763705968856,0.0009261018689721822,0.0015504260460846126
1772522045940467700,0.2584677734375,0.05658639509677887,-0.0034618308916687965,-0.0013730145194102079
1772522045950464500,0.268464599609375,0.04649930084645748,-0.010212528994586318,-0.004633989076735451
1772522045960460500,0.27846044921875,0.05404957009553909,-0.004314648328721523,-0.002614895206131041
1772522045970457600,0.28845751953125,0.05046703543365001,-0.004828132542502135,-0.0034428704628720877
1772522045980454400,0.298454345703125,0.059442369049787516,-0.002574910255614668,0.006157143523404374
1772522045990451500,0.308451416015625,0.0625718992471695,-0.0014261238129809498,0.00981177530712448
1772522046000447500,0.318447509765625,0.0573170474588871,0.003206394825875759,0.00783302258006297
1772522046010444500,0.328444580078125,0.06088263098597526,0.006968852631933987,-0.002603268700418994
1772522046020441600,0.338441650390625,0.061308162921667096,0.003096322047524154,0.004901334776030853
1772522046030438700,0.348438720703125,0.05081482595801353,0.002318140749260783,0.01650360109596513
1772522046040434700,0.3584345703125,0.04528057270646095,-0.00008791574547067284,0.0055717083182651546
1772522046050431500,0.368431396484375,0.0348082785308361,-0.0035267676203511655,0.00886776332212612
1772522046060428500,0.378428466796875,0.060984922316670416,0.0005738908978179097,0.009735814860928803
1772522046070425600,0.388425537109375,0.05648761089742183,-0.004358925861865282,-0.004886420334689319
1772522046080421400,0.39842138671875,0.04152735765278339,0.004635989237576723,0.00118356549507007
1772522046090418700,0.408418701171875,0.03854804958105087,0.0009341938438825308,0.004078254890115931
1772522046100415500,0.41841552734375,0.0615869798630476,-0.0013720190055668353,0.007543254986405372
1772522046110412500,0.42841259765625,0.05483750560283661,0.0008749196710065006,0.0045184364056680346
1772522046120408600,0.43840869140625,0.041513329127430915,-0.001684427689295262,0.002135386327188462
1772522046130405600,0.448405517578125,0.04150339225530624,-0.004344038819987327,-0.002644139566924423
1772522046140402400,0.45840234375,0.050175943532586094,0.0016548910675570367,0.0012282540201675146
1772522046150399500,0.4683994140625,0.05137304436266422,-0.0028305655171163378,-0.005837044723564759
1772522046160395500,0.4783955078125,0.06364975761175155,0.0004414784234948456,-0.011953536576172336
1772522046170392600,0.488392578125,0.05481938542425632,0.0052010027091950175,-0.0016313275288790464
1772522046180389600,0.4983896484375,0.05765490111112594,-0.0004561462696641683,-0.0038608310134615746
1772522046190386400,0.508386474609375,0.050915363723039626,-0.001251918023545295,-0.007721114037651568
1772522046200382500,0.518382568359375,0.057794601842761036,0.004373812903743237,-0.007151479189842939
1772522046210379500,0.528379638671875,0.0488163456171751,-0.004661415939778089,0.003738474142272025
1772522046220376600,0.53837646484375,0.04432838654816151,-0.0025463965471833943,-0.0047149910242296755
1772522046230373600,0.54837353515625,0.038942601856589314,0.004702953526563942,-0.00019152225041761992
1772522046240369700,0.55836962890625,0.048828620576858515,-0.0016830759824253618,-0.0014369466010946779
1772522046250366500,0.568366455078125,0.05631400789618492,-0.0005162424264475703,0.004236587256984785
1772522046260363500,0.578363525390625,0.06334463718533516,0.003951240110117942,-0.004706378459511325
1772522046270360600,0.588360595703125,0.05766249989569187,0.004831530075985938,-0.0074385159702971574
1772522046280356600,0.598356689453125,0.03986205478906631,-0.0021261070421896874,-0.0033994605794083325
1772522046290353700,0.608353759765625,0.042697570475935934,-0.002849635543767363,0.005627566691348329
1772522046300350700,0.618350830078125,0.057362640166282654,-0.005515822545718401,0.00540118319010362
1772522046310347500,0.628347412109375,0.06005377894639968,-0.0005277867337688803,-0.00040322877233847973
1772522046320343600,0.638343505859375,0.05166939696073532,-0.013756028554029761,-0.004738737225998193
1772522046330340600,0.648340576171875,0.04762567452788353,-0.0036001981827430427,-0.0003494618916418403
1772522046340337400,0.65833740234375,0.05855798743069172,-0.0015552666179835795,0.004436585074802861
1772522046350334700,0.668334716796875,0.040460020682215686,0.0008578406720422208,0.0024102120800409466
1772522046360330500,0.67833056640625,0.0449473952293396,-0.00681528777172789,-0.002659227538201958
1772522046370327600,0.68832763671875,0.04958265381455421,0.0013455693900585174,0.0036636370740830895
1772522046380324600,0.69832470703125,0.056309331721067425,0.006683605949766934,0.002740914472285658
1772522046390321400,0.7083212890625,0.056307578155398365,0.003993417017720639,0.0042740514568518845
1772522046400317400,0.7183173828125,0.06213526139557361,0.002768277403246611,0.0003677829996217042
1772522046410314500,0.728314453125,0.05599778155386448,0.0042010684190317985,0.01229414844107814
1772522046420311600,0.7383115234375,0.06123042151033878,-0.0012788973620161414,0.0006859455707017331
1772522046430308600,0.74830859375,0.043272155493497846,0.004624992919526994,-0.0018847999664489178
1772522046440304600,0.7583046875,0.04506780673861503,-0.00582013925453648,-0.007835378933930768
1772522046450301700,0.7683017578125,0.037141105392575265,-0.0033626083008944986,-0.009835494109429419
1772522046460298500,0.778298583984375,0.06033902562856674,-0.0027985994762741028,-0.007994049227517099
1772522046470295600,0.788295654296875,0.06901508403718472,0.005835008030105382,-0.009138725750613957
1772522046480291600,0.79829150390625,0.06123334411978721,0.012023597004543989,-0.0015038469580002129
1772522046490288400,0.808288330078125,0.04910802204012871,0.0042226957289502026,-0.0009067395813763141
1772522046500285700,0.81828564453125,0.04057575601637363,0.0024885471464134753,-0.003852355446061119
1772522046510282500,0.828282470703125,0.053744449669122694,0.0023359504005871713,-0.015488286573579533
1772522046520278500,0.838278564453125,0.06421615932285785,0.006598905074689537,-0.006122063076868653
1772522046530275600,0.848275634765625,0.04536299029290676,-0.005480331107228994,-0.010460731601994485
1772522046540272400,0.8582724609375,0.013643325427174568,-0.008434322074614465,-0.014806405256642027
1772522046550269700,0.868269775390625,0.050606736165285104,-0.006901395152602344,-0.012081693000486119
1772522046560266500,0.8782666015625,0.07799158669710159,-0.0027814839446917176,-0.014336385725252329
1772522046570262500,0.888262451171875,0.0534521887242794,0.00553080091914162,-0.012197802793979645
1772522046580259600,0.898259521484375,0.04477379222810268,0.004659205716382711,-0.0034258827954530714
1772522046590256400,0.90825634765625,0.04388181182444095,0.004016542164981365,-0.008919603107217698
1772522046600253700,0.918253662109375,0.05839958199858665,0.0018789090817794203,-0.007187317688204348
1772522046610249500,0.92824951171875,0.060793199136853215,0.002322816924378276,-0.01019046329325065
1772522046620246500,0.93824658203125,0.04044306954741478,-0.005813472051732242,-0.005241152056492865
1772522046630243600,0.94824365234375,0.03685352062284946,-0.004765807896014303,-0.0031967319483868777
1772522046640240400,0.958240478515625,0.03954758201241493,-0.004245455550029874,-0.0070658558661583805
1772522046650236700,0.968236572265625,0.049127311262488364,-0.002427903000358492,-0.002960676436498761
1772522046660233500,0.9782333984375,0.04509060309231281,-0.002282594511844218,0.003972922218963504
1772522046670230500,0.98823046875,0.0364162982493639,-0.0044179625727236264,0.010602715622261167
1772522046680227600,0.9982275390625,0.030433716708421706,-0.005570402277167886,0.002590646680863574
1772522046690223400,1.008223388671875,0.05691898805201053,-0.0025342311853542923,0.0032018556480761617
1772522046700220700,1.018220703125,0.06335223596990108,0.0017308971795253454,0.003087271091388538
1772522046710217500,1.028217529296875,0.055718964612483976,-0.0013098039569333195,0.012551301539922132
1772522046720214500,1.038214599609375,0.05392097527980804,0.0038976284930482504,0.008658568417700007
1772522046730210600,1.04821044921875,0.0356669411867857,0.009148205965012311,0.01220477139088325
1772522046740207400,1.058207275390625,0.04958148477077484,0.002378419569134712,0.011188470487808808
1772522046750204700,1.06820458984375,0.07381693136096,-0.0019253237730823456,0.010298901236942038
1772522046760201500,1.078201416015625,0.05361643937528133,0.003526036967989057,0.005595655449433252
1772522046770197500,1.088197509765625,0.042542087653279305,-0.0017936419511213897,0.014274992660526186
1772522046780194600,1.098194580078125,0.05167056600451469,-0.00509198937676847,0.009532702637417241
1772522046790191600,1.108191650390625,0.050773909425735474,0.004454184663575143,0.004759076761128381
1772522046800188400,1.1181884765625,0.0569072976142168,0.008938819264341145,0.0004557261445559561
1772522046810184400,1.128184326171875,0.059901218733191486,0.0016315649908967315,0.00529573178794235
1772522046820181500,1.138181396484375,0.047182022413611406,0.0008539864808320999,-0.004162983164656907
1772522046830178600,1.148178466796875,0.03805529762804508,0.0033460590248927473,0.003756302059907466
1772522046840175600,1.158175537109375,0.061250295254588125,0.00046392771732062097,-0.0065017831094563005
1772522046850172400,1.16817236328125,0.07172375847399234,0.005197751306183636,-0.004886064141662791
1772522046860168400,1.17816845703125,0.058255789613723755,0.006106481915246695,-0.009386800493858755
1772522046870165500,1.18816552734375,0.05197393286526203,-0.0016557130514644085,-0.006069045114843174
1772522046880162600,1.19816259765625,0.05511515350043773,-0.0027511253390461203,-0.01565240022726357
1772522046890159600,1.20815966796875,0.05226853189766407,0.007135477903112769,-0.010730324057303368
1772522046900155600,1.21815576171875,0.04329202923774719,0.005007763425726443,-0.004832087198412045
1772522046910152400,1.22815234375,0.03401449780464172,0.0021485563360154627,-0.006211047401418909
1772522046920149500,1.2381494140625,0.0411959337413311,-0.004452832956705242,-0.015292079014889895
1772522046930146600,1.248146484375,0.05301788896024227,-0.0022488566390238703,-0.009145685214363038
1772522046940142600,1.258142578125,0.050774493947625156,0.00024062208915129302,-0.00049413105933927
1772522046950140400,1.268140380859375,0.04254617930650711,0.010877258247323333,0.004591739103896543
1772522046960137500,1.278137451171875,0.05421674335598945,0.00709120036996901,0.0031744927171152085
1772522046970134500,1.288134521484375,0.05331950225532055,-0.00006754881087690592,0.0036884975207038223
1772522046980130600,1.298130615234375,0.04643675700426102,-0.0038984870095737276,-0.0004103069670964032
1772522046990127600,1.308127685546875,0.03880407016873359,-0.0039767033449374135,0.0031196389910299327
1772522047000124400,1.31812451171875,0.05346563272774219,0.005041592630092054,0.006011013050982728
1772522047010121500,1.32812158203125,0.040596214282512665,0.00316609934810549,-0.0005236402816139161
1772522047020117500,1.338117431640625,0.03849836522042751,-0.004486242035962641,0.00289531958270818
1772522047030114300,1.3481142578125,0.03700082013905048,0.0029384463383816182,0.005030806374596432
1772522047040111600,1.358111572265625,0.04463642958402633,0.0004449672885239124,0.009071871059481054
1772522047050108400,1.3681083984375,0.04882452892363071,0.004320128221437335,0.0024853231428656726
1772522047060104400,1.3781044921875,0.06603402239978313,0.0010125197771005331,0.007179344444302842
1772522047070101500,1.3881015625,0.06184300045073032,-0.00048246802100911735,0.0033650833857711403
1772522047080098300,1.398098388671875,0.05615443342030048,-0.0023333200520835816,0.005218209572322666
1772522047090095600,1.408095703125,0.048372693502902984,0.003375979239121079,0.0038822117282077667
1772522047100092400,1.418092529296875,0.04163666324615478,-0.0059431811123155055,0.002818975544022396
1772522047110088400,1.42808837890625,0.03804243814647198,0.00011929726442322135,0.004059029599837958
1772522047120085500,1.43808544921875,0.04657178156077862,-0.003785656018555164,0.0016345697987359016
1772522047130082300,1.448082275390625,0.043728082567453384,-0.00813530259542167,-0.003485915020154789
1772522047140079600,1.45807958984375,0.05181085125803947,0.0032166604915633795,0.002284475941676646
1772522047150075400,1.468075439453125,0.058094461572170256,0.0012612703737802803,-0.010708925076248123
1772522047160072400,1.478072509765625,0.05270107809603214,0.005706687209010124,-0.007641564261727035
1772522047170069500,1.488069580078125,0.04551847311556339,0.00637837592549622,-0.006097184363938868
1772522047180066300,1.49806640625,0.04207447014153003,0.00357135568074882,-0.012985372975096107
1772522047190062600,1.5080625,0.048507718059420585,-0.0007966485367156565,-0.007708154091378674
1772522047200059400,1.518059326171875,0.05374503419101238,-0.002217986576724797,-0.013288274044962599
1772522047210056400,1.528056396484375,0.040426118412613864,0.0021735446467995643,-0.015087733815517276
1772522047220053500,1.538053466796875,0.059276949355006214,0.0007144866785965859,-0.007342535649379715
1772522047230049300,1.54804931640625,0.04192132540643215,-0.00018114698687568306,0.00015466997190378604
1772522047240046600,1.558046630859375,0.03369184172153473,-0.0008283588492311537,-0.0072227817272301756
1772522047250043400,1.56804345703125,0.05434475364983082,-0.001235094752907753,-0.014206229140097275
1772522047260040400,1.57804052734375,0.05614215846061706,0.005000603032577783,-0.010707454638369382
1772522047270036500,1.588036376953125,0.027413492104411123,0.0012816921073012053,-0.013863096524542196
1772522047280033300,1.598033203125,0.050312137132883065,0.003402319256775081,-0.008069397752359509
1772522047290030600,1.608030517578125,0.06692191115021705,-0.0017496018799953161,-0.01664106420474127
1772522047300027400,1.61802734375,0.06841594910025596,0.0035863705867901444,-0.01501855930313468
1772522047310024400,1.6280244140625,0.042077392750978465,0.0034919155026786027,0.0016478676717262715
1772522047320020500,1.6380205078125,0.037438042512536046,0.005875778431911021,0.003681839451054111
1772522047330017500,1.648017578125,0.041029345002770425,0.0006438143288716674,-0.014105937970243393
1772522047340014300,1.658014404296875,0.05435001434683799,0.005313778901286423,-0.0006943115402478725
1772522047350011400,1.668011474609375,0.040435470762848855,0.002933678831718862,0.005712696824688464
1772522047360007400,1.67800732421875,0.055551206830143925,0.0028834282155148685,0.006874324482586234
1772522047370004500,1.68800439453125,0.0402893402904272,0.006635017567686736,0.0041453744427300985
1772522047380001500,1.69800146484375,0.04552899450957775,-0.0052739583475515245,0.0052367133433930575
1772522047389998300,1.707998291015625,0.0537614008039236,-0.000788483496569097,0.003596581453550607
1772522047399994400,1.717994384765625,0.055854573690891265,-0.0013438158243894577,0.005475764529965818
1772522047409991400,1.727991455078125,0.05795066918730735,0.005062050896231084,0.007921267119096591
1772522047419988500,1.737988525390625,0.05435878217518329,0.006649447951838374,0.00992762023913674
1772522047429985500,1.747985595703125,0.04822071781158447,0.004620389809645712,0.00892984137344174
1772522047439981600,1.757981689453125,0.051960488861799235,0.0032364063716493544,0.0053249944150447846
1772522047449978400,1.767978271484375,0.05105915610790252,0.005420070553664118,0.0038754988596308975
1772522047459975400,1.777975341796875,0.04521978242993355,0.0019288857033476232,0.012895804128656162
1772522047469972500,1.787972412109375,0.04671498942375183,-0.0006172368491999805,0.004420720785390585
1772522047479968500,1.797968505859375,0.03953296896517276,-0.005440218292549252,0.006959217153908685
1772522047489965300,1.80796533203125,0.0470125110656023,-0.006502349365036934,0.003180301403393969
1772522047499962600,1.817962646484375,0.07125380287468433,0.0016485891909338534,-0.002317903287243098
1772522047509959400,1.82795947265625,0.06212532452344894,-0.0005756627297960221,-0.003204896988533437
1772522047519956200,1.837956298828125,0.03025193040072918,0.0037350948750972746,-0.0022363350841682404
1772522047529952500,1.847952392578125,0.04581482571363449,0.0011537183460779488,-0.0073385170613881195
1772522047539949300,1.85794921875,0.06287234349846839,0.001473415287118405,-0.016083302457816896
1772522047549946600,1.867946533203125,0.05823065517246723,0.000816357884183526,-0.0094277809582185
1772522047559943400,1.877943359375,0.028754969841241835,-0.0064135203041136265,-0.004802714973455294
1772522047569939500,1.887939453125,0.039382746839523315,-0.008635014012176543,0.003054857525974512
1772522047579936500,1.8979365234375,0.06856149505078792,0.005846497538499534,-0.006093658966291695
1772522047589933300,1.907933349609375,0.08412497488558292,0.007383351716957986,-0.004618681909749284
1772522047599930600,1.9179306640625,0.05030570739209651,-0.00040772228436544537,0.003216468695318326
1772522047609926400,1.927926513671875,0.0323468568533659,0.011001980605535209,0.0008977890899404883
1772522047619923500,1.93792333984375,0.04401625185906887,-0.004164608866162598,-0.007062887590937316
1772522047629920500,1.94792041015625,0.052097851505875585,-0.0046534152964130045,-0.016169309373991563
1772522047639917300,1.957917236328125,0.04386895234286785,0.0003816014624200761,-0.008969342266768217
1772522047649913600,1.96791357421875,0.050449499776959415,-0.003543006369099021,-0.003971223452221602
1772522047659910400,1.977910400390625,0.04147358163893223,-0.0008708462840877472,0.006198215319309384
1772522047669907500,1.987907470703125,0.0381850614875555,0.0005291567069478333,0.0033190157543402164
1772522047679904500,1.997904541015625,0.04477262318432331,-0.002138345469255,-0.004374214762542397
1772522047689901300,2.0079013671875,0.04522270503938198,-0.0029056948462501168,0.003595841668033972
1772522047699897600,2.017897705078125,0.05210486576855183,0.003488426637649536,0.009204310933267698
1772522047709894400,2.027894287109375,0.06632102264761924,0.00019075506543740628,0.005633046584064141
1772522047719891500,2.037891357421875,0.0564455253213644,0.00044418183723464607,0.009236404838273302
1772522047729888500,2.047888427734375,0.047316462448239324,0.002300312831625342,0.004743586931051686
1772522047739884300,2.05788427734375,0.04776537525951862,-0.00886473111482337,0.0016251626495737582
1772522047749881600,2.067881591796875,0.047316462448239324,-0.004684029630385339,0.01370143968942575
1772522047759878400,2.07787841796875,0.047915597385168075,-0.003511496985983103,-0.000629310879483819
1772522047769875500,2.08787548828125,0.04327800071239471,0.0015390096029266715,-0.002110379750095308
1772522047779871500,2.09787158203125,0.042832595032453534,-0.0003396254842169583,0.0005555606566835195
1772522047789868300,2.107868408203125,0.052556116667389866,0.006459770598635077,-0.00043668351736851033
1772522047799865600,2.117865478515625,0.05599836607575416,0.002480181176867336,-0.00439351311805658
1772522047809862400,2.1278623046875,0.04163549420237541,-0.003105126408487558,0.0060000258660875255
1772522047819858400,2.1378583984375,0.05480477237701416,-0.002890040619391948,0.004620864733681083
1772522047829855500,2.14785546875,0.046723757252097126,0.002693842193856835,-0.0037361999867949634
1772522047839852500,2.1578525390625,0.05046352830231189,-0.0017175627739168702,0.003937120253220201
1772522047849849300,2.167849365234375,0.05151157605051994,0.0016691387886181473,-0.0013342716779094189
1772522047859846400,2.177846435546875,0.029818215158581733,-0.004754080925602465,0.0002768533131573349
1772522047869842400,2.187842529296875,0.03595686404407024,0.006638999623060226,-0.0023643453780096023
1772522047879839500,2.197839599609375,0.06154021811187267,0.00727671300470829,-0.0013746128214523195
1772522047889836500,2.20783642578125,0.047024201503396035,0.004484652867075055,-0.006805761891556903
1772522047899833300,2.217833251953125,0.05135901583731174,0.010504826472047715,-0.008962766395509242
1772522047909829400,2.227829345703125,0.04507189839184284,0.003792560683377087,-0.010971521535189821
1772522047919826400,2.237826416015625,0.05060498259961605,0.0031096747194416818,-0.009146753793442621
1772522047929823500,2.247823486328125,0.05629062702059746,0.009254607215244322,-0.008284949332335964
1772522047939820500,2.257820556640625,0.057635611888766286,0.0053253232086077325,0.0032573760944418608
1772522047949815800,2.26781591796875,0.046265492090582845,-0.006994754258170723,-0.003650257002701983
1772522047959812900,2.277812744140625,0.035194062978029246,-0.0018056977150961756,-0.0013798917847685514
1772522047969809700,2.2878095703125,0.055096448799967765,-0.00011020064251497388,-0.0024561975130811334
1772522047979807000,2.297806884765625,0.06960895827710628,-0.002734521264117211,-0.003130480045452714
1772522047989802800,2.307802734375,0.04028174150586128,0.002735653775278479,0.0005014010503422468
1772522047999799800,2.3177998046875,0.032200141859054565,-0.0007662533984519541,-0.003493221543775871
1772522048009796900,2.327796875,0.04627016826570034,0.002941350681520998,-0.007208460940932855
1772522048019793700,2.337793701171875,0.06303016440868377,0.0007572663743980228,-0.00916608868157491
1772522048029791000,2.347791015625,0.049264089384675025,0.0022678901330567894,-0.002976513326447457
1772522048039786800,2.357786865234375,0.03684709088206291,-0.0018115429339930415,-0.004003198626218363
1772522048049784000,2.3677841796875,0.0416401703774929,-0.010433752263523638,0.006664727719360962
1772522048059780900,2.37778076171875,0.04927227269113064,0.0025534656087867914,0.001119560348149389
1772522048069777700,2.387777587890625,0.04717617719471454,0.006567888881918042,0.004019537839666009
1772522048079774000,2.39777392578125,0.05645370862782001,0.005561926709767431,0.004796504428377374
1772522048089770800,2.407770751953125,0.059600189960002894,0.004165102056507021,0.007198578867735341
1772522048099767800,2.417767822265625,0.053014381828904146,0.00433454033927992,0.008900003357604146
1772522048109764900,2.427764892578125,0.03879705590605736,0.007672817916516214,0.0012125175949186085
1772522048119760600,2.4377607421875,0.03325871100127697,0.000338091114256531,0.007813879488175735
1772522048129758000,2.447758056640625,0.050016369056701655,-0.006652717621158808,0.005680456789210439
1772522048139754800,2.457754638671875,0.07156710660755634,-0.0030238961321301756,0.008664367970824241
1772522048149751800,2.467751708984375,0.04388590347766876,0.0015088884592987595,0.0017390987522900104
1772522048159747800,2.477747802734375,0.03610591712594032,-0.0035900055822916327,0.002874797384487465
1772522048169744600,2.48774462890625,0.04568213924467563,-0.0005856544008478522,0.002976723389001563
1772522048179742000,2.497741943359375,0.06843114666938781,-0.004936177760548889,0.0002207392117474228
1772522048189738800,2.50773876953125,0.06933131037950516,-0.00498438255013898,-0.0008917703411076217
1772522048199735800,2.51773583984375,0.05511339993476867,0.0020393603404983878,-0.0034305224379524587
1772522048209731800,2.52773193359375,0.04763151974678039,0.01099706696840003,0.00011436536097899079
1772522048219729000,2.53772900390625,0.044937458357214924,0.0010326309833675622,0.005261564656859264
1772522048229726000,2.547725830078125,0.05735387233793735,-0.002869911146815866,-0.01083935565603897
1772522048239722800,2.55772265625,0.042538580521941184,-0.00044460196234285827,-0.006994927788106725
1772522048249718800,2.56771875,0.033411271214485165,0.004936744016129523,-0.0074118380259256805
1772522048259715800,2.5777158203125,0.0468774865090847,0.0019610161409713326,-0.009997068746155127
1772522048269713000,2.587712890625,0.04702653959095478,0.007569284476805478,-0.0027492073765955864
1772522048279709700,2.597709716796875,0.05495440998077392,0.00048345440169796344,-0.00491518977144733
1772522048289705700,2.607705810546875,0.05285889900624752,-0.00042112975521013137,-0.01397272177832201
1772522048299702800,2.617702880859375,0.054204468396306035,0.002271835655812174,-0.013909337685909122
1772522048309699800,2.627699951171875,0.04267945029735565,0.004559289005864412,0.0019904888306278732
1772522048319697000,2.63769677734375,0.0556961682587862,0.007290595399588346,-0.002690983516490087
1772522048329693000,2.64769287109375,0.04627133730947971,0.003916990780644118,-0.0008226871602702886
1772522048339689700,2.657689697265625,0.03579787409007549,0.0026969109337776896,0.011805871733790264
1772522048349686800,2.667686767578125,0.038489597392082214,-0.009212028448842466,-0.0018723514768294988
1772522048359683800,2.677683837890625,0.05659516292512416,-0.0056203606324270365,-0.0036980051345657555
1772522048369681000,2.687680908203125,0.058090369918942446,0.00233384977504611,0.0041877614128869025
1772522048379677000,2.697677001953125,0.052855391874909396,0.006148311762977391,-0.0007047964016441256
1772522048389674000,2.707674072265625,0.04911620534658432,0.00977305986508727,0.004650355689646676
1772522048399670800,2.7176708984375,0.04926818103790283,-0.00007547638900578022,0.013485632381122558
1772522048409667800,2.727667724609375,0.047774727609753605,0.000780227124877274,0.0003065634648315608
1772522048419664000,2.737663818359375,0.0438841499119997,-0.0011981968086212872,0.0017582235778681933
1772522048429660700,2.74766064453125,0.04942541742622852,-0.004369154994934797,0.006257270296476781
1772522048439658000,2.757657958984375,0.04763035070300102,0.004774758387450129,-0.0035582952697761354
1772522048449654800,2.76765478515625,0.041347324910759924,0.0031556510193273424,0.0020743220560252664
1772522048459650800,2.77765087890625,0.04224807314276695,0.002878057920653373,0.009872647782042622
1772522048469648000,2.78764794921875,0.0536222845941782,-0.001630231550335884,0.00677374105178751
1772522048479644700,2.797644775390625,0.04389759391546249,0.0029622108064591883,0.006925963338278234
1772522048489642000,2.80764208984375,0.053176294392347334,0.0011912921437993644,-0.0012278886939864604
1772522048499637800,2.8176376953125,0.05796469771265983,0.009629030018206685,0.004474706861795857
1772522048509634800,2.827634765625,0.05422025048732757,-0.0028409773132763803,0.003929895927989855
1772522048519632000,2.8376318359375,0.04434241507351398,0.00039449747661128635,-0.0020735092052724213
1772522048529628700,2.847628662109375,0.0446422748029232,-0.004470861803740262,-0.007516832770360633
1772522048539626000,2.8576259765625,0.05167407313585281,0.0010966726629063487,0.008475960126100107
1772522048549621800,2.867621826171875,0.04553951590359211,-0.002450991615001112,-0.0014736527491360902
1772522048559619000,2.877619140625,0.04733166001737117,-0.004474588130787015,-0.008811146897217258
1772522048569616000,2.887615966796875,0.0522714545071125,0.0008958711274899542,-0.0036383473691996185
1772522048579612700,2.89761279296875,0.056610360494256017,0.008143102309387177,-0.005311084620701149
1772522048589609000,2.90760888671875,0.050773909425735474,0.000126147130317986,-0.001287427728343755
1772522048599605800,2.917605712890625,0.060652329361438745,-0.00369786813724786,0.0020769706708379087
1772522048609602800,2.927602783203125,0.046588148173689836,-0.0015877258491702377,-0.0016862543202005326
1772522048619600000,2.937599853515625,0.0503325953990221,0.0037458354648202655,0.011031261498946695
1772522048629595600,2.947595703125,0.05572013365626335,-0.0020180800904519855,0.008476535514835268
1772522048639593000,2.957593017578125,0.042701077607274054,0.0010244659432210028,-0.001841865007020533
1772522048649589800,2.96758984375,0.04120236348211765,-0.0066269438590854405,0.006388696390110999
1772522048659586800,2.9775869140625,0.05377250671982765,-0.007377141171880066,0.0013430577725637703
1772522048669584000,2.987583984375,0.05407353549301624,-0.0013256773795001207,-0.008657189311366527
1772522048679579600,2.99757958984375,0.0435965651422739,0.0027089484314434227,-0.005806329924892634
1772522048689577000,3.007576904296875,0.04359714966416359,-0.00026982991732656954,-0.0009260836026631295
1772522048699573800,3.01757373046875,0.053472062468528744,0.005083586874604225,0.0005758819255046546
1772522048709570800,3.02757080078125,0.06304594649970531,0.003601476824376732,-0.003594380363309756
1772522048719566800,3.03756689453125,0.047182022413611406,-0.007390311180707067,-0.0018578754269052296
1772522048729564000,3.04756396484375,0.038947862553596495,0.0038325639002025126,-0.001651557466154918
1772522048739561000,3.05756103515625,0.038050621452927584,-0.0039641726569272576,-0.008058922024117782
1772522048749557800,3.067557861328125,0.05645896932482719,0.0006080854283645749,-0.001862624667258933
1772522048759553800,3.0775537109375,0.06064648414254188,-0.002581120800692588,-0.001733162201847881
1772522048769550800,3.08755078125,0.04687807103097438,0.005462083064485341,-0.01021895873537287
1772522048779548000,3.0975478515625,0.04807692542672157,0.008789693117234855,-0.008902058317372575
1772522048789544700,3.107544677734375,0.052265609288215636,-0.0028804508071392774,-0.001516322847083211
1772522048799542000,3.1175419921875,0.04568038567900658,-0.0030289376334287224,-0.001146220026211813
1772522048809537800,3.127537841796875,0.03296411196887493,-0.0067759604083374135,-0.007432953879190608
1772522048819534800,3.137534912109375,0.02952595421373844,-0.0064578161035664374,-0.0053806883913464845
1772522048829532000,3.147531982421875,0.041348493954539295,-0.004805811112839728,-0.016937772995838894
1772522048839528700,3.15752880859375,0.059305590927600856,0.0022737170856446027,-0.0003752082542516291
1772522048849524700,3.167524658203125,0.06409457876980304,-0.0009511815113015473,-0.010726524665020406
1772522048859521800,3.177521728515625,0.06439619206488133,0.009281970146205276,-0.00020898484187200665
1772522048869518800,3.187518798828125,0.05422200405299663,0.008347721503395586,-0.00646715018749237
1772522048879516000,3.197515869140625,0.04733633619248867,-0.0007847389032132923,-0.009278481281176209
1772522048889512000,3.207511962890625,0.04075228162705898,0.004407605575490743,-0.004336988024692982
1772522048899509000,3.217509033203125,0.05003039758205414,-0.0030576888038776812,-0.0005273483423516154
1772522048909505800,3.227505859375,0.049881344500184055,-0.005640983295347541,-0.0023449191583320497
1772522048919502800,3.2375029296875,0.05586801769435405,-0.003162866211403161,0.0015172909614630042
1772522048929499000,3.247498779296875,0.054822892555594444,0.0016228154288604854,0.0035926633302588015
1772522048939495700,3.25749560546875,0.052283729466795915,0.0037321174667216835,-0.007998241345444693
1772522048949493500,3.267493408203125,0.04615151032209396,-0.007998761935252697,-0.0026320655366405842
1772522048959490600,3.277490478515625,0.040163083562254905,-0.007685092876199632,-0.0023190357984043657
1772522048969487400,3.2874873046875,0.05856558621525764,0.009367693934589624,0.0015678886375389992
1772522048979483400,3.2974833984375,0.06125789403915405,0.007627060812339186,0.0029181159364059565
1772522048989480400,3.30748046875,0.041508068430423734,0.001313311088271439,0.010947400874085723
1772522048999477500,3.3174775390625,0.024597850161790846,-0.005708367709442973,0.010308664579130709
1772522049009474600,3.327474609375,0.05378069002628326,-0.009940543652791529,0.005933856161544099
1772522049019470300,3.33747021484375,0.07532792044579982,-0.004674458084441721,0.01043224529302679
1772522049029467600,3.347467529296875,0.05736673181951046,0.0039692872234620155,0.01145959731307812
1772522049039464400,3.35746435546875,0.054223173096776,0.004015281789656728,0.00007027962408028542
1772522049049461200,3.367461181640625,0.05078092368841171,0.0023145240200683473,0.008169743721140548
1772522049059457500,3.37745751953125,0.048235915380716324,-0.0009909289998002349,0.011225752024585381
1772522049069454300,3.387454345703125,0.06963526176214217,-0.004208740268833935,0.012857225683936848
1772522049079451600,3.39745166015625,0.06544482433497906,-0.0040402518341317775,0.0023444990332238376
1772522049089448400,3.407448486328125,0.023695932886004446,0.0017351532295346258,0.0028808709322474895
1772522049099445500,3.417445556640625,0.037760114073753355,-0.0028516813703812656,0.00371785147935152
1772522049109441500,3.427441650390625,0.05421791239976883,-0.0028665866785682736,-0.0013601367715280503
1772522049119438300,3.437438232421875,0.04195055150091648,0.004100165327824652,0.00025802074852399525
1772522049129435600,3.447435546875,0.028784195935726165,-0.0011968085691332817,0.005702787352027372
1772522049139432400,3.457432373046875,0.05436930356919765,0.0016698511746712028,-0.007169900762522593
1772522049149428500,3.467428466796875,0.08414660219550132,0.003149915398284793,-0.007618247318221256
1772522049159425500,3.477425537109375,0.04344283588528633,0.005334712091460823,-0.010652701376983896
1772522049169422300,3.48742236328125,0.03596329378485679,-0.0012985153779387472,-0.01072330979462713
1772522049179419400,3.49741943359375,0.05840951887071132,-0.007251615096069872,-0.010310025419155135
1772522049189415400,3.50741552734375,0.04644084865748882,-0.0076413450660184025,-0.006384714334737509
1772522049199412200,3.517412109375,0.0536222845941782,0.0006809497351758181,-0.006026210620114579
1772522049209409500,3.527409423828125,0.046290626531839366,-0.003787354785297066,-0.0013178046002984046
1772522049219406300,3.53740625,0.05392331336736679,0.0026011406754143534,-0.0023534769241232425
1772522049229402600,3.547402587890625,0.049586160945892334,0.00536587441470474,-0.013237658102577552
1772522049239399400,3.5573994140625,0.03641746729314327,0.0016029964835382997,0.0019496179641224443
1772522049249396500,3.567396484375,0.06769055743515491,0.0002957315435633063,-0.00313524755211547
1772522049259393500,3.5773935546875,0.05975801087021827,0.0025054617485962805,-0.0013173022767994551
1772522049269390600,3.587390625,0.045991935846209524,0.0006914893954992294,0.00005243344013579189
1772522049279386600,3.59738671875,0.04853577511012554,-0.0019066556052304803,0.008048793355748056
1772522049289383400,3.607383544921875,0.04913315648138523,-0.007637107282318175,0.0076366232251282775
1772522049299380500,3.61738037109375,0.042993338552117344,-0.0062676090274006125,0.005913461827486753
1772522049309377500,3.62737744140625,0.04703180028796196,-0.004997132433857769,-0.0011299721443094313
1772522049319373300,3.637373291015625,0.04149637799263,-0.010679269723501056,0.0053806244592647995
1772522049329370600,3.64737060546875,0.038953123250603676,-0.003348543242923915,0.009773023332469166
1772522049339367400,3.657367431640625,0.05152502005398273,0.0018327501188032328,0.012704647204419597
1772522049349364500,3.667364501953125,0.06199848327338695,0.0007477861599996685,0.0006047426938079297
1772522049359361500,3.677361572265625,0.04763035070300102,-0.0006146978322416544,0.004145036516012624
1772522049369357300,3.687357421875,0.047931963998079294,-0.0023654139570891855,-0.0010614095532801003
1772522049379354400,3.697354248046875,0.04179682224392891,-0.0016613938735798,0.005026723854523152
1772522049389351400,3.707351318359375,0.047931963998079294,-0.0016496669031679629,-0.0032202589544467627
1772522049399348500,3.717348388671875,0.05750643255114555,0.004731339370831847,-0.002954438491957262
1772522049409344500,3.727344482421875,0.03790332193672657,-0.0032610476225614546,-0.006483936925511807
1772522049419341600,3.737341552734375,0.04972644619941711,0.0026126667164266108,0.0036810722660738974
1772522049429338400,3.74733837890625,0.04314005354642868,0.000008603431563824415,0.002616265179309994
1772522049439335400,3.75733544921875,0.048077509948611256,-0.004316968149971217,-0.0007054357224609702
1772522049449331500,3.76733154296875,0.06139467216134071,0.005020385445281863,0.00009280198314227164
1772522049459328500,3.77732861328125,0.048372693502902984,-0.00453855674508959,-0.003240379293868318
1772522049469325600,3.78732568359375,0.04657353512644768,-0.005079586552921682,0.0022689221795182675
1772522049479322400,3.797322265625,0.04627484444081783,-0.008399488223250954,-0.010885889078350737
1772522049489318400,3.807318359375,0.04941723411977291,0.002386566342972219,-0.002051196908764541
1772522049499315500,3.8173154296875,0.044779637446999546,0.0021317513316869733,-0.00028753910395316776
1772522049509312500,3.8273125,0.05121989962756633,-0.0010472074979916213,-0.003449829926621169
1772522049519309600,3.8373095703125,0.05241641593575477,-0.00015824103532359002,-0.001250548050366342
1772522049529306400,3.847306396484375,0.049125557696819304,-0.002634001765400171,-0.002183837711950764
1772522049539302400,3.857302490234375,0.04089665853381157,-0.0024928762616589664,-0.010342082791542634
1772522049549299500,3.867299560546875,0.047779988306760786,-0.005855027904827148,-0.0056144149488303804
1772522049559296300,3.877296142578125,0.055262453016638756,0.0057282049210742115,0.0013637991664931176
1772522049569293600,3.88729345703125,0.05017302092313766,0.007258063103165477,0.00008197006187401712
1772522049579289300,3.897289306640625,0.06064473057687282,-0.004033730761799961,0.0018103373575955627
1772522049589286700,3.90728662109375,0.05600479581654071,-0.0023726839480921625,0.00471532895094715
1772522049599283500,3.917283447265625,0.045233226433396334,-0.002627425894141197,0.011356575330020859
1772522049609280300,3.9272802734375,0.03430792779326439,-0.0059419938022270795,-0.0034256727328989653
1772522049619277600,3.937277587890625,0.03879471781849861,0.002952182602789253,-0.0010545870868489146
1772522049629273300,3.9472734375,0.03998655795156956,-0.0020528226102702316,0.001747711317008361
1772522049639270700,3.957270751953125,0.05135960035920143,-0.0006524908256717026,0.0009365045319776981
1772522049649267500,3.967267333984375,0.05540156922638416,0.004992785052303225,0.0035641404886730013
1772522049659264500,3.977264404296875,0.055251347100734705,-0.0004922222300432622,-0.002408513313299045
1772522049669260500,3.987260498046875,0.04881342300772667,0.004149393030721694,0.011623793165152892
1772522049679257300,3.99725732421875,0.071107087880373,0.0029739377768710253,0.003122132342215627
1772522049689254400,4.00725439453125,0.059733460950851434,0.007782251374050975,0.0005215031234547496
1772522049699251500,4.01725146484375,0.03729074299633503,-0.011444390610791742,0.007076377260172739
1772522049709247200,4.027247314453125,0.04731704697012901,-0.002819623997993767,0.00433589204614982
1772522049719244500,4.03724462890625,0.06736556326448917,-0.0021098865597508846,-0.0035178353952243922
1772522049729241300,4.047241455078125,0.05419453152418136,0.004079633996449411,-0.004368223413173109
1772522049739238400,4.05723828125,0.030400983482599255,0.004784074205067009,-0.003768147761328146
1772522049749234400,4.067234375,0.04386953686475754,0.0011014767021872102,-0.0001591178181581199
1772522049759231500,4.0772314453125,0.056439680102467533,-0.0009065751845948398,-0.011127707610744983
1772522049769228500,4.087228515625,0.05898527293205261,-0.008326696981675923,-0.0009485054970253258
1772522049779225300,4.097225341796875,0.04387362851798534,-0.0028319354902952907,-0.00014732691566459835
1772522049789222400,4.107222412109375,0.040731238839030265,0.0039013548200950024,0.002375204698741436
1772522049799218400,4.117218505859375,0.050906011372804635,0.0011577917329967022,0.0036803598800208416
1772522049809215500,4.127215576171875,0.05763911902010441,-0.0011315065142698585,0.0010434081057086586
1772522049819212500,4.137212646484375,0.05404430939853191,-0.0009300108591094613,-0.0037565486550796773
1772522049829209600,4.147209716796875,0.050155485266447065,0.0025987295226193963,-0.00028221447486430405
1772522049839205400,4.157205322265625,0.048806993266940116,0.0031520525564439593,-0.003738985598925501
1772522049849202400,4.167202392578125,0.05254559527337551,0.0006098572603426873,0.0015069796300027519
1772522049859199500,4.177199462890625,0.060627194920182224,0.006070826079975813,-0.002561795045714825
1772522049869196300,4.1871962890625,0.0489554618269205,-0.003668148852419108,0.0004343636961188167
1772522049879192300,4.1971923828125,0.043566754525899885,-0.00619063480105251,-0.0015578969664871692
1772522049889189400,4.207189453125,0.05179390012323856,0.0009747450499795377,-0.007425784352887421
1772522049899186400,4.2171865234375,0.048804070657491684,-0.0007574855701066554,-0.0027162092892918733
1772522049909183500,4.22718359375,0.043722237348556514,0.005340904370229691,0.0005820285385008901
1772522049919180300,4.23718017578125,0.05016016144156456,-0.00020388854164630173,-0.013541088895406573
1772522049929176600,4.247176513671875,0.0580880318313837,0.006158285167720169,-0.007182595847314223
1772522049939173400,4.25717333984375,0.053451604202389716,0.0036409868508577347,0.0061075778937898575
1772522049949170000,4.267169921875,0.06377542981803416,0.010947419140394776,0.004493923018919304
1772522049959166700,4.277166748046875,0.06242869138419628,-0.007442278829962015,-0.006251315479725599
1772522049969163000,4.2871630859375,0.0580880318313837,-0.004032543451711535,-0.006455861608497798
1772522049979159800,4.297159912109375,0.05659399388134479,-0.006862524446938186,0.003378043332044035
1772522049989156600,4.307156494140625,0.03340250338613987,0.0008109145240858197,0.00011083996333181857
1772522049999154000,4.31715380859375,0.030109891581535337,-0.0007569375808350741,-0.008660376782296225
1772522050009150700,4.327150634765625,0.040436639806628226,-0.0013594152523204684,0.0028307207807432857
1772522050019147000,4.33714697265625,0.05734510450959205,0.004489694368373602,-0.001655566920991987
1772522050029143800,4.347143798828125,0.05839373677968979,0.003028115649521351,0.004977523551089689
1772522050039140900,4.357140869140625,0.05405073913931846,0.00804497569715604,0.015477947842655703
1772522050049138000,4.367137939453125,0.05659048675000667,0.008623908096272498,0.00473280980871059
1772522050059133700,4.3771337890625,0.057038815039396285,-0.002192669472377747,0.006530744342459365
1772522050069131000,4.387131103515625,0.06137421389520168,0.0006224975462071598,-0.0018058803781867026
1772522050079127800,4.3971279296875,0.046861119896173475,0.005538417970016599,0.008000268905749544
1772522050089124900,4.407124755859375,0.03953063087761402,-0.004144826453458517,0.005724414661945775
1772522050099121000,4.417120849609375,0.04057809410393238,-0.004791198065597564,0.004627915528975427
1772522050109117700,4.42711767578125,0.04327332453727722,0.005212108625099063,0.0021767960498109457
1772522050119114800,4.43711474609375,0.05778875662386417,-0.009228796920552848,0.0003113949035760015
1772522050129111800,4.44711181640625,0.04312427145540714,-0.00023125147260725498,0.003791528636915609
1772522050139108900,4.45710888671875,0.055690323039889335,0.007827186494320631,0.007874149174895137
1772522050149105000,4.46710498046875,0.05254617979526519,0.00033281215094029903,0.0019086101002991197
1772522050159101700,4.477101806640625,0.06361936247348784,0.010449388224072754,0.008415772637771442
1772522050169098800,4.4870986328125,0.055984337550401685,0.0065519971930421885,0.002238837568508461
1772522050179095800,4.497095703125,0.04685293658971786,-0.00540158504890278,-0.001956111636990681
1772522050189091800,4.507091796875,0.04760112460851669,-0.002937642620783299,-0.009651241850014775
1772522050199089000,4.5170888671875,0.05462941581010818,0.004518701267149299,-0.007146401155926287
1772522050209086000,4.5270859375,0.04355038791298866,0.00411574648944661,-0.003661317252833396
1772522050219082800,4.537082763671875,0.04025777610838413,-0.010027765278518199,-0.0003520100417546928
1772522050229079800,4.547079833984375,0.04833879123330116,-0.009611969285551457,-0.00482148360600695
1772522050239075800,4.557075927734375,0.04818973815143108,0.00291111994003877,-0.006478073440305888
1772522050249073000,4.567072998046875,0.05552139621376991,0.0054336058886721725,0.0013603011683095245
1772522050259070000,4.577070068359375,0.029482699593901634,0.002651701818872243,-0.0013477065482176839
1772522050269066800,4.587066650390625,0.03442366312742233,0.004388699945621192,-0.007227713630674406
1772522050279062800,4.597062744140625,0.043103228667378424,0.008437957070115952,-0.005529275682335719
1772522050289059800,4.607059814453125,0.05746317793130874,0.0014860007740557194,0.00010454721986316144
1772522050299057000,4.617056884765625,0.05596504832804203,-0.0025381219091825187,-0.005462649320065975
1772522050309054000,4.627053955078125,0.059252983957529065,0.0049761992436833675,-0.00566021771878004
1772522050319049700,4.6370498046875,0.05535889912843704,0.007089519869536161,-0.0010436729671899228
1772522050329046800,4.647046875,0.05834989763796329,0.0024926022670231757,-0.0005048077169805765
1772522050339043800,4.6570439453125,0.06179331609010696,-0.001564418038818985,-0.0065441335469949985
1772522050349040600,4.66704052734375,0.04608136769533157,0.001966605631541461,0.002936546642240137
1772522050359038000,4.677037841796875,0.04204349048137664,0.0068183199790306384,-0.001052504727616906
1772522050369033700,4.68703369140625,0.029473347243666646,-0.007927358933165669,-0.001052687390707433
1772522050379031000,4.697031005859375,0.04863105217814445,-0.005800813499558717,-0.004204073226870969
1772522050389027800,4.70702783203125,0.03815934252440929,-0.005508771750424057,0.0013749507481697946
1772522050399024600,4.717024658203125,0.04848667527139187,-0.005775003204867244,-0.002649993918975815
1772522050409021000,4.72702099609375,0.047891631987690926,0.0016708192890509963,-0.0011357442979700863
1772522050419017700,4.737017822265625,0.06375380250811577,0.008644475960265845,0.006971419048355892
1772522050429015000,4.74701513671875,0.06285831497311592,0.01294104064302519,0.00751498787314631
1772522050439011800,4.75701171875,0.06136252345740795,0.01453081231880933,0.002990961976908147
1772522050449007900,4.7670078125,0.05597264711260795,0.005605236128531396,0.009590615970268845
1772522050459005000,4.7770048828125,0.053126610031723975,-0.0053751171670854084,0.005942158199008554
1772522050469001700,4.787001708984375,0.05402268208861351,-0.0018914397697895765,0.010657733745127915
1772522050478998800,4.796998779296875,0.045941082441806794,-0.005100757205113768,0.007348088607331738
1772522050488995800,4.806995849609375,0.04474339708983898,-0.003934983095061034,0.007857974358228966
1772522050498991600,4.81699169921875,0.045043256819248194,-0.004096457267086953,0.0022031269343104213
1772522050508989000,4.826989013671875,0.04728782087564468,0.005430299686733633,0.003302932269219309
1772522050518985700,4.83698583984375,0.04325052818357944,-0.0016308708711527287,-0.00101357922302559
1772522050528982800,4.846982666015625,0.051631987559795374,0.002207191188074648,-0.003796177412569523
1772522050538978800,4.856978759765625,0.05477496176064014,0.0017080460269004105,-0.006360429276851937
1772522050548975900,4.866975830078125,0.038167525830864905,0.003649389353021979,0.0009956325743813066
1772522050558973000,4.876972900390625,0.0429559291511774,0.001446417682338506,0.005387474325159564
1772522050568969700,4.8869697265625,0.056870472735166544,0.00043647345481440423,-0.0000938157632946968
1772522050578966800,4.896966796875,0.056416883748769756,0.0051758682679384944,-0.00133792493971996
1772522050588962800,4.906962890625,0.04713759874999523,0.005283146301005035,-0.003585877396445721
1772522050598959900,4.9169599609375,0.039806525209546084,-0.0048636605136096476,-0.009015884822234511
1772522050608957000,4.92695703125,0.044748657786846155,-0.0034854857618920503,-0.006930995706422254
1772522050618954000,4.9369541015625,0.054173488736152645,0.00021893998030573128,-0.003969917411124333
1772522050628949800,4.94694970703125,0.045347792723774906,0.004100969045422971,-0.008551536979805678
1772522050638946800,4.95694677734375,0.0359194546431303,-0.0020430136023089286,-0.006988899906119331
1772522050648943900,4.96694384765625,0.06344926660358906,0.00420431982204318,-0.012337832319177686
1772522050658940700,4.976940673828125,0.07182663432657718,0.006793751793354749,-0.00480906251585111
1772522050668936700,4.986936767578125,0.049231356158852574,0.011942878184840083,-0.002975737008312717
1772522050678933800,4.996933837890625,0.04832943888306617,0.004034644077252596,0.0017648816475179046
1772522050688930800,5.006930908203125,0.048179801279306406,0.009302410146035254,-0.008961204626085236
1772522050698927900,5.016927978515625,0.05625730927288532,0.00024675956899300217,-0.00010556100001558661
1772522050708924700,5.026924560546875,0.05311550411581993,0.0004019318643957376,-0.002606565769203007
1772522050718921000,5.0369208984375,0.04414017049968243,-0.0007329721833579241,0.0009156444070395082
1772522050728917800,5.046917724609375,0.041299394115805625,-0.009248944659437984,-0.003247959812125191
1772522050738914800,5.056914794921875,0.042947161322832106,-0.0011477269967086613,-0.002176878248201683
1772522050748911900,5.066911865234375,0.044595513051748276,-0.0005916092175990343,0.0028607779922895133
1772522050758908000,5.076907958984375,0.06344459042847156,-0.0019416721196845173,0.008084586188336833
1772522050768905000,5.086905029296875,0.05431903468668461,0.0020260076685808598,0.006363644147245213
1772522050778901800,5.09690185546875,0.05087795432209968,0.005038432558625936,0.0070333327028900385
1772522050788899000,5.106899169921875,0.05716682533323764,0.008488847007136792,0.003373385423235595
1772522050798895900,5.116895751953125,0.05208031584918499,0.004013016767334193,-0.0011536818134598433
1772522050808891600,5.1268916015625,0.0477402408182621,-0.0032601343071088193,-0.0017426332830917089
1772522050818889000,5.136888916015625,0.05627075327634811,0.0037267837044782934,0.005155300403945148
1772522050828885800,5.1468857421875,0.05597089354693889,0.00017342033814638852,0.008168592943670228
1772522050838882800,5.1568828125,0.0526765281766653,0.004524656083900481,0.005922969441348686
1772522050848878800,5.16687890625,0.04474573517739772,0.0052370056043379,0.005724505993491038
1772522050858875600,5.176875732421875,0.040409167277812956,0.003204568194970488,0.004790969736734405
1772522050868873000,5.186873046875,0.04070961152911186,0.00380081705506891,0.009787179721985012
1772522050878869800,5.196869873046875,0.05448094725012779,-0.005342639669589698,-0.0019364662216044962
1772522050888866000,5.206865966796875,0.06031739831864834,0.0012484839574433862,-0.000970068874862045
1772522050898862800,5.21686279296875,0.052689387658238405,0.005348758883122354,0.0024255557796452193
1772522050908859600,5.226859619140625,0.04730418748855591,-0.001526058789808303,-0.0066900813563261175
1772522050918857000,5.23685693359375,0.04595744905471801,-0.004797956599947065,-0.0066802723483648145
1772522050928853800,5.246853759765625,0.04819909050166606,0.00252760051516816,0.0033400311429053545
1772522050938850000,5.25685009765625,0.05926818152666091,-0.003948938555177301,-0.002954000100539997
1772522050948847000,5.26684716796875,0.06420213079750538,0.003213463887479156,-0.0014094832054339348
1772522050958844200,5.27684423828125,0.05312777907550335,0.009531067802757025,-0.0035171778080984946
1772522050968841000,5.286841064453125,0.05297872599363327,0.003846446295082569,-0.011580200618598609
1772522050978837000,5.2968369140625,0.0520797313272953,0.0014864939644001424,-0.012639418214792385
1772522050988834000,5.306833984375,0.04384849407672882,0.009420885426551104,-0.018578105815080924
1772522050998831000,5.3168310546875,0.03396890509724617,-0.0024761625888757408,-0.012583669439563527
1772522051008828200,5.326828125,0.027534488135576247,-0.0008194266241043805,-0.009404098688531667
1772522051018823200,5.3368232421875,0.037114801907539366,-0.003738656805362552,-0.0073502440317999565
1772522051028820000,5.346820068359375,0.07138298221230506,-0.007332187785301357,-0.007563338793208823
1772522051038817300,5.3568173828125,0.07631868504881859,0.0024455847875215113,-0.00974864694303833
1772522051048814000,5.36681396484375,0.05521569126546383,0.003921155499108136,-0.004336321304412558
1772522051058810000,5.37681005859375,0.04743453586995602,0.008833112133853138,-0.003738181881327182
1772522051068807200,5.38680712890625,0.06269874049723148,0.006982113972306251,-0.006848678584676236
1772522051078804000,5.396803955078125,0.046236265996098515,0.0010179996698163449,-0.00757155863228254
1772522051088801000,5.406801025390625,0.04833002340495586,-0.006375782109610736,-0.008861105252476409
1772522051098798000,5.416798095703125,0.03172200295329094,-0.007143606410641223,0.0005154661083128303
1772522051108793900,5.4267939453125,0.04175006049275398,-0.003699987029097974,0.0037326289233751593
1772522051118791200,5.436791259765625,0.044597266617417336,-0.00009860153626650572,0.010434355051722377
1772522051128788000,5.4467880859375,0.05207622419595718,0.0033538770051673053,0.009685171519080176
1772522051138785000,5.456784912109375,0.05656476778686046,-0.0016126410947181283,0.0088574976564385
1772522051148781000,5.466781005859375,0.05222819988727569,0.004848828270658851,0.013697841226542367
1772522051158778000,5.476778076171875,0.056413961139321324,0.014162727925088256,0.010981339676305652
1772522051168775200,5.486775146484375,0.03456394838094711,0.010870116120483726,0.006190388205880299
1772522051178772000,5.49677197265625,0.05087210910320282,0.0024643990858457983,0.010820998015441
1772522051188768300,5.506768310546875,0.0535655859708786,-0.0028068010490387677,0.008077489727269857
1772522051198765000,5.51676513671875,0.04952420162558555,-0.0029560367939993736,0.013079334868863224
1772522051208762000,5.52676220703125,0.045780923444032666,-0.005936294713802635,0.010439213889930396
1772522051218759200,5.53675927734375,0.04234042760133743,-0.002457622285187244,0.014318137682508676
1772522051228756200,5.546756103515625,0.0427905094563961,0.007317739134840667,0.007851234090188518
1772522051238752000,5.556751953125,0.03845218799114227,0.001284194591641426,0.0015535495849326251
1772522051248749000,5.5667490234375,0.05760930840373039,-0.000932257615122944,0.0099941826693248
1772522051258746000,5.57674609375,0.04354746530354023,-0.0053261269262060516,0.009674960652319714
1772522051268743000,5.586742919921875,0.03980710973143577,0.0036115598269738257,-0.0009501220653764903
1772522051278739000,5.596739013671875,0.05222703084349632,-0.0018764065974391996,-0.005246284889336675
1772522051288736000,5.606736083984375,0.045046763950586315,0.0021267646293155846,-0.0034650000962894406
1772522051298733000,5.616733154296875,0.03666822718381881,-0.00958058776659891,-0.004796805822476744
1772522051308730000,5.626730224609375,0.041755905711650845,-0.005430500616133213,-0.0067971310605294995
1772522051318727000,5.636726806640625,0.05162906495034694,0.006954604910872876,-0.019384928685938937
1772522051328723200,5.64672314453125,0.05761106196939945,0.0013102606146596371,-0.009262717456463725
1772522051338720000,5.656719970703125,0.0568593668192625,0.00562693650368601,-0.006481498373253271
1772522051348717000,5.666717041015625,0.04533551776409149,0.004578432097751647,-0.014838672691583633
1772522051358714000,5.676714111328125,0.04428571645021438,0.002882880226243287,-0.011278249396802857
1772522051368710100,5.686710205078125,0.04323708418011665,-0.00002741772988811135,-0.009462861404754221
1772522051378707200,5.696707275390625,0.04203706074059009,-0.0006930968306958675,-0.002524933634046465
1772522051388704000,5.7067041015625,0.04398234958946705,0.004660374760162085,-0.005871357985120266
1772522051398701300,5.716701416015625,0.046080783173441886,0.0012874642609618603,0.0044623588368762285
1772522051408698000,5.726697998046875,0.05026888251304626,-0.0005497428372502327,0.004182345452252775
1772522051418694100,5.736694091796875,0.051014732444286344,-0.0024959084689617156,0.004229417730681598
1772522051428691200,5.746691162109375,0.048318917489051816,0.0017963636311702428,0.0026809096470475197
1772522051438688000,5.75668798828125,0.048615270087122915,0.006470182394795119,0.004631742320721968
1772522051448685000,5.76668505859375,0.05789163247644901,0.007397946497891098,-0.000922448607161641
1772522051458681000,5.77668115234375,0.04666647410690784,-0.0032168979535810646,0.0009031959174200892
1772522051468678000,5.786677978515625,0.03558861525356769,0.0002750906143337488,0.009078739191684872
1772522051478675200,5.79667529296875,0.051446109598875044,-0.002380154868494719,0.010116923133004456
1772522051488672000,5.806672119140625,0.045459436404705046,0.008895327182486652,0.007412669142987579
1772522051498668300,5.816668212890625,0.040973230901360506,-0.004205726327840238,0.008819348469981923
1772522051508665000,5.8266650390625,0.04845744917690754,0.0020057685981504617,0.014891160930646583
1772522051518662000,5.836661865234375,0.05549217011928558,-0.0031852972389198836,0.012179171158745884
1772522051528659200,5.8466591796875,0.06073416242599487,0.00699000501781702,0.011682007892103864
1772522051538656000,5.856656005859375,0.059091071394085884,0.0075424878014251585,0.0012006810266524553
1772522051548652300,5.86665234375,0.04292962566614151,0.0023123685956001282,0.011643201118521391
1772522051558649000,5.876649169921875,0.040383448314666746,0.005204436775296926,0.016809580038907004
1772522051568646100,5.886646240234375,0.049510173100233076,0.001386504188645631,0.007699614591896533
1772522051578643200,5.896643310546875,0.04232698359787464,0.0015532207913696765,0.007661839864775538
1772522051588640000,5.906639892578125,0.04247428311407566,-0.00011142448522150516,0.010687489562574773
1772522051598636000,5.916635986328125,0.05055003754198551,0.0012222900702618061,-0.00023031075769104061
1772522051608633000,5.926633056640625,0.056684594774246214,0.0016888846687041221,-0.0007071344892028719
1772522051618630100,5.936630126953125,0.05578793819546699,0.0057219030444510275,-0.00706966439159587
1772522051628627000,5.946626953125,0.04575871161222458,0.0003092120796442032,-0.010265994481183588
1772522051638623000,5.956623046875,0.028852584996819496,0.005623191910330206,-0.01645332308029756
1772522051648620000,5.9666201171875,0.039031449183821676,0.0061542665797285736,-0.00986919544963166
1772522051658617000,5.9766171875,0.055790860804915424,0.0013568031701259313,-0.013177881606202571
1772522051668614100,5.9866142578125,0.04980769474208355,0.000839574362989515,-0.01608754937467165
1772522051678610200,5.996610107421875,0.05070844297409057,-0.005391027122270316,-0.01707220389731228
1772522051688607000,6.00660693359375,0.05788987891077995,-0.002678882086742669,-0.025335562452347946
1772522051698604000,6.01660400390625,0.04188274696171283,0.006370484879985452,-0.017846649735374375
1772522051708601000,6.02660107421875,0.0361982715845108,0.00959065250288695,-0.01797801189692691
1772522051718598100,6.03659814453125,0.04667407289147377,0.0010713555585592984,-0.0120446032599546
1772522051728594200,6.04659423828125,0.05056815772056579,0.008622044932749122,-0.016694785419665275
1772522051738591200,6.05659130859375,0.057902738392353055,0.007489643369335681,-0.01919418275365606
1772522051748588000,6.066588134765625,0.05969780511558056,0.0060420201105996964,-0.0013643745552282779
1772522051758585000,6.076585205078125,0.042938393494486804,0.007289535953663289,0.0006529383502434939
1772522051768581000,6.0865810546875,0.03605331015586853,-0.001998480340838432,-0.0035184929823502895
1772522051778578000,6.096577880859375,0.044887189474701876,0.0001626066831871867,0.001011789124738425
1772522051788575200,6.1065751953125,0.04354220460653305,-0.003734400755353272,0.0018677666332572698
1772522051798572000,6.116572021484375,0.04578559961915016,0.006316964594461023,0.002591377333225682
1772522051808569000,6.126569091796875,0.052669513913989066,0.01015212231054902,0.011692401421954855
1772522051818565000,6.136565185546875,0.05551262838542461,0.002513754652906209,0.01599417200279422
1772522051828562000,6.14656201171875,0.04787818798422813,0.0032390184538438915,0.015368724447675048
1772522051838559200,6.156559326171875,0.05146832143068313,0.003397971875220537,0.01725041000843048
1772522051848556000,6.16655615234375,0.05850070428550243,-0.0036710349292494353,0.021209860824467613
1772522051858552000,6.176552001953125,0.05326455719769001,0.0027179902544245123,0.013600189538346602
1772522051868549000,6.186549072265625,0.049670916619896886,0.0011378449235111474,0.01847078211624175
1772522051878546000,6.1965458984375,0.03650222296714783,-0.002689513078611344,0.02645035529383458
1772522051888543200,6.206543212890625,0.039645781689882274,-0.004295468704216182,0.02356817832048982
1772522051898540000,6.2165400390625,0.06598024638593196,0.008947148701269178,0.02550083601665683
1772522051908536300,6.226536376953125,0.05745031844973564,0.003722838181722909,0.022490694415243342
1772522051918533000,6.236533203125,0.046826633104681964,0.0038271388064138588,0.01919425581889227
1772522051928530000,6.246530029296875,0.05400514643192291,-0.0013709595596417784,0.016998581538675353
1772522051938527200,6.25652734375,0.0676169076770544,0.010031016681529581,0.007160950271086767
1772522051948523000,6.26652294921875,0.06431786613166332,0.012951543770730494,0.007104927501222118
1772522051958519800,6.276519775390625,0.03363806570768356,0.006193886204063892,-0.0007636961151845753
1772522051968517000,6.28651708984375,0.02510755324959755,0.00023309636982157825,-0.004734426377061754
1772522051978514000,6.296513916015625,0.04126373828053474,0.002575896636303514,-0.005366221474576741
1772522051988511000,6.306510986328125,0.040813071903586386,-0.005355188623908907,-0.01657830116683617
1772522051998507000,6.316507080078125,0.04171148204803467,-0.005511584762018173,-0.011436125105945393
1772522052008504000,6.326504150390625,0.049042555588483805,-0.00414173944722861,-0.011028238424798473
1772522052018501000,6.336501220703125,0.0459013349533081,0.004438292974699288,-0.013738483764184638
1772522052028498000,6.346497802734375,0.05308335541188717,0.004343344700243324,-0.01279624361116439
1772522052038494200,6.356494140625,0.05966682545542717,0.006295556480251252,-0.016295785297872498
1772522052048491000,6.366490966796875,0.060117491832375525,0.010887213385757058,-0.020716524349572135
1772522052058488000,6.376488037109375,0.048747956556081766,0.010263254534825681,-0.018908817340480163
1772522052068485000,6.386485107421875,0.04784779284596443,0.009812807353585957,-0.019313982341578228
1772522052078482200,6.396482177734375,0.04949380648732185,0.011770699955709278,-0.015251354278856887
1772522052088478200,6.406478271484375,0.04171265109181404,0.0023607012493535875,-0.007865719273267313
1772522052098475000,6.41647509765625,0.05473229166269302,0.001452500363253057,-0.002749152577668428
1772522052108472000,6.42647216796875,0.06999649628996849,0.009609795594774186,-0.015308582625119015
1772522052118469000,6.43646923828125,0.060120414441823956,0.012357285938318818,-0.015248952259216457
1772522052128465000,6.44646484375,0.03513151913583278,0.005348302225396037,-0.0019855569271836427
1772522052138462000,6.4564619140625,0.034684359890222546,0.004831712739076465,-0.006087658483767882
1772522052148459000,6.466458984375,0.04650397702157497,0.00012108736271038651,0.002700381532497704
1772522052158456000,6.4764560546875,0.05278817185759544,0.0007449183494783937,0.005566730749048292
1772522052168452900,6.486452880859375,0.037080899637937544,-0.0017242482430301605,0.008895929970685392
1772522052178449200,6.49644921875,0.041268998977541924,0.0005357143118977547,0.012244610210927202
1772522052188446000,6.506446044921875,0.058629299101233476,0.00673252312541008,0.006004491978650912
1772522052198443000,6.516443115234375,0.05937748712003231,0.009885105404816567,0.004851093292981386
1772522052208440000,6.526440185546875,0.0526461330384016,0.005129435310326516,0.006049783291947096
1772522052218436000,6.53643603515625,0.05429448476731777,0.009968180578388273,0.013587996777053921
1772522052228433200,6.54643310546875,0.05250058708786964,-0.0002535729022696614,0.012154137182189152
1772522052238430000,6.556429931640625,0.05429565381109714,0.007115257098991423,0.015161566236708312
1772522052248427300,6.56642724609375,0.05264964016973972,-0.0025194902739487587,0.012556635302165522
1772522052258424000,6.576424072265625,0.044268180793523786,-0.0033441227961331604,0.007724557236908004
1772522052268420000,6.586420166015625,0.04905950672328472,-0.004965805713832378,0.015234001285256817
1772522052278417200,6.596417236328125,0.05654430952072143,0.0019031850065104662,0.011050203661434351
1772522052288414000,6.6064140625,0.05400163930058479,0.010603902932349592,0.011539704211428761
1772522052298411000,6.616410888671875,0.05564765294194221,0.010941793117206543,0.015177695387601851
1772522052308407000,6.626406982421875,0.05489771135747432,0.012183061882574111,0.010645184790808707
1772522052318403800,6.63640380859375,0.051906128326058384,0.009986629550531506,0.01683641324690543
1772522052328401200,6.646401123046875,0.054898880401253694,0.0022703926173970102,0.00572414980046451
1772522052338398000,6.65639794921875,0.05190203667283058,-0.006215641378145664,0.0018016151950228957
1772522052348395000,6.66639501953125,0.0460667546480894,-0.0011575542709790169,0.0009017254795413463
1772522052358391000,6.67639111328125,0.040379941183328626,0.0044215062366798515,-0.0034198001145385203
1772522052368387800,6.686387939453125,0.03199906632900238,0.004024652406200767,-0.006702840373199433
1772522052378385200,6.69638525390625,0.03229951058030128,0.00659406450279057,-0.005712642025761306
1772522052388382000,6.7063818359375,0.03379997827112675,0.005290891216043383,-0.01496216207393445
1772522052398378200,6.716378173828125,0.05445230567753315,-0.000175502697378397,-0.009237217689026146
1772522052408375000,6.726375,0.06597557021081447,0.004440704127494245,-0.009643305138731375
1772522052418372000,6.7363720703125,0.07210837387740611,0.006011076983064413,-0.009235792916920036
1772522052428369200,6.746369140625,0.0933539910018444,0.011394395722914487,-0.006868177869589999
1772522052438366000,6.756365966796875,0.05953296994268894,0.017882223372254518,-0.0050276189036667345
1772522052448362200,6.7663623046875,0.040977322554588316,0.016325988639891147,-0.012640240198699757
1772522052458359000,6.776359130859375,0.03244739461839199,0.0074981554693542415,-0.009983478612219914
1772522052468356000,6.786356201171875,0.013294365859031676,-0.007972750711161642,-0.0033254180956631897
1772522052478353000,6.796352783203125,0.0450169533342123,-0.0008319938447326421,-0.012515581772569567
1772522052488349000,6.806348876953125,0.0644710108667612,0.0034336825094185767,-0.013238781480584293
1772522052498346000,6.816345947265625,0.0478664975464344,-0.0013324176475405691,-0.013745808554114773
1772522052508343000,6.826343017578125,0.04008884928226471,-0.001017305550072342,-0.014572779163857921
1772522052518340000,6.836340087890625,0.03396130631268024,-0.005431815790385008,-0.013295799764292314
1772522052528337000,6.8463369140625,0.05476444036662578,0.0031245982939377423,-0.0066292728134896605
1772522052538333000,6.8563330078125,0.06658639558553696,0.0036858671722002326,-0.015015992886712773
1772522052548330000,6.866330078125,0.05357026214599609,0.013647691075038165,-0.00881061717425473
1772522052558327000,6.8763271484375,0.04144786267578601,0.011135616922564803,-0.00783352490356192
1772522052568324000,6.886323974609375,0.06957680957317351,0.011679021350573748,-0.00625719723124057
1772522052578320100,6.896320068359375,0.13196926060020922,0.011080397870298474,-0.01130911945910193
1772522052588317200,6.906317138671875,0.08138590531051158,0.008965031417831778,-0.005258304120693356
1772522052598314000,6.91631396484375,-0.028297873723506926,0.005980663578491658,-0.010885752081032842
1772522052608311000,6.92631103515625,-0.04325286627113819,0.004850234776455908,0.00034740693187341093
1772522052618308000,6.93630810546875,0.041298809593915936,-0.01211021584207192,0.0008152071067132055
1772522052628304100,6.94630419921875,0.09696633628010749,-0.007184851736482233,-0.007129102961253375
1772522052638301200,6.95630126953125,0.054471010378003115,0.0008201390101574361,0.010254203578690066
1772522052648298000,6.966298095703125,0.02215337961912155,0.009056545626185833,0.012574435820337385
1772522052658295000,6.976294921875,0.04370470169186592,0.00880039717433974,0.013152838496491312
1772522052668291000,6.986291015625,0.08021744605302811,0.015473536529019474,0.01958690839828923
1772522052678288000,6.996287841796875,0.09922025268673897,0.011992233751900493,0.019336979624675586
1772522052688285200,7.00628515625,0.07034253324866295,0.009637816112861037,0.021284378232248127
1772522052698282000,7.016281982421875,0.034576807862520216,0.013912844817247241,0.01869306483110413
1772522052708279000,7.026279052734375,0.04908697925209999,0.0157565547214821,0.020597409748239443
1772522052718275000,7.036275146484375,0.06015723932087421,0.0059184485298581415,0.021494961376162244
1772522052728272000,7.04627197265625,0.06464344482421874,0.00017771292077377437,0.013012114851549267
1772522052738269200,7.056269287109375,0.03845569512248039,-0.007913074679486452,0.018485596092883496
1772522052748266000,7.066265869140625,0.020495675539970396,-0.0052590347730554635,0.021820330006163565
1772522052758262300,7.07626220703125,0.0362070394128561,0.005823956913128495,0.011620888822013512
1772522052768259000,7.086259033203125,0.06523673454225062,0.005310764960292726,0.0024732125799637288
1772522052778256000,7.096255859375,0.0692769498437643,0.0024495851092040536,0.010656126309931277
1772522052788253200,7.106253173828125,0.05117430692017078,0.010543039590585977,0.008627543091773986
1772522052798250000,7.11625,0.05147241308391094,0.006483041876368225,0.012308460094220935
1772522052808246000,7.12624609375,0.0519184032857418,0.011059994403086602,0.00324896445912309
1772522052818243000,7.1362431640625,0.07884732674360274,0.013595595561619846,-0.0035614279417786744
1772522052828240100,7.146240234375,0.059687868243455885,0.0017150420232675968,-0.006675714904256165
1772522052838237000,7.15623681640625,0.025118074643611907,-0.003751571085862815,-0.010857777228718623
1772522052848233000,7.16623291015625,0.005067804783582687,-0.012751746882311999,-0.007251359367743134
1772522052858230000,7.17622998046875,0.028114918372035023,-0.0035257081744261083,-0.009054043141845613
1772522052868227000,7.18622705078125,0.04592705391645431,0.0010156615822575986,-0.013575968412542714
1772522052878224100,7.19622412109375,0.020648820275068282,-0.0013410941443406045,-0.018588919470040127
1772522052888221000,7.206220947265625,0.01676759492754936,-0.010802055852953345,-0.010906402143416925
1772522052898217000,7.216217041015625,0.06615618747472762,-0.00479644049629569,-0.010732315084990113
1772522052908214000,7.226214111328125,0.09263853620886803,0.005834825367014855,-0.016064031501766295
1772522052918211000,7.236211181640625,0.17702186976969242,0.03161589396400377,-0.020045639350684357
1772522052928208100,7.2462080078125,0.16233867990076542,0.02990015782099217,-0.018232973038684576
1772522052938204200,7.2562041015625,0.07896773825287819,0.024245054668746886,-0.01731461608475074
1772522052948201000,7.266200927734375,0.017148703199625016,0.018845314517058433,-0.0060510528004262595
1772522052958198500,7.276198486328125,0.020579846692085266,-0.0012952639749273657,-0.01700191514007747
1772522052968195300,7.2861953125,0.002616319978237152,-0.017714849182404575,-0.008530731653794647
1772522052978192600,7.296192626953125,-0.026860534396767614,-0.02041285609472543,-0.0033507078005466607
1772522052988188400,7.3061884765625,-0.07189034721255302,-0.019445782894548028,0.003420284171728417
1772522052998185700,7.316185791015625,-0.04958265381455421,-0.026350758243724702,-0.009369840225903316
1772522053008182500,7.3261826171875,0.11682605200409889,-0.012322616483736783,-0.008876522017316892
1772522053018179600,7.3361796875,0.0765706139832735,-0.0036924613097682594,0.0007731489301193505
1772522053028176600,7.3461767578125,0.24116437933444976,0.021055976303853093,0.006534543734742328
1772522053038172400,7.35617236328125,0.04244505701959133,0.04651102781686932,0.00800371210500598
1772522053048169700,7.366169677734375,0.012670096480846405,0.04687500229105353,0.01227709684157744
1772522053058166500,7.37616650390625,-0.024139585000276565,0.00987803634321317,0.008117054552678018
1772522053068163600,7.38616357421875,0.09467033429741858,-0.012040000150073319,0.003558514465484768
1772522053078159600,7.39615966796875,0.06399111839532852,-0.020618808729294686,-0.01240904352501966
1772522053088156400,7.406156494140625,0.10124679007828236,0.005218191306013613,-0.014353017199644817
1772522053098153500,7.416153564453125,0.005029226338863373,0.011714567587990313,-0.0018842519771773366
1772522053108150500,7.426150634765625,0.026426234632730482,0.010965228791721165,-0.006304689634777605
1772522053118147600,7.436147705078125,0.04752572128474712,-0.0028445027109235523,-0.008713933600438758
1772522053128143600,7.4461435546875,0.06204290693700313,-0.01621023503942415,-0.013106232008943333
1772522053138140400,7.456140380859375,0.02867547486424446,-0.0002707067001610994,-0.003946874462254345
1772522053148137500,7.466137451171875,0.04229425037205219,0.01370795162860304,0.0063746587316039945
1772522053158134500,7.476134521484375,0.06010054069757461,0.017598876386228948,0.002618000478670001
1772522053168130600,7.486130615234375,0.08194529275894165,0.014658658215869218,0.006107888421043753
1772522053178127600,7.496127685546875,0.06892448314428329,-0.0008348251226358115,0.00877082401998341
1772522053188124700,7.506124755859375,0.0503629905372858,-0.012690426882822067,0.013326870755990967
1772522053198121500,7.51612158203125,0.04048223251402378,0.004489438640046865,-0.0013245357351843268
1772522053208118500,7.526118408203125,0.05095686477720737,0.013531060691736638,-0.009913865708420053
1772522053218114600,7.536114501953125,0.04377250623106956,0.013406959388032555,-0.0036028924633283166
1772522053228111600,7.546111572265625,0.04735971706807613,0.004996420047804713,0.002710820728121325
1772522053238108700,7.556108642578125,0.046163200759887696,0.0010801781858317554,0.0009350066946353763
1772522053248105500,7.56610546875,0.03628711891174316,-0.0027021533644758164,0.007929075966216623
1772522053258102500,7.5761025390625,0.04122457531392574,0.006385189258772879,0.004301286523649469
1772522053268098600,7.5860986328125,0.025360066705942153,0.010436473943572491,0.002964768089726567
1772522053278095400,7.596095458984375,0.045565234866738316,-0.002455649523809552,0.00002631261819042265
1772522053288092700,7.6060927734375,0.04003448874652386,0.001149243100360036,0.004567435779701918
1772522053298089500,7.61608935546875,0.07639584193825721,0.002081665112264454,0.00846555746309459
1772522053308085500,7.62608544921875,0.06891337722837924,0.019128862432483584,0.00479937223889865
1772522053318082600,7.63608251953125,0.07534253349304199,0.026231223517283797,0.0002464581748936325
1772522053328079400,7.646079345703125,0.06740647979676723,0.022763766602426766,-0.00411311614094302
1772522053338076700,7.65607666015625,0.08296469893455505,0.0163087817767635,-0.009601648820936679
1772522053348073500,7.666073486328125,0.04944236856102943,0.0006093092710711061,-0.0057274377360939975
1772522053358069800,7.67606982421875,0.017268530187010765,-0.009694861796032636,-0.008216724668024108
1772522053368066600,7.686066650390625,-0.010410919377207756,-0.00869980461038649,0.0008983370792120694
1772522053378063400,7.6960634765625,0.002163315513730049,-0.003987736195605248,0.0008369622807949781
1772522053388060700,7.706060791015625,0.030296938586235046,-0.0019778576779179275,0.001890444255946204
1772522053398056400,7.716056396484375,0.06097498544454574,0.003380472751148045,-0.0011301913400180636
1772522053408053800,7.7260537109375,0.07608896794617176,0.010545889134798198,-0.0063342536559794094
1772522053418050600,7.736050537109375,0.08028115893900394,0.014936726238578557,0.00536276914216578
1772522053428047600,7.746047607421875,0.07549392466247082,0.01656756057711318,0.006299054478434846
1772522053438044700,7.756044677734375,0.047805707269906995,0.006059172174800187,0.0013320705876685678
1772522053448040400,7.76604052734375,0.06366144804954528,0.01057054865201935,-0.001992288062069565
1772522053458037500,7.77603759765625,0.061112932610511775,0.006587123305350542,-0.001647465812927112
1772522053468034600,7.78603466796875,0.05018412683904171,-0.0008229520217515528,0.00048457777970470486
1772522053478031600,7.796031494140625,0.015017536389827727,-0.002718739173095673,0.004923564874147996
1772522053488027600,7.806027587890625,0.02699146730005741,-0.0007986760970205068,-0.0011984890695661305
1772522053498024400,7.8160244140625,0.03582067044377327,-0.002603296099882573,0.002134829204762354
1772522053508021500,7.826021484375,0.05332943912744522,-0.0003826061094179749,-0.005580914538027718
1772522053518018600,7.8360185546875,0.053631052422523494,0.0130798463255167,-0.0018485048103611915
1772522053528015600,7.846015625,0.0694908848553896,0.018075681851431727,0.006956952131586149
1772522053538011600,7.85601171875,0.058117842447757716,0.012904782019555567,0.00279480008399114
1772522053548008400,7.866008544921875,0.037165655311942096,0.006701306003239005,-0.007306076096510514
1772522053558005500,7.876005615234375,0.0533259319961071,-0.0006321238910779357,-0.006154129582410678
1772522053568002600,7.88600244140625,0.07367664610743523,0.00696205756496638,-0.009042763696005568
1772522053577999600,7.89599951171875,0.05451835665106773,0.006011223113536834,-0.013601038921717554
1772522053587995600,7.90599560546875,0.03850771757066249,-0.002526979460660368,-0.01821476152855903
1772522053597992700,7.91599267578125,0.04509294117987156,0.00412796665020287,-0.012202424170169979
1772522053607989500,7.925989501953125,0.03955634984076023,0.01400437729191035,-0.011266531559545547
1772522053617986600,7.935986572265625,0.042699324041604994,0.008089764686953277,-0.006949663874274119
1772522053627982600,7.945982666015625,0.06185293732285499,0.010253025401756167,-0.017995154827972874
1772522053637979400,7.9559794921875,0.07007832935452461,0.007083017063513398,-0.015608844213327392
1772522053647976700,7.965976806640625,0.07486731719672679,0.00539564849846065,-0.015311532634031027
1772522053657973500,7.975973388671875,0.06364508143663405,0.007320369483344256,-0.009175468431273474
1772522053667970600,7.985970458984375,0.04269289430081844,0.008936974367126822,-0.008904633866949006
1772522053677966600,7.995966552734375,0.01381575938463211,-0.0014798632942140102,0.0004221161358989775
1772522053687963400,8.00596337890625,0.034468086791038514,-0.0075597677297890185,-0.013896825264208018
1772522053697960700,8.015960693359375,0.05556757344305515,0.00292927665123716,-0.009037932257261126
1772522053707957500,8.02595751953125,0.06454875227808952,0.0065920004098676144,-0.0011823051197454332
1772522053717953500,8.03595361328125,0.047339843323826784,0.010368505007587372,0.008721030061505734
1772522053727950600,8.04595068359375,0.05452127926051616,0.010885258890688419,-0.00038996743196621536
1772522053737947400,8.055947509765625,0.04420037625432014,0.011814831358380615,-0.0007298212450463325
1772522053747944700,8.06594482421875,0.054074704536795616,0.016400350784044712,0.0036303010600619015
1772522053757941500,8.07594140625,0.045696752291917796,0.01569899758165702,0.0051531267131678755
1772522053767937500,8.0859375,0.04061374993920326,0.008882522499840706,0.005504451768333092
1772522053777934600,8.0959345703125,0.04614741866886615,0.005350896041281521,0.004350295030837878
1772522053787931400,8.105931396484374,0.05707154826521873,0.007798143062926828,0.008133969154860823
1772522053797928400,8.115928466796875,0.05796762032210827,0.006283646846748888,0.009217964999284595
1772522053807924500,8.125924560546874,0.059013329982757566,0.010874755762983112,0.0054850072823464865
1772522053817921500,8.135921630859375,0.0509293922483921,0.010214775750599802,-0.001685724597238004
1772522053827918600,8.145918701171874,0.05317103369534015,0.014273257361166178,-0.004694267896609381
1772522053837915600,8.15591552734375,0.040751112583279604,0.0034928653507493436,0.00022657529748976228
1772522053847912400,8.165912353515624,0.03147416567206383,0.0038532413620501753,0.0010628708580043167
1772522053857908500,8.175908447265625,0.04299567663967609,0.007622037577349692,0.0080774349283427
1772522053867905500,8.185905517578124,0.03925590558946133,0.0017146949633955954,0.0016213267246726899
1772522053877902600,8.195902587890625,0.04090191923081875,0.004711630023363977,-0.007063618243299424
1772522053887899600,8.205899658203125,0.04150105416774749,0.005592248782794922,-0.005996281272731721
1772522053897896400,8.215896484375,0.04748889640569687,0.007797540274728089,-0.011845984548470004
1772522053907892500,8.225892578125,0.06394552568793296,0.004098740555718541,-0.007089620334235951
1772522053917889500,8.2358896484375,0.052124154990911484,0.007110288662929088,-0.01801286401459947
1772522053927886600,8.245886474609375,0.05436813452541828,0.0068967920427210625,-0.012851426130812615
1772522053937883600,8.255883544921875,0.05691022022366524,0.009413761566020548,-0.015945519688632337
1772522053947879700,8.265879638671874,0.053318333211541176,0.016578940487653016,-0.014060281330766155
1772522053957875700,8.275875732421875,0.05780103158354759,0.0024388627857901152,-0.016940385078033433
1772522053967872500,8.28587255859375,0.06752455321848393,0.0021582192135043443,-0.01171590102855116
1772522053977869800,8.295869873046875,0.027573066580295562,0.011971519757434724,-0.004220165845146402
1772522053987866600,8.30586669921875,0.018299042278528212,-0.0008007219236344098,0.0009024104661308228
1772522053997862700,8.315862548828125,0.02578852125108242,-0.005360394521988928,-0.006053126026503742
1772522054007859700,8.325859619140624,0.0423982952684164,-0.002273388292081654,0.0061797389477025715
1772522054017856500,8.3358564453125,0.06020400107204914,-0.0016059738919138907,0.007092058886494487
1772522054027853800,8.345853759765625,0.06723872201442718,0.00804996239952743,0.005307011233782396
1772522054037850600,8.3558505859375,0.056464814543724054,0.012366656554862855,-0.0005550765994936228
1772522054047846700,8.3658466796875,0.06409750137925148,0.008860310668032615,0.0066190619467291975
1772522054057843700,8.37584375,0.049583238336443895,0.008241119323763996,0.010551551690604536
1772522054067840500,8.385840576171875,0.03521744385361671,0.005259180903527886,0.022017560478160156
1772522054077837800,8.395837890625,0.031626725885272024,0.004709401533659547,0.00787987566278316
1772522054087833600,8.40583349609375,0.04719195928573608,0.0018638211105018853,0.017606045912532134
1772522054097830700,8.41583056640625,0.057519292032718654,0.00747647336050868,0.008987270649103447
1772522054107827700,8.42582763671875,0.05512625941634178,-0.0016607545527629554,0.0005038213362917304
1772522054117824500,8.435824462890626,0.044803602844476695,0.006985255777463317,0.007622421169839799
1772522054127821600,8.445821533203125,0.04854512746036052,0.004333371295500547,0.0063185994291212405
1772522054137817600,8.455817626953126,0.06171615920066833,0.010522453460283576,0.0004354505415074527
1772522054147814700,8.465814697265625,0.05797697267234325,0.010300134212803095,0.0018034692253917455
1772522054157811700,8.475811767578126,0.03253682646751404,0.00810362881552428,0.00306335135968402
1772522054167808800,8.485808837890625,0.029544074392318723,0.006430891564022749,0.007978230603877454
1772522054177805600,8.4958056640625,0.06650573156476021,0.008390921324305236,0.0038895091186743227
1772522054187801600,8.505801513671875,0.07548048065900802,0.008276738626416771,-0.0022188998921774325
1772522054197798700,8.515798583984376,0.06156593707501888,0.013892879741452634,-0.005508077630680054
1772522054207795700,8.525795654296875,0.02325871051251888,0.009086812900286166,-0.013893272467097267
1772522054217792800,8.535792724609376,0.037030630755424496,-0.00443668553950265,-0.01202707673641853
1772522054227788800,8.545788818359375,0.06037526598572731,0.004436393278557807,-0.01324554914808832
1772522054237785600,8.55578564453125,0.06591419541239738,0.007358290340937674,0.0014999745004810393
1772522054247782700,8.56578271484375,0.052447980117797846,0.0043893392664380365,-0.0054332588288001716
1772522054257779700,8.57577978515625,0.043918052181601525,0.004559289005864412,-0.012908818873856216
1772522054267776800,8.58577685546875,0.05573474670350551,0.01177037116214633,-0.010875870007835327
1772522054277772500,8.5957724609375,0.06770049430727958,0.005375299830175936,-0.006663120284164324
1772522054287769600,8.60576953125,0.06216098035871982,0.00787308972897008,-0.016307146942103282
1772522054297766700,8.6157666015625,0.03477320721745491,0.004769022766407579,-0.007605807961756363
1772522054307763500,8.625763427734375,0.05362871433496475,0.004760291470680385,-0.00006149352942593395
1772522054317759700,8.635759765625,0.04943886142969131,0.014110869873687624,-0.0036163455999456344
1772522054327756500,8.645756591796875,0.04480009571313858,0.009925126887951045,-0.00405289211999625
1772522054337753900,8.65575390625,0.05168342548608779,-0.0018205847569741308,-0.0048597058576997365
1772522054347750700,8.665750732421875,0.06020867724716663,0.008181077965907751,-0.003639790407614782
1772522054357747500,8.67574755859375,0.05407412001490593,0.000984718454722315,-0.004493475494347513
1772522054367743700,8.68574365234375,0.030285248148441312,0.002234353189636022,-0.0069512987089343364
1772522054377740500,8.695740478515624,0.028638649985194206,0.011831782493181526,-0.0015419961444567889
1772522054387737900,8.70573779296875,0.04300444446802139,0.004845302873011678,-0.0016013616488780825
1772522054397734700,8.715734619140624,0.06799217073023318,0.0063126902781426904,-0.006642260159226134
1772522054407731700,8.725731689453125,0.06335515857934951,0.01209556626221165,-0.008235018376540393
1772522054417727700,8.735727783203124,0.05273439584374427,0.008473137981351464,0.0007555950071197003
1772522054427724500,8.745724609375,0.052584173718094825,0.008444039751030504,-0.0033487441723234947
1772522054437721900,8.755721923828125,0.03807049519717693,0.014307506690640001,-0.0014913436694536358
1772522054447718700,8.76571875,0.04225917905867099,0.0029588315392844377,0.0032421785253100095
1772522054457714400,8.77571435546875,0.05721943230330944,0.003927201647404581,0.0019316804486326873
1772522054467711700,8.785711669921875,0.060513797673583024,0.012441913748160003,0.0029504107708111403
1772522054477708500,8.79570849609375,0.03611819208562374,0.006712594582233578,0.0026898692716378716
1772522054487705600,8.80570556640625,0.039407881280779836,0.011228848163969815,0.00842274123467505
1772522054497702700,8.81570263671875,0.037758945029973984,-0.0023401516516692936,0.00947095337966457
1772522054507698700,8.82569873046875,0.05586275699734688,-0.005841054178401827,0.009429251396097241
1772522054517695700,8.83569580078125,0.055415597751736635,0.0018782880272716282,-0.001892517482023686
1772522054527692500,8.845692626953126,0.045240240696072576,0.009207242675870657,-0.005346009803609922
1772522054537689600,8.855689697265625,0.0467377857774496,0.01120694685941562,0.004320027756737545
1772522054547686700,8.865686767578126,0.05302139609158039,0.013013393493182956,0.0028916571877431125
1772522054557682700,8.8756826171875,0.06125087977647781,0.005805982865020633,-0.0008925923250149935
1772522054567679700,8.8856796875,0.0613993483364582,0.006259133460000157,0.004560549381189048
1772522054577676800,8.8956767578125,0.04299392307400703,0.006996544356457889,-0.004727549111703411
1772522054587673600,8.905673583984376,0.045836453023552895,-0.0007307802262715995,-0.00439526668372564
1772522054597669600,8.915669677734375,0.025485154390335083,0.006223861217219382,-0.007953909013373776
1772522054607666700,8.925666748046876,0.034012159717082976,0.00878169247386977,0.0026113424090202894
1772522054617663700,8.935663818359375,0.05720598829984665,0.009365483711194247,-0.0027431246956810353
1772522054627660800,8.945660888671876,0.06393792690336704,0.01159357155682519,-0.005975138020003214
1772522054637657600,8.95565771484375,0.06124211194813251,0.017770835419651118,0.0015364157870411872
1772522054647653600,8.965653564453126,0.05704933643341064,0.01582213077098131,0.0026853300938382745
1772522054657650700,8.975650634765625,0.053906362232565876,0.001147051143273711,0.005017353237979113
1772522054667647500,8.9856474609375,0.038488428348302836,0.005847045527771115,0.0019640574814286083
1772522054677644800,8.995644775390625,0.049861470755934716,0.012175335233844816,-0.008703001214470714
1772522054687640600,9.005640625,0.03669453066885471,0.006040303077548742,-0.001887804774288088
1772522054697637600,9.0156376953125,0.02009293995797634,-0.0001115523493848741,-0.010543843308184295
1772522054707634700,9.025634765625,0.0382066887974739,0.0015786840261891484,-0.005405676702130585
1772522054717631500,9.035631591796875,0.04794014730453491,0.0006020210137590766,-0.0021106902773492036
1772522054727628800,9.04562890625,0.050339609661698335,0.0017592282248660922,-0.009822287567984311
1772522054737624600,9.05562451171875,0.07756722380518913,0.01104930861229077,-0.004918249378213659
1772522054747622000,9.065621826171874,0.12469780829250812,0.01619295511106029,-0.0132472753142938
1772522054757618700,9.07561865234375,0.08937690406441688,0.023871709578018634,-0.0031065785800572484
1772522054767615500,9.085615478515624,-0.0010024550408124922,0.021433833172917364,-0.0012286650121212004
1772522054777612800,9.09561279296875,-0.009527122280001639,0.006971446447819471,-0.0010444401521701365
1772522054787608600,9.105608642578124,0.015468202766776084,-0.01813773250328377,-0.0002536459675058722
1772522054797605600,9.115605712890625,0.054228433793783185,-0.016886563398409635,0.0004816917028743773
1772522054807602700,9.125602783203124,0.06515139434635639,0.0013764029197394848,0.0010535459072329102
1772522054817599700,9.135599853515625,0.07696925791203975,0.011609718974027782,0.0030035017980728296
1772522054827596500,9.145596435546874,0.08953472497463226,0.02099363339105621,0.00495255350661464
1772522054837592600,9.155592529296875,0.05870353338122367,0.02435483518615365,0.007610520669491961
1772522054847589600,9.165589599609374,0.04957096337676048,0.013506857832241802,-0.0012816647078376263
1772522054857586700,9.175586669921875,0.028171616995334624,0.0032790399369783695,0.006347569795278832
1772522054867583700,9.185583740234375,-0.0044470425367355345,0.0031667752015404403,0.009960015538241714
1772522054877579800,9.195579833984375,0.035660511445999146,0.005828121631592512,0.00404006917104125
1772522054887576600,9.20557666015625,0.08563830205798148,0.006834924053959548,0.0029178328086156397
1772522054897573600,9.21557373046875,0.050475218740105625,0.004221106560062617,0.004575153295276686
1772522054907570700,9.22557080078125,0.04539221638739109,0.0006567286093719303,-0.008117228082614019
1772522054917567700,9.235567626953125,0.04734101236760616,0.0018368052394129334,-0.008096395357139408
1772522054927563800,9.245563720703124,0.03177987062036991,0.006038385115098208,-0.01744223365294747
1772522054937560600,9.255560546875,0.03148117993474007,0.013168657120130956,-0.014334842222137377
1772522054947557600,9.2655576171875,0.08026128519475459,0.022252255150023846,-0.01465304132583551
1772522054957555000,9.275554931640626,0.08789221846461295,0.017368994886800646,-0.01784014692935161
1772522054967550700,9.28555078125,0.05931202066838741,0.015781652630120515,-0.020854060523584485
1772522054977547800,9.2955478515625,0.04150456129908561,0.004379603323712945,-0.015541176671441644
1772522054987544800,9.305544921875,0.04314882137477398,0.005167009108047932,-0.012324817573977633
1772522054997542000,9.3155419921875,0.05332242486476898,0.0021611052903346716,-0.01918611817820929
1772522055007538700,9.32553857421875,0.03551730358302593,0.005506817255355417,-0.01949901091912761
1772522055017534700,9.33553466796875,0.029086393752694128,0.0003568871462717652,-0.016215203475486484
1772522055027531800,9.34553173828125,0.036268998733162874,-0.0014266170033253728,-0.004805253990413621
1772522055037528800,9.35552880859375,0.05212941568791866,0.001792692103050649,-0.01033773540998809
1772522055047526000,9.36552587890625,0.053476738643646236,0.018424221294466404,-0.011311156152561307
1772522055057522700,9.375522705078126,0.05945873566269874,0.00907473887000233,-0.005764911069115623
1772522055067519000,9.38551904296875,0.06978139223456382,0.0014021766818128525,-0.0024895883260294795
1772522055077515800,9.395515869140626,0.04718552954494953,0.006337678588926792,-0.005228749232646077
1772522055087512800,9.405512939453125,0.03820727331936359,0.00902059752997011,-0.002851507840445265
1772522055097510000,9.415510009765624,0.03865735517442226,0.008367686579190193,0.0022692053073085842
1772522055107506700,9.425506591796875,0.04374503370225429,0.010324793730024248,0.005583380489749833
1772522055117503000,9.4355029296875,0.05122399128079414,0.002125759982317686,0.012202314572315662
1772522055127499800,9.445499755859375,0.05511398445665836,0.005052954274322837,0.0003221902922261506
1772522055137496800,9.455496826171874,0.0581055674880743,0.008527133190911263,0.0007039470182731748
1772522055147494000,9.465493896484375,0.04328969115018844,0.005620305833499878,0.014782786919036879
1772522055157489700,9.47548974609375,0.01516074425280094,-0.01162084315624088,0.016305283778579906
1772522055167487000,9.485487060546875,0.04090016566514969,-0.007117138528823852,0.011180506377061828
1772522055177483800,9.49548388671875,0.0368605348855257,0.0031858269618824124,0.012834867721656337
1772522055187480800,9.505480712890625,0.05332125582098961,0.01016258890563622,0.009666220223437993
1772522055197478000,9.515477783203124,0.07262450670599938,0.015081066612713037,0.015182627291046082
1772522055207473700,9.5254736328125,0.06993102983832358,0.007168503389880061,0.007562069284729659
1772522055217471000,9.535470947265624,0.05691080474555492,0.0025316739020869133,0.0066943830721080295
1772522055227467800,9.5454677734375,0.041344986823201174,0.002076093888003379,0.011528123371489346
1772522055237464800,9.55546484375,0.0609463438719511,0.004224303164146841,0.010635905505809933
1772522055247460900,9.5654609375,0.0387993939936161,0.0030890703228302297,-0.0011518734488636254
1772522055257457700,9.575457763671874,0.031467735931277274,0.008467475425545126,0.00007880999040789901
1772522055267455000,9.585455078125,0.01441138719022274,-0.00535723445052281,0.004505649989331141
1772522055277451800,9.59545166015625,0.03326630978584289,-0.002185965736955404,-0.00813127487427555
1772522055287448800,9.60544873046875,0.04912964935004711,0.008190338984597473,-0.004541360623529181
1772522055297444900,9.61544482421875,0.054367550003528595,0.00895092982724309,-0.00822693553478457
1772522055307442000,9.62544189453125,0.05481821638047695,0.01576190675003454,-0.008681328238779679
1772522055317438700,9.635438720703124,0.053314241558313366,0.01767627073768526,-0.016746524740057066
1772522055327435800,9.645435791015625,0.05466039547026157,0.013951752055529504,-0.015708824855927377
1772522055337432800,9.655432861328125,0.061093058866262435,0.014145100936852395,-0.01398614751547575
1772522055347428900,9.665428955078125,0.05989537351429462,0.010336264972109347,-0.01393042613971047
1772522055357426000,9.675426025390625,0.04627425991892815,0.015260222571901976,-0.015661524248635397
1772522055367422700,9.685422607421875,0.039837504869699475,0.014579601630289107,-0.01514709931993857
1772522055377420000,9.695419921875,0.02965980972647667,0.006150996910408139,-0.011433293828042224
1772522055387417900,9.70541796875,0.013203764966130255,-0.002769884838443249,-0.013101564966980367
1772522055397415000,9.715414794921875,0.025928221982717513,0.0008410722003318368,-0.0006575505932793021
1772522055407411000,9.725410888671876,0.050769233250617975,0.008680259659700096,-0.008717038872977718
1772522055417407700,9.73540771484375,0.054960255199670786,0.017766506304405627,-0.012303856984339653
1772522055427404800,9.74540478515625,0.07052431955635548,0.014599146580975502,0.0018579484921414403
1772522055437401900,9.75540185546875,0.0709714788019657,0.017510412651486694,-0.0008516849258914589
1772522055447398000,9.76539794921875,0.05376256984770297,0.013405973007343709,0.005575023653358221
1772522055457395000,9.77539501953125,0.04747779048979282,-0.00045811903104186054,0.002656898583797738
1772522055467391700,9.785391845703124,0.053012628263235086,0.004010112424194813,0.005278232663869857
1772522055477388800,9.795388916015625,0.05929682309925556,0.003909154534060507,0.013540860566543415
1772522055487385900,9.8053857421875,0.050018122622370716,0.005153857365529984,0.0033296832788269966
1772522055497382000,9.8153818359375,0.04178746989369392,-0.0021005159432068467,0.006484302251692861
1772522055507379000,9.82537890625,0.03999181864857673,0.001148183654434979,0.0028404110576957463
1772522055517376000,9.8353759765625,0.04926993460357189,-0.0019327398945577442,0.008654010973591357
1772522055527372800,9.845372802734374,0.0492693500816822,0.001519976108893752,0.006084754140628501
1772522055537369900,9.855369873046875,0.05570610513091087,0.0030804486249573527,0.002105959303304553
1772522055547366000,9.865365966796874,0.04163783228993415,0.007967416948918253,0.013276044751051812
1772522055557362700,9.87536279296875,0.0471779307603836,0.005251563852652907,0.013724628768768161
1772522055567360000,9.885360107421874,0.04613455918729305,0.013923201814480125,-0.0020586678291670975
1772522055577356800,9.895356689453125,0.05480944855213165,0.00015917261708527802,-0.0006375033190939575
1772522055587352800,9.905352783203124,0.05870119529366493,-0.007032328055892139,0.00004437799784354865
1772522055597350000,9.915349853515625,0.047479544055461884,0.011044742035027593,0.0024172994079533962
1772522055607346700,9.9253466796875,0.045234979999065394,0.009147530111577361,-0.005502387675410136
1772522055617344000,9.935343994140625,0.047776481175422665,0.006895951792504638,-0.0017339476531371472
1772522055627340800,9.9453408203125,0.05031915139555931,0.007006170701328664,-0.007246509662689641
1772522055637336800,9.9553369140625,0.044485622936487196,-0.0015850041691213845,-0.0043254711168352515
1772522055647334000,9.965333984375,0.04179448415637016,-0.0001258731356821954,-0.01171134358444251
1772522055657330700,9.97533056640625,0.047481882143020626,-0.001068834807910025,-0.007191244944650679
1772522055667328000,9.985327880859375,0.04628711940050125,0.004074592495150864,-0.011050276726670562
1772522055677324800,9.99532470703125,0.057361471122503276,0.004596497477404773,-0.014094366263458504
1772522055687320800,10.00532080078125,0.060353054153919214,0.005391776040941477,-0.019933767340891063
1772522055697318000,10.01531787109375,0.05601648625433445,0.007114234185684472,-0.004574760569632053
1772522055707314700,10.025314697265625,0.050479310393333435,0.00764072401151061,-0.02214679461470805
1772522055717311700,10.035311767578126,0.04119885635077953,0.005514507371466607,-0.009454248840035871
1772522055727307800,10.045307861328125,0.05526654466986656,0.004757003535050899,-0.010695599803794175
1772522055737304800,10.055304931640626,0.05855798743069172,0.004108823558315634,-0.015602670200867577
1772522055747302000,10.065302001953125,0.03955167366564274,0.009486169215105474,-0.009508700707321986
1772522055757299000,10.075298828125,0.04119768730700016,-0.0009255356133915484,-0.009417341762594879
1772522055767295700,10.085295654296875,0.03715747200548648,0.0028195874653756618,-0.01180700424495153
1772522055777291800,10.095291748046876,0.050476387783884996,0.00768399689765647,-0.010004904992738739
1772522055787288800,10.105288818359375,0.04793430208563804,0.005151775006297975,-0.009749952984135597
1772522055797286000,10.115285888671876,0.04493804287910461,-0.003530019023362547,-0.003650110872229561
1772522055807283000,10.125282958984375,0.05586041890978813,0.006295702610723674,0.0002923614095430821
1772522055817279700,10.13527978515625,0.05421323622465133,0.006765037155523896,0.0005571680918801576
1772522055827275800,10.14527587890625,0.05361293224394321,0.00813575925314799,0.0011982516075484454
1772522055837272800,10.15527294921875,0.04957563955187797,0.004552037281170487,0.01017385921832174
1772522055847270000,10.165269775390625,0.05391337649524212,0.010161383329238742,0.009579172127647325
1772522055857267000,10.175266845703124,0.04762801261544227,0.007860266780015081,0.006898929200880229
1772522055867263700,10.185263671875,0.056908466657996176,-0.0020751440399326385,0.006266193388449028
1772522055877259800,10.195259765625,0.0539139610171318,0.004943155490607023,0.010333470226824282
1772522055887256800,10.2052568359375,0.047777650219202036,0.0076570540918037295,0.0023355120091699062
1772522055897253600,10.215253662109374,0.03969663509428501,0.001257178720552474,0.005053995453938842
1772522055907251000,10.2252509765625,0.044482115805149075,-0.0012270575769245623,0.0035954854750074442
1772522055917246700,10.235246826171876,0.05840075104236602,0.005251801314670592,0.004186811564816162
1772522055927244000,10.245244140625,0.05406126053333282,0.011954897416196764,0.010581207043351606
1772522055937240800,10.25524072265625,0.048673722276091576,0.008072813552152365,0.008023914642818271
1772522055947237600,10.265237548828125,0.05241173976063728,0.003685282650310546,0.003911474355310201
1772522055957235000,10.27523486328125,0.06228665256500244,0.005960187046043575,-0.007503069106489419
1772522055967230700,10.285230712890625,0.056448447930812835,0.004731960425339639,-0.0082330456151627
1772522055977227800,10.295227783203124,0.0443242948949337,0.0074267889998853205,0.005328519812691957
1772522055987224800,10.305224853515625,0.045965632361173625,0.007925514035951346,-0.00038537345523945984
1772522055997221600,10.3152216796875,0.044917584612965585,0.007071838082373142,-0.0075687821533065285
1772522056007219000,10.325218994140625,0.05808510922193527,0.0011334975419566035,0.0030963859796058384
1772522056017214700,10.335214599609374,0.04536299029290676,0.0063794353714212776,-0.0039292292077094315
1772522056027212000,10.3452119140625,0.0489554618269205,0.0048910965098068115,-0.01656452836981043
1772522056037208800,10.355208740234374,0.05508943453729152,0.013927859723288565,-0.01114942625220865
1772522056047205600,10.36520556640625,0.05359013589024544,0.018748996269423515,-0.01504921016972512
1772522056057202000,10.375201904296874,0.05583469994664192,0.015021573244128375,-0.011771649803780019
1772522056067198700,10.38519873046875,0.050446577167510984,0.009646529142279177,-0.002562005108268931
1772522056077195800,10.39519580078125,0.034434769043326374,0.006498275978118181,-0.00737082102894783
1772522056087192800,10.40519287109375,0.04371522308588028,0.008217336589377374,-0.01192770801517181
1772522056097190000,10.41518994140625,0.03488309733271599,0.004701181694585829,-0.020148195542860774
1772522056107186000,10.42518603515625,0.06032090544998645,0.0020149748179130256,-0.01536536344680935
1772522056117182700,10.4351826171875,0.05089665902256965,0.008358608223591,-0.009315269627608359
1772522056127179800,10.4451796875,0.05508651192784309,0.01226447482202202,-0.020685197629546747
1772522056137176800,10.4551767578125,0.06316694253087043,0.012550854015350341,-0.008853332937974483
1772522056147174000,10.465173828125,0.04191957184076309,0.0066170983185060315,-0.007117613452859222
1772522056157170000,10.475169921875,0.04820318215489387,0.010515841056406497,-0.007492081921594217
1772522056167166700,10.485166748046876,0.044917584612965585,0.00680752459038049,0.0002837031790520996
1772522056177163800,10.495163818359375,0.04971124863028526,0.007915467565972358,0.00037196598439477385
1772522056187160800,10.505160888671876,0.044323710373044015,0.005973649315815418,0.010361682541156186
1772522056197158000,10.515157958984375,0.04028583315908909,0.0023116014106199143,-0.002601898727240041
1772522056207154000,10.52515380859375,0.04732055410146713,0.004063267383538186,0.005678931552404538
1772522056217150700,10.535150634765625,0.05286123709380627,0.004676613508909941,-0.0015315386825241147
1772522056227147800,10.545147705078126,0.06034311728179455,-0.0009606069267727434,0.0037673440437298268
1772522056237144800,10.555144775390625,0.07231237201690674,0.013382391202356665,0.006738213080679997
1772522056247140900,10.565140869140626,0.05869535007476806,0.01236061040656641,0.008726345557440071
1772522056257137700,10.5751376953125,0.061091305300593375,0.0075868383998051285,-0.003605924670631066
1772522056267135000,10.585135009765626,0.047021863415837285,0.001622468368988484,0.003226332502206787
1772522056277131800,10.5951318359375,0.046425066566467284,0.0028935477507300673,-0.00005966689852066338
1772522056287128600,10.605128662109376,0.04821604163646698,0.00571030393820256,-0.0023118023400194943
1772522056297124900,10.615124755859375,0.05150982248485088,0.004251209437381476,0.008896551025193183
1772522056307121700,10.62512158203125,0.047620998352766036,0.00770553287602961,0.006471296639647335
1772522056317119000,10.635118896484375,0.04298106359243393,0.005986125204898417,0.0030380707879550752
1772522056327115800,10.64511572265625,0.05734218190014362,0.008198577089980244,-0.005446063511446118
1772522056337112800,10.65511279296875,0.059139586710929865,0.00903471738686785,-0.0034472087112721052
1772522056347108900,10.66510888671875,0.052853053787350654,0.001777494533918798,-0.0022824027155991643
1772522056357105700,10.675105712890625,0.06048690966665744,0.007876377664599567,-0.0030592505733016877
1772522056367103000,10.68510302734375,0.050911272069811817,0.011770060634892433,-0.004645652115065604
1772522056377099800,10.695099853515625,0.04387830469310283,0.005875632301438599,-0.001731920092832297
1772522056387096800,10.705096923828124,0.051661213654279704,0.008564305129833518,0.0009408975793048739
1772522056397092900,10.7150927734375,0.0612380202949047,0.005097706731501966,-0.005668812017189338
1772522056407089700,10.725089599609374,0.050612581384181975,0.0066618325093761085,-0.012542880771448835
1772522056417086700,10.735086669921875,0.04193360036611557,0.0032503800980746744,-0.004890110129117965
1772522056427083800,10.745083740234374,0.04897241296172142,0.0026331249825656414,-0.013890276792412623
1772522056437079800,10.755079833984375,0.0569072976142168,0.008876859944034367,-0.012656816874165087
1772522056447076900,10.765076904296874,0.05975450373888015,0.006301566095929592,-0.007621626585396006
1772522056457073700,10.77507373046875,0.06499240439236163,0.005853566600102931,-0.003719888172810897
1772522056467070700,10.78507080078125,0.05092705416083335,-0.002484090167004615,-0.011251607985049485
1772522056477067800,10.79506787109375,0.04524140973985195,0.010796484628692269,-0.011981611893186346
1772522056487063800,10.805063720703124,0.04763736496567726,0.01067740655997768,-0.008094239932671188
1772522056497060900,10.815060791015625,0.05452186378240585,0.009309789734892547,-0.0011493709645234048
1772522056507058000,10.825057861328125,0.05542027392685413,0.008287296553049236,-0.0010883066933602093
1772522056517054700,10.8350546875,0.044047231519222255,0.004987542621605098,0.0035190227053128183
1772522056527051800,10.8450517578125,0.051827217870950695,0.007057024105731398,-0.0021034111531917006
1772522056537047800,10.8550478515625,0.04883563483953476,0.005532755414210259,0.005599272178625688
1772522056547044900,10.865044921875,0.05452127926051616,0.003888970262557268,0.004540867433184758
1772522056557042000,10.8750419921875,0.046592824348807335,0.0022306451288983224,-0.0012799294084776193
1772522056567038700,10.885038818359375,0.04315291302800178,-0.0001980798553675413,0.006089768242463469
1772522056577035800,10.895035888671876,0.039566871234774585,0.004274407649878412,-0.005031400029640644
1772522056587031800,10.90503173828125,0.053928574064373964,0.013317765000928192,0.01188891950789839
1772522056597028600,10.915028564453126,0.04943593882024288,0.009809482885338365,0.010728524825861677
1772522056607026000,10.92502587890625,0.052877603706717485,0.011319101996999233,0.003853597555076703
1772522056617022700,10.935022705078126,0.057065703046321865,0.012825104379467666,-0.0014960015782620757
1772522056627018800,10.945018798828125,0.047938978260755535,0.012917933762073517,-0.0016553568584378809
1772522056637015800,10.955015869140626,0.051982700693607324,0.01190862885536626,-0.002294668542128056
1772522056647012600,10.9650126953125,0.03357669090926647,0.0012380904275923967,-0.008082613426959142
1772522056657010000,10.975010009765626,0.03343056043684482,-0.003784870567265898,-0.007105438957875594
1772522056667006700,10.9850068359375,0.04360767105817794,-0.0021366284362040458,-0.004017071887943893
1772522056677003000,10.9950029296875,0.04660100765526294,0.004738645894452929,-0.0005641092893201858
1772522056686999800,11.004999755859375,0.03836918588280678,-0.0009840426012873648,-0.007251724693924188
1772522056696996600,11.01499658203125,0.04495557853579521,0.013177680676802993,-0.0028459822819568215
1772522056706994000,11.024993896484375,0.06500877100527286,0.013086440463084726,-0.0037155225249473002
1772522056716990700,11.03499072265625,0.05378536620140075,0.008058748494181782,-0.014896741288062185
1772522056726987000,11.044987060546875,0.05378595072329044,0.00649840384228155,-0.005855119236372411
1772522056736983800,11.05498388671875,0.05034487035870552,0.00604859598185867,-0.013556076401984318
1772522056746980900,11.06498095703125,0.051394087150692935,0.010662282056082039,-0.009461409233184531
1772522056756978000,11.07497802734375,0.03912380364239216,0.00882381458254531,-0.011463040512334554
1772522056766974700,11.084974609375,0.03837561562359333,-0.005365618686378002,-0.006761630488885566
1772522056776970800,11.094970703125,0.05124912572205066,0.0070996028721332545,-0.008096285759285091
1772522056786967800,11.1049677734375,0.058735682085156435,0.012202570300642401,-0.00912970219394192
1772522056796964900,11.11496484375,0.03928630072772503,0.01082552806008607,-0.0020563388747628776
1772522056806961700,11.124961669921875,0.0355447761118412,0.011017342571448534,0.006059911960316821
1772522056816959000,11.134958984375,0.04945990421772003,0.012289590996969491,-0.001400715377088636
1772522056826954800,11.144954833984375,0.06531915212869643,0.009578322744276373,-0.007249003013875335
1772522056836951800,11.154951904296874,0.08266250111758708,0.007214004765730351,0.000616990254027769
1772522056846948900,11.164948974609375,0.07486731719672679,0.005229333754535764,0.008459967972524464
1772522056856945700,11.174945556640624,0.020545944422483444,0.005558145583793521,-0.003374344404460862
1772522056866941700,11.184941650390625,0.0007926116824150085,0.00617024960014969,0.009884676146553828
1772522056876938800,11.194938720703124,0.04269172525703907,0.0002509608200751245,0.006095896589150652
1772522056886935800,11.204935791015625,0.057658992764353746,0.0018109766784124076,0.0005246905943844467
1772522056896932900,11.214932861328125,0.057369069907069206,0.010106986260879785,0.004423570329602808
1772522056906929700,11.2249296875,0.03493687334656715,0.003908460414316505,0.004110549724521115
1772522056916926000,11.234926025390624,0.039729368320107455,0.004956398564670235,0.008832655476126819
1772522056926922800,11.2449228515625,0.07579495343565941,0.011379618278890847,-0.008190165454661473
