time,seconds_elapsed,z,y,x
1772608968707043300,0.074043212890625,-0.06310898810625076,0.1076379120349884,-0.07655791938304901
1772608968717041400,0.08404150390625,-0.08721891790628433,0.1737031638622284,-0.10217989981174469
1772608968727039200,0.094039306640625,-0.08695340156555176,0.23942092061042786,-0.12098129093647003
1772608968737037300,0.104037353515625,-0.07232733070850372,0.2774840295314789,-0.11469686776399612
1772608968747035400,0.114035400390625,-0.05147317796945572,0.2600453794002533,-0.06436605751514435
1772608968757032400,0.124032470703125,-0.01321334671229124,0.15514490008354187,0.04970062896609306
1772608968767030500,0.134030517578125,0.04096786677837372,0.047409653663635254,0.1508224457502365
1772608968777028400,0.1440283203125,0.07685595005750656,0.001248521264642477,0.17749489843845367
1772608968787026400,0.1540263671875,0.0672139823436737,-0.0038386487867683172,0.16452132165431976
1772608968797024500,0.1640244140625,0.03275240957736969,0.01250973530113697,0.13471873104572296
1772608968807022300,0.174022216796875,-0.003938226029276848,0.04272010177373886,0.12241466343402863
1772608968817020400,0.1840205078125,-0.008757184259593487,0.07518953830003738,0.08444558084011078
1772608968827017200,0.194017333984375,-0.03210538253188133,0.10337430238723755,0.04149038344621658
1772608968837015300,0.204015380859375,-0.06517431139945984,0.095506951212883,0.027562672272324562
1772608968847013400,0.214013427734375,-0.0961679145693779,0.057841867208480835,0.022933833301067352
1772608968857011200,0.22401123046875,-0.10767704993486404,0.03969632461667061,0.03780777379870415
1772608968867009300,0.23400927734375,-0.10426953434944153,0.04501252621412277,0.06945038586854935
1772608968877007400,0.24400732421875,-0.10281093418598175,0.06261274963617325,0.09991582483053207
1772608968887005400,0.25400537109375,-0.10070250928401947,0.048517439514398575,0.14420419931411743
1772608968897003500,0.26400341796875,-0.11022188514471054,0.01546973455697298,0.1773170530796051
1772608968907000300,0.274000244140625,-0.12247855216264725,-0.04635874554514885,0.1765679121017456
1772608968916998400,0.283998291015625,-0.1898387223482132,-0.20166383683681488,0.1482359766960144
1772608968926996500,0.29399658203125,-0.26316434144973755,-0.35587868094444275,0.1309797465801239
1772608968936994300,0.303994384765625,-0.2945556044578552,-0.4428350031375885,0.1595916748046875
1772608968946992400,0.313992431640625,-0.30420583486557007,-0.4786984622478485,0.1629195660352707
1772608968956990500,0.323990478515625,-0.3017483651638031,-0.4573357105255127,0.14155595004558563
1772608968966988300,0.33398828125,-0.2866692841053009,-0.43491724133491516,0.1258092075586319
1772608968976986400,0.343986328125,-0.2691120505332947,-0.3927748501300812,0.11222168058156967
1772608968986983400,0.3539833984375,-0.259190171957016,-0.36261534690856934,0.09351324290037155
1772608968996981500,0.3639814453125,-0.24663352966308594,-0.3598248064517975,0.0854523703455925
1772608969006979600,0.3739794921875,-0.23366153240203857,-0.40429824590682983,0.08149677515029907
1772608969016977400,0.383977294921875,-0.22670574486255646,-0.45316049456596375,0.0876358300447464
1772608969026975500,0.3939755859375,-0.2240934520959854,-0.4831863045692444,0.09230834245681763
1772608969036973600,0.4039736328125,-0.23477107286453247,-0.46788156032562256,0.09141329675912857
1772608969046971400,0.413971435546875,-0.2676038444042206,-0.3988058269023895,0.08748593181371689
1772608969056968400,0.423968505859375,-0.3142576813697815,-0.32720622420310974,0.10963146388530731
1772608969066966500,0.433966552734375,-0.3411841094493866,-0.15910936892032623,0.14183254539966583
1772608969076964400,0.44396435546875,-0.2983520030975342,0.07130696624517441,0.12701255083084106
1772608969086962400,0.45396240234375,-0.21111591160297394,0.23866000771522522,0.0941784456372261
1772608969096960300,0.463960205078125,-0.13514721393585205,0.29809316992759705,0.07932709902524948
1772608969106958300,0.473958251953125,-0.09340588748455048,0.3659273386001587,0.04994497448205948
1772608969116956400,0.483956298828125,-0.05826215073466301,0.608799934387207,-0.026358703151345253
1772608969126954200,0.493954345703125,-0.03769322857260704,0.7810150980949402,-0.11016198992729187
1772608969136951600,0.50395166015625,0.007956418208777905,0.8122446537017822,-0.07117905467748642
1772608969146949600,0.51394970703125,0.08172997087240219,0.7301641702651978,0.06417904049158096
1772608969156947500,0.523947509765625,0.22645607590675354,0.5771047472953796,0.14270378649234772
1772608969166945500,0.533945556640625,0.24291041493415833,0.38691937923431396,0.20710009336471558
1772608969176943400,0.543943359375,0.21408678591251373,0.2604772746562958,0.3829120993614197
1772608969186941400,0.55394140625,0.21685834228992462,0.2644517719745636,0.44305694103240967
1772608969196939500,0.563939453125,0.2672492563724518,0.31017938256263733,0.5237293243408203
1772608969206937300,0.573937255859375,0.362799733877182,0.25506100058555603,0.671754777431488
1772608969216934400,0.583934326171875,0.46232110261917114,0.18567857146263123,0.8791736960411072
1772608969226932500,0.593932373046875,0.5798884630203247,0.08262408524751663,1.093777060508728
1772608969236930300,0.603930419921875,0.6968867778778076,-0.09057679772377014,1.2585525512695312
1772608969246928400,0.613928466796875,0.7400811314582825,-0.1454344540834427,1.3039895296096802
1772608969256926200,0.62392626953125,0.6883358359336853,-0.04159123823046684,1.171622633934021
1772608969266924300,0.63392431640625,0.574556827545166,0.16506366431713104,0.9256957769393921
1772608969276922400,0.64392236328125,0.5183530449867249,0.35083919763565063,0.6105015277862549
1772608969286920200,0.653920166015625,0.4972030222415924,0.6889237761497498,0.2725716829299927
1772608969296917500,0.66391748046875,0.4825172424316406,0.43654921650886536,0.1272440403699875
1772608969306915600,0.67391552734375,0.4762183129787445,0.2677870988845825,0.08350401371717453
1772608969316913400,0.683913330078125,0.3778271973133087,0.038211528211832047,-0.10561349987983704
1772608969326911500,0.693911376953125,0.31196826696395874,-0.16334156692028046,-0.27207091450691223
1772608969336909600,0.70390966796875,0.3021831512451172,-0.395427405834198,-0.43219831585884094
1772608969346907400,0.713907470703125,0.33804529905319214,-0.568015992641449,-0.5747027397155762
1772608969356905500,0.723905517578125,0.33941835165023804,-0.9466313123703003,-0.6505549550056458
1772608969366902300,0.73390234375,0.2890926003456116,-1.202477216720581,-0.655105710029602
1772608969376900400,0.743900390625,0.13660787045955658,-1.336482286453247,-0.6799136996269226
1772608969386898400,0.7538984375,-0.007873951457440853,-1.393635869026184,-0.7683106660842896
1772608969396896300,0.763896240234375,-0.0986698791384697,-1.405232310295105,-0.8958052396774292
1772608969406894300,0.773894287109375,-0.029626894742250443,-0.8419937491416931,-1.0393118858337402
1772608969416892400,0.783892333984375,0.34038054943084717,0.32406726479530334,-0.9965559840202332
1772608969426890500,0.793890380859375,0.5593656897544861,0.671501100063324,-0.9947093725204468
1772608969436888600,0.803888671875,0.5696724057197571,0.6550180912017822,-0.8623383045196533
1772608969446885400,0.813885498046875,0.5444677472114563,0.795936644077301,-1.0731381177902222
1772608969456883500,0.823883544921875,0.7229995131492615,1.0639407634735107,-1.4365615844726562
1772608969466881500,0.833881591796875,0.920964241027832,1.0963994264602661,-1.8062124252319336
1772608969476879400,0.84387939453125,0.8744544982910156,1.1396961212158203,-1.9944829940795898
1772608969486877400,0.85387744140625,0.5894813537597656,1.1149386167526245,-1.9267600774765015
1772608969496875500,0.86387548828125,0.23268884420394897,0.8954230546951294,-1.6310513019561768
1772608969506873300,0.873873291015625,0.0008771838620305061,0.5067924857139587,-1.2475939989089966
1772608969516871400,0.883871337890625,-0.09577353298664093,0.032513439655303955,-0.9448723793029785
1772608969526868200,0.8938681640625,-0.17644120752811432,-0.31734737753868103,-0.745859682559967
1772608969536866300,0.9038662109375,-0.2895027697086334,-0.5037393569946289,-0.6439194679260254
1772608969546864400,0.913864501953125,-0.46302369236946106,-0.5832852721214294,-0.5951484441757202
1772608969556862500,0.923862548828125,-0.6677360534667969,-0.5242063999176025,-0.5663799047470093
1772608969566860500,0.933860595703125,-0.8360866904258728,-0.3244169056415558,-0.547497034072876
1772608969576858600,0.943858642578125,-0.9239929914474487,-0.0804607942700386,-0.4864293336868286
1772608969586856400,0.9538564453125,-0.9091194868087769,0.08988004177808762,-0.33208024501800537
1772608969596853500,0.963853515625,-0.8012577891349792,0.13559366762638092,-0.093722864985466
1772608969606851300,0.973851318359375,-0.6463637948036194,0.06852275133132935,0.19630976021289825
1772608969616849000,0.983848876953125,-0.49949705600738525,-0.057939667254686356,0.4914133548736572
1772608969626847000,0.993846923828125,-0.3814481496810913,-0.19783231616020203,0.7532010674476624
1772608969636845000,1.003844970703125,-0.3160074055194855,-0.3055729866027832,0.9374350309371948
1772608969646843000,1.0138427734375,-0.30750739574432373,-0.3463646173477173,1.003536581993103
1772608969656841000,1.023841064453125,-0.3527517318725586,-0.3198018968105316,0.9589880108833313
1772608969666839000,1.033839111328125,-0.43583518266677856,-0.19736039638519287,0.8398858308792114
1772608969676836000,1.043836181640625,-0.5183907747268677,-0.023730222135782242,0.6977497935295105
1772608969686834200,1.053834228515625,-0.5648064613342285,0.08219674229621887,0.5619446039199829
1772608969696832000,1.06383203125,-0.5741031169891357,0.07679595053195953,0.4864976704120636
1772608969706830000,1.073830078125,-0.5299644470214844,0.011229191906750202,0.5137692093849182
1772608969716828200,1.083828125,-0.39900389313697815,-0.021531693637371063,0.730197012424469
1772608969726826000,1.093825927734375,-0.26136186718940735,-0.027698509395122528,1.0270904302597046
1772608969736824000,1.103823974609375,-0.20266927778720856,-0.08285398781299591,1.2822202444076538
1772608969746822100,1.113822265625,-0.21443086862564087,-0.056083619594573975,1.4480373859405518
1772608969756819000,1.12381884765625,-0.2939437925815582,-0.07251115888357162,1.4113622903823853
1772608969766817000,1.133817138671875,-0.48734572529792786,-0.23748253285884857,1.2020117044448853
1772608969776814800,1.14381494140625,-0.7577599883079529,-0.4159720540046692,0.8848228454589844
1772608969786813000,1.15381298828125,-0.9787858724594116,-0.41061270236968994,0.5932740569114685
1772608969796811000,1.16381103515625,-1.066533088684082,-0.3047790825366974,0.4088045358657837
1772608969806808800,1.173808837890625,-0.9846814274787903,-0.22100643813610077,0.34307053685188293
1772608969816807000,1.183806884765625,-0.8179937601089478,-0.203184574842453,0.28916192054748535
1772608969826804000,1.193803955078125,-0.7069556713104248,-0.2859625518321991,0.17303717136383057
1772608969836802000,1.203802001953125,-0.6848324537277222,-0.48624005913734436,-0.020551880821585655
1772608969846800100,1.213800048828125,-0.6812552809715271,-0.7053660154342651,-0.24903005361557007
1772608969856798000,1.2237978515625,-0.6332136392593384,-0.8191428780555725,-0.449901282787323
1772608969866796000,1.233796142578125,-0.5258046388626099,-0.7892315983772278,-0.6095726490020752
1772608969876794000,1.243794189453125,-0.38455983996391296,-0.6980579495429993,-0.6994178295135498
1772608969886792000,1.2537919921875,-0.20920319855213165,-0.6828257441520691,-0.7636120319366455
1772608969896790000,1.2637900390625,-0.019207440316677094,-0.7608793377876282,-0.8787921667098999
1772608969906787000,1.273787109375,0.16050933301448822,-0.8348438143730164,-1.033647894859314
1772608969916785000,1.283784912109375,0.26380476355552673,-0.8172460198402405,-1.1790755987167358
1772608969926783000,1.293782958984375,0.24382174015045166,-0.714838445186615,-1.263040542602539
1772608969936781000,1.303781005859375,0.1161087304353714,-0.5256147384643555,-1.2902175188064575
1772608969946779100,1.313779052734375,-0.06505785882472992,-0.3370152711868286,-1.2667162418365479
1772608969956777200,1.323777099609375,-0.2194986343383789,-0.16511842608451843,-1.2140545845031738
1772608969966775000,1.333775146484375,-0.2951236069202423,-0.07839366048574448,-1.1142046451568604
1772608969976773000,1.343773193359375,-0.2650987207889557,-0.023882471024990082,-0.9257020354270935
1772608969986770200,1.353770263671875,-0.1847972422838211,-0.0231583584100008,-0.6754549145698547
1772608969996768000,1.36376806640625,-0.10962621122598648,-0.017444726079702377,-0.39468640089035034
1772608970006766000,1.37376611328125,-0.06754134595394135,0.04384925961494446,-0.16112209856510162
1772608970016764000,1.383763916015625,-0.05895500257611275,0.20468609035015106,0.02037096954882145
1772608970026762000,1.393761962890625,-0.07986800372600555,0.4025091826915741,0.16288204491138458
1772608970036760000,1.403760009765625,-0.11278568208217621,0.5556015372276306,0.2796986699104309
1772608970046758000,1.4137578125,-0.15241485834121704,0.6231438517570496,0.3889934718608856
1772608970056756000,1.423755859375,-0.16761429607868195,0.615505576133728,0.4910896420478821
1772608970066753000,1.4337529296875,-0.1488025188446045,0.5378326177597046,0.5883733034133911
1772608970076751000,1.443751220703125,-0.11777763068675995,0.4361274540424347,0.6698954105377197
1772608970086749200,1.453749267578125,-0.11066566407680511,0.34501194953918457,0.708584189414978
1772608970096747000,1.4637470703125,-0.10618231445550919,0.2983270287513733,0.7114583849906921
1772608970106745000,1.4737451171875,-0.07945643365383148,0.3150615096092224,0.703167200088501
1772608970116743200,1.4837431640625,-0.052112795412540436,0.360799103975296,0.7254418730735779
1772608970126741000,1.493740966796875,-0.020740492269396782,0.46385782957077026,0.7822103500366211
1772608970136738000,1.503738037109375,0.0323367565870285,0.5922206044197083,0.8612232208251953
1772608970146736000,1.513736083984375,0.043120160698890686,0.7057990431785583,0.9235121607780457
1772608970156734000,1.52373388671875,-0.002144438214600086,0.7771499156951904,0.9383519887924194
1772608970166732000,1.53373193359375,-0.08266830444335938,0.7658384442329407,0.9220750331878662
1772608970176730000,1.543730224609375,-0.14296013116836548,0.6319803595542908,0.8576815128326416
1772608970186728000,1.55372802734375,-0.17273667454719543,0.36328068375587463,0.738043487071991
1772608970196726000,1.56372607421875,-0.20736467838287354,0.07063232362270355,0.6573667526245117
1772608970206723800,1.573723876953125,-0.20406609773635864,-0.2437618374824524,0.7345675230026245
1772608970216721200,1.58372119140625,-0.15091565251350403,-0.5466876029968262,1.0301401615142822
1772608970226719200,1.59371923828125,-0.12772858142852783,-0.7392333745956421,1.5499436855316162
1772608970236717000,1.603717041015625,-0.15024982392787933,-0.9115591049194336,2.1558945178985596
1772608970246715100,1.613715087890625,-0.13922007381916046,-0.9922217130661011,2.550870656967163
1772608970256713200,1.623713134765625,-0.1320730447769165,-0.9858351945877075,2.413336753845215
1772608970266711000,1.6337109375,-0.08297819644212723,-1.19978666305542,1.7871909141540527
1772608970276709000,1.643709228515625,-0.023917848244309425,-1.7224476337432861,1.017943263053894
1772608970286707000,1.65370703125,-0.12456535547971725,-2.1676080226898193,0.3254753053188324
1772608970296704000,1.6637041015625,-0.49903810024261475,-2.1992411613464355,-0.0616203248500824
1772608970306702000,1.6737021484375,-0.930736780166626,-1.8462605476379395,-0.05610544979572296
1772608970316700000,1.683699951171875,-1.1116966009140015,-1.2566715478897095,0.058041684329509735
1772608970326698000,1.693697998046875,-0.8523210287094116,-0.6668702960014343,0.09390061348676682
1772608970336696000,1.703696044921875,-0.25924208760261536,-0.2014489769935608,0.06555362045764923
1772608970346694000,1.71369384765625,0.34407466650009155,-0.05045173689723015,0.0030585527420043945
1772608970356692000,1.72369189453125,0.6907330751419067,-0.1789529174566269,-0.09650026261806488
1772608970366689000,1.73368896484375,0.7203900218009949,-0.4581400752067566,-0.14455939829349518
1772608970376687000,1.74368701171875,0.6721781492233276,-0.7296658158302307,-0.14562076330184937
1772608970386685200,1.753685302734375,0.5971558094024658,-0.9252957701683044,-0.15391011536121368
1772608970396683000,1.76368310546875,0.581275999546051,-0.9384288787841797,-0.20108188688755035
1772608970406681000,1.77368115234375,0.564769983291626,-0.7444876432418823,-0.27517393231391907
1772608970416679200,1.78367919921875,0.5279474854469299,-0.44221267104148865,-0.3467838764190674
1772608970426677000,1.793677001953125,0.47601261734962463,-0.11676215380430222,-0.4068562686443329
1772608970436675000,1.803675048828125,0.37501904368400574,0.12105681002140045,-0.45258021354675293
1772608970446672000,1.813671875,0.26273244619369507,0.22186890244483948,-0.4619734287261963
1772608970456670000,1.823669921875,0.1631326526403427,0.3228912055492401,-0.44085612893104553
1772608970466668000,1.83366796875,0.06157006323337555,0.4091467261314392,-0.3392389416694641
1772608970476665900,1.843665771484375,-0.05880838632583618,0.45021575689315796,-0.16034191846847534
1772608970486664000,1.853663818359375,-0.16144873201847076,0.4997017979621887,0.03802391141653061
1772608970496662000,1.863662109375,-0.23904845118522644,0.5317769646644592,0.20255349576473236
1772608970506660000,1.87366015625,-0.2920677363872528,0.5204955339431763,0.29415103793144226
1772608970516658200,1.883658203125,-0.31647878885269165,0.45539066195487976,0.321599543094635
1772608970526655000,1.893655029296875,-0.36365005373954773,0.329132616519928,0.3039233386516571
1772608970536653000,1.903653076171875,-0.4210820496082306,0.2211194783449173,0.2793794274330139
1772608970546651100,1.913651123046875,-0.4634425640106201,0.1321704238653183,0.2853268086910248
1772608970556649000,1.92364892578125,-0.4956994354724884,0.07721220701932907,0.29821884632110596
1772608970566647000,1.93364697265625,-0.5257180333137512,0.12467639893293381,0.28952494263648987
1772608970576645000,1.94364501953125,-0.5693588852882385,0.27296003699302673,0.216239333152771
1772608970586643000,1.953642822265625,-0.5987207293510437,0.5157787799835205,0.10255856812000275
1772608970596641000,1.96364111328125,-0.5754344463348389,0.7594755291938782,-0.023052573204040527
1772608970606638000,1.97363818359375,-0.5289326906204224,0.9896016716957092,-0.1321478933095932
1772608970616635600,1.9836357421875,-0.4748179018497467,1.201001763343811,-0.18968968093395233
1772608970626633700,1.9936337890625,-0.43167975544929504,1.3053159713745117,-0.1980791687965393
1772608970636631800,2.0036318359375,-0.4058263599872589,1.2682167291641235,-0.12965354323387146
1772608970646629600,2.013629638671875,-0.39709439873695374,1.1857894659042358,0.030557431280612946
1772608970656627700,2.023627685546875,-0.3858198821544647,1.1769216060638428,0.22365780174732208
1772608970666625800,2.033625732421875,-0.37262392044067383,1.3044995069503784,0.36757025122642517
1772608970676622600,2.04362255859375,-0.3386024832725525,1.481293797492981,0.4402469992637634
1772608970686620700,2.05362060546875,-0.3117927014827728,1.5772671699523926,0.518567681312561
1772608970696618500,2.063618408203125,-0.3385343849658966,1.6217758655548096,0.7461703419685364
1772608970706616600,2.073616455078125,-0.3685514032840729,1.5799505710601807,1.122119426727295
1772608970716614700,2.08361474609375,-0.3093845248222351,1.3637189865112305,1.4669504165649414
1772608970726612500,2.093612548828125,-0.1003950908780098,1.0258277654647827,1.6796437501907349
1772608970736610600,2.103610595703125,0.184763103723526,0.6457957625389099,1.8002524375915527
1772608970746608600,2.113608642578125,0.39178818464279175,0.02235640585422516,1.7467397451400757
1772608970756605700,2.123605712890625,0.47035080194473267,-0.741689145565033,1.5266300439834595
1772608970766603800,2.133603759765625,0.49238234758377075,-1.34578537940979,1.2413798570632935
1772608970776601600,2.1436015625,0.5496564507484436,-1.6311085224151611,0.9242969155311584
1772608970786599700,2.153599609375,0.6380499601364136,-1.6121712923049927,0.5843265652656555
1772608970796597800,2.16359765625,0.7149604558944702,-1.3608405590057373,0.2358207255601883
1772608970806595600,2.173595703125,0.7688644528388977,-0.9657488465309143,-0.060262057930231094
1772608970816593700,2.18359375,0.7857913970947266,-0.48022156953811646,-0.21618711948394775
1772608970826591700,2.193591796875,0.7276641726493835,-0.04460965469479561,-0.22134777903556824
1772608970836588500,2.203588623046875,0.5617755651473999,0.2873435318470001,-0.1707940697669983
1772608970846586600,2.213586669921875,0.3425036072731018,0.4749273359775543,-0.15583598613739014
1772608970856584400,2.22358447265625,0.13070234656333923,0.5191501975059509,-0.20468014478683472
1772608970866582500,2.23358251953125,-0.033364083617925644,0.46878156065940857,-0.3211047649383545
1772608970876580600,2.24358056640625,-0.13437047600746155,0.38522958755493164,-0.4924415647983551
1772608970886578400,2.253578369140625,-0.1848815679550171,0.32670047879219055,-0.6743543744087219
1772608970896576800,2.26357666015625,-0.20356522500514984,0.3133784830570221,-0.8169430494308472
1772608970906573800,2.27357373046875,-0.1889902800321579,0.32601863145828247,-0.8747669458389282
1772608970916571600,2.283571533203125,-0.14582911133766174,0.3528490960597992,-0.8204152584075928
1772608970926569700,2.29356982421875,-0.10400788486003876,0.3579575717449188,-0.6679977178573608
1772608970936567800,2.30356787109375,-0.07083915174007416,0.3234717547893524,-0.42498308420181274
1772608970946565600,2.313565673828125,-0.037195704877376556,0.28046542406082153,-0.11703645437955856
1772608970956563700,2.323563720703125,0.0008662687614560127,0.2270045280456543,0.20034292340278625
1772608970966561500,2.3335615234375,0.0333765409886837,0.17846016585826874,0.4655812680721283
1772608970976559600,2.3435595703125,0.06136555224657059,0.16398125886917114,0.6481682658195496
1772608970986556700,2.353556640625,0.07127250730991364,0.160031259059906,0.7481356263160706
1772608970996554500,2.363554443359375,0.058771539479494095,0.13817179203033447,0.7704700827598572
1772608971006552600,2.373552490234375,0.033977508544921875,0.158196359872818,0.7572373747825623
1772608971016550700,2.383550537109375,0.008446276187896729,0.23043565452098846,0.7102051377296448
1772608971026548700,2.393548828125,-0.03157144784927368,0.3313390910625458,0.6055898070335388
1772608971036546800,2.403546875,-0.10442396253347397,0.42528095841407776,0.454891175031662
1772608971046544600,2.413544677734375,-0.19753526151180267,0.5159357786178589,0.3136581480503082
1772608971056542700,2.423542724609375,-0.2979969382286072,0.6286906003952026,0.20130112767219543
1772608971066539800,2.433539794921875,-0.37506935000419617,0.7700842022895813,0.140325665473938
1772608971076537600,2.44353759765625,-0.4154793620109558,0.9754408001899719,0.15849055349826813
1772608971086535700,2.45353564453125,-0.4284292757511139,1.1445982456207275,0.20567990839481354
1772608971096533800,2.46353369140625,-0.43869706988334656,1.2345771789550781,0.23653465509414673
1772608971106531600,2.473531494140625,-0.45791149139404297,1.2164032459259033,0.22756274044513702
1772608971116529700,2.48352978515625,-0.46491995453834534,1.1491740942001343,0.1993805170059204
1772608971126527500,2.493527587890625,-0.42584872245788574,1.0681923627853394,0.22769151628017426
1772608971136524800,2.50352490234375,-0.37426358461380005,0.8624264597892761,0.32006198167800903
1772608971146523000,2.51352294921875,-0.33218538761138916,0.6788622140884399,0.4708184599876404
1772608971156520700,2.523520751953125,-0.26895827054977417,0.6272205114364624,0.6501173973083496
1772608971166518800,2.533518798828125,-0.17582035064697266,0.6359029412269592,0.7505989670753479
1772608971176516900,2.543516845703125,-0.05906298756599426,0.4671361744403839,0.7231125831604004
1772608971186514700,2.5535146484375,0.042736079543828964,0.021932359784841537,0.5856596231460571
1772608971196512800,2.5635126953125,0.08720900118350983,-0.6322575807571411,0.3337697684764862
1772608971206510800,2.5735107421875,0.0381288044154644,-1.3780978918075562,-0.04116044566035271
1772608971216507600,2.583507568359375,-0.06636133790016174,-1.847771167755127,-0.4159628748893738
1772608971226505700,2.593505615234375,-0.10418301820755005,-1.8241994380950928,-0.7031288146972656
1772608971236503600,2.603503662109375,-0.056650035083293915,-1.403198003768921,-0.9389563798904419
1772608971246501600,2.613501708984375,0.028676845133304596,-0.9055543541908264,-1.1655181646347046
1772608971256499700,2.623499755859375,0.08946581184864044,-0.5942875742912292,-1.3951911926269531
1772608971266497500,2.63349755859375,0.11159001290798187,-0.4398505687713623,-1.593937873840332
1772608971276495600,2.64349560546875,0.0945143774151802,-0.41670921444892883,-1.7253810167312622
1772608971286493700,2.65349365234375,0.03979413956403732,-0.48278117179870605,-1.7768878936767578
1772608971296490800,2.66349072265625,-0.04198185354471207,-0.597496509552002,-1.783953070640564
1772608971306488800,2.67348876953125,-0.1428741216659546,-0.7318583130836487,-1.8032615184783936
1772608971316486700,2.683486572265625,-0.23560865223407745,-0.8303712010383606,-1.8457235097885132
1772608971326484700,2.693484619140625,-0.3023245632648468,-0.8795129060745239,-1.888925313949585
1772608971336482800,2.70348291015625,-0.33718621730804443,-0.8296261429786682,-1.9166730642318726
1772608971346480600,2.713480712890625,-0.33064016699790955,-0.6814270615577698,-1.923050045967102
1772608971356478700,2.723478759765625,-0.27897706627845764,-0.49211031198501587,-1.8964015245437622
1772608971366476800,2.733476806640625,-0.20720194280147552,-0.33996498584747314,-1.810562252998352
1772608971376473600,2.7434736328125,-0.11228296160697937,-0.20082378387451172,-1.6237417459487915
1772608971386471700,2.7534716796875,-0.004570884630084038,-0.0793471485376358,-1.337294578552246
1772608971396469500,2.763469482421875,0.08688984811306,0.0002899826504290104,-0.9842744469642639
1772608971406467600,2.773467529296875,0.14542800188064575,0.04408912733197212,-0.6205785274505615
1772608971416465700,2.783465576171875,0.18664973974227905,0.05889443680644035,-0.3337462246417999
1772608971426463500,2.79346337890625,0.21331384778022766,0.006695950403809547,-0.1582106202840805
1772608971436461600,2.803461669921875,0.2253815084695816,-0.10699883848428726,-0.06745197623968124
1772608971446458600,2.813458740234375,0.23784217238426208,-0.23993638157844543,-0.04393972083926201
1772608971456456700,2.823456787109375,0.24664267897605896,-0.37810543179512024,-0.08715067058801651
1772608971466454800,2.833454833984375,0.24122954905033112,-0.43733227252960205,-0.14314256608486176
1772608971476452600,2.84345263671875,0.23196206986904144,-0.40351587533950806,-0.15285639464855194
1772608971486450700,2.85345068359375,0.22279280424118042,-0.33430299162864685,-0.12382367998361588
1772608971496448800,2.86344873046875,0.23075655102729797,-0.22522099316120148,-0.05649133771657944
1772608971506446600,2.873446533203125,0.2549484372138977,-0.10590684413909912,0.05022765323519707
1772608971516444700,2.883444580078125,0.30072498321533203,0.018517281860113144,0.1856469213962555
1772608971526441500,2.89344140625,0.35917097330093384,0.16249656677246094,0.3604147136211395
1772608971536439600,2.903439453125,0.396541565656662,0.20409657061100006,0.5756301879882812
1772608971546437600,2.913437744140625,0.4059680700302124,0.15083815157413483,0.80272376537323
1772608971556435700,2.923435791015625,0.38312214612960815,0.04538688063621521,1.0065462589263916
1772608971566433800,2.933433837890625,0.34863927960395813,-0.07198342680931091,1.2260322570800781
1772608971576431900,2.943431884765625,0.3084309995174408,-0.10584212839603424,1.459600806236267
1772608971586429700,2.9534296875,0.20258420705795288,-0.03649740293622017,1.6502888202667236
1772608971596427800,2.963427734375,0.018174845725297928,0.02796991541981697,1.7426778078079224
1772608971606424600,2.973424560546875,-0.1654285341501236,0.13459542393684387,1.8066169023513794
1772608971616422700,2.983422607421875,-0.2160138487815857,0.2811926603317261,1.8549792766571045
1772608971626421500,2.99342138671875,-0.2128811776638031,0.34794744849205017,1.7948274612426758
1772608971636419600,3.003419677734375,-0.20426690578460693,0.3535371720790863,1.5666966438293457
1772608971646417700,3.013417724609375,-0.048257600516080856,0.22062891721725464,1.2181400060653687
1772608971656415500,3.02341552734375,0.08477237820625305,-0.5584360361099243,0.595761775970459
1772608971666413600,3.03341357421875,0.0003911880776286125,-1.643017292022705,-0.23287442326545715
1772608971676411600,3.04341162109375,-0.17580023407936096,-2.288217544555664,-0.8546729683876038
1772608971686408400,3.053408447265625,-0.2712537944316864,-2.1460235118865967,-1.1438120603561401
1772608971696406500,3.063406494140625,-0.19974078238010406,-1.4698617458343506,-1.2394061088562012
1772608971706404400,3.073404296875,0.015374178998172283,-0.5839983820915222,-1.199536919593811
1772608971716402400,3.08340234375,0.23864583671092987,0.17532846331596375,-1.0830800533294678
1772608971726400500,3.093400390625,0.367242693901062,0.55387282371521,-0.9786132574081421
1772608971736398300,3.1033984375,0.40339067578315735,0.5833230018615723,-0.8855239748954773
1772608971746396400,3.113396484375,0.36969101428985596,0.3622431457042694,-0.8081147074699402
1772608971756393500,3.1233935546875,0.28178614377975464,-0.0003394191153347492,-0.7557452917098999
1772608971766391600,3.1333916015625,0.1715507060289383,-0.3057478070259094,-0.713676929473877
1772608971776389600,3.1433896484375,0.07242970913648605,-0.4337984323501587,-0.6828542947769165
1772608971786387500,3.153387451171875,-0.0029625147581100464,-0.3785165250301361,-0.64112788438797
1772608971796385500,3.163385498046875,-0.07478614896535873,-0.21095336973667145,-0.5663268566131592
1772608971806383600,3.173383544921875,-0.16450032591819763,-0.04802864044904709,-0.4803306758403778
1772608971816381400,3.18338134765625,-0.26746153831481934,0.07868865132331848,-0.36307671666145325
1772608971826379500,3.193379638671875,-0.365886390209198,0.15436050295829773,-0.19195185601711273
1772608971836376300,3.203376220703125,-0.449404239654541,0.15849995613098145,-0.0002048797905445099
1772608971846374400,3.21337451171875,-0.504543125629425,0.07825411856174469,0.1765163540840149
1772608971856372500,3.22337255859375,-0.5450665950775146,-0.06158611178398132,0.3028436303138733
1772608971866370600,3.23337060546875,-0.5996904373168945,-0.22344158589839935,0.3598563075065613
1772608971876368600,3.24336865234375,-0.6718782186508179,-0.3822707235813141,0.35212311148643494
1772608971886366700,3.25336669921875,-0.7870585918426514,-0.43948259949684143,0.30797430872917175
1772608971896364500,3.263364501953125,-0.8804901242256165,-0.36445140838623047,0.2708108723163605
1772608971906362600,3.273362548828125,-0.9483922123908997,-0.2653416097164154,0.27195098996162415
1772608971916359400,3.283359375,-1.0049004554748535,-0.17029862105846405,0.3370504379272461
1772608971926357500,3.293357421875,-1.0377029180526733,-0.10360215604305267,0.44804486632347107
1772608971936355600,3.30335546875,-1.034390926361084,-0.08828186988830566,0.5825999975204468
1772608971946353400,3.313353515625,-0.979301929473877,-0.12903781235218048,0.7095792293548584
1772608971956351500,3.3233515625,-0.8516202569007874,-0.18031848967075348,0.7511851787567139
1772608971966349600,3.333349609375,-0.6686277985572815,-0.231910839676857,0.6463083028793335
1772608971976347400,3.343347412109375,-0.5103127956390381,-0.2730667293071747,0.4352430999279022
1772608971986344400,3.353344482421875,-0.4096285402774811,-0.2569652497768402,0.26309236884117126
1772608971996342800,3.3633427734375,-0.30443233251571655,-0.21838971972465515,0.16673806309700012
1772608972006340600,3.373340576171875,-0.17803606390953064,-0.21891355514526367,0.09536322206258774
1772608972016338700,3.383338623046875,-0.05897373706102371,-0.20103055238723755,0.13719697296619415
1772608972026336500,3.39333642578125,-0.0365360751748085,-0.2944771349430084,0.3674890100955963
1772608972036334600,3.40333447265625,-0.16740557551383972,-0.4440029561519623,0.9559569954872131
1772608972046332700,3.413332763671875,-0.3381941020488739,-0.6417288780212402,1.768669843673706
1772608972056330500,3.42333056640625,-0.4093836545944214,-1.0550569295883179,2.3007185459136963
1772608972066327600,3.43332763671875,-0.41112616658210754,-1.686408281326294,2.345623254776001
1772608972076325600,3.44332568359375,-0.4793736934661865,-2.237295389175415,2.1103718280792236
1772608972086323500,3.453323486328125,-0.4309518337249756,-2.4397826194763184,1.7465286254882812
1772608972096321500,3.463321533203125,-0.2076912820339203,-2.430689573287964,1.217189073562622
1772608972106319400,3.4733193359375,0.02598671242594719,-2.334291934967041,0.44841888546943665
1772608972116317400,3.4833173828125,0.24463315308094025,-1.8549730777740479,-0.2614074945449829
1772608972126315500,3.4933154296875,0.4474019706249237,-0.9191255569458008,-0.665031909942627
1772608972136313300,3.503313232421875,0.5978657603263855,0.15468664467334747,-0.7357502579689026
1772608972146310700,3.513310546875,0.656482994556427,0.8550931811332703,-0.6231720447540283
1772608972156308700,3.523308837890625,0.6429183483123779,1.109854817390442,-0.4707988202571869
1772608972166306600,3.533306640625,0.6103556156158447,0.958342432975769,-0.32261893153190613
1772608972176304600,3.5433046875,0.5354382395744324,0.5031647682189941,-0.23524972796440125
1772608972186302500,3.553302490234375,0.3939215838909149,-0.06089942529797554,-0.26588645577430725
1772608972196300500,3.563300537109375,0.20138198137283325,-0.5679966807365417,-0.43007373809814453
1772608972206298600,3.573298583984375,-0.00424361415207386,-0.8289057612419128,-0.6926755905151367
1772608972216296400,3.58329638671875,-0.16610313951969147,-0.8173130750656128,-0.9774031639099121
1772608972226293500,3.59329345703125,-0.2641705870628357,-0.5496498942375183,-1.2569358348846436
1772608972236291600,3.60329150390625,-0.31105124950408936,-0.19381654262542725,-1.507287621498108
1772608972246289400,3.613289306640625,-0.3301983177661896,0.15610924363136292,-1.6596624851226807
1772608972256287500,3.62328759765625,-0.33871811628341675,0.4041268527507782,-1.700758457183838
1772608972266285600,3.63328564453125,-0.3563404977321625,0.5253118872642517,-1.6417100429534912
1772608972276283400,3.643283447265625,-0.3919133245944977,0.5221319198608398,-1.4871395826339722
1772608972286281500,3.653281494140625,-0.4276635944843292,0.4162020683288574,-1.253149390220642
1772608972296279600,3.663279541015625,-0.46630480885505676,0.2686797082424164,-0.9402204751968384
1772608972306276600,3.673276611328125,-0.5195056796073914,0.10348755866289139,-0.5757993459701538
1772608972316274700,3.683274658203125,-0.5857462882995605,-0.03981536254286766,-0.19577668607234955
1772608972326272500,3.6932724609375,-0.6562987565994263,-0.11854799091815948,0.1504313200712204
1772608972336270600,3.7032705078125,-0.7409945726394653,-0.09414829313755035,0.3992093801498413
1772608972346268700,3.7132685546875,-0.8290812969207764,0.07743411511182785,0.47438961267471313
1772608972356266500,3.7232666015625,-0.8910114765167236,0.39363914728164673,0.3968946635723114
1772608972366264600,3.7332646484375,-0.9199935793876648,0.7149929404258728,0.24471767246723175
1772608972376261400,3.743261474609375,-0.9394476413726807,0.9365330338478088,0.0690230205655098
1772608972386259500,3.753259521484375,-0.9886178374290466,1.0635690689086914,-0.058803390711545944
1772608972396257500,3.763257568359375,-1.08446204662323,1.080967664718628,-0.1109524741768837
1772608972406255400,3.77325537109375,-1.2239289283752441,0.9804298281669617,-0.09530293941497803
1772608972416253400,3.78325341796875,-1.3769983053207397,0.8366517424583435,-0.02531842328608036
1772608972426251800,3.793251708984375,-1.460204005241394,0.740455687046051,0.06778382509946823
1772608972436249600,3.80324951171875,-1.4497249126434326,0.6986184120178223,0.13770225644111633
1772608972446247700,3.81324755859375,-1.3586558103561401,0.728300154209137,0.2504860460758209
1772608972456244500,3.823244384765625,-1.2160874605178833,0.8545817136764526,0.4603779911994934
1772608972466242600,3.83324267578125,-1.0342756509780884,0.9218404293060303,0.6834427714347839
1772608972476240600,3.84324072265625,-0.8029448986053467,0.9263285994529724,0.8394720554351807
1772608972486238500,3.853238525390625,-0.5822431445121765,0.8425183892250061,0.9163647294044495
1772608972496236500,3.863236572265625,-0.49090954661369324,0.6177215576171875,0.961520254611969
1772608972506234600,3.873234619140625,-0.5959877967834473,0.35409918427467346,1.0904358625411987
1772608972516232400,3.883232421875,-0.7921521663665771,0.10182291269302368,1.3197381496429443
1772608972526230500,3.89323046875,-0.9116165041923523,-0.2625041604042053,1.5369011163711548
1772608972536227600,3.9032275390625,-0.815847635269165,-0.6445058584213257,1.6854095458984375
1772608972546225700,3.9132255859375,-0.4549511969089508,-0.9496052861213684,1.7931187152862549
1772608972556223700,3.9232236328125,-0.031893692910671234,-1.3036185503005981,1.855290412902832
1772608972566221600,3.9332216796875,0.29055091738700867,-1.713137149810791,1.7584407329559326
1772608972576219600,3.9432197265625,0.47795966267585754,-1.9386001825332642,1.431168794631958
1772608972586217700,3.9532177734375,0.504108190536499,-1.7812385559082031,0.864358127117157
1772608972596215600,3.963215576171875,0.3930298984050751,-1.244646430015564,0.14139679074287415
1772608972606213600,3.973213623046875,0.25438863039016724,-0.5551050305366516,-0.6371567845344543
1772608972616210400,3.98321044921875,0.21456949412822723,0.02481919899582863,-1.3583735227584839
1772608972626208000,3.9932080078125,0.28227609395980835,0.3995976150035858,-1.973793625831604
1772608972636206000,4.0032060546875,0.31869566440582275,0.4946378171443939,-2.43861722946167
1772608972646204000,4.013203857421875,0.28473716974258423,0.4149448573589325,-2.713327646255493
1772608972656202000,4.023201904296875,0.24931378662586212,0.23131121695041656,-2.7974207401275635
1772608972666199800,4.03319970703125,0.2776399552822113,0.020779021084308624,-2.6749088764190674
1772608972676198000,4.043197998046875,0.3293362557888031,-0.20124855637550354,-2.298696517944336
1772608972686196000,4.053196044921875,0.3409329950809479,-0.2808499038219452,-1.7361398935317993
1772608972696193000,4.063193115234375,0.35077834129333496,-0.1990993767976761,-1.1692302227020264
1772608972706191000,4.073191162109375,0.38423988223075867,-0.09028314054012299,-0.6533142924308777
1772608972716189200,4.083189208984375,0.42360544204711914,-0.08242950588464737,-0.16985930502414703
1772608972726187000,4.09318701171875,0.4542757570743561,-0.1695883870124817,0.2776002287864685
1772608972736185000,4.10318505859375,0.5095747113227844,-0.29841601848602295,0.6343184113502502
1772608972746183200,4.11318310546875,0.5706207752227783,-0.42340323328971863,0.8973990678787231
1772608972756181000,4.123180908203125,0.6172723770141602,-0.5281038284301758,1.0900983810424805
1772608972766178000,4.133177978515625,0.5944679975509644,-0.5813417434692383,1.2301766872406006
1772608972776175900,4.14317578125,0.5084068775177002,-0.5070987343788147,1.2758787870407104
1772608972786174000,4.153174072265625,0.3969906270503998,-0.30789804458618164,1.1671442985534668
1772608972796172000,4.163172119140625,0.2687554657459259,-0.06290089339017868,0.9568119049072266
1772608972806170000,4.173170166015625,0.12850862741470337,0.19822098314762115,0.7293822169303894
1772608972816168200,4.183168212890625,-0.013370994478464127,0.3910731077194214,0.5426470041275024
1772608972826166300,4.193166259765625,-0.1523461937904358,0.48418548703193665,0.43718716502189636
1772608972836164000,4.2031640625,-0.25691747665405273,0.49685224890708923,0.4121623635292053
1772608972846161200,4.2131611328125,-0.31509581208229065,0.44886448979377747,0.43612441420555115
1772608972856159000,4.223158935546875,-0.3516964316368103,0.3687804043292999,0.49234917759895325
1772608972866157000,4.233156982421875,-0.3984239995479584,0.3086307942867279,0.5819101929664612
1772608972876155100,4.243155029296875,-0.4513857364654541,0.30828234553337097,0.6818026304244995
1772608972886153000,4.253153076171875,-0.5130746960639954,0.39597463607788086,0.7414329648017883
1772608972896151000,4.263151123046875,-0.6066465973854065,0.5076814889907837,0.7778696417808533
1772608972906149000,4.273149169921875,-0.7197899222373962,0.5874468684196472,0.8443847298622131
1772608972916147000,4.28314697265625,-0.8119691014289856,0.6128655672073364,0.9636319279670715
1772608972926144000,4.29314404296875,-0.8488882184028625,0.5380262136459351,1.0799704790115356
1772608972936142000,4.30314208984375,-0.8698915243148804,0.40276026725769043,1.1234660148620605
1772608972946140200,4.31314013671875,-0.9816534519195557,0.2531827688217163,0.9668216109275818
1772608972956138200,4.32313818359375,-1.1899226903915405,0.06381445378065109,0.5274475812911987
1772608972966136000,4.333135986328125,-1.4335312843322754,-0.2861451506614685,-0.2030514031648636
1772608972976134100,4.343134033203125,-1.657536506652832,-0.6130239963531494,-0.9799660444259644
1772608972986132200,4.35313232421875,-1.9051982164382935,-0.9746951460838318,-1.48527193069458
1772608972996130000,4.363130126953125,-2.174959182739258,-1.2646123170852661,-1.6265714168548584
1772608973006127000,4.373127197265625,-2.2735235691070557,-1.1652836799621582,-1.372897982597351
1772608973016125000,4.383125,-2.1688051223754883,-0.9299001097679138,-0.8403065800666809
1772608973026123000,4.393123046875,-1.9286553859710693,-0.7244734764099121,-0.25748366117477417
1772608973036121000,4.40312109375,-1.54678213596344,-0.6831088066101074,0.03323481231927872
1772608973046119000,4.413118896484375,-1.0368150472640991,-0.7949407696723938,-0.09468694031238556
1772608973056117000,4.423116943359375,-0.6140584945678711,-0.7731050252914429,-0.42359262704849243
1772608973066115000,4.433114990234375,-0.35598039627075195,-0.43688252568244934,-0.6549227833747864
1772608973076113000,4.44311279296875,-0.25099441409111023,0.03532705828547478,-0.7577350735664368
1772608973086110200,4.453110107421875,-0.23962244391441345,0.4398071765899658,-0.9123268127441406
1772608973096108000,4.46310791015625,-0.2168966680765152,0.7400833964347839,-1.225464940071106
1772608973106106000,4.473106201171875,-0.18064838647842407,0.9120942950248718,-1.6492263078689575
1772608973116104200,4.483104248046875,-0.16965711116790771,0.9391201734542847,-2.061379909515381
1772608973126102000,4.49310205078125,-0.14104463160037994,0.7781858444213867,-2.3578948974609375
1772608973136100000,4.50310009765625,-0.0398324579000473,0.4426628649234772,-2.4743871688842773
1772608973146098200,4.51309814453125,0.16391295194625854,0.034971799701452255,-2.37721848487854
1772608973156095000,4.523094970703125,0.46179893612861633,-0.3584000766277313,-2.0764107704162598
1772608973166093000,4.533093017578125,0.7991968989372253,-0.6968694925308228,-1.6204644441604614
1772608973176091000,4.5430908203125,1.115596055984497,-0.928611159324646,-1.0970090627670288
1772608973186089000,4.5530888671875,1.3633482456207275,-0.9567996859550476,-0.6182358860969543
1772608973196087000,4.563087158203125,1.534566879272461,-0.7797664999961853,-0.23715558648109436
1772608973206084900,4.5730849609375,1.6135450601577759,-0.5273739099502563,0.04312480613589287
1772608973216083000,4.5830830078125,1.5987621545791626,-0.2777728736400604,0.25346073508262634
1772608973226081000,4.5930810546875,1.5125417709350586,-0.09306402504444122,0.447228342294693
1772608973236078000,4.603078125,1.3868972063064575,0.0068910694681108,0.6358294486999512
1772608973246076200,4.613076171875,1.227479338645935,0.020656948909163475,0.8187966346740723
1772608973256074000,4.623073974609375,1.0604499578475952,-0.018027516081929207,0.9978975653648376
1772608973266072000,4.633072021484375,0.9035653471946716,-0.06238193064928055,1.184718132019043
1772608973276070100,4.643070068359375,0.7614371180534363,-0.08375094830989838,1.3640774488449097
1772608973286068000,4.65306787109375,0.5984606742858887,-0.07743500173091888,1.5126597881317139
1772608973296066000,4.663066162109375,0.4175192415714264,-0.017576467245817184,1.6256204843521118
1772608973306064100,4.673064208984375,0.25250443816185,0.13506980240345,1.6544811725616455
1772608973316061000,4.68306103515625,0.11400029808282852,0.34483644366264343,1.5917538404464722
1772608973326059000,4.69305908203125,-0.006403612904250622,0.5283229351043701,1.4764022827148438
1772608973336056800,4.703056884765625,-0.10753272473812103,0.6933624148368835,1.345237374305725
1772608973346055000,4.713054931640625,-0.1783435046672821,0.8148902058601379,1.236031174659729
1772608973356053000,4.723052978515625,-0.20312681794166565,0.8982992768287659,1.1522070169448853
1772608973366051000,4.733051025390625,-0.1933242529630661,0.9161965250968933,1.0926063060760498
1772608973376049200,4.743049072265625,-0.18910762667655945,0.900019645690918,1.0661224126815796
1772608973386047200,4.753047119140625,-0.21574242413043976,0.9577319622039795,1.1188982725143433
1772608973396044000,4.7630439453125,-0.31320053339004517,1.0933727025985718,1.2441235780715942
1772608973406042000,4.7730419921875,-0.4745335876941681,1.1582857370376587,1.4015032052993774
1772608973416040000,4.7830400390625,-0.6747595071792603,0.9895818829536438,1.5244258642196655
1772608973426038000,4.7930380859375,-0.8663156032562256,0.5307208299636841,1.563687801361084
1772608973436036000,4.8030361328125,-1.0350737571716309,-0.15935027599334717,1.523221731185913
1772608973446034000,4.813033935546875,-1.21820068359375,-0.8437666893005371,1.4219293594360352
1772608973456032000,4.823031982421875,-1.3587192296981812,-1.4283808469772339,1.2749184370040894
1772608973466030000,4.833030029296875,-1.3989169597625732,-1.8270379304885864,1.170333981513977
1772608973476027100,4.843027099609375,-1.399505376815796,-1.9264219999313354,1.137239933013916
1772608973486025200,4.853025146484375,-1.3148837089538574,-1.6775975227355957,1.0135600566864014
1772608973496023000,4.86302294921875,-1.1095221042633057,-1.1865456104278564,0.7932975888252258
1772608973506021000,4.873021240234375,-0.9139561057090759,-0.6170286536216736,0.5771304368972778
1772608973516019200,4.883019287109375,-0.7269266843795776,-0.07909823209047318,0.37797972559928894
1772608973526017000,4.89301708984375,-0.499407559633255,0.21777606010437012,0.16237980127334595
1772608973536015000,4.90301513671875,-0.29478639364242554,0.3119353950023651,0.015805520117282867
1772608973546013200,4.91301318359375,-0.14149881899356842,0.237674742937088,-0.0769776776432991
1772608973556010000,4.923010009765625,-0.05749630182981491,-0.007600073702633381,-0.1877991110086441
1772608973566008000,4.933008056640625,-0.04281908646225929,-0.35202082991600037,-0.3975480794906616
1772608973576006000,4.943005859375,-0.027514802291989326,-0.7221867442131042,-0.7196675539016724
1772608973586004000,4.95300390625,0.035807713866233826,-1.0599974393844604,-1.0833019018173218
1772608973596002000,4.963001953125,0.15274782478809357,-1.203883171081543,-1.4063788652420044
1772608973605999900,4.972999755859375,0.29277125000953674,-1.074729084968567,-1.6811140775680542
1772608973615998000,4.982998046875,0.41939595341682434,-0.7003569006919861,-1.9331804513931274
1772608973625995000,4.9929951171875,0.5287027359008789,-0.16382500529289246,-2.125821352005005
1772608973635992800,5.002992919921875,0.5944385528564453,0.3725177049636841,-2.217620849609375
1772608973645991000,5.012990966796875,0.6115583777427673,0.8097794055938721,-2.1850180625915527
1772608973655989000,5.022989013671875,0.6268697381019592,1.0682483911514282,-2.007843494415283
1772608973665986800,5.03298681640625,0.6448122262954712,1.1218682527542114,-1.686271071434021
1772608973675985000,5.04298486328125,0.6737731099128723,0.9859214425086975,-1.2545748949050903
1772608973685983000,5.05298291015625,0.7096986174583435,0.7178177833557129,-0.7702572345733643
1772608973695980800,5.062980712890625,0.7045896649360657,0.45457422733306885,-0.27424541115760803
1772608973705977900,5.072977783203125,0.6460443735122681,0.2426542341709137,0.1882268786430359
1772608973715975700,5.0829755859375,0.5516703128814697,0.10361078381538391,0.5789414644241333
1772608973725973800,5.092973876953125,0.4463859796524048,0.060409244149923325,0.8894266486167908
1772608973735971800,5.102971923828125,0.3536596894264221,0.12573692202568054,1.1094051599502563
1772608973745969700,5.1129697265625,0.25914889574050903,0.2935408651828766,1.2159907817840576
1772608973755967700,5.1229677734375,0.166060209274292,0.5289996266365051,1.196801781654358
1772608973765965800,5.1329658203125,0.07702115178108215,0.7641106247901917,1.086668848991394
1772608973775964000,5.1429638671875,0.000185282900929451,0.9345250725746155,0.9447869062423706
1772608973785961000,5.1529609375,-0.06669947504997253,0.9880985617637634,0.8516412377357483
1772608973795958800,5.162958740234375,-0.10182322561740875,0.9416249394416809,0.8582482933998108
1772608973805956900,5.172956787109375,-0.09526626020669937,0.8610552549362183,0.9469088912010193
1772608973815955000,5.182954833984375,-0.024844035506248474,0.7823851108551025,1.042669415473938
1772608973825952800,5.192952880859375,0.11693041026592255,0.7528564929962158,1.1116442680358887
1772608973835950800,5.202950927734375,0.2716725766658783,0.7236179113388062,1.1623420715332031
1772608973845949000,5.212948974609375,0.36914879083633423,0.7335389852523804,1.2152931690216064
1772608973855946800,5.22294677734375,0.3996812105178833,0.739953339099884,1.2712312936782837
1772608973865943800,5.23294384765625,0.33566948771476746,0.7338211536407471,1.2858318090438843
1772608973875941600,5.242941650390625,0.15443487465381622,0.6464678645133972,1.250269889831543
1772608973885939700,5.252939697265625,-0.09802320599555969,0.38318562507629395,1.2233991622924805
1772608973895937800,5.262937744140625,-0.292913019657135,0.03508782386779785,1.3030275106430054
1772608973905936000,5.272935791015625,-0.3771863579750061,-0.2826366126537323,1.4677456617355347
1772608973915934000,5.282933837890625,-0.39856910705566406,-0.5828116536140442,1.611772894859314
1772608973925932000,5.29293212890625,-0.37238916754722595,-0.9451711773872375,1.7628297805786133
1772608973935929900,5.302929931640625,-0.2261037677526474,-1.3155388832092285,1.9377065896987915
1772608973945927000,5.312927001953125,-0.010716351680457592,-1.62929368019104,1.9336849451065063
1772608973955924700,5.3229248046875,0.176435649394989,-1.8442274332046509,1.618807077407837
1772608973965921800,5.332921875,0.3180164694786072,-1.8158279657363892,1.1687772274017334
1772608973975919600,5.342919677734375,0.4043272137641907,-1.4854477643966675,0.7718590497970581
1772608973985917700,5.352917724609375,0.4612935483455658,-0.9807907938957214,0.4436359107494354
1772608973995915800,5.362915771484375,0.49889734387397766,-0.5275514125823975,0.19134961068630219
1772608974005913900,5.372913818359375,0.5056926608085632,-0.25346818566322327,-0.010878054425120354
1772608974015912000,5.382911865234375,0.48818376660346985,-0.15130487084388733,-0.18609949946403503
1772608974025910000,5.392909912109375,0.4816443622112274,-0.23089557886123657,-0.4271121323108673
1772608974035907800,5.402907958984375,0.5165402293205261,-0.502115786075592,-0.7668445110321045
1772608974045905000,5.41290478515625,0.5724644660949707,-0.8840554356575012,-1.169911503791809
1772608974055902700,5.42290283203125,0.5948112607002258,-1.21890389919281,-1.59501051902771
1772608974065900800,5.43290087890625,0.5969676375389099,-1.3639260530471802,-2.0386526584625244
1772608974075899000,5.44289892578125,0.5819651484489441,-1.2309956550598145,-2.4376378059387207
1772608974085896700,5.452896728515625,0.5604409575462341,-0.8962843418121338,-2.7450857162475586
1772608974095894800,5.462894775390625,0.5287905335426331,-0.46918749809265137,-2.936246871948242
1772608974105892900,5.472892822265625,0.46078354120254517,0.030101139098405838,-3.0127644538879395
1772608974115890700,5.482890625,0.3998332619667053,0.5912556052207947,-2.9629383087158203
1772608974125887700,5.4928876953125,0.39533066749572754,1.0829516649246216,-2.802032232284546
1772608974135885800,5.5028857421875,0.4137381613254547,1.3868135213851929,-2.524411678314209
1772608974145884000,5.5128837890625,0.43531936407089233,1.476688027381897,-2.1179683208465576
1772608974155882000,5.522882080078125,0.4627012312412262,1.411556601524353,-1.6195435523986816
1772608974165879800,5.5328798828125,0.49302157759666443,1.2366013526916504,-1.071314811706543
1772608974175878000,5.5428779296875,0.49837762117385864,1.0197315216064453,-0.5228320956230164
1772608974185876000,5.5528759765625,0.4764329195022583,0.8406861424446106,-0.012405579909682274
1772608974195872800,5.562872802734375,0.44370490312576294,0.705517053604126,0.4030987322330475
1772608974205870800,5.572870849609375,0.41098397970199585,0.5797806978225708,0.7290520668029785
1772608974215869000,5.582868896484375,0.39233899116516113,0.4326041042804718,0.9768850803375244
1772608974225866800,5.59286669921875,0.3896920680999756,0.2731292247772217,1.1312757730484009
1772608974235864800,5.60286474609375,0.3980399966239929,0.12624329328536987,1.1790904998779297
1772608974245862700,5.612862548828125,0.40516340732574463,0.07540488243103027,1.1608524322509766
1772608974255860700,5.62286083984375,0.4197554588317871,0.18796274065971375,1.123713493347168
1772608974265858800,5.63285888671875,0.4510050117969513,0.3956323266029358,1.1091257333755493
1772608974275856000,5.64285595703125,0.5064858198165894,0.5933994650840759,1.1269172430038452
1772608974285854000,5.65285400390625,0.5718357563018799,0.7388863563537598,1.1990140676498413
1772608974295852000,5.66285205078125,0.6698088645935059,0.772144079208374,1.33261239528656
1772608974305849900,5.672849853515625,0.7850430607795715,0.6818549633026123,1.4815213680267334
1772608974315848000,5.682847900390625,0.8707342743873596,0.5123857259750366,1.6176069974899292
1772608974325845800,5.692845703125,0.8579380512237549,0.3467138707637787,1.7272651195526123
1772608974335846000,5.702845947265625,0.6976152062416077,0.2291509509086609,1.7819620370864868
1772608974345843700,5.71284375,0.36331549286842346,0.1497890055179596,1.768641471862793
1772608974355841800,5.722841796875,-0.10809856653213501,0.04348795861005783,1.717180609703064
1772608974365839600,5.732839599609375,-0.5392124056816101,-0.04092945158481598,1.6479424238204956
1772608974375837000,5.7428369140625,-0.7949851155281067,-0.01837061159312725,1.5331685543060303
1772608974385835000,5.7528349609375,-0.8588426113128662,0.004020713735371828,1.3736332654953003
1772608974395832800,5.762832763671875,-0.793612003326416,-0.011831125244498253,1.1868455410003662
1772608974405831000,5.772830810546875,-0.6302995085716248,-0.04922457039356232,1.004908800125122
1772608974415829000,5.7828291015625,-0.4396408200263977,-0.18526427447795868,0.6987252235412598
1772608974425826800,5.792826904296875,-0.27262014150619507,-0.3315970003604889,0.22015362977981567
1772608974435825000,5.802824951171875,-0.1295423060655594,-0.3424036502838135,-0.2899264991283417
1772608974445822700,5.81282275390625,-0.01939370110630989,-0.2148752212524414,-0.7381098866462708
1772608974455819800,5.82281982421875,0.02335534803569317,-0.10771983861923218,-1.1336042881011963
1772608974465817900,5.83281787109375,0.022487957030534744,-0.14969073235988617,-1.4593709707260132
1772608974475815700,5.842815673828125,-0.028889823704957962,-0.3340141475200653,-1.6839405298233032
1772608974485813800,5.852813720703125,-0.1728198379278183,-0.5652297735214233,-1.8064900636672974
1772608974495811800,5.862811767578125,-0.3777819871902466,-0.7901371121406555,-1.8672442436218262
1772608974505809700,5.8728095703125,-0.5620929598808289,-0.9204333424568176,-1.8813315629959106
1772608974515807700,5.882807861328125,-0.6775662899017334,-0.951162576675415,-1.8454301357269287
1772608974525805800,5.892805908203125,-0.7332367300987244,-0.9338280558586121,-1.7533100843429565
1772608974535803000,5.902802978515625,-0.7286460995674133,-0.8328832387924194,-1.5725698471069336
1772608974545801000,5.912801025390625,-0.6438441276550293,-0.620107889175415,-1.3362598419189453
1772608974555798800,5.922798828125,-0.4871290624141693,-0.34979695081710815,-1.0994864702224731
1772608974565796900,5.932796875,-0.29097020626068115,-0.11763560026884079,-0.8787341117858887
1772608974575795000,5.942794921875,-0.10333149135112762,0.03822964057326317,-0.6938180923461914
1772608974585792800,5.952792724609375,0.03216268867254257,0.04148189350962639,-0.564142644405365
1772608974595790800,5.962790771484375,0.10062196105718613,-0.10364804416894913,-0.4840531647205353
1772608974605789000,5.972788818359375,0.10589129477739334,-0.3092139959335327,-0.4459473192691803
1772608974615785700,5.98278564453125,0.08806467056274414,-0.4205538332462311,-0.4376657009124756
1772608974625783800,5.99278369140625,0.0702555775642395,-0.3866342008113861,-0.39408040046691895
1772608974635782000,6.002781982421875,0.06489255279302597,-0.27727362513542175,-0.30424219369888306
1772608974645779700,6.01277978515625,0.09429757297039032,-0.1293635368347168,-0.17301785945892334
1772608974655777800,6.02277783203125,0.14883245527744293,-0.009167084470391273,-0.027250275015830994
1772608974665775900,6.03277587890625,0.17573145031929016,0.0674629807472229,0.1315699964761734
1772608974675773700,6.042773681640625,0.16347463428974152,0.1447150558233261,0.2873399555683136
1772608974685771800,6.052771728515625,0.1351202130317688,0.23198364675045013,0.42350417375564575
1772608974695768600,6.0627685546875,0.11364156007766724,0.2903936803340912,0.5319283604621887
1772608974705766700,6.0727666015625,0.09987141937017441,0.32259610295295715,0.619024932384491
1772608974715764700,6.0827646484375,0.07635889202356339,0.3477778136730194,0.6725552082061768
1772608974725762600,6.092762451171875,0.05201467499136925,0.3792579770088196,0.7024603486061096
1772608974735760600,6.1027607421875,0.05245485156774521,0.42817890644073486,0.7373632788658142
1772608974745758700,6.1127587890625,0.0722314864397049,0.46123725175857544,0.7963206171989441
1772608974755756500,6.122756591796875,0.09892650693655014,0.4950804114341736,0.8774641156196594
1772608974765753900,6.13275390625,0.14395204186439514,0.5069013833999634,0.971055805683136
1772608974775751700,6.142751708984375,0.20851759612560272,0.5258087515830994,1.107597827911377
1772608974785749800,6.152749755859375,0.24859976768493652,0.4927206039428711,1.3128820657730103
1772608974795747800,6.162747802734375,0.20015037059783936,0.39173710346221924,1.5402930974960327
1772608974805745700,6.17274560546875,0.007559606805443764,0.23789188265800476,1.6789087057113647
1772608974815743700,6.18274365234375,-0.29027703404426575,0.07628095149993896,1.6341800689697266
1772608974825741800,6.192741943359375,-0.546268880367279,0.0009276103228330612,1.4414277076721191
1772608974835739600,6.20273974609375,-0.6807134747505188,-0.01243923231959343,1.1885185241699219
1772608974845737700,6.21273779296875,-0.7065618634223938,-0.07982999086380005,0.9244166016578674
1772608974855734500,6.222734619140625,-0.6472993493080139,-0.27272897958755493,0.6355378031730652
1772608974865732600,6.232732666015625,-0.4798128306865692,-0.5040783286094666,0.3215159475803375
1772608974875730700,6.242730712890625,-0.26471060514450073,-0.7954712510108948,-0.08329731971025467
1772608974885728500,6.252728515625,-0.08688974380493164,-1.032091736793518,-0.5052120685577393
1772608974895726600,6.2627265625,0.027685202658176422,-1.0527260303497314,-0.7917525172233582
1772608974905724700,6.272724609375,0.07322072982788086,-0.9006944298744202,-0.9357317686080933
1772608974915722500,6.282722412109375,0.0707973837852478,-0.6280165910720825,-0.9649076461791992
1772608974925720600,6.292720458984375,0.06286223232746124,-0.40501731634140015,-0.9664434790611267
1772608974935717600,6.302717529296875,0.027035273611545563,-0.26269203424453735,-0.9873854517936707
1772608974945715700,6.3127158203125,-0.04032272845506668,-0.1681961566209793,-1.0408798456192017
1772608974955713800,6.3227138671875,-0.12182287126779556,-0.11847121268510818,-1.1519744396209717
1772608974965711600,6.332711669921875,-0.21232107281684875,-0.07946495711803436,-1.324850082397461
1772608974975709700,6.342709716796875,-0.3033521771430969,-0.0737563744187355,-1.5119402408599854
1772608974985707800,6.352707763671875,-0.4168981909751892,-0.11957180500030518,-1.6692949533462524
1772608974995705600,6.36270556640625,-0.5166311264038086,-0.21179787814617157,-1.7716124057769775
1772608975005703700,6.37270361328125,-0.5506572723388672,-0.3129010498523712,-1.8150893449783325
1772608975015700500,6.382700439453125,-0.4847317934036255,-0.3594028651714325,-1.7674366235733032
1772608975025698600,6.392698486328125,-0.3272220492362976,-0.32334473729133606,-1.6110749244689941
1772608975035696600,6.402696533203125,-0.12752126157283783,-0.22665371000766754,-1.3895434141159058
1772608975045694500,6.412694580078125,0.05565522611141205,-0.0938623696565628,-1.1285313367843628
1772608975055692800,6.42269287109375,0.20215435326099396,0.024259308353066444,-0.827543318271637
1772608975065691000,6.43269091796875,0.3008585572242737,0.07584153860807419,-0.5234268307685852
1772608975075688700,6.442688720703125,0.3577101230621338,0.07800056785345078,-0.23137979209423065
1772608975085686800,6.452686767578125,0.37537485361099243,0.030957689508795738,0.022520648315548897
1772608975095683600,6.46268359375,0.36659613251686096,-0.04127007722854614,0.22689054906368256
1772608975105681700,6.472681640625,0.3529253304004669,-0.11318208277225494,0.3739151358604431
1772608975115679700,6.4826796875,0.3338354229927063,-0.17848767340183258,0.450166255235672
1772608975125677600,6.492677490234375,0.30822059512138367,-0.17626208066940308,0.48957890272140503
1772608975135675600,6.502675537109375,0.2757761478424072,-0.11464904248714447,0.5036627054214478
1772608975145673700,6.512673828125,0.22583337128162384,-0.03527938947081566,0.4919131100177765
1772608975155671600,6.522671630859375,0.1587516814470291,0.015725556761026382,0.48142844438552856
1772608975165669600,6.532669677734375,0.08145103603601456,0.1347629874944687,0.48780620098114014
1772608975175666700,6.542666748046875,0.025338273495435715,0.32689356803894043,0.4365277588367462
1772608975185664800,6.552664794921875,0.01712961122393608,0.5376193523406982,0.33183038234710693
1772608975195662800,6.562662841796875,0.06351478397846222,0.7577293515205383,0.21016035974025726
1772608975205660700,6.57266064453125,0.12936490774154663,1.0129283666610718,0.08676811307668686
1772608975215658800,6.58265869140625,0.17972883582115173,1.3016047477722168,-0.046298880130052567
1772608975225656800,6.59265673828125,0.24946051836013794,1.5907355546951294,-0.2108907550573349
1772608975235654700,6.602654541015625,0.3322813808917999,1.8511255979537964,-0.3564877212047577
1772608975245652700,6.61265283203125,0.35705944895744324,2.1370534896850586,-0.44007638096809387
1772608975255649500,6.6226494140625,0.32540664076805115,2.3685977458953857,-0.5131874680519104
1772608975265647600,6.632647705078125,0.2641563415527344,2.3959851264953613,-0.639869749546051
1772608975275645700,6.642645751953125,0.21892890334129333,2.1925010681152344,-0.7710415124893188
1772608975285643500,6.6526435546875,0.2533198893070221,1.9300469160079956,-0.8248240351676941
1772608975295641600,6.6626416015625,0.29850006103515625,1.575435757637024,-0.8657110929489136
1772608975305639700,6.6726396484375,0.28896117210388184,1.1890472173690796,-0.8120047450065613
1772608975315637500,6.682637451171875,0.29413339495658875,0.7479050159454346,-0.5472403168678284
1772608975325635600,6.692635498046875,0.30944204330444336,0.18403148651123047,-0.11866312474012375
1772608975335632600,6.702632568359375,0.2438071221113205,-0.5507509708404541,0.3001377284526825
1772608975345630700,6.712630615234375,0.12954553961753845,-1.3880802392959595,0.463168203830719
1772608975355628800,6.72262890625,0.10670687258243561,-2.112614631652832,0.45557326078414917
1772608975365626600,6.732626708984375,0.1641656458377838,-2.4479002952575684,0.519626796245575
1772608975375624700,6.742624755859375,0.29684245586395264,-2.374943494796753,0.6858972311019897
1772608975385622800,6.752622802734375,0.4655981659889221,-2.020081043243408,0.8511841893196106
1772608975395620600,6.76262060546875,0.5819770097732544,-1.6349294185638428,0.9460428953170776
1772608975405618700,6.77261865234375,0.5500984787940979,-1.4020158052444458,1.0087894201278687
1772608975415615500,6.782615478515625,0.40959012508392334,-1.2003720998764038,1.0739580392837524
1772608975425613600,6.792613525390625,0.23827695846557617,-1.0171799659729004,1.085591435432434
1772608975435611600,6.802611572265625,0.04670223221182823,-0.9591344594955444,0.9799723029136658
1772608975445609500,6.812609375,-0.1818332076072693,-1.0573763847351074,0.7231397032737732
1772608975455607600,6.822607666015625,-0.4249676764011383,-1.1775909662246704,0.21672391891479492
1772608975465605600,6.832605712890625,-0.5910903215408325,-1.1440860033035278,-0.5137492418289185
1772608975475603500,6.842603515625,-0.6199565529823303,-0.8933041095733643,-1.3074966669082642
1772608975485601500,6.8526015625,-0.5378840565681458,-0.529815673828125,-1.9403135776519775
1772608975495598600,6.8625986328125,-0.4121081233024597,-0.14909054338932037,-2.276702880859375
1772608975505596700,6.8725966796875,-0.24810026586055756,0.15851254761219025,-2.2952828407287598
1772608975515594800,6.8825947265625,-0.04367583990097046,0.3362477421760559,-2.006929636001587
1772608975525592600,6.892592529296875,0.1652078628540039,0.386933833360672,-1.475874900817871
1772608975535590700,6.902590576171875,0.31770721077919006,0.35597485303878784,-0.8525381684303284
1772608975545588700,6.912588623046875,0.39680176973342896,0.2573436200618744,-0.2935105562210083
1772608975555586600,6.922586669921875,0.4273487329483032,0.16669218242168427,0.12018642574548721
1772608975565584600,6.932584716796875,0.4593261182308197,0.15042585134506226,0.3575023114681244
1772608975575581400,6.94258154296875,0.49343040585517883,0.21379567682743073,0.4657401740550995
1772608975585579500,6.95257958984375,0.5455098748207092,0.3254982531070709,0.48961353302001953
1772608975595577600,6.96257763671875,0.5873125195503235,0.42652764916419983,0.45464321970939636
1772608975605575700,6.97257568359375,0.6041133403778076,0.46607506275177,0.40373608469963074
1772608975615573800,6.98257373046875,0.5860952734947205,0.5037392377853394,0.3543822169303894
1772608975625572600,6.992572509765625,0.5167813897132874,0.6602622866630554,0.24625225365161896
1772608975635570400,7.0025703125,0.4162903428077698,0.904608428478241,0.05660716071724892
1772608975645568500,7.012568603515625,0.28177300095558167,1.2093597650527954,-0.18011429905891418
1772608975655565600,7.022565673828125,0.134769007563591,1.5545377731323242,-0.43733757734298706
1772608975665563600,7.032563720703125,0.05562892183661461,1.874208688735962,-0.6488389372825623
1772608975675561700,7.042561767578125,0.10156707465648651,2.0660693645477295,-0.7457664608955383
1772608975685559600,7.0525595703125,0.25426021218299866,2.1305837631225586,-0.6946061253547668
1772608975695557600,7.0625576171875,0.4489789307117462,2.0436952114105225,-0.5186972618103027
1772608975705555700,7.0725556640625,0.6318358182907104,1.8473230600357056,-0.2027759999036789
1772608975715553500,7.082553466796875,0.7603424191474915,1.5504971742630005,0.2174357920885086
1772608975725551600,7.092551513671875,0.8050031065940857,1.2092794179916382,0.6768600940704346
1772608975735549700,7.1025498046875,0.7040644884109497,0.879875898361206,1.085335612297058
1772608975745546500,7.11254638671875,0.4513576924800873,0.5720278024673462,1.324983835220337
1772608975755544600,7.122544677734375,0.12160162627696991,0.27535325288772583,1.3351150751113892
1772608975765542400,7.13254248046875,-0.1361343115568161,0.060151439160108566,1.1788325309753418
1772608975775540500,7.14254052734375,-0.20524190366268158,-0.08435345441102982,0.9794799089431763
1772608975785538600,7.15253857421875,-0.13838164508342743,-0.27730292081832886,0.77358478307724
1772608975795536600,7.16253662109375,-0.06698956340551376,-0.5458450317382812,0.5115078687667847
1772608975805534700,7.17253466796875,-0.04273269698023796,-0.8224398493766785,0.1116800308227539
1772608975815532800,7.18253271484375,-0.09036348760128021,-1.0678516626358032,-0.4331209659576416
1772608975825529600,7.192529541015625,-0.19321209192276,-1.11343514919281,-0.9411935210227966
1772608975835527700,7.202527587890625,-0.2818710207939148,-0.9531298279762268,-1.263376235961914
1772608975845525500,7.212525390625,-0.3252371549606323,-0.6968964338302612,-1.3539553880691528
1772608975855523600,7.222523681640625,-0.3256146013736725,-0.42975568771362305,-1.2709773778915405
1772608975865521700,7.232521728515625,-0.28065377473831177,-0.24117805063724518,-1.1182712316513062
1772608975875519500,7.24251953125,-0.21524296700954437,-0.17544367909431458,-0.984032392501831
1772608975885517600,7.252517578125,-0.16843923926353455,-0.24320808053016663,-0.8827819228172302
1772608975895515600,7.262515625,-0.17862200736999512,-0.34050852060317993,-0.8292464017868042
1772608975905512400,7.272512451171875,-0.23777428269386292,-0.3972562253475189,-0.8715304732322693
1772608975915510500,7.282510498046875,-0.3245725929737091,-0.4192546606063843,-1.0092861652374268
1772608975925508600,7.292508544921875,-0.43100130558013916,-0.45221075415611267,-1.1521642208099365
1772608975935506700,7.302506591796875,-0.515313446521759,-0.5268693566322327,-1.2017101049423218
1772608975945504800,7.3125048828125,-0.5288109183311462,-0.5805855989456177,-1.0784530639648438
1772608975955502600,7.322502685546875,-0.45235875248908997,-0.6745479702949524,-0.7742372155189514
1772608975965500700,7.332500732421875,-0.31355294585227966,-0.7835495471954346,-0.3027985394001007
1772608975975498800,7.342498779296875,-0.15670175850391388,-0.8448036313056946,0.25166749954223633
1772608975985495600,7.35249560546875,-0.004203563556075096,-0.8086437582969666,0.7483068108558655
1772608975995493600,7.36249365234375,0.10477425903081894,-0.6906818151473999,1.0595874786376953
1772608976005491500,7.372491455078125,0.13688132166862488,-0.5360352396965027,1.2109922170639038
1772608976015489500,7.382489501953125,0.11005479097366333,-0.35812774300575256,1.2713090181350708
1772608976025487600,7.392487548828125,0.04740339517593384,-0.2337818294763565,1.265612244606018
1772608976035485400,7.4024853515625,-0.028309207409620285,-0.15227258205413818,1.2142947912216187
1772608976045483500,7.4124833984375,-0.0979095920920372,-0.10101871937513351,1.162867546081543
1772608976055481600,7.422481689453125,-0.15164683759212494,-0.04055627062916756,1.1518954038619995
1772608976065479400,7.4324794921875,-0.18847541511058807,0.0371188186109066,1.173205018043518
1772608976075476700,7.442476806640625,-0.20498165488243103,0.14490573108196259,1.1554139852523804
1772608976085474600,7.452474609375,-0.18923011422157288,0.3023400902748108,1.0771255493164062
1772608976095472600,7.46247265625,-0.17500600218772888,0.4842694103717804,0.9488380551338196
1772608976105470700,7.472470703125,-0.19388994574546814,0.5915218591690063,0.7926213145256042
1772608976115468500,7.482468505859375,-0.18790003657341003,0.6639379858970642,0.7137624621391296
1772608976125466600,7.492466552734375,-0.1286926418542862,0.6788684725761414,0.7787044644355774
1772608976135464700,7.502464599609375,-0.0304875448346138,0.6645445227622986,0.9395690560340881
1772608976145461500,7.51246142578125,0.06519397348165512,0.5937060117721558,1.1157954931259155
1772608976155459600,7.52245947265625,0.10993267595767975,0.5489755868911743,1.2824242115020752
1772608976165457400,7.53245751953125,0.1266341656446457,0.5120806694030762,1.4504246711730957
1772608976175455500,7.54245556640625,0.11084038764238358,0.4666905999183655,1.5862457752227783
1772608976185453600,7.55245361328125,0.057097796350717545,0.46322157979011536,1.5702545642852783
1772608976195451400,7.562451416015625,-0.020011983811855316,0.4132896959781647,1.37124764919281
1772608976205449500,7.572449462890625,-0.10751599818468094,0.26717403531074524,1.1022241115570068
1772608976215447600,7.582447509765625,-0.1955556869506836,0.05455576628446579,0.8390805125236511
1772608976225445600,7.592445556640625,-0.2705761194229126,-0.13120292127132416,0.5921050310134888
1772608976235442700,7.602442626953125,-0.28525200486183167,-0.23722635209560394,0.4731284976005554
1772608976245440500,7.6124404296875,-0.2482393980026245,-0.2890765070915222,0.5217359662055969
1772608976255438600,7.6224384765625,-0.1689104288816452,-0.21270474791526794,0.6032699942588806
1772608976265436700,7.632436767578125,-0.05369943380355835,-0.032981861382722855,0.5326591730117798
1772608976275434500,7.6424345703125,-0.00004521757364273071,-0.0699971616268158,0.27502092719078064
1772608976285432600,7.6524326171875,-0.031711798161268234,-0.2852676510810852,-0.003059958340600133
1772608976295430700,7.6624306640625,-0.03842100128531456,-0.4845828115940094,-0.24343661963939667
1772608976305428500,7.672428466796875,0.040563829243183136,-0.6757445335388184,-0.4055933356285095
1772608976315425500,7.682425537109375,0.13571099936962128,-0.8599166870117188,-0.49741968512535095
1772608976325423400,7.69242333984375,0.22962124645709991,-1.1504310369491577,-0.6317034363746643
1772608976335421400,7.70242138671875,0.2884632647037506,-1.5810943841934204,-0.7987231016159058
1772608976345419500,7.71241943359375,0.21913184225559235,-1.9536447525024414,-0.8179149031639099
1772608976355417600,7.72241748046875,0.06983202695846558,-2.137145757675171,-0.6624801754951477
1772608976365415700,7.732415771484375,-0.056167442351579666,-2.1549603939056396,-0.48928070068359375
1772608976375413800,7.742413818359375,-0.15428408980369568,-1.8941805362701416,-0.4258068799972534
1772608976385411600,7.75241162109375,-0.21699035167694092,-1.3849622011184692,-0.5199472308158875
1772608976395408600,7.76240869140625,-0.2097214311361313,-0.7531772255897522,-0.7114865779876709
1772608976405406500,7.772406494140625,-0.1502399891614914,-0.20362251996994019,-0.9213191866874695
1772608976415404500,7.782404541015625,-0.09808215498924255,0.12511570751667023,-1.0527946949005127
1772608976425402600,7.792402587890625,-0.07260768860578537,0.18159815669059753,-1.0666255950927734
1772608976435400400,7.802400390625,-0.07081297039985657,0.05720091983675957,-0.9004834294319153
1772608976445398500,7.8123984375,-0.0772373154759407,-0.24862584471702576,-0.6318055987358093
1772608976455396600,7.822396728515625,-0.11749127507209778,-0.6455760598182678,-0.42945346236228943
1772608976465394400,7.83239453125,-0.1570378988981247,-0.882646381855011,-0.3559457063674927
1772608976475392500,7.842392578125,-0.1789100170135498,-0.9143618941307068,-0.40059977769851685
1772608976485389600,7.8523896484375,-0.17369768023490906,-0.777315616607666,-0.4113703966140747
1772608976495387600,7.8623876953125,-0.13694821298122406,-0.518181324005127,-0.325173020362854
1772608976505385700,7.8723857421875,-0.082427978515625,-0.17333181202411652,-0.1730005294084549
1772608976515383600,7.882383544921875,-0.020051591098308563,0.1608445942401886,0.030740544199943542
1772608976525381600,7.892381591796875,0.04313403740525246,0.31467169523239136,0.2561512887477875
1772608976535379700,7.902379638671875,0.0734991654753685,0.18784737586975098,0.43449243903160095
1772608976545377500,7.91237744140625,0.02842409722507,-0.07624899595975876,0.5267019867897034
1772608976555375600,7.922375732421875,-0.05318395048379898,-0.27995288372039795,0.5813319683074951
1772608976565372400,7.932372314453125,-0.13418292999267578,-0.36072441935539246,0.6043317914009094
1772608976575370500,7.94237060546875,-0.20688678324222565,0.3090009391307831,0.6119447946548462
1772608976585368600,7.95236865234375,-0.39025554060935974,2.248250961303711,0.5975123047828674
1772608976595366400,7.962366455078125,-0.48590007424354553,2.951566219329834,0.4173085689544678
1772608976605364500,7.972364501953125,-0.6935920119285583,2.4717214107513428,1.4273754358291626
1772608976615362600,7.982362548828125,-0.6980520486831665,2.091219663619995,1.610016942024231
1772608976625360000,7.99235986328125,-0.5619674324989319,1.5152286291122437,1.6967853307724
1772608976635358000,8.00235791015625,-0.36363595724105835,1.0246498584747314,1.8656034469604492
1772608976645354800,8.012354736328126,-0.18798984587192535,0.3547445237636566,1.8708884716033936
1772608976655352800,8.022352783203125,-0.18357735872268677,-0.19063915312290192,1.671563982963562
1772608976665351000,8.032350830078125,-0.2596985101699829,-0.6941065788269043,1.3993687629699707
1772608976675348700,8.0423486328125,-0.3897721767425537,-0.7662964463233948,1.0547575950622559
1772608976685346800,8.052346923828125,-0.4221903085708618,-0.5828070640563965,0.7287866473197937
1772608976695345000,8.062344970703125,-0.43396705389022827,-0.2940230667591095,0.6363300681114197
1772608976705342700,8.0723427734375,-0.46936845779418945,0.023222526535391808,0.7039797306060791
1772608976715340800,8.0823408203125,-0.3878786563873291,0.1170591190457344,0.7324090600013733
1772608976725339000,8.0923388671875,-0.17815682291984558,-0.06573519855737686,0.6231978535652161
1772608976735336000,8.1023359375,0.08173762261867523,-0.3830980658531189,0.4048590064048767
1772608976745334000,8.112333984375,0.3274264931678772,-0.8142574429512024,0.11386046558618546
1772608976755331800,8.122331787109376,0.4873659908771515,-1.186160922050476,-0.11880141496658325
1772608976765330000,8.132329833984375,0.5615944266319275,-1.3424876928329468,-0.2759372293949127
1772608976775328000,8.142327880859375,0.5825390219688416,-1.3150509595870972,-0.36931920051574707
1772608976785325800,8.152325927734376,0.5910954475402832,-1.1833460330963135,-0.4152691066265106
1772608976795324000,8.162323974609375,0.6048358082771301,-1.0633611679077148,-0.4622352719306946
1772608976805322000,8.172322021484375,0.6471531391143799,-1.0085786581039429,-0.4737646281719208
1772608976815318800,8.18231884765625,0.6532822847366333,-1.0642883777618408,-0.4436572194099426
1772608976825316900,8.19231689453125,0.5948070287704468,-1.1532630920410156,-0.4027896821498871
1772608976835314700,8.202314697265624,0.4795469343662262,-1.1567707061767578,-0.4239814877510071
1772608976845312800,8.212312744140625,0.2921786308288574,-0.9952188730239868,-0.504824161529541
1772608976855310800,8.222310791015625,0.15570862591266632,-0.8002263307571411,-0.8123136758804321
1772608976865308700,8.23230859375,0.05337613821029663,-0.4748400151729584,-1.2885830402374268
1772608976875306800,8.242306640625,-0.06083838269114494,-0.027057867497205734,-1.743388056755066
1772608976885304800,8.252304931640625,-0.10849352180957794,0.41095224022865295,-2.109316110610962
1772608976895302000,8.262302001953126,-0.061984702944755554,0.6621692776679993,-2.262084484100342
1772608976905300000,8.272300048828125,0.027715884149074554,0.7687172889709473,-2.1558988094329834
1772608976915297800,8.2822978515625,0.1222255751490593,0.6367520689964294,-1.8013559579849243
1772608976925295900,8.2922958984375,0.19373756647109985,0.38869965076446533,-1.214474081993103
1772608976935294000,8.3022939453125,0.23447179794311523,0.15976378321647644,-0.5528082251548767
1772608976945291800,8.312291748046874,0.2831101715564728,0.09620370715856552,0.004370591137558222
1772608976955289900,8.322289794921875,0.30109837651252747,0.08420581370592117,0.3354678452014923
1772608976965288000,8.332287841796875,0.26261571049690247,0.1958543211221695,0.43260958790779114
1772608976975284700,8.34228466796875,0.1972416192293167,0.36178621649742126,0.3318806290626526
1772608976985282800,8.35228271484375,0.08162714540958405,0.6208257675170898,0.19952206313610077
1772608976995280600,8.36228076171875,-0.08175712823867798,0.9168044328689575,0.14744353294372559
1772608977005278700,8.37227880859375,-0.19189375638961792,1.2119849920272827,0.18031412363052368
1772608977015276800,8.38227685546875,-0.3250003457069397,1.4296419620513916,0.22326987981796265
1772608977025275000,8.39227490234375,-0.7001153826713562,1.223023772239685,0.3828883171081543
1772608977035273000,8.40227294921875,-0.8550552129745483,1.116219162940979,0.5004372000694275
1772608977045271000,8.41227099609375,-0.6293187737464905,1.272231101989746,0.5380599498748779
1772608977055268900,8.422268798828124,-0.404537558555603,1.399741291999817,0.5472015738487244
1772608977065266000,8.432265869140625,-0.275948166847229,1.4635066986083984,0.5016239285469055
1772608977075263700,8.442263671875,-0.2119642049074173,1.524004340171814,0.41464415192604065
1772608977085261800,8.45226171875,-0.18179219961166382,1.604929804801941,0.3461071848869324
1772608977095260000,8.462260009765625,-0.15515902638435364,1.6119190454483032,0.3806963860988617
1772608977105257700,8.4722578125,-0.14158010482788086,1.4953572750091553,0.5444866418838501
1772608977115255800,8.482255859375,-0.14178116619586945,1.2760732173919678,0.7219168543815613
1772608977125254000,8.49225390625,-0.13337117433547974,1.0363165140151978,0.8198785781860352
1772608977135251700,8.502251708984375,-0.09444893896579742,0.8136330842971802,0.822609007358551
1772608977145248800,8.512248779296876,-0.040651749819517136,0.5637961030006409,0.8013652563095093
1772608977155246800,8.522246826171875,-0.021499190479516983,0.3818177878856659,0.8926444053649902
1772608977165245000,8.532244873046874,0.009653668850660324,0.2968387305736542,1.0629167556762695
1772608977175243000,8.542242919921875,0.11698300391435623,0.25313565135002136,1.2660388946533203
1772608977185240800,8.55224072265625,0.2773071527481079,0.10551421344280243,1.3796275854110718
1772608977195239000,8.562239013671874,0.36778101325035095,-0.2152097523212433,1.3004987239837646
1772608977205237000,8.572237060546875,0.36824148893356323,-0.4794600307941437,1.0564632415771484
1772608977215234800,8.58223486328125,0.3256635069847107,-0.5968564748764038,0.674355685710907
1772608977225232000,8.59223193359375,0.24007990956306458,-0.5149533152580261,0.1666400134563446
1772608977235229700,8.602229736328125,0.14529769122600555,-0.28827694058418274,-0.3875772953033447
1772608977245227800,8.612227783203124,0.08626953512430191,-0.1386032998561859,-0.8058621883392334
1772608977255225900,8.622225830078126,0.07966569066047668,-0.08250328153371811,-1.0798319578170776
1772608977265223700,8.6322236328125,0.09583400934934616,-0.20292715728282928,-1.2029541730880737
1772608977275221800,8.6422216796875,0.09524571895599365,-0.46966058015823364,-1.1632535457611084
1772608977285219800,8.6522197265625,0.07113345712423325,-0.7952253818511963,-1.1183899641036987
1772608977295217700,8.6622177734375,0.00642513670027256,-1.011661171913147,-1.1164554357528687
1772608977305215700,8.6722158203125,-0.05693945288658142,-1.0652596950531006,-1.1945542097091675
1772608977315212800,8.682212890625,-0.04532710462808609,-1.051302433013916,-1.3269468545913696
1772608977325211000,8.6922109375,0.08600854873657227,-1.0936474800109863,-1.432860255241394
1772608977335209000,8.702208984375,0.2724539637565613,-1.1918318271636963,-1.432119607925415
1772608977345206800,8.712206787109375,0.41460976004600525,-1.2722281217575073,-1.3722047805786133
1772608977355204900,8.722204833984375,0.4882355332374573,-1.3277662992477417,-1.2625564336776733
1772608977365203000,8.732202880859376,0.5506765246391296,-1.2732428312301636,-1.134812593460083
1772608977375200800,8.74220068359375,0.5163797736167908,-0.9694753885269165,-1.0690122842788696
1772608977385198800,8.75219873046875,0.4569137990474701,-0.5888223052024841,-1.0539097785949707
1772608977395195600,8.762195556640625,0.4028683304786682,-0.3123461604118347,-1.022300124168396
1772608977405193700,8.77219384765625,0.35110101103782654,-0.18096014857292175,-0.919352114200592
1772608977415191800,8.78219189453125,0.3248674273490906,-0.11494722962379456,-0.7681746482849121
1772608977425189600,8.792189697265625,0.31721270084381104,-0.01395830325782299,-0.5877265930175781
1772608977435187700,8.802187744140625,0.32639214396476746,0.19894720613956451,-0.32381707429885864
1772608977445185800,8.812185791015626,0.3345768451690674,0.39913034439086914,0.032920800149440765
1772608977455184000,8.822183837890625,0.3753776252269745,0.5872172117233276,0.45992347598075867
1772608977465182000,8.832181884765625,0.4537523090839386,0.7243068814277649,0.8011284470558167
1772608977475178800,8.8421787109375,0.5369299650192261,0.8394255042076111,1.0043964385986328
1772608977485176800,8.8521767578125,0.5729683637619019,0.9390519261360168,1.0907291173934937
1772608977495175000,8.8621748046875,0.5595353841781616,1.0124377012252808,1.1069762706756592
1772608977505172700,8.8721728515625,0.515203058719635,0.9766495823860168,1.0895171165466309
1772608977515170800,8.8821708984375,0.43139883875846863,0.8942350149154663,1.0329240560531616
1772608977525169000,8.8921689453125,0.3627532124519348,0.8724200129508972,0.9343762397766113
1772608977535166700,8.902166748046875,0.34446603059768677,0.8247796297073364,0.8401724696159363
1772608977545164800,8.912164794921875,0.3784988224506378,0.6106963753700256,0.8484804630279541
1772608977555163000,8.922162841796874,0.3489186465740204,0.319010853767395,1.033993124961853
1772608977565159700,8.93215966796875,0.26690950989723206,0.14630381762981415,1.3245059251785278
1772608977575157800,8.94215771484375,0.19577813148498535,0.2032623440027237,1.6096830368041992
1772608977585155800,8.95215576171875,0.15072356164455414,0.41254499554634094,1.8164130449295044
1772608977595154000,8.96215380859375,0.11543093621730804,0.5971152782440186,1.8170061111450195
1772608977605152000,8.972152099609374,0.0645027756690979,0.6801137328147888,1.5095475912094116
1772608977615149800,8.98214990234375,0.00198503490537405,0.6684167385101318,0.9646031856536865
1772608977625148000,8.99214794921875,-0.10555261373519897,0.5294327139854431,0.4444926381111145
1772608977635146000,9.00214599609375,-0.261303573846817,0.34717220067977905,0.17408841848373413
1772608977645143000,9.01214306640625,-0.31941694021224976,0.16226574778556824,0.039253100752830505
1772608977655140900,9.022140869140625,-0.24400345981121063,-0.1595582216978073,-0.13031360507011414
1772608977665139000,9.032138916015626,-0.08805675059556961,-0.5713910460472107,-0.38671237230300903
1772608977675136800,9.04213671875,0.13819482922554016,-1.0269438028335571,-0.8059368133544922
1772608977685134800,9.052134765625,0.32638177275657654,-1.1996912956237793,-1.1474123001098633
1772608977695133000,9.0621328125,0.4365036189556122,-1.4166550636291504,-1.4076757431030273
1772608977705130800,9.072130859375,0.46528786420822144,-1.6709867715835571,-1.636716604232788
1772608977715128800,9.08212890625,0.4617127776145935,-1.807536005973816,-1.864315152168274
1772608977725127000,9.092126953125,0.45580214262008667,-1.5667433738708496,-2.0080459117889404
1772608977735124000,9.1021240234375,0.4475693106651306,-1.2525043487548828,-2.067579746246338
1772608977745122000,9.1121220703125,0.37444424629211426,-0.9716299176216125,-2.0393033027648926
1772608977755119900,9.122119873046875,0.26607128977775574,-0.7580724954605103,-1.9485222101211548
1772608977765118000,9.132117919921875,0.18151511251926422,-0.6066696643829346,-1.7789981365203857
1772608977775116000,9.142115966796876,0.09298953413963318,-0.4590739905834198,-1.5880147218704224
1772608977785113900,9.15211376953125,0.044276583939790726,-0.4747259020805359,-1.4580870866775513
1772608977795112000,9.16211181640625,0.0652279406785965,-0.4702504873275757,-1.4015964269638062
1772608977805110000,9.172110107421876,0.1065431535243988,-0.4091394543647766,-1.4423041343688965
1772608977815106800,9.18210693359375,0.18383625149726868,-0.17843221127986908,-1.4374829530715942
1772608977825105000,9.19210498046875,0.25104859471321106,0.12096648663282394,-1.2705740928649902
1772608977835102700,9.202102783203125,0.27115508913993835,0.3388071060180664,-0.9180997014045715
1772608977845100800,9.212100830078125,0.260646253824234,0.3752010762691498,-0.441266268491745
1772608977855099000,9.222098876953124,0.2675163149833679,0.2992693781852722,0.04856722056865692
1772608977865096700,9.2320966796875,0.29633599519729614,0.2378009706735611,0.4176619052886963
1772608977875094800,9.2420947265625,0.3194957673549652,0.1803443431854248,0.6210809350013733
1772608977885092900,9.2520927734375,0.31053608655929565,0.1430204063653946,0.6994673609733582
1772608977895091000,9.262091064453125,0.23800402879714966,0.14122489094734192,0.7269821763038635
1772608977905088000,9.272087890625,0.1301923394203186,0.321206659078598,0.7059056162834167
1772608977915086000,9.282086181640626,0.03483278676867485,0.5982602834701538,0.6198159456253052
1772608977925084000,9.292083984375,-0.002618982456624508,0.855046272277832,0.5317990183830261
1772608977935082000,9.30208203125,-0.003537670709192753,0.9662469029426575,0.4978506565093994
1772608977945079800,9.312079833984376,0.003783891908824444,0.9732919931411743,0.525238037109375
1772608977955078000,9.322077880859375,0.011953392066061497,0.9156167507171631,0.5921241044998169
1772608977965073000,9.332072998046876,-0.02055315300822258,0.8599063158035278,0.6783612370491028
1772608977975071000,9.342071044921875,-0.08203888684511185,0.9379856586456299,0.7257369160652161
1772608977985068800,9.35206884765625,-0.11490070074796677,1.0603272914886475,0.729910135269165
1772608977995067000,9.36206689453125,-0.13999539613723755,1.1350188255310059,0.7377750277519226
1772608978005065000,9.37206494140625,-0.17541755735874176,1.1936147212982178,0.7997041940689087
1772608978015062800,9.382062744140624,-0.1492653489112854,1.251237154006958,0.9265738725662231
1772608978025060900,9.392060791015625,-0.061087287962436676,1.2989341020584106,1.083037257194519
1772608978035059000,9.402058837890625,0.07322150468826294,1.0178382396697998,1.0580180883407593
1772608978045056800,9.412056884765626,0.3020855784416199,0.7438234686851501,0.7979037165641785
1772608978055053800,9.4220537109375,0.3964192271232605,0.42525714635849,0.4427930414676666
1772608978065052200,9.43205224609375,0.2512284815311432,0.22442814707756042,0.1434585154056549
1772608978075050000,9.442050048828126,-0.011999611742794514,0.18935324251651764,-0.01510884054005146
1772608978085048000,9.452048095703125,-0.20275065302848816,0.2181369513273239,-0.003671362530440092
1772608978095046000,9.4620458984375,-0.21857431530952454,0.2129029780626297,0.1715773195028305
1772608978105044000,9.4720439453125,-0.09987376630306244,0.10325397551059723,0.4054188132286072
1772608978115042000,9.4820419921875,0.09096890687942505,-0.10010110586881638,0.5594155192375183
1772608978125039900,9.492039794921874,0.2057836353778839,-0.33516690135002136,0.5895757675170898
1772608978135037000,9.502036865234375,0.23076368868350983,-0.467994749546051,0.4114767014980316
1772608978145035000,9.512034912109375,0.22276781499385834,-0.486150860786438,0.05179281160235405
1772608978155032800,9.52203271484375,0.23982642590999603,-0.38945239782333374,-0.3805731236934662
1772608978165031000,9.532031005859375,0.2698860764503479,-0.3023212254047394,-0.7831147313117981
1772608978175028700,9.54202880859375,0.2705233097076416,-0.24862772226333618,-1.0942643880844116
1772608978185026800,9.55202685546875,0.2396429032087326,-0.2548874616622925,-1.3018766641616821
1772608978195025000,9.56202490234375,0.22876307368278503,-0.30085185170173645,-1.3761738538742065
1772608978205022700,9.572022705078124,0.19283543527126312,-0.35340508818626404,-1.2766515016555786
1772608978215020800,9.582020751953126,0.16999278962612152,-0.4070451557636261,-1.0359718799591064
1772608978225018000,9.59201806640625,0.18677149713039398,-0.42163369059562683,-0.7704284191131592
1772608978235016000,9.602015869140626,0.22190919518470764,-0.42136842012405396,-0.571114182472229
1772608978245014000,9.612013916015625,0.22562110424041748,-0.3455945551395416,-0.4666184186935425
1772608978255011800,9.62201171875,0.1904381364583969,-0.1799381673336029,-0.49118897318840027
1772608978265010000,9.632010009765626,0.12077916413545609,0.0028894408605992794,-0.6085297465324402
1772608978275008000,9.642008056640625,0.04988911375403404,0.12663517892360687,-0.7576324343681335
1772608978285005800,9.652005859375,0.021007400006055832,0.2100917249917984,-0.9037762880325317
1772608978295004000,9.66200390625,0.03816846385598183,0.26543593406677246,-0.9965556859970093
1772608978305001000,9.6720009765625,0.06808668375015259,0.2823328971862793,-0.9941771626472473
1772608978314998800,9.681998779296874,0.05942457914352417,0.2289026379585266,-0.8978540301322937
1772608978324996900,9.691996826171875,0.022344054654240608,0.17578455805778503,-0.7374302744865417
1772608978334996000,9.701995849609375,-0.004897372797131538,0.18527613580226898,-0.5747957825660706
1772608978344993800,9.711993896484374,-0.010910789482295513,0.24998082220554352,-0.40281441807746887
1772608978354991900,9.721991943359376,-0.026392165571451187,0.3263137936592102,-0.18749891221523285
1772608978364990000,9.731989990234375,-0.05148207023739815,0.395026832818985,0.0721539631485939
1772608978374987000,9.741987060546874,-0.0770098939538002,0.5213980674743652,0.3196972906589508
1772608978384985000,9.751985107421875,-0.09148576855659485,0.6429988145828247,0.44409674406051636
1772608978394983000,9.76198291015625,-0.10643305629491806,0.7370537519454956,0.5026912093162537
1772608978404981000,9.77198095703125,-0.14093485474586487,0.841396152973175,0.5353705883026123
1772608978414979000,9.78197900390625,-0.10761155933141708,0.9226581454277039,0.5071460604667664
1772608978424977000,9.791976806640625,-0.09142380207777023,0.9262771010398865,0.47367334365844727
1772608978434975000,9.80197509765625,-0.2327284812927246,0.813027560710907,0.4706335961818695
1772608978444973000,9.81197314453125,-0.3047267496585846,0.7639673352241516,0.4612177312374115
1772608978454969900,9.821969970703124,-0.2420789897441864,0.8120537400245667,0.5198469758033752
1772608978464968000,9.831968017578125,-0.16507022082805634,0.8389385938644409,0.6888719797134399
1772608978474965800,9.8419658203125,-0.08270730823278427,0.8195206522941589,0.8701566457748413
1772608978484963800,9.8519638671875,0.02615419402718544,0.8523467779159546,0.9833524227142334
1772608978494962000,9.8619619140625,0.1612364649772644,0.856252908706665,0.9311541318893433
1772608978504959700,9.871959716796875,0.30890291929244995,0.7821539044380188,0.7405890226364136
1772608978514957800,9.881957763671876,0.4215783178806305,0.6466972827911377,0.5439907312393188
1772608978524956000,9.891955810546875,0.4497124254703522,0.45316314697265625,0.452911913394928
1772608978534953700,9.90195361328125,0.37933963537216187,0.3170020282268524,0.5178645253181458
1772608978544951000,9.911950927734376,0.27041929960250854,0.2657659947872162,0.6572328209877014
1772608978554948900,9.921948974609375,0.22376249730587006,0.1702335625886917,0.8206843733787537
1772608978564947000,9.931947021484374,0.22666694223880768,0.00933574978262186,0.9626156687736511
1772608978574945000,9.941945068359376,0.23158220946788788,-0.1697140783071518,1.0082992315292358
1772608978584942800,9.95194287109375,0.22322680056095123,-0.26652905344963074,0.8061658143997192
1772608978594941000,9.96194091796875,0.19451718032360077,-0.3254197835922241,0.4042726159095764
1772608978604939000,9.97193896484375,0.1709199696779251,-0.40083998441696167,0.0008351649157702923
1772608978614936800,9.981936767578125,0.1408608853816986,-0.4585265517234802,-0.34445738792419434
1772608978624934700,9.9919345703125,0.05600326508283615,-0.5214314460754395,-0.6698186993598938
1772608978634932500,10.001932373046875,-0.03988022729754448,-0.6135100722312927,-1.0008740425109863
1772608978644930600,10.0119306640625,-0.0929730013012886,-0.6103150844573975,-1.2201892137527466
1772608978654928600,10.0219287109375,-0.12089226394891739,-0.5518116354942322,-1.2582513093948364
1772608978664926500,10.031926513671875,-0.16866031289100647,-0.5209389328956604,-1.164430022239685
1772608978674924500,10.041924560546875,-0.20070432126522064,-0.5348454713821411,-1.0111485719680786
1772608978684922600,10.051922607421876,-0.2377699315547943,-0.5257121324539185,-0.88596510887146
1772608978694920400,10.06192041015625,-0.281695693731308,-0.4256190359592438,-0.9253495931625366
1772608978704918500,10.07191845703125,-0.3788451552391052,-0.23967206478118896,-1.1606460809707642
1772608978714915600,10.08191552734375,-0.5316765904426575,-0.008246012963354588,-1.518201470375061
1772608978724913700,10.09191357421875,-0.6526421904563904,0.20847484469413757,-1.8545544147491455
1772608978734911700,10.101911865234374,-0.68892902135849,0.30672016739845276,-2.0047056674957275
1772608978744909600,10.11190966796875,-0.64962238073349,0.270234078168869,-1.8910455703735352
1772608978754907600,10.12190771484375,-0.557637631893158,0.18933719396591187,-1.5688420534133911
1772608978764905700,10.13190576171875,-0.41599899530410767,0.14600783586502075,-1.1825660467147827
1772608978774903600,10.141903564453125,-0.28186020255088806,0.09932466596364975,-0.7695486545562744
1772608978784901600,10.151901611328125,-0.14643044769763947,0.09863490611314774,-0.3681013286113739
1772608978794899500,10.1618994140625,-0.013447838835418224,0.16483698785305023,-0.021624263375997543
1772608978804896500,10.171896484375,0.08929398655891418,0.27728602290153503,0.23417341709136963
1772608978814894600,10.18189453125,0.1664874255657196,0.3542957007884979,0.4054604768753052
1772608978824892400,10.191892333984375,0.22365111112594604,0.4224199056625366,0.492924302816391
1772608978834890500,10.201890380859375,0.2603556215763092,0.4814246892929077,0.5008613467216492
1772608978844888600,10.211888671875,0.271994948387146,0.5394678115844727,0.4851745367050171
1772608978854886700,10.22188671875,0.25066077709198,0.6044162511825562,0.44990625977516174
1772608978864884700,10.231884765625,0.22561241686344147,0.6296917796134949,0.37069132924079895
1772608978874882800,10.2418828125,0.2074051797389984,0.630885660648346,0.2854517996311188
1772608978884879600,10.251879638671875,0.1981075555086136,0.6457343697547913,0.2769120931625366
1772608978894877700,10.261877685546875,0.19658581912517548,0.6768702268600464,0.3067868947982788
1772608978904875500,10.27187548828125,0.22753974795341492,0.7236470580101013,0.33413437008857727
1772608978914873600,10.28187353515625,0.27620652318000793,0.758486270904541,0.3250981867313385
1772608978924871700,10.29187158203125,0.3250449001789093,0.688095211982727,0.3441626727581024
1772608978934869500,10.301869384765626,0.32066914439201355,0.6374836564064026,0.4221169650554657
1772608978944867600,10.31186767578125,0.3048259913921356,0.5932514667510986,0.49588942527770996
1772608978954865700,10.32186572265625,0.2937747836112976,0.4796870946884155,0.5272305011749268
1772608978964862500,10.331862548828125,0.2703096866607666,0.32811808586120605,0.5197275876998901
1772608978974860500,10.341860595703125,0.22675670683383942,0.11224426329135895,0.5241902470588684
1772608978984858600,10.351858642578126,0.18241214752197266,-0.08409089595079422,0.5900672674179077
1772608978994856700,10.361856689453125,0.18355076014995575,-0.18769769370555878,0.7192414999008179
1772608979004854800,10.371854736328125,0.2473885864019394,-0.33970800042152405,0.899376630783081
1772608979014852600,10.3818525390625,0.298776239156723,-0.46691790223121643,1.0895158052444458
1772608979024850700,10.3918505859375,0.313082754611969,-0.5304939150810242,1.1931322813034058
1772608979034848800,10.401848876953125,0.2606911063194275,-0.4836912751197815,1.0697098970413208
1772608979044846600,10.4118466796875,0.20934857428073883,-0.4050009846687317,0.829244077205658
1772608979054843600,10.42184375,0.1621284782886505,-0.42608511447906494,0.5957194566726685
1772608979064841500,10.431841552734374,0.10091067105531693,-0.47527024149894714,0.38758113980293274
1772608979074839600,10.441839599609375,0.040479276329278946,-0.5841623544692993,0.15449625253677368
1772608979084837600,10.451837646484375,-0.015903037041425705,-0.6781192421913147,-0.13207507133483887
1772608979094835500,10.46183544921875,-0.0956115648150444,-0.7398167848587036,-0.4609813392162323
1772608979104833500,10.47183349609375,-0.14047890901565552,-0.76160728931427,-0.7281160950660706
1772608979114831600,10.48183154296875,-0.12857156991958618,-0.7479043006896973,-0.8277719616889954
1772608979124829400,10.491829345703126,-0.12893030047416687,-0.6217378377914429,-0.8537076711654663
1772608979134827500,10.50182763671875,-0.14870496094226837,-0.42728686332702637,-0.894883930683136
1772608979144824600,10.511824462890624,-0.19003374874591827,-0.22100265324115753,-0.9495343565940857
1772608979154822700,10.52182275390625,-0.23072169721126556,-0.03299032524228096,-1.0418051481246948
1772608979164820700,10.53182080078125,-0.2745150029659271,0.05280953273177147,-1.06523597240448
1772608979174818600,10.541818603515624,-0.3490903377532959,0.12555862963199615,-0.9825195670127869
1772608979184816600,10.551816650390625,-0.4510553181171417,0.1387641876935959,-0.9347501993179321
