time,seconds_elapsed,z,y,x
1772522641368305700,0.0733056640625,0.03785597566366195,-0.042448920343955976,0.07863562935483641
1772522641378303700,0.0833037109375,0.08828209456503391,-0.03354089807667769,0.07592512372054624
1772522641388300500,0.093300537109375,0.10788228257000446,-0.0319293438273482,0.07804695187984034
1772522641398297900,0.1032978515625,0.0013414777368307112,-0.03276093581328168,0.08923230796195566
1772522641408294700,0.113294677734375,-0.013770751199126243,-0.029541644973214713,0.09041779141947627
1772522641418292700,0.123292724609375,0.07092530157268047,-0.039201663784729314,0.08429846828896552
1772522641428289500,0.13328955078125,0.08124912718832493,-0.03291881152242422,0.07053292755449656
1772522641438286800,0.143286865234375,0.07062251923382282,-0.03280183407925069,0.07850622168835251
1772522641448283600,0.15328369140625,0.02602934426963329,-0.035567873859638346,0.06785435599500779
1772522641458281700,0.16328173828125,0.029470424634218215,-0.0280025166392792,0.08272880781944841
1772522641468278500,0.173278564453125,0.06523439645469188,-0.024761424959357826,0.0721026839221362
1772522641478275800,0.18327587890625,0.06762742907106876,-0.034578314833017064,0.07348377671672497
1772522641488272600,0.193272705078125,0.053559740751981735,-0.0406044067221228,0.07617219838337042
1772522641498270700,0.203270751953125,0.029468671068549154,-0.04275996818765997,0.07172689571257214
1772522641508267500,0.213267578125,0.0366471843957901,-0.03610949732251465,0.06531264018951914
1772522641518264800,0.223264892578125,0.07913900316655635,-0.023666862055147064,0.06594959551934153
1772522641528261600,0.23326171875,0.06970657343268394,-0.0200018824073486,0.06858434620341286
1772522641538258700,0.2432587890625,0.0328957229077816,-0.04671159189026802,0.06317484727611299
1772522641548256500,0.253256591796875,0.05249707995653152,-0.033395827050181105,0.05860675390928518
1772522641558253800,0.26325390625,0.061920741862058634,-0.025039666512003168,0.057891326515772376
1772522641568250600,0.273250732421875,0.024957331123948094,-0.030916495256684717,0.05815671315342188
1772522641578247700,0.28324755859375,0.02750000134408474,-0.03588612776226364,0.0566048440689221
1772522641588245500,0.29324560546875,0.06969605203866958,-0.030804723711591212,0.04807488873326219
1772522641598242800,0.303242919921875,0.07717442509531974,-0.03039030682495795,0.05246659348672256
1772522641608239600,0.313239501953125,0.0381155033826828,-0.030453891846770418,0.0506180841097841
1772522641618236700,0.323236572265625,0.006990297278761863,-0.031966369635798034,0.061746755268331614
1772522641628233700,0.333233642578125,0.07358078451752663,-0.028487240549456328,0.05754099240787327
1772522641638231800,0.343231689453125,0.09228314689993858,-0.02660391102088615,0.05437304816255346
1772522641648228600,0.353228515625,0.05472352383434772,-0.029612335589248685,0.0539525166289648
1772522641658225700,0.3632255859375,0.025992519390583037,-0.046222648462699724,0.057643548600049686
1772522641668222700,0.37322265625,0.01806172639131546,-0.04129827073779888,0.07165942453350871
1772522641678220800,0.383220703125,0.06639350336194039,-0.02240567387975752,0.059316788175050164
1772522641688217600,0.393217529296875,0.09078209468722342,-0.03710167756448499,0.0644687047452433
1772522641698214700,0.403214599609375,0.04873334350883961,-0.04828766383426264,0.06158850966643076
1772522641708211700,0.413211669921875,0.03332183936536312,-0.037018839852930974,0.06427625091306399
1772522641718209800,0.423209716796875,0.04155249209403991,-0.02973317635678686,0.06622126576730515
1772522641728206600,0.43320654296875,0.08285013264417648,-0.019691126824589445,0.07264069522239733
1772522641738203600,0.44320361328125,0.06504150423109531,-0.019300090813543648,0.06290198515148368
1772522641748200700,0.45320068359375,0.035110476347804065,-0.029936297713452947,0.08096876674382947
1772522641758198800,0.46319873046875,0.03660451429784298,-0.041330684303212906,0.07865571316163987
1772522641768195600,0.473195556640625,0.06368775153458119,-0.025473683148249982,0.07036348927172366
1772522641778192600,0.483192626953125,0.07131459315121173,-0.021852515242714435,0.07715832334388978
1772522641788189700,0.493189697265625,0.03435059789121151,-0.03306160839344375,0.07357716322175692
1772522641798186800,0.503186767578125,0.025520225703716277,-0.040175952176982534,0.07493795758041087
1772522641808184600,0.5131845703125,0.044971945148706435,-0.03276390408850275,0.07614933809759095
1772522641818181600,0.523181640625,0.07175532265603542,-0.026841573967970905,0.07280779541761148
1772522641828178700,0.5331787109375,0.060977323532104485,-0.02728318025562912,0.06792212856817059
1772522641838175700,0.54317578125,0.03658347150981426,-0.028642915168358013,0.06958125741942785
1772522641848173600,0.553173583984375,0.03672901746034622,-0.034046737840119745,0.06361533018576447
1772522641858170600,0.563170654296875,0.05483049134016037,-0.03323739421861246,0.06684487299178726
1772522641868167700,0.573167724609375,0.04614449605941772,-0.03231352083934471,0.060382074752426705
1772522641878164700,0.583164794921875,0.0425467638283968,-0.024035941962711513,0.06307433691055048
1772522641888161500,0.59316162109375,0.0331090733975172,-0.02292169711049646,0.05731040765554644
1772522641898159600,0.60315966796875,0.04477145414054393,-0.025962398246955124,0.06073949618823826
1772522641908157200,0.6131572265625,0.06556231323480606,-0.02675181332528591,0.05294983325928915
1772522641918154000,0.623154052734375,0.04819382980465889,-0.028925759830884634,0.054100546797527925
1772522641928150800,0.63315087890625,0.04713818327188492,-0.03333930195681751,0.05151667235074565
1772522641938148900,0.64314892578125,0.034709494331479074,-0.02673924610465765,0.046916932603484014
1772522641948146200,0.653146240234375,0.0373965414583683,-0.030131738087162373,0.04887150530393701
1772522641958143000,0.66314306640625,0.0566939471244812,-0.03063599781487137,0.04237704698441084
1772522641968140000,0.67314013671875,0.06416939757168293,-0.028950949071068315,0.038856101750070225
1772522641978137900,0.683137939453125,0.04441021961271763,-0.028299061033595353,0.04346277356161736
1772522641988135200,0.69313525390625,0.04485036459565162,-0.03277547579528764,0.05151120615776162
1772522641998132000,0.703132080078125,0.049182840842008586,-0.02590727052623406,0.04637513561067171
1772522642008129000,0.71312890625,0.05995031857192516,-0.02659459520326927,0.05276393703205976
1772522642018126800,0.723126953125,0.06188917768001556,-0.01801083645429462,0.05937901235683821
1772522642028124200,0.733124267578125,0.04257949705421924,-0.02033443882996216,0.04776165806562639
1772522642038121000,0.743120849609375,0.043619946017861365,-0.022194204819854346,0.056224128522491076
1772522642048118000,0.753117919921875,0.03987316070497036,-0.03303661094950512,0.058482008718186984
1772522642058115000,0.763114990234375,0.04959434425234795,-0.018865937179978937,0.05066231141057796
1772522642068113200,0.773113037109375,0.05886310785710811,-0.03158564495621249,0.03463789039999247
1772522642078110000,0.78310986328125,0.0486813210606575,-0.011163144250307231,0.03696401352630928
1772522642088107000,0.79310693359375,0.046882747206091875,-0.01951870200028643,0.04950957944518886
1772522642098104000,0.80310400390625,0.057950084665417664,-0.02088204450905323,0.051902949988283216
1772522642108102100,0.81310205078125,0.04238309769928455,-0.026927553484681992,0.05315757142556831
1772522642118099000,0.823098876953125,0.061381812679767604,-0.01981379422303289,0.05388847951600328
1772522642128096000,0.833095947265625,0.070950436013937,-0.027177765386085954,0.05806264166180044
1772522642138093000,0.843093017578125,0.052986909300088876,-0.02202131420467049,0.05122492286255583
1772522642148091100,0.853091064453125,0.04639408690631389,-0.021373974478151647,0.05426503034397028
1772522642158088000,0.863087890625,0.04788870937824249,-0.025140286475419996,0.06254786078445614
1772522642168085000,0.8730849609375,0.05147241308391094,-0.02635709665296599,0.04332025068523362
1772522642178082000,0.88308203125,0.04219020547568798,-0.028402283946052192,0.050476944906311105
1772522642188080000,0.893080078125,0.05759411083459854,-0.022662498185038564,0.05208504682322964
1772522642198077000,0.903076904296875,0.06641571519374848,-0.023508538821432737,0.058812720243586226
1772522642208074000,0.913073974609375,0.04830196635425091,-0.029464634214248508,0.05917589100017212
1772522642218071000,0.923071044921875,0.057876434907317156,-0.02165706573585048,0.06402064588391222
1772522642228068000,0.933068115234375,0.05876958435475826,-0.02806393710346892,0.06146915303650312
1772522642238066000,0.94306591796875,0.046643677753210065,-0.028855909465067088,0.06011729090297594
1772522642248063000,0.95306298828125,0.05307400306165218,-0.020330456774588675,0.055464067402807994
1772522642258060000,0.96306005859375,0.049773792472481725,-0.023353092531394212,0.06134639430651441
1772522642268057000,0.97305712890625,0.051261400681734084,-0.015363299353886395,0.040837539624562484
1772522642278055000,0.983054931640625,0.062328738141059874,-0.01755865397369489,0.04545939987208694
1772522642288052000,0.993052001953125,0.05738251391053199,-0.022143296616524456,0.04506578831146471
1772522642298049000,1.003049072265625,0.046453123617172236,-0.02161182008832693,0.03814464727877639
1772522642308046000,1.013046142578125,0.04195931932926178,-0.0249492574153468,0.044359923330741
1772522642318044000,1.0230439453125,0.056469490718841546,-0.030605785339698193,0.03616446977960877
1772522642328041000,1.033041015625,0.060952189090847965,-0.014371931962668895,0.0430424657903146
1772522642338038000,1.0430380859375,0.05376198532581329,-0.021788729291502384,0.04273797555156052
1772522642348035000,1.05303515625,0.044478608673810954,-0.01699517487203702,0.036102976250182835
1772522642358032000,1.063031982421875,0.04222819939851761,-0.016935517106670885,0.03760906996419653
1772522642368030000,1.073030029296875,0.04940495916008949,-0.022919231158774346,0.034091517696762455
1772522642378027000,1.083027099609375,0.0514957939594984,-0.015298636619839816,0.032139908704953264
1772522642388024000,1.093024169921875,0.04595569548904895,-0.024557682548183947,0.03649469724781811
1772522642398020900,1.103020751953125,0.051935354420542715,-0.01784753565136343,0.03133209032025188
1772522642408019000,1.11301904296875,0.042653146812319756,-0.01509270225157961,0.03970271777519956
1772522642418016000,1.12301611328125,0.05252162987589836,-0.0185683242065832,0.03382876597419381
1772522642428013000,1.133012939453125,0.0579050764799118,-0.015432985322922468,0.029671682827360928
1772522642438009900,1.143009765625,0.05640753139853477,-0.0247187183287926,0.041185814206115896
1772522642448008000,1.153008056640625,0.0412871191561222,-0.01719491696152836,0.03371876626107841
1772522642458005000,1.1630048828125,0.04203063099980354,-0.016997713888995347,0.0350965208876878
1772522642468002000,1.173001953125,0.047560208076238626,-0.019835147538315504,0.04278615294168703
1772522642477998800,1.182998779296875,0.04785422258675098,-0.020316209053527563,0.042013396737212313
1772522642487996200,1.19299609375,0.05533259564340114,-0.017378767362143843,0.03849531474681571
1772522642497994000,1.202993896484375,0.05009118785858154,-0.013803447892330586,0.044585895840032023
1772522642507991000,1.212990966796875,0.05951543428599834,-0.014709621218126266,0.03227252210867591
1772522642517987800,1.22298779296875,0.05561959589123726,-0.008840583054255693,0.03337067434261553
1772522642527985200,1.232985107421875,0.0451391184091568,-0.009862546513136476,0.03266842609108425
1772522642537983000,1.24298291015625,0.04947510178685188,-0.014367401918023824,0.032083611940452825
1772522642547980000,1.25297998046875,0.05051613527238369,-0.016806008975487202,0.030029191028140483
1772522642557977000,1.26297705078125,0.042431613016128536,-0.019944471397995947,0.029722828492708502
1772522642567974100,1.27297412109375,0.04422317260801792,-0.01800515563217923,0.03540870124255307
1772522642577972000,1.282971923828125,0.04945873517394066,-0.01730159220639616,0.0343730197855737
1772522642587969000,1.292968994140625,0.060526072633266446,-0.01409760853331536,0.028747398456139488
1772522642597966000,1.302966064453125,0.05528349580466747,-0.021543686755560336,0.039458871682500465
1772522642607963100,1.312963134765625,0.048994624793529507,-0.01296137104500085,0.036913370184460656
1772522642617961000,1.3229609375,0.054527709001302715,-0.014346139934286474,0.029078539239801464
1772522642627958000,1.3329580078125,0.042105449801683424,-0.011902235647197812,0.03819683412373997
1772522642637955000,1.342955078125,0.056766427838802334,-0.014812460538093,0.03189522236203775
1772522642647952100,1.3529521484375,0.04613923536241054,-0.011558902102243154,0.024711694932961836
1772522642657949000,1.362948974609375,0.05256956067085266,-0.022067199173010886,0.04439896756634116
1772522642667947000,1.372947021484375,0.06573416267037391,-0.015325488094147294,0.04162967638294212
1772522642677944000,1.382944091796875,0.05001578453481197,-0.009634509910922497,0.0434777610681951
1772522642687941000,1.392941162109375,0.0416314025491476,-0.014202566745132207,0.037125916956597935
1772522642697938000,1.40293798828125,0.04910977560579777,-0.01157263836665079,0.039918963474920015
1772522642707936000,1.41293603515625,0.05494330406486988,-0.017350637246202675,0.04144437381075695
1772522642717933000,1.42293310546875,0.060924716562032695,-0.0068595470385625955,0.04247799117481336
1772522642727930000,1.43293017578125,0.0516442625194788,-0.008047094589006156,0.037220362907554955
1772522642737927000,1.442927001953125,0.046999651584029196,-0.00950005160998553,0.043247733438294376
1772522642747925000,1.452925048828125,0.05178747038245201,-0.01153294567707926,0.03796540912119672
1772522642757922000,1.462922119140625,0.04685001398026943,-0.013959058579150587,0.04203449432416819
1772522642767919000,1.472919189453125,0.04759294130206108,-0.01595006799958646,0.036769870060542595
1772522642777916000,1.482916015625,0.04938625445961952,-0.011702712753415107,0.03869454537965357
1772522642787914000,1.4929140625,0.04474281256794929,-0.01504226897228509,0.03078634780468419
1772522642797911000,1.5029111328125,0.054615387284755706,-0.013849734719470142,0.03178347821640782
1772522642807908000,1.512908203125,0.05176993472576141,-0.011027151579409837,0.02381397890825756
1772522642817905000,1.52290478515625,0.047426937085390086,-0.0035905535715632137,0.023049296412384138
1772522642827902000,1.53290185546875,0.04353285225629806,-0.010694905684050172,0.02137942697140388
1772522642837900000,1.542900146484375,0.051310500520467754,-0.012499872746784239,0.023636686112591995
1772522642847897000,1.55289697265625,0.05624620335698127,-0.016663933623675256,0.020307770018745213
1772522642857894000,1.562893798828125,0.05549509272873401,-0.008102185777109116,0.02262787439622916
1772522642867891200,1.57289111328125,0.05025543850958347,-0.013349785840697586,0.01798557414887473
1772522642877889000,1.582888916015625,0.04336918612718582,-0.013250270988978444,0.015771058170869944
1772522642887886000,1.592885986328125,0.04905541507005691,-0.013846300653368233,0.023990203124843536
1772522642897883000,1.6028828125,0.04950257431566715,-0.011241013525798916,0.030958526033814996
1772522642907880200,1.612880126953125,0.06416355235278606,-0.014570906867180019,0.014941128419060258
1772522642917878300,1.622878173828125,0.05308744706511497,-0.007246390931680798,0.02208293559825979
1772522642927875000,1.632875,0.05203823027312755,-0.007459613557253032,0.03059097136305645
1772522642937872100,1.6428720703125,0.044107437273859976,-0.0091261950626038,0.031921589779155324
1772522642947869200,1.652869140625,0.050990182524919506,-0.005963054856564849,0.030242294922703875
1772522642957867300,1.6628671875,0.06729542063772678,-0.007878131230268627,0.044106003368599336
1772522642967864000,1.672864013671875,0.04649345562756061,-0.013556414328701792,0.03611230120095424
1772522642977861000,1.682861083984375,0.019109774139523503,-0.02745870121931657,0.04158169078906066
1772522642987858200,1.692858154296875,0.0565150834262371,-0.016050660563539713,0.041755028928816315
1772522642997855200,1.702855224609375,0.08105155878961086,-0.005043620190396904,0.04180239346818998
1772522643007853000,1.71285302734375,0.06278875686824321,-0.002246007094811648,0.04889461675146595
1772522643017850000,1.72285009765625,0.011461889734864235,-0.00895823635086417,0.04943917195694521
1772522643027847200,1.73284716796875,0.04243687371313572,-0.014309205457381903,0.04947954049995169
1772522643037844200,1.74284423828125,0.09660334818661212,-0.008826956387702376,0.03803243734226562
1772522643047842000,1.752842041015625,0.07460369782447815,-0.018602865797001867,0.037319877759274096
1772522643057839000,1.762839111328125,0.028811668464541435,-0.014895389581192284,0.033953314802469686
1772522643067836200,1.772836181640625,0.03015899142026901,-0.009578377543203532,0.043788169591082254
1772522643077833200,1.782833251953125,0.05634498755633831,-0.005342164745554327,0.041261802051775154
1772522643087831000,1.7928310546875,0.07968670017719268,-0.00891879938961938,0.02928206245526671
1772522643097828000,1.802828125,0.04212649258971214,-0.010656436837185174,0.024487092396849763
1772522643107825200,1.8128251953125,0.01788870791196823,-0.022039452649559824,0.027536798823671414
1772522643117822200,1.822822265625,0.03824000654518604,-0.0068148493803106246,0.01957920001586899
1772522643127820300,1.8328203125,0.06607026275694369,-0.004429634744208306,0.01959006846975535
1772522643137817000,1.842817138671875,0.06397708986997604,-0.005686521203815936,0.016356840435881165
1772522643147814100,1.852814208984375,0.03420212933123112,-0.016193320437241344,0.020856088083889335
1772522643157811200,1.862811279296875,0.03510170851945877,-0.023747900535259395,0.01925420584520325
1772522643167808000,1.87280810546875,0.06293254925310611,-0.012597396570816636,0.016677012300956993
1772522643177806000,1.88280615234375,0.06622165392637253,-0.00925999577641487,0.00756669979407452
1772522643187803100,1.89280322265625,0.049909986072778696,-0.012643957392591982,0.013867462172405793
1772522643197800200,1.90280029296875,0.039432431200146674,-0.012222096985019743,0.023488171886838972
1772522643207797000,1.912796875,0.03853460557758808,-0.010310436411108822,0.012359888887358828
1772522643217795000,1.922795166015625,0.06052724167704582,-0.00851529662264511,0.014451847064774483
1772522643227792100,1.932792236328125,0.0561842440366745,-0.009920980435796081,0.017706108753522857
1772522643237789200,1.9427890625,0.04151975886821747,0.000798420368693769,0.023314112227875737
1772522643247786000,1.952785888671875,0.046455461704730985,-0.0067849839650094505,0.022430579992150885
1772522643257784000,1.9627841796875,0.05782324341535568,-0.010429258751496672,0.0228308404892683
1772522643267781000,1.972781005859375,0.05452887804508209,-0.01229647739548236,0.020067257527448236
1772522643277778200,1.982778076171875,0.04659457791447639,-0.01345770319458097,0.0220286663940642
1772522643287775000,1.99277490234375,0.054823477077484126,-0.002918335132114589,0.028631288662645964
1772522643297773000,2.00277294921875,0.0449473952293396,-0.00663578475266695,0.035849576877849176
1772522643307770400,2.012770263671875,0.04718845215439796,-0.01440645528677851,0.0413044447502587
1772522643317767200,2.02276708984375,0.06933306394517422,-0.010486140037886798,0.036714029953768476
1772522643327764000,2.032763916015625,0.053020227047801016,-0.015492862283997237,0.033139897794043645
1772522643337762000,2.042761962890625,0.041344986823201174,-0.02613673190055415,0.04757681215116754
1772522643347759400,2.05275927734375,0.04658054938912391,-0.013534640888310969,0.043730676383338864
1772522643357756200,2.062756103515625,0.059596682828664774,-0.0031556510193273424,0.04565076685887761
1772522643367753000,2.0727529296875,0.05450841977894306,-0.013877901368029414,0.047859775544703005
1772522643377750300,2.082750244140625,0.047321723145246505,-0.011644278830755502,0.04066922471979633
1772522643387748400,2.092748291015625,0.05180442151725292,-0.01093205717448145,0.04287688169875182
1772522643397745200,2.1027451171875,0.05524667092561721,-0.010090765778440982,0.03342343657631427
1772522643407742000,2.112741943359375,0.052852469265460965,0.001839198125898838,0.03931205622348934
1772522643417739300,2.1227392578125,0.051200610405206674,-0.010266469405218958,0.04486094078859314
1772522643427737300,2.1327373046875,0.06227203951776027,-0.013853954236861317,0.03727087838524021
1772522643437734100,2.142734130859375,0.0610726006001234,-0.012100388567801565,0.036360732137225564
1772522643447731000,2.15273095703125,0.04341594787836075,-0.0034927557528950273,0.03327971725668758
1772522643457728300,2.162728271484375,0.045507951721549034,-0.006199128634762019,0.026971319561172276
1772522643467726300,2.172726318359375,0.04924480016231537,-0.014776475909259169,0.03243832539594732
1772522643477723100,2.18272314453125,0.05807166521847248,0.0022229367464780807,0.027021825905703005
1772522643487720200,2.19272021484375,0.046996728974580765,-0.020114037544932215,0.02738630270338617
1772522643497717200,2.20271728515625,0.053877720659971234,-0.020963347850646824,0.019356944700470193
1772522643507715300,2.21271533203125,0.04579495196938514,-0.02279160445742309,0.019178546793106942
1772522643517712100,2.222712158203125,0.05806055930256843,-0.0015828670109622179,0.028484190075844525
1772522643527709200,2.232709228515625,0.05626315449178219,-0.0038227000933140514,0.017869628752162678
1772522643537706200,2.242706298828125,0.04533844037353992,-0.0073130081607960164,0.016110957649722694
1772522643547703000,2.252703125,0.05027706581950187,-0.008513122931867838,0.017249505826132373
1772522643557701000,2.262701171875,0.06240004981160163,-0.005480513770319521,0.011089110899716615
1772522643567698200,2.2726982421875,0.049828737530112265,-0.0033529819560237225,0.018890039574773983
1772522643577695200,2.2826953125,0.036354923450946805,-0.011475516401417554,0.019748282105615363
1772522643587692000,2.292692138671875,0.033809915143251414,-0.005080499868374317,0.017134528543800116
1772522643597690000,2.302690185546875,0.052364978009462354,-0.008442377516906708,0.021645265700202435
1772522643607687200,2.312687255859375,0.05610358001589775,-0.01657046492025256,0.021162706347648053
1772522643617684200,2.322684326171875,0.0558048893302679,-0.01377526297746226,0.016947837732126936
1772522643627681000,2.332680908203125,0.03904430866539478,-0.009491831770911813,0.016178670857381075
1772522643637679000,2.34267919921875,0.04577858535647392,-0.013682104801293461,0.02145934207350947
1772522643647676200,2.35267626953125,0.05146481429934501,0.00946393911698833,0.018659801882319152
1772522643657673200,2.362673095703125,0.058193245771527284,-0.0026808365818113086,0.02081502542113885
1772522643667670300,2.372670166015625,0.05624620335698127,-0.020299952038470653,0.010838460606895386
1772522643677668000,2.382668212890625,0.0430780942261219,-0.01420771784428507,0.019873936045588923
1772522643687665200,2.3926650390625,0.04277823449671268,-0.014555709298048168,0.025265931282239033
1772522643697662200,2.402662109375,0.04292494949102402,-0.00784028343791142,0.02716603841567412
1772522643707659300,2.4126591796875,0.05953413898646831,-0.004691573616024107,0.02412689904863946
1772522643717657000,2.422656982421875,0.05654021786749363,-0.007008746250905096,0.015614378904970362
1772522643727654100,2.432654052734375,0.045319735673069954,-0.018504209461808203,0.02729910847712308
1772522643737651200,2.442651123046875,0.032899814561009405,-0.015255765592493116,0.028606473881797864
1772522643747648300,2.452648193359375,0.05893675761520862,-0.008201006509084254,0.016805671048769726
1772522643757645000,2.46264501953125,0.05519289491176605,-0.012032931088469923,0.015905215077707542
1772522643767643100,2.47264306640625,0.05594108293056488,-0.013972831376176326,0.023959278263617306
1772522643777640200,2.48264013671875,0.03723755150437355,-0.012975655298680066,0.022932154572429135
1772522643787637200,2.49263720703125,0.045617257314920424,-0.014300912553071974,0.0182326351119671
1772522643797634000,2.502634033203125,0.055043257308006285,-0.02028022442469373,0.02727843101527542
1772522643807632100,2.512632080078125,0.064318450653553,-0.01146956158466637,0.024289186071418223
1772522643817629200,2.522629150390625,0.05743161374926567,-0.005124448607955127,0.02062786881858483
1772522643827626200,2.532626220703125,0.05832943937182426,-0.003971807974111289,0.022205255936831234
1772522643837623000,2.542623046875,0.05159691624641418,-0.01155866464022547,0.025891461035748943
1772522643847621000,2.55262109375,0.06266717631518841,-0.00876561812190339,0.02190228180172853
1772522643857618200,2.5626181640625,0.049045478197932244,-0.014653050458990036,0.028460507806157692
1772522643867615200,2.572615234375,0.05622282248139381,-0.0026190599245950576,0.02739499746649526
1772522643877612000,2.582612060546875,0.05337736992239952,-0.006944339245185256,0.02138741848161444
1772522643887610000,2.592610107421875,0.04379764067232608,-0.013762385229580103,0.02258079298464581
1772522643897607200,2.602607177734375,0.0647457361549139,-0.012956621804647147,0.014774366150563581
1772522643907603700,2.612603759765625,0.058761401048302644,-0.015703089234884827,0.026459442782588303
1772522643917600500,2.6226005859375,0.040353053176403045,-0.005858608101401478,0.026095039050141346
1772522643927598600,2.6325986328125,0.032122984969615936,-0.012309026349801569,0.026367928574234246
1772522643937595600,2.642595703125,0.053670799911022186,-0.011374321049265564,0.02117300854595378
1772522643947592700,2.6525927734375,0.06833411603569985,-0.011364548573922365,0.022747536986833437
1772522643957589500,2.662589599609375,0.04379237997531891,-0.004466697085276246,0.021330975586641578
1772522643967587600,2.672587646484375,0.043942602100968356,-0.00676405077483505,0.026842934807995333
1772522643977584600,2.682584716796875,0.040646483165025706,-0.01092051286716014,0.018539344707271085
1772522643987581700,2.692581787109375,0.047827334579825395,-0.015670630003698168,0.020375154432840645
1772522643997578500,2.70257861328125,0.059949149528145784,-0.0017709003963507712,0.01947740187551826
1772522644007575800,2.712575927734375,0.04932312609553337,-0.007629745959769934,0.020322784924786536
1772522644017573600,2.72257373046875,0.05680559080541134,-0.008324779019225388,0.013694169698422774
1772522644027570700,2.73257080078125,0.03780219964981079,-0.007764021597616374,0.009375073523446917
1772522644037567500,2.7425673828125,0.04722995320856571,-0.004280380732938647,0.01625155343050137
1772522644047564800,2.752564697265625,0.06683306382298469,-0.008409406829066574,0.017381543841119854
1772522644057562600,2.762562744140625,0.07730301991105079,-0.004888137367740273,0.014649141468852758
1772522644067559700,2.7725595703125,0.052012511309981344,-0.01156953309411183,0.013042747451830655
1772522644077556700,2.782556640625,0.040190556091070175,-0.011204133847821504,0.026818384888628498
1772522644087553800,2.7925537109375,0.04437923995256424,-0.008507862234860658,0.023265286383777856
1772522644097551600,2.802551513671875,0.04871639237403869,-0.008705649829283357,0.02558274214644916
1772522644107548700,2.812548583984375,0.059337155109643935,-0.01382642690911889,0.025038397003524004
1772522644117545700,2.822545654296875,0.04093114532530308,-0.0070011474663391705,0.02159882360943593
1772522644127542800,2.832542724609375,0.03539280042052269,-0.00187998679401353,0.024345473702764138
1772522644137540600,2.84254052734375,0.04182604833841324,-0.013424531577341258,0.02525258774347603
1772522644147537700,2.85253759765625,0.0533475593060255,-0.010125362167786806,0.013381669683149083
1772522644157534700,2.86253466796875,0.048857846671342846,-0.003440477576386183,0.017581048468593506
1772522644167531800,2.87253173828125,0.05349485882222652,0.0031897176857106388,0.02723440007730387
1772522644177528600,2.882528564453125,0.05948036297261715,-0.021037015875056384,0.005125471521262079
1772522644187526700,2.892526611328125,0.040626609420776366,-0.008615341197326778,-0.0003946253407746553
1772522644197523700,2.902523681640625,0.0566372485011816,-0.00781030842475593,0.008499496265314519
1772522644207520800,2.912520751953125,0.061277183261513705,0.007207100100908428,0.022200990753667427
1772522644217517600,2.922517578125,0.04705868829488754,-0.0037337979671545323,0.010276753337215632
1772522644227515600,2.932515625,0.049152445703744885,-0.014751615462638437,0.01472891957364045
1772522644237512700,2.9425126953125,0.06067337214946746,-0.018463786119874565,0.013491404534783213
1772522644247509800,2.952509765625,0.0540881485402584,-0.012926591992564499,0.02220418735775165
1772522644257506600,2.962506591796875,0.04600421080589294,-0.011202617744170128,0.02432197409616783
1772522644267504600,2.972504638671875,0.0696475367218256,-0.013128325109742581,0.026647421369049698
1772522644277501700,2.982501708984375,0.030293431454896925,-0.009285404212307185,0.02202298557194881
1772522644287498800,2.992498779296875,0.0416664738625288,-0.0017173618445172904,0.028067645164206623
1772522644297495600,3.00249560546875,0.07189268530011177,-0.009666275022365152,0.02619955887054093
1772522644307493600,3.01249365234375,0.05707330183088779,-0.012814108061417936,0.029116679293103513
1772522644317490700,3.02249072265625,0.038517069920897484,-0.012433218985050915,0.025124403919698668
1772522644327487700,3.03248779296875,0.034172903236746786,-0.005646006530337035,0.03279596146089025
1772522644337484500,3.042484619140625,0.05332359390854835,-0.005842643347289413,0.03481319216797128
1772522644347482600,3.052482666015625,0.06469838988184928,-0.00806150670684874,0.030590560371102762
1772522644357479700,3.062479736328125,0.05422083500921726,-0.007837068567518144,0.02778071798160672
1772522644367476700,3.072476806640625,0.04389408678412437,-0.008341109099518507,0.02505748529648408
1772522644377473500,3.0824736328125,0.04673544768989086,-0.006819251560792327,0.02495328513649292
1772522644387471600,3.0924716796875,0.05257072971463203,-0.008928937191143632,0.023415060984855518
1772522644397468700,3.10246875,0.0610989040851593,-0.006555577389616519,0.02850756181827746
1772522644407465700,3.1124658203125,0.04149637799263,-0.011041107039526104,0.028285909291077403
1772522644417462500,3.122462646484375,0.03431552657783031,-0.01373191702608019,0.014600142094818875
1772522644427459800,3.1324599609375,0.05092763868272304,-0.01135539715308696,0.014958070420706644
1772522644437457700,3.142457763671875,0.052421676632761954,-0.0008390629063360392,0.012152383616520091
1772522644447454700,3.152454833984375,0.050776247513294216,-0.0013132014904171227,0.021003707260498775
1772522644457451500,3.162451416015625,0.04972878428697586,-0.004635843107104301,0.012844758928008376
1772522644467448800,3.17244873046875,0.05421674335598945,-0.009480451860371976,0.006321622503269463
1772522644477447000,3.182447021484375,0.03550970479846,-0.01250906070023775,0.015389895099867134
1772522644487443700,3.192443603515625,0.05376490793526172,-0.0110360107393004,0.006623254064656794
1772522644497440500,3.2024404296875,0.03940203606188297,0.001364767280872911,0.0013617076741065828
1772522644507437800,3.212437744140625,0.04673486316800117,-0.00960037017930299,0.004626801284123212
1772522644517436000,3.222435791015625,0.05361702389717102,-0.012004618309438228,-0.0008947203500196337
1772522644527432700,3.2324326171875,0.06708382371366024,-0.003137366443965584,0.007135185642167925
1772522644537429500,3.242429443359375,0.05526186849474907,-0.0040763460608199235,0.00431277603204362
1772522644547426800,3.2524267578125,0.030569910308718678,-0.0017793576974421737,0.012643455069093033
1772522644557425000,3.2624248046875,0.04493453574776649,0.0008497304308228194,0.006927104982594028
1772522644567421700,3.272421630859375,0.07680676082670689,-0.007713971910811961,0.006545448721246794
1772522644577418500,3.28241845703125,0.07007073056995869,-0.004874857761058956,0.009846937952050938
1772522644587415800,3.292415771484375,0.03550269053578377,-0.010638407990150154,0.016126456612953914
1772522644597414000,3.302413818359375,0.020837036323547362,-0.021500706130359322,0.014772174193477258
1772522644607410700,3.31241064453125,0.04163666324615478,-0.012083729693945496,0.019962682908121494
1772522644617407500,3.322407470703125,0.06602467004954815,-0.005300298365205526,0.01832037732750177
1772522644627404800,3.33240478515625,0.04941431151032447,-0.011356164338067173,0.028528184481197965
1772522644637401600,3.342401611328125,0.04268120386302471,-0.0015028605773113666,0.018525170051446185
1772522644647399700,3.352399658203125,0.03924304610788822,0.0018486418076790868,0.032767520817695184
1772522644657396700,3.362396728515625,0.061840662363171574,-0.006428498677536845,0.024801428176183252
1772522644667393800,3.372393798828125,0.06004267303049564,-0.005119023514166474,0.024848628318775445
1772522644677390600,3.382390625,0.029966099196672438,-0.009361026731785385,0.018857708207750692
1772522644687388700,3.392388671875,0.05286006805002689,-0.009831128461565822,0.017390960123436525
1772522644697385700,3.4023857421875,0.06378127503693104,-0.0008076265884563327,0.020412472502235324
1772522644707382800,3.4123828125,0.05240706358551979,-0.0033103301243856548,0.028261797763127833
1772522644717379600,3.422379638671875,0.01424889010488987,-0.020366532734967767,0.026410909199435263
1772522644727377700,3.432377685546875,0.02472059975862503,-0.023427381610311566,0.030337928183749318
1772522644737374700,3.442374755859375,0.06063362466096878,-0.012547657411266117,0.02889962074263021
1772522644747371800,3.452371826171875,0.08143149801790714,-0.0011476721977815032,0.028833752432186156
1772522644757368600,3.46236865234375,0.05135317061841488,0.002953223782405257,0.023407571798143907
1772522644767366700,3.47236669921875,0.037136429217457766,-0.009998721847124397,0.032419145771441976
1772522644777363700,3.48236376953125,0.031601006922125814,-0.017502923464775083,0.024815164440590887
1772522644787360800,3.49236083984375,0.0488075777888298,-0.014594123345986008,0.025078610282903535
1772522644797357600,3.502357666015625,0.1113531735509634,0.000949701940268278,0.01008100243625231
1772522644807355600,3.512355712890625,0.07424129425287246,0.013383395849354565,0.003803511335654184
1772522644817352700,3.522352783203125,-0.0047667760103940965,-0.006847454741969705,0.005751037807390094
1772522644827349800,3.532349853515625,0.014386252748966216,-0.021130374980624762,0.00740863228868693
1772522644837346800,3.542346923828125,0.06257014568150043,-0.010385748403333128,-0.006819352025492116
1772522644847344600,3.5523447265625,0.10311726012527941,-0.004721932221669703,0.0019701401623431593
1772522644857341700,3.562341796875,0.02799626042842865,-0.004651917459070682,-0.004151347525790334
1772522644867338800,3.5723388671875,-0.0007294833183288574,-0.009159585875552148,0.006574218158004805
1772522644877335800,3.582335693359375,0.05972703121006488,-0.009452230412885546,0.00228223831881769
1772522644887333600,3.592333740234375,0.08261573936641216,-0.0007269443013705313,-0.005982106616906822
1772522644897330700,3.60233056640625,0.07094049914181232,-0.0002833104534074664,-0.0024744546889793125
1772522644907328000,3.612327880859375,0.022609891214966774,-0.008919530041981488,0.014308054679911583
1772522644917325000,3.622324951171875,0.04341244074702263,-0.003984411727357655,0.011494084104569629
1772522644927321900,3.63232177734375,0.062415831902623176,-0.01148110589198768,-0.0006821461784187704
1772522644937320000,3.64231982421875,0.0731897393733263,-0.010622004844620824,0.012250263633579015
1772522644947317000,3.65231689453125,0.0544850389033556,0.0011996215807273984,0.018529700096091256
1772522644957314000,3.66231396484375,0.024708909320831297,-0.003654193392302841,0.03896499635148793
1772522644967310800,3.672310791015625,0.028302549898624418,-0.017645638137403875,0.026600422155857086
1772522644977309000,3.682308837890625,0.07439151637852191,-0.0028558643551543353,0.018087892879033462
1772522644987306000,3.692305908203125,0.06705752022862434,-0.005053593595139682,0.02534272284549661
1772522644997303000,3.702302978515625,0.025011107137799263,-0.010957045485265552,0.021944157315231857
1772522645007299800,3.7122998046875,0.026063246539235113,-0.006197009742911905,0.036917662767088036
1772522645017298000,3.7222978515625,0.06257423733472824,-0.012494666848704218,0.0421944067267701
1772522645027295000,3.732294921875,0.0743967770755291,-0.010144852319546043,0.04433067896994762
1772522645037292000,3.7422919921875,0.05240063384473324,-0.0011655914469622076,0.03077139683072455
1772522645047288800,3.752288818359375,0.03040507513582706,0.011243296814430504,0.030848590252781284
1772522645057287000,3.762286865234375,0.04836392567455768,-0.0072961300912313155,0.03331584801599383
1772522645067284000,3.772283935546875,0.060033905202150344,-0.01428461900539696,0.03939368835864589
1772522645077281000,3.782281005859375,0.0464157142162323,-0.016219733520131556,0.03255640795081854
1772522645087277800,3.79227783203125,0.021575871992111206,-0.00806103178281337,0.025997259497782213
1772522645097276000,3.80227587890625,0.040433132675290105,-0.013554222371615469,0.0198222880567424
1772522645107273000,3.81227294921875,0.07170680733919144,-0.009572514057997614,0.01150499822422862
1772522645117270000,3.82227001953125,0.0703577308177948,-0.004926058225333691,0.011394167394051328
1772522645127266800,3.832266845703125,0.03953238444328308,-0.011709653950855135,0.0037195959118660536
1772522645137265000,3.842264892578125,0.03399637762606144,-0.011562829358689486,-0.003600417378451675
1772522645147262000,3.852261962890625,0.0582365003913641,-0.0003134315970353782,-0.0063378155862446875
1772522645157259000,3.862259033203125,0.07095160505771636,-0.005732753232028335,-0.013514356152107939
1772522645167255800,3.872255859375,0.05269757096469402,-0.009051741586904973,-0.012653391941217704
1772522645177254000,3.88225390625,0.02172375603020191,-0.017202113887295124,-0.004822990576503798
1772522645187251000,3.8922509765625,0.04282207363843918,-0.01583272523023188,-0.007542451268807053
1772522645197248000,3.902248046875,0.06840951935946941,-0.012898425344005227,-0.0027161636235192416
1772522645207244800,3.912244873046875,0.05359656563103199,-0.015937957436684518,-0.012293079861998558
1772522645217242000,3.9222421875,0.03459317447543144,-0.009071487466990947,-0.009419095328263937
1772522645227240000,3.932239990234375,0.04985504101514816,-0.0029397249800153075,-0.0047216673601884395
1772522645237237000,3.942237060546875,0.07304828507602214,0.011414598260726778,0.0025538035355042663
1772522645247233800,3.95223388671875,0.08082885594964027,-0.00643346711359918,-0.0031741821898613122
1772522645257231000,3.962231201171875,0.03504033372104168,-0.018989125168230384,0.015118868739297613
1772522645267229000,3.97222900390625,0.019178163200616834,-0.0143473272443749,0.01853156325961463
1772522645277226000,3.98222607421875,0.05269815548658371,-0.0003263458775356412,0.016014073146507143
1772522645287222800,3.992222900390625,0.07020283251702784,-0.0015355938031338153,0.026291383606148883
1772522645297220000,4.00222021484375,0.04610767118036747,-0.009894421222433447,0.031049830179614945
1772522645307218000,4.012218017578125,0.026506314131617543,-0.01075255415542051,0.020425615111598745
1772522645317215000,4.022215087890625,0.03174421478509903,-0.015681754185911268,0.03159463198026642
1772522645327211800,4.032211669921875,0.06331950274407863,-0.013513360638264567,0.03577901412597857
1772522645337209000,4.042208984375,0.08022387579381465,-0.0013684753416106103,0.026708531305985522
1772522645347207000,4.05220703125,0.05403437252640724,0.0023820180320180953,0.029545243436098097
1772522645357204000,4.062203857421875,0.046404608300328255,-0.004103964720107615,0.028114890972571447
1772522645367200800,4.07220068359375,0.050444239079952234,-0.006015533962473273,0.02868050723238848
1772522645377198000,4.082197998046875,0.06705225953161716,-0.01187697334177792,0.02932005637809634
1772522645387196000,4.09219580078125,0.05208733011186122,-0.01119648026432842,0.030118330616317687
1772522645397193000,4.10219287109375,0.04774491699337959,0.0012310213659889996,0.017925450592627748
1772522645407189800,4.112189697265625,0.04415186093747615,-0.011694419849105178,0.0131848228036426
1772522645417187000,4.12218701171875,0.04654898520708084,-0.010622552833892405,0.011681989625794812
1772522645427185000,4.132184814453125,0.04265899203121662,-0.01325807070294395,0.005602998505672439
1772522645437182000,4.142181884765625,0.06420329984128474,-0.010191303543467074,0.004136177356122061
1772522645447178800,4.1521787109375,0.04654255546629429,0.000394771471247077,-0.004677554223826155
1772522645457176000,4.162176025390625,0.03890928410887718,-0.0025303587278351185,0.005588677719375118
1772522645467174000,4.172173828125,0.03576747895181179,-0.010885642483178526,-0.0008070238002575933
1772522645477171000,4.1821708984375,0.057314124849438666,-0.01089614561088383,-0.005720898397453129
1772522645487167700,4.192167724609375,0.07901157739460468,-0.003870539556723088,0.003095801457716152
1772522645497165000,4.2021650390625,0.04414660024046898,-0.00014748217929154634,0.004590423929644748
1772522645507161900,4.212161865234375,0.01616144572794437,-0.0050844636574387545,0.0018750822900328785
1772522645517160000,4.222159912109375,0.03082476185262203,-0.006939279477577656,0.0019114139787387101
1772522645527156700,4.23215673828125,0.06494155098795891,-0.008145933587290346,0.009642200027033686
1772522645537154000,4.242154052734375,0.06748539025187492,-0.008555774763505905,0.007604721116367727
1772522645547150800,4.25215087890625,0.041297640550136565,-0.009115271809790283,0.00714649248747155
1772522645557149000,4.26214892578125,0.03171966486573219,-0.00040047055967152114,0.013227803428843617
1772522645567145700,4.272145751953125,0.05386486117839813,0.008522073423303663,0.022553338722139597
1772522645577143000,4.28214306640625,0.07122165417075156,-0.004939520495105535,0.02350480336123146
1772522645587139800,4.292139892578125,0.04832300914227962,-0.010138605241850018,0.02300270819114521
1772522645597138000,4.302137939453125,0.028424130451679228,-0.009172171362489462,0.027885676193423567
1772522645607134700,4.312134765625,0.041294133418798444,-0.01701870187809691,0.02609671041741967
1772522645617132000,4.322132080078125,0.052666591304540634,-0.01625491443136707,0.023736885950900614
1772522645627128800,4.33212890625,0.06807809544801711,-0.008534622377622873,0.028098935351613907
1772522645637127000,4.342126953125,0.0626893881469965,-0.0007194185820408165,0.019495832581352443
1772522645647123700,4.352123779296875,0.04412848006188869,-0.0029215134698897596,0.029128269266197455
1772522645657121000,4.36212109375,0.02377718142867088,-0.011735646908637135,0.024055139853525906
1772522645667117800,4.372117919921875,0.06432897204756736,-0.010551460359059274,0.02236162467547692
1772522645677116000,4.382115966796875,0.07540098568201065,-0.010067786761652677,0.012896626112563534
1772522645687112700,4.39211279296875,0.049510173100233076,-0.004498663126118481,0.010251481898641213
1772522645697110000,4.402110107421875,0.02018061824142933,-0.010203213176969438,0.016305210713343694
1772522645707106800,4.41210693359375,0.03873509658575058,-0.012308460094220935,0.02475901380656287
1772522645717105000,4.42210498046875,0.07808511019945144,-0.006125862469151616,0.01645657448330894
1772522645727102000,4.43210205078125,0.08302315112352371,0.0006235021932050586,0.011540736257890238
1772522645737099000,4.44209912109375,0.04636427628993988,0.007660670820996165,0.01631380501175299
1772522645747095800,4.452095703125,0.03738660458624363,-0.006646068684663623,0.0223739544340875
1772522645757094000,4.462093994140625,0.06611994711756705,-0.010893095137272029,0.013238544018566608
1772522645767091000,4.472091064453125,0.07584931397140025,-0.007698902205843478,0.0031451022258494046
1772522645777088000,4.482087890625,0.04592120869755745,-0.0004933730075135827,0.022459468159917742
1772522645787084800,4.492084716796875,0.034551088899374006,-0.007437712252698838,0.01760913291876204
1772522645797083000,4.502082763671875,0.0611859978467226,-0.013631488858908414,0.006872260389663279
1772522645807080000,4.512079833984375,0.08303191895186901,-0.007319054309092462,0.007100598385976627
1772522645817077000,4.522076904296875,0.04427285696864128,-0.0040002303509972985,0.012372574838995933
1772522645827073800,4.53207373046875,0.0194324302226305,-0.008283972084801644,0.016895778751326723
1772522645837072000,4.54207177734375,0.033950200396776195,-0.004899827805534005,0.016415968478284776
1772522645847069000,4.55206884765625,0.06746960816085339,0.0035999424544163046,0.005810512909665703
1772522645857066000,4.56206591796875,0.06177987208664417,-0.004631367861386388,0.004530939694214612
1772522645867063000,4.57206298828125,0.04681435814499855,-0.010783351152483373,0.01430525993462652
1772522645877059800,4.582059814453125,0.043369770649075504,-0.0074079381689429276,0.008808452616631985
1772522645887058000,4.592057861328125,0.056688101905584334,-0.0029403277682140466,0.011093229952408001
1772522645897055000,4.602054931640625,0.054441784283518785,-0.004638783982861787,0.014226166816428304
1772522645907052000,4.612052001953125,0.04367021490037441,-0.006669413027632981,0.014130962813645601
1772522645917049000,4.622049072265625,0.04666296697556972,-0.005032057616766542,0.020133016240037976
1772522645927047200,4.632047119140625,0.050554129195213314,-0.007763437075726688,0.011273262694431468
1772522645937044200,4.642044189453125,0.054742228534817694,-0.005753047101385891,-0.00027140081990510224
1772522645947041000,4.652041015625,0.050104047340154646,-0.010889734136406332,0.00910623911996372
1772522645957038000,4.6620380859375,0.0516004233777523,-0.010044698147010058,0.01578051098580472
1772522645967036200,4.6720361328125,0.04636193820238113,0.0014575601308606564,0.011603079170687123
1772522645977033200,4.682033203125,0.051449032208323475,-0.006469798802305013,0.02098086524102837
1772522645987030000,4.692030029296875,0.04471417099535465,-0.00879789468999952,0.01257494727699086
1772522645997027000,4.702027099609375,0.05189619145393371,-0.015726104784291237,0.015298837549239396
1772522646007025200,4.712025146484375,0.057281391623616215,-0.007210552433319389,0.015732415794068946
1772522646017022200,4.722022216796875,0.050694998970627785,-0.0004005253585986793,0.015073641358083114
1772522646027019000,4.73201904296875,0.05742518400847912,-0.0017696217547170817,0.012587934622727334
1772522646037016000,4.74201611328125,0.05248655856251716,-0.0032762086590752003,0.017448535529570652
1772522646047014100,4.75201416015625,0.05966857902109623,-0.005798603276163339,0.012633600395359098
1772522646057011200,4.76201123046875,0.04784311667084694,-0.014137867478467523,0.006766626324411482
1772522646067008000,4.772008056640625,0.04454933582246303,-0.008457118428312241,0.014581839253148062
1772522646077005000,4.782005126953125,0.05427519554495811,0.002330306111089885,0.014704269189573824
1772522646087003100,4.792003173828125,0.046640170621871944,0.0049495121661573644,0.015280370310787111
1772522646097000200,4.802000244140625,0.049782560300827026,-0.003323536665830761,0.014200694448454305
1772522646106997200,4.811997314453125,0.04274725483655929,-0.013816270841285585,0.024961897701211273
1772522646116994000,4.821994140625,0.06638590457737445,-0.011036175136081874,0.022643373359460383
1772522646126992100,4.8319921875,0.04977788412570953,-0.006332856283336878,0.010086847655149176
1772522646136989200,4.8419892578125,0.04454115251600742,-0.010026377039030194,0.02120986995762214
1772522646146986200,4.851986328125,0.042593525579571724,-0.0106164518866688,0.02373571690712124
1772522646156983000,4.861983154296875,0.0488771358937025,-0.004882730540260672,0.011419922889815642
1772522646166981000,4.871981201171875,0.059950903093814845,-0.003713047440070659,0.02116970234401524
1772522646176978200,4.881978271484375,0.06189443837702274,-0.012637144059315323,0.01961489238375798
1772522646186975200,4.891975341796875,0.04513561127781868,-0.012795805219747125,0.011284962265379726
1772522646196972000,4.901971923828125,0.05441255818903446,-0.004497073957230895,0.01612039219834842
1772522646206969000,4.911968994140625,0.05935118363499641,-0.004797481675911695,0.008066575607610866
1772522646216967200,4.92196728515625,0.06159282508194446,-0.004121116784308106,0.009733065781416372
1772522646226964200,4.931964111328125,0.052016602963209146,-0.006447550437878817,0.0095236425481271
1772522646236961000,4.9419609375,0.04782850362360477,-0.008011091693863272,0.0034215171475894747
1772522646246958000,4.9519580078125,0.05097147782444954,0.00006343889134004711,0.007650112894363701
1772522646256956200,4.9619560546875,0.062492988792061804,-0.0020847521184943615,0.006397327221138402
1772522646266953200,4.971953125,0.03884966287612915,-0.0025498488795943556,0.004074866489786655
1772522646276950000,4.981949951171875,0.034061259555816646,-0.005129307446163148,0.007192898045619949
1772522646286947300,4.991947265625,0.05650514655411243,-0.004857577832695096,0.007387470769649371
1772522646296945200,5.001945068359375,0.04453238468766212,-0.0007564261241815984,0.0020928897591773418
1772522646306942200,5.011942138671875,0.0526157379001379,-0.004610489470139145,0.0028799758831039067
1772522646316939000,5.02193896484375,0.04722936868667602,-0.004352441322151571,0.009762949463026598
1772522646326936300,5.031936279296875,0.05067220261693001,-0.004132496694847941,-0.00014710771995596586
1772522646336934100,5.04193408203125,0.049775546038150785,-0.01049973017182201,0.013780258812988177
1772522646346931200,5.05193115234375,0.05621113204360008,-0.0031210363636724647,0.008325034747552126
1772522646356928000,5.061927978515625,0.04648351875543594,-0.0025540318643674253,0.005485537005309015
1772522646366925300,5.07192529296875,0.047077977517247196,-0.004947502872161567,0.009095261068223044
1772522646376923100,5.081923095703125,0.045131519624590874,-0.002247943323571235,0.012307135786814614
1772522646386920200,5.091920166015625,0.05380874707698822,-0.008387889117002487,0.01613090445920825
1772522646396917000,5.1019169921875,0.05380874707698822,-0.013905191233754157,0.02409023856637068
1772522646406914300,5.111914306640625,0.033906361255049706,-0.014479812783934174,0.01671150822560303
1772522646416912100,5.121912109375,0.05081365691423416,-0.0030260880892165,0.023883226485876364
1772522646426909200,5.1319091796875,0.05126373876929283,-0.0060788997885771094,0.02555063910828903
1772522646436906000,5.141906005859375,0.06996434758603573,-0.0002605140997096896,0.019864127037627622
1772522646446903300,5.1519033203125,0.06277823547422885,-0.0036938678155653175,0.027867373351752756
1772522646456901000,5.161901123046875,0.04796177461445331,-0.006819982213154435,0.02436702794744633
1772522646466898200,5.171898193359375,0.043021980124711985,-0.01096270804107189,0.02637700692983344
1772522646476895000,5.18189501953125,0.04571370342671871,-0.006770224787294864,0.03100589970634319
1772522646486892300,5.191892333984375,0.06756137809753418,-0.0022888050569221377,0.027002774145361036
1772522646496890000,5.20189013671875,0.0671118807643652,-0.006642086629290133,0.029961477820482103
1772522646506887200,5.21188720703125,0.04810965865254402,-0.012614877428580074,0.023812143144197762
1772522646516884000,5.221884033203125,0.032550270470976826,-0.014340860970970242,0.026328692542389034
1772522646526881300,5.23188134765625,0.03748714235126972,-0.009176153417862952,0.015596569253643973
1772522646536879000,5.241879150390625,0.05499766460061073,-0.0032531565770506856,0.016163601152412593
1772522646546876200,5.251876220703125,0.05739361982643604,-0.003585712999664247,0.007726977522857487
1772522646556873000,5.261873046875,0.049314358267188066,-0.01038799515934661,-0.00182274018144235
1772522646566870300,5.271870361328125,0.025974399212002754,-0.008322733192611485,0.004336001644004136
1772522646576868000,5.2818681640625,0.044080549266934395,-0.003851579127926379,-0.0057521337859332555
1772522646586865200,5.291865234375,0.06053951663672923,-0.0027382841237820685,-0.014704588849982245
1772522646596862000,5.301862060546875,0.053204935964941975,0.0014237857254222035,-0.02159308798839338
1772522646606859300,5.311859375,0.052011926788091654,-0.0031034276417456564,-0.015118713475670665
1772522646616857000,5.321857177734375,0.0612906272649765,0.006398176604509353,-0.018277277971291913
1772522646626852000,5.33185205078125,0.05740063408911228,-0.005058488965965807,-0.02371304841758683
1772522646636849200,5.34184912109375,0.04004442561864853,-0.006703315297234803,-0.021937782373372464
1772522646646846000,5.351845947265625,0.03974807302057743,0.0013609496222808956,-0.015905288142943754
1772522646656844000,5.361843994140625,0.05126899946630001,-0.0011176423856988549,-0.010655486989114433
1772522646666841000,5.371841064453125,0.055908934226632116,-0.011774572413228452,-0.010435286633484066
1772522646676838100,5.381838134765625,0.040948680981993675,-0.005641713947709649,-0.005727236806694418
1772522646686835000,5.3918349609375,0.020752280649542806,-0.0049060200843028725,-0.0008209153282921761
1772522646696833000,5.4018330078125,0.03317921602427959,-0.010994436619896441,0.026934850875148547
1772522646706830000,5.411830078125,0.09154255766570568,0.0018768632551655173,0.03383104012967087
1772522646716827100,5.4218271484375,0.05832359415292739,0.0013425371827557682,0.043396686055464664
1772522646726824000,5.431823974609375,0.06834756003916263,-0.0037988442936912176,0.04386812122580595
1772522646736822000,5.441822021484375,0.047100189349055285,-0.01471296395268291,0.06086119547230191
1772522646746819000,5.451819091796875,0.018823942935466766,-0.00021853812150657176,0.06957845354098827
1772522646756816100,5.461816162109375,0.0697042353451252,-0.006049399699456989,0.06890034421687014
1772522646766813000,5.47181298828125,0.05324702154099941,-0.001989749045111239,0.07180381057341582
1772522646776810200,5.481810302734375,0.01643967814743519,-0.01092469585193321,0.06615998686701059
1772522646786808300,5.491808349609375,0.050260114684700964,-0.00717977370256558,0.057333304473944004
1772522646796805000,5.50180517578125,0.07195932079553603,-0.0006403985290788114,0.05444023164724931
1772522646806802000,5.511802001953125,0.06283201148808003,0.004635843107104301,0.05602678845264017
1772522646816799200,5.52179931640625,0.03170797442793846,-0.0038796179123222825,0.04395229237792082
1772522646826797300,5.53179736328125,0.03799216926395893,0.008598572725616396,0.041772756381751965
1772522646836794000,5.541794189453125,0.0650765755444765,-0.0056462622586637735,0.033208140724664555
1772522646846791000,5.551791015625,0.07988777570724487,-0.007646295235771685,0.021871685734065248
1772522646856788200,5.561788330078125,0.05474456662237644,-0.01191984436912462,0.0173720636267215
1772522646866786300,5.571786376953125,0.04082651590704918,-0.006297547507937997,0.01227446649307385
1772522646876783000,5.581783203125,0.021074352210760115,-0.010365217071957885,0.0032538050310220567
1772522646886780000,5.59177978515625,0.04187397913336754,0.001369808782171458,-0.013431372310081496
1772522646896777200,5.601777099609375,0.054745151144266126,-0.019516911901999265,-0.01188574117012322
1772522646906775300,5.611775390625,0.09021101680099963,0.006625975744705647,-0.02541989800124429
1772522646916771600,5.621771484375,0.022726211071014402,0.004300930330622941,-0.03226868618377484
1772522646926768600,5.6317685546875,0.04233458238244057,0.0038987975368276234,-0.0326093163149897
1772522646936765700,5.641765625,0.053557987186312675,0.001817278555035591,-0.040611585381580516
1772522646946763800,5.651763671875,0.07585223658084869,0.0007667831214144826,-0.04659286088142544
1772522646956760600,5.661760498046875,0.037545010018348694,-0.0038164164829999204,-0.047546645341766995
1772522646966757600,5.671757568359375,0.04188450052738189,-0.00906697568865493,-0.03203001858969219
1772522646976754700,5.681754638671875,0.053254035803675645,-0.0025158918110653756,-0.03538146617575549
1772522646986752800,5.691752685546875,0.0420323845654726,-0.005073887464497238,-0.024359456562343982
1772522646996749600,5.70174951171875,0.03410509869754314,-0.016301621383614837,-0.020266442494513467
1772522647006746600,5.71174658203125,0.03036591216921806,-0.01679479346172884,-0.018233749356819314
1772522647016743700,5.72174365234375,0.062090253210067746,-0.007703012125380337,-0.01296660434254445
1772522647026741800,5.73174169921875,0.047426352563500404,-0.0241701993342489,-0.00020375154432840644
1772522647036738600,5.741738525390625,0.028725743746757505,-0.0026717947588302195,0.0072470759182702744
1772522647046735600,5.751735595703125,0.02020049198567867,0.008061853766720741,0.020772674983600154
1772522647056732700,5.761732666015625,0.045346039158105846,0.003940974444430321,0.029965112815983592
1772522647066730800,5.771730712890625,0.05852116255164146,-0.016791377661935985,0.03588395407148637
1772522647076727600,5.7817275390625,0.06555763705968856,-0.020870007011387495,0.042040312143601474
1772522647086724600,5.791724609375,0.055985506594181056,-0.00916345833307132,0.045385485252505166
1772522647096721700,5.8017216796875,0.05254734883904457,0.003470342991687357,0.05963773635826073
1772522647106719700,5.8117197265625,0.08142974445223808,0.001709872657805681,0.0568300128606148
1772522647116716500,5.821716552734375,0.08173194226920605,-0.008105985169392078,0.06605199644789099
1772522647126713900,5.8317138671875,0.06377893694937228,-0.01691544243302196,0.07139322047852911
1772522647136710700,5.841710693359375,0.02173077029287815,-0.006121971745323389,0.0645440669698175
1772522647146708700,5.851708740234375,0.05689677622020244,0.000014759177714586257,0.0715073118448723
1772522647156705500,5.86170556640625,0.06213350782990455,-0.0059780514962971204,0.07055571934161707
1772522647166702800,5.871702880859375,0.06991232513785361,-0.009591437954176217,0.06966317268237471
1772522647176699600,5.88169970703125,0.06886427738964557,-0.007970595286693423,0.04863317106999457
1772522647186697700,5.89169775390625,0.04552139572501182,-0.010152779897674918,0.04958871822915971
1772522647196694500,5.901694580078125,0.05763853449821472,0.0018627981971949337,0.04039893814474344
1772522647206691800,5.91169189453125,0.0607762480020523,0.003776906456518918,0.035943182578589764
1772522647216688600,5.921688720703125,0.03488368185460567,-0.004747340657562017,0.028721807357156647
1772522647226686700,5.931686767578125,0.0401198289424181,-0.012561521539837122,0.02227700599879026
1772522647236683500,5.94168359375,0.06226093360185623,-0.012254811944533138,0.0033617406512144953
1772522647246680800,5.951680908203125,0.06824117705523967,-0.006466675263457,-0.012013961526518686
1772522647256677600,5.961677734375,0.05103051453530788,0.0019796477762050926,-0.01435992186446674
1772522647266675700,5.97167578125,0.038160511568188664,-0.0005866042489185929,-0.020788000416895373
1772522647276672500,5.981672607421875,0.058958384925127026,-0.0009554740939289331,-0.031446400882303716
1772522647286669800,5.991669921875,0.08543898009359836,-0.006240337427984923,-0.0362409690819215
1772522647296666600,6.00166650390625,0.08887246167361736,0.0013053287112154066,-0.05020892335358076
1772522647306664700,6.011664794921875,0.030060791742801664,-0.007849489657673984,-0.048854713999340306
1772522647316661500,6.02166162109375,-0.014981880554556846,-0.011790336237940936,-0.0421554172900971
1772522647326658800,6.031658935546875,-0.0344295083463192,-0.008438304129987955,-0.0426337205926422
1772522647336655600,6.041655517578125,0.02184007588624954,-0.02149252282390371,-0.03868234348520636
1772522647346653700,6.05165380859375,0.05027531225383281,-0.018892660790123045,-0.04282756266430952
1772522647356650500,6.061650390625,0.07766366991698742,-0.00486590726962313,-0.04840296991015784
1772522647366647800,6.071647705078125,0.0791629685640335,0.0015712861710228026,-0.029824215641105545
1772522647376644600,6.08164453125,0.05208090037107467,0.012519837822578846,-0.011857994646672159
1772522647386641700,6.0916416015625,0.06150865392982959,0.011328015955816954,-0.00030185075709596274
1772522647396639500,6.101639404296875,0.0713859048217535,0.004223663843329996,-0.009098320674989372
1772522647406636800,6.11163671875,0.061061494684219356,-0.00816425469527021,0.0015846114434767513
1772522647416633600,6.121633544921875,0.05821662664711475,-0.0027813743468374013,0.023153341308748347
1772522647426631700,6.131631591796875,0.048040685069561,-0.007268694095034152,0.02563022541683167
1772522647436628500,6.14162841796875,0.0546200634598732,-0.017372173224575817,0.027027187067409975
1772522647446625800,6.151625732421875,0.03920739027261734,-0.013372472596541046,0.038937213295418764
1772522647456622600,6.16162255859375,0.03292261091470718,-0.010986856101639568,0.04235173444664105
1772522647466619600,6.17161962890625,0.052225861799716944,-0.01650024922825396,0.05567318010884337
1772522647476617500,6.181617431640625,0.05087853884398937,-0.013357859549298882,0.05177029091878794
1772522647486614800,6.19161474609375,0.05716507176756858,-0.005238393843825906,0.0490477523534093
1772522647496611600,6.201611572265625,0.0674865592956543,-0.002093172886967659,0.06172070751162245
1772522647506608600,6.211608642578125,0.057609892925620076,-0.00010515914121642708,0.06738095262986607
1772522647516606500,6.2216064453125,0.04683598545491695,-0.0015346439550630747,0.0686081015383359
1772522647526603800,6.231603759765625,0.05087795432209968,-0.008315919859334825,0.05582059835605323
1772522647536600600,6.2416005859375,0.07481821735799313,-0.0036402561984956263,0.04737019279631786
1772522647546598700,6.2515986328125,0.0634434213846922,-0.0009570267301984131,0.04215093291122466
1772522647556595500,6.261595458984375,0.04204582856893539,-0.0003694361005909741,0.03466124387611635
1772522647566592800,6.2715927734375,0.023489012137055395,-0.007855042615626006,0.03468016777229495
1772522647576589600,6.281589599609375,0.049077042379975316,-0.01000778193641454,0.01871812620712444
1772522647586587600,6.291587646484375,0.059550505599379536,-0.009053568217810243,0.0158191807620693
1772522647596584400,6.30158447265625,0.04817804771363735,-0.005153437240421771,0.016116346210893244
1772522647606581800,6.311581787109375,0.0541623828202486,-0.013715696543641388,0.0003482471820898354
1772522647616578600,6.32157861328125,0.06463526151776314,-0.010110109799727797,0.010831574208382516
1772522647626575600,6.33157568359375,0.05236205540001392,-0.0032937077831476924,-0.007080176652455702
1772522647636573400,6.341573486328125,0.058498366197943685,-0.0019862967127002775,-0.014997690045041963
1772522647646570800,6.35157080078125,0.0335100554138422,0.000007781447656452655,-0.019688953133812172
1772522647656567600,6.361567626953125,0.03351180897951126,0.001579140683915466,-0.019040508295595646
1772522647666564600,6.371564697265625,0.06807692640423774,-0.0059682790209539234,-0.02470209598755464
1772522647676562400,6.3815625,0.06343699164390564,-0.0013152107844129205,-0.04227797509068623
1772522647686559700,6.391559814453125,0.04338613726198673,-0.0002493899174965918,-0.03907264884389006
1772522647696556500,6.401556640625,0.017051088044047355,-0.01759341475982219,-0.03003541070637293
1772522647706553600,6.4115537109375,0.0329173502177,-0.01909631186975166,-0.03021010968615301
1772522647716551400,6.421551513671875,0.041596915757656096,-0.005590166423562914,-0.029164235628722234
1772522647726548700,6.431548828125,0.049826399442553515,-0.004580185663420707,-0.03522300594472326
1772522647736545500,6.441545654296875,0.04743453586995602,-0.0037404651699587703,-0.029084950714278964
1772522647746542600,6.45154248046875,0.05028057295083999,-0.0001737125990912318,-0.014761415337445214
1772522647756540400,6.46154052734375,0.0772159261494875,0.001630852604843676,-0.009585483137425035
1772522647766537700,6.471537841796875,0.08678922565877437,0.012085939917340874,-0.010909607880655675
1772522647776534500,6.481534423828125,0.21665070032477377,0.006882379924878478,-0.019008679252071305
1772522647786531600,6.491531494140625,0.5911421846091747,0.04471201557088643,0.0001959518303629011
1772522647796529400,6.501529296875,0.048827451533079144,0.08742063716379925,0.013277633919939398
1772522647806526700,6.511526611328125,-0.7731061869561672,-0.01425665328623727,0.030399065520148722
1772522647816523500,6.5215234375,-0.613993483364582,-0.14940638881977647,0.06254260922060348
1772522647826520600,6.5315205078125,0.2789204017549753,-0.17613882159115746,0.009650447265570983
1772522647836518400,6.541518310546875,0.6022896015673875,-0.05213398226518184,-0.017002371797803787
1772522647846515700,6.551515625,0.21966332614421843,0.052872671803273256,0.01702700391556136
1772522647856512500,6.561512451171875,-0.049241877552866936,0.097750107068941,0.08043322596186772
1772522647866509600,6.571509521484375,0.11370061345994471,0.10289254799131303,0.05842496303501538
1772522647876507600,6.581507568359375,0.15289046807587145,0.01879137410642579,0.04874268672592006
1772522647886504700,6.591504638671875,0.07088029338717461,-0.07056373825129121,0.05829928169557824
1772522647896501500,6.60150146484375,-0.07352291685044765,-0.05890466371020302,0.0505557183641009
1772522647906498600,6.61149853515625,-0.06080138244330883,0.002119987828657031,0.03839008254036307
1772522647916497000,6.621496826171875,0.04484218128919601,0.0332653416714631,0.04299471765845082
1772522647926494000,6.631493896484375,0.1108300264596939,0.0007653948819264769,0.04344190430352464
1772522647936490800,6.64149072265625,0.10962883397638797,-0.030693299226369708,0.024566404710756613
1772522647946487800,6.65148779296875,0.03944938233494758,-0.061963083166442806,0.02747114970893599
1772522647956486000,6.66148583984375,-0.027288404420018196,-0.04749766423404216,0.029688999288342892
1772522647966483000,6.67148291015625,0.02792904041111469,-0.005620397165045142,0.0025114530979655682
1772522647976479700,6.681479736328125,0.07087678625583649,0.03282874035248533,0.0024892869319301097
1772522647986476800,6.691476806640625,0.09002864597141742,0.02282355223195627,0.017032063683168962
1772522647996475000,6.701474853515625,0.07237082420587539,-0.008789072062727063,0.047440335423080245
1772522648006472000,6.711471923828125,0.019848609808087347,-0.030359427629504353,0.0405884967669379
1772522648016469000,6.721468994140625,0.051423313245177266,0.00186824155729264,0.013937769195949658
1772522648026465800,6.7314658203125,0.08822714950740337,0.023771080481447278,-0.002214872171031311
1772522648036463900,6.7414638671875,0.08627601543962955,0.009882091463822872,-0.011366694865236058
1772522648046461000,6.7514609375,0.04781447509825229,-0.020238358044344932,-0.021599444663943722
1772522648056458000,6.7614580078125,0.046911973300576205,-0.02846835318589583,-0.019217234835680573
1772522648066454800,6.771454833984375,0.0017225860089063643,-0.018900387438852338,-0.006736532580247149
1772522648076452900,6.781452880859375,-0.03627952012717724,0.004452248434815556,-0.016919570618867872
1772522648086450000,6.791449951171875,-0.006943535527586937,0.0027236710765399037,-0.037333166499109935
1772522648096447000,6.801447021484375,0.11007482417821883,-0.0017804536759853363,-0.03153563180202618
1772522648106443800,6.81144384765625,0.12967384313941002,-0.007174787000194191,-0.0347312677718699
1772522648116441900,6.82144189453125,0.042887540090084074,-0.010415321557689457,-0.026522498081438244
1772522648126439000,6.83143896484375,0.006527355942130089,0.0018053689215332268,-0.011359434007387608
1772522648136436000,6.84143603515625,0.06009820261001587,0.009708634593058377,-0.012378337859502061
1772522648146432800,6.851432861328125,0.08479016079604625,0.010531677946355194,-0.007116389610152691
1772522648156430800,6.861430908203125,0.08313830193579197,-0.0009861432268284261,-0.005118749519530684
1772522648166428000,6.871427978515625,0.09106266519427299,0.0013412768074311315,-0.013058155083516612
1772522648176425000,6.881425048828125,0.05948211653828621,0.00715513245165348,-0.015347791257500647
1772522648186421800,6.891421875,0.007402969732880592,-0.0031679077127017077,-0.000004950169753283262
1772522648196419800,6.901419921875,-0.028359248521924018,-0.02283379963133484,0.00167313911030069
1772522648206417000,6.9114169921875,0.02087327668070793,-0.03602859583972022,0.01267499185167253
1772522648216414000,6.9214140625,0.057687049815058705,-0.028568525624740868,0.013784752325015142
1772522648226410800,6.93141064453125,0.040780338677763935,-0.021798227772209793,0.021355808633798733
1772522648236408800,6.941408935546875,0.036444355300068856,-0.013646814292203635,0.02967982046804391
1772522648246406000,6.951406005859375,0.05799450832903385,0.003169387283734977,0.033807613588310775
1772522648256403000,6.96140283203125,0.059794251227378845,0.009906933644134551,0.03629030638267286
1772522648266399700,6.971399658203125,0.08568447928726673,0.007381981743779033,0.037119331952184434
1772522648276397800,6.981397705078125,0.08987316314876079,0.018046126963384448,0.03196389455092139
1772522648286395000,6.991394775390625,0.07475450447201729,0.007489789499808102,0.03155556947835721
1772522648296392000,7.001391845703125,0.06218143862485885,-0.01236599896773696,0.024979679953074083
1772522648306388700,7.011388671875,0.02447393152117729,-0.0162041523585096,0.028687621959764507
1772522648316386800,7.02138671875,0.003378536522388458,-0.026529019153770057,0.03756753237741068
1772522648326383900,7.0313837890625,0.022684710016846656,-0.019739304214715956,0.0326054712569341
1772522648336381000,7.041380859375,0.0220902512550354,-0.010798292993288487,0.03442973667518236
1772522648346377700,7.051377685546875,0.04214402824640274,-0.010074965421110391,0.03281374371275306
1772522648356375800,7.061375732421875,0.08075053001642227,-0.0011067921981215477,0.027714466078672558
1772522648366372900,7.071372802734375,0.08299392502903938,0.0022647848605178295,0.032195283020846545
1772522648376370000,7.081369873046875,0.07865268095433711,0.004619439961574971,0.027915852135978636
1772522648386366700,7.09136669921875,0.07595569695532321,0.004593392204865813,0.02238309672176838
1772522648396364800,7.10136474609375,0.0618874241143465,-0.00018478198237717152,0.025234924222622065
1772522648406361900,7.11136181640625,0.0286649534702301,-0.009443736579176038,0.02135571730225347
1772522648416359000,7.12135888671875,0.018186814075708387,-0.015511439120303838,0.01132752276547253
1772522648426355700,7.131355712890625,0.0421282461553812,-0.022088479423057288,-0.004279366952786222
1772522648436354000,7.14135400390625,0.04482172302305698,-0.02049258853374049,-0.005979558466793969
1772522648446350800,7.151350830078125,0.03375029391050339,-0.016684629351831973,-0.00984205171437934
1772522648456348000,7.161347900390625,0.04287994130551815,-0.00875259424354881,-0.01030590636646375
1772522648466345000,7.171344970703125,0.04587561599016189,0.0023775793189182875,-0.01736718652220443
1772522648476343000,7.181343017578125,0.0656254415988922,0.004076766185928136,-0.0117841896249447
1772522648486339800,7.19133984375,0.09495558097958565,0.008085216375999153,-0.006841518191527575
1772522648496337000,7.2013369140625,0.09734569098651409,0.004202347060665488,-0.0030498434241395442
1772522648506334000,7.211333984375,0.03210194218158722,-0.010829126522969454,0.0012683211690746247
1772522648516332000,7.22133203125,-0.000367079746723175,-0.010773304682504386,-0.007476637757290155
1772522648526328800,7.231328857421875,0.14342998129129408,0.009828644243534653,-0.017700281800935042
1772522648536326000,7.241325927734375,0.09628945993185042,0.002244637121632695,-0.02347582386191934
1772522648546323000,7.251322998046875,-0.02880757681131363,-0.02691038315417245,-0.005161657079495489
1772522648556321000,7.261321044921875,-0.02910802106261253,-0.028806791360024363,0.016953856480959803
1772522648566317800,7.27131787109375,0.08566460554301739,-0.005642791659943759,0.002466289648832753
1772522648576315000,7.28131494140625,0.14911211858093737,0.010191084347758441,-0.009770520848128943
1772522648586312000,7.29131201171875,0.01997486653625965,0.0012071838326752186,0.0037107732845935966
1772522648596310000,7.30131005859375,-0.03583703705668449,-0.009548968785628676,0.008809548595175147
1772522648606306800,7.311306884765625,0.08252572299540042,0.0018344488855451344,0.008196978787938132
1772522648616303900,7.321303955078125,0.1009305637359619,-0.0004223535979166627,0.013056775977183133
1772522648626301000,7.331301025390625,0.0681610975563526,-0.0002918773523531854,0.026919561974471432
1772522648636299000,7.341299072265625,0.038980595779418946,0.0015226247237063943,0.021303840984543784
1772522648646295800,7.3512958984375,0.04706277994811535,-0.0032248072654008863,0.027099265922931954
1772522648656292900,7.36129296875,0.06666472151875495,-0.0007237294309772551,0.024896924439910796
1772522648666291000,7.371291015625,0.0588812280356884,-0.0059694115321151904,0.019028379466384648
1772522648676288000,7.3812880859375,0.0434703084141016,-0.01586330303158611,0.026157062302529812
1772522648686284800,7.391284912109375,0.03748538878560066,-0.01305560693340376,0.03260248471540399
1772522648696281900,7.40128173828125,0.030901334220170974,-0.009953074340801685,0.03210470039425418
1772522648706279000,7.41127880859375,0.0615782120347023,-0.00011635638866573571,0.017460728290863335
1772522648716277000,7.421277099609375,0.06247428409159183,-0.0001616751014254987,0.019704945287387816
1772522648726273800,7.431273681640625,0.037188451665639874,-0.022984862007200717,0.01697817807146348
1772522648736270800,7.441270751953125,0.048262803387641905,-0.006255516730807722,0.01673907208596356
1772522648746269000,7.45126904296875,0.046617374268174167,0.006478804092667997,0.019282171564362943
1772522648756266000,7.461265869140625,0.08402268355488776,0.003629095483664423,0.014244926315825432
1772522648766262800,7.4712626953125,0.07683890953063964,0.005640161311440169,0.011109249505447224
1772522648776259800,7.481259765625,0.06351824018657207,-0.001639602166879922,0.003605879004858434
1772522648786257000,7.4912568359375,0.05214461325705051,-0.012789594674669206,-0.0019497275619767605
1772522648796255000,7.5012548828125,0.05379062689840793,-0.01060415866067633,0.0051676849614828825
1772522648806252000,7.511251953125,0.05408464140892028,-0.004693144518602639,-0.0021079868636094032
1772522648816248800,7.521248779296875,0.028349311649799345,0.00008068228708580136,-0.00346259807664901
1772522648826247000,7.531246826171875,0.06052198098003864,-0.005469590517506003,-0.0008934143089223653
1772522648836244000,7.541243896484375,0.045856326767802234,-0.007037990611698478,-0.003553619094658643
1772522648846241000,7.551240966796875,0.0668061758160591,-0.015322510685771703,-0.0025260296125896274
1772522648856237800,7.56123779296875,0.0391220500767231,-0.007997227565292269,-0.004559526467882096
1772522648866236000,7.57123583984375,0.06306465120017528,0.0024579876113682985,-0.0046992819984443485
1772522648876233000,7.58123291015625,0.042861821126937864,0.005380103869456797,-0.006675934099964797
1772522648886230000,7.59122998046875,0.06770107882916927,-0.012733498839568346,-0.00043429976403713225
1772522648896226800,7.601226806640625,0.058874213773012156,-0.009471610966790467,-0.000503784803673625
1772522648906225000,7.611224853515625,0.0641091918170452,-0.004075140484422445,-0.003841733587346971
1772522648916222200,7.62122216796875,0.051988545912504194,-0.009866181508637965,-0.0006221048205625265
1772522648926219500,7.631219482421875,0.03582534661889076,-0.00045877661816775796,0.002241970240511
1772522648936216300,7.64121630859375,0.02609948689639568,-0.007566581063065678,0.00859330289545469
1772522648946214400,7.65121435546875,0.05438216305077076,-0.009372644104342907,0.0038836273671593513
1772522648956211500,7.66121142578125,0.08056991275250912,-0.00756079064309597,0.004885698815481737
1772522648966208500,7.67120849609375,0.06680033059716224,-0.0021578356210142373,0.0022147534400224684
1772522648976205300,7.681205322265625,0.03836918588280678,-0.0028689430324360726,0.00855182924075052
1772522648986203400,7.691203369140625,0.029840426990389822,-0.010358860396407543,0.023261185597395522
1772522648996200400,7.701200439453125,0.060067807471752166,-0.002302267326693982,0.027593451781198382
1772522649006197500,7.711197509765625,0.0855026929795742,-0.002319328059349209,0.01897927049449645
1772522649016194300,7.7211943359375,0.052130584731698036,-0.005096026231069118,0.01839274844396859
1772522649026192400,7.7311923828125,0.030132687935233115,-0.014134250749275087,0.010788913243589921
1772522649036189400,7.741189453125,0.05572188722193241,-0.005634864081814885,0.015627046590298413
1772522649046186500,7.7511865234375,0.061708560416102405,-0.004644154277723282,0.019236688454821706
1772522649056183300,7.761183349609375,0.04884031101465225,-0.004931611183285713,0.011676244871597737
1772522649066181400,7.771181396484375,0.0629074148118496,-0.0006683459819294511,0.019743715528352183
1772522649076178400,7.781178466796875,0.07383154440820217,-0.002962101208604872,0.02659610217376612
1772522649086175500,7.791175537109375,0.04614683414697647,-0.00040578605560585856,0.021231561199622228
1772522649096172300,7.80117236328125,0.04689326860010624,-0.0019214147829450666,0.01808105214629322
1772522649106170400,7.81117041015625,0.058712885731458664,-0.004068418482691049,0.020477601027162746
1772522649116167400,7.82116748046875,0.06649462564885616,-0.0030451398495584723,0.012837799464259296
1772522649126164500,7.83116455078125,0.05796469771265983,-0.005065247500315308,0.012712355586839839
1772522649136161300,7.841161376953125,0.0441980381667614,-0.0011456263711676002,0.016015169125050306
1772522649146159400,7.851159423828125,0.044345337682962414,-0.004340531688649207,0.0129930996238254
1772522649156156400,7.861156494140625,0.05781155297756195,-0.007165635579358786,0.013346762766549364
1772522649166153500,7.871153564453125,0.05556698892116546,-0.0037080972703173753,0.013086139068985357
1772522649176150300,7.881150390625,0.041949966979026795,-0.007329082512762397,0.010976343840779735
1772522649186148400,7.8911484375,0.05451718760728836,-0.00783595432266593,0.00446668795212172
1772522649196145400,7.9011455078125,0.04927753338813781,-0.0033970037608407437,0.005766701167402789
1772522649206142500,7.911142578125,0.04179565320014953,0.008846044680662453,0.005128357598092406
1772522649216139300,7.92113916015625,0.03939911345243454,0.0009049129504710436,0.0024392829108983278
1772522649226137300,7.931137451171875,0.06169511641263961,-0.014926588437054305,0.004746326877409592
1772522649236134700,7.941134765625,0.07037117482125758,-0.012908435281366109,0.01450857308753766
1772522649246131500,7.95113134765625,0.04538520212471485,-0.0056709583085030315,0.011352748538274317
1772522649256128300,7.961128173828125,0.04448796102404594,-0.0029786504846066233,-0.004194364683609455
1772522649266126300,7.971126220703125,0.055558221092820166,-0.00012594620091840625,0.003595065349899232
1772522649276123600,7.98112353515625,0.06662848116159438,-0.009579126461874693,0.0019080529778730123
1772522649286120400,7.991120361328125,0.049418987685441965,-0.00733288190504536,0.008097984526026994
1772522649296117500,8.001117431640624,0.04881985274851322,-0.007830839756131172,0.0027152229086030272
1772522649306115300,8.011115234375,0.050312721654772755,0.0003919036607258022,0.003879133855132386
1772522649316112600,8.021112548828125,0.04971241767406463,-0.008123118967283516,-0.00061220448105596
1772522649326109400,8.031109375,0.041186581391096114,-0.009511961243487894,-0.009903362580714746
1772522649336106500,8.0411064453125,0.04776829786896705,-0.010397384042199701,0.014695747956400737
1772522649346104300,8.051104248046874,0.05868892033398151,-0.008799903983995317,0.016402570140594614
1772522649356101600,8.0611015625,0.05405249270498752,-0.0056007608828134835,0.0025626078964676707
1772522649366098400,8.071098388671874,0.040136195555329324,-0.0033972229565493763,0.011763256434770301
1772522649376095500,8.081095458984375,0.03415302949249744,-0.0023167525097727774,0.01957071531531401
1772522649386093300,8.09109326171875,0.0576478868484497,0.0004214402824640274,0.016723810584750025
1772522649396090600,8.101090576171876,0.06318447818756102,-0.0014606106044724582,0.020778721131896598
1772522649406087400,8.11108740234375,0.05570084443390369,-0.009908230552077292,0.013281177583895623
1772522649416084500,8.12108447265625,0.048070495685935015,-0.0075307242983952164,0.028585842085722832
1772522649426082300,8.131082275390625,0.05869768816232681,-0.007296659814193845,0.02981832475643605
1772522649436079600,8.14107958984375,0.05630348650217056,-0.0033208332520909606,0.024075634652283042
1772522649446076400,8.151076416015625,0.06348609148263931,-0.006881959799770266,0.013633589484449475
1772522649456073500,8.161073486328124,0.05481003307402134,-0.00006033361880108714,0.014721987509354948
1772522649466071300,8.1710712890625,0.046426820132136344,0.003540138558577746,0.006138365757698193
1772522649476068600,8.181068603515625,0.06138765789866447,0.0005385638561099768,0.008630922358948736
1772522649486065400,8.1910654296875,0.05599953511953354,-0.0005586933286860585,0.002863353541865945
1772522649496062500,8.2010625,0.05165887556672096,-0.011447459350712596,0.004893699458846822
1772522649506060300,8.211060302734374,0.0450736519575119,-0.010024696538597345,0.009394170949561522
1772522649516057600,8.2210576171875,0.04657061251699924,0.0019156243629753589,0.012333804598031566
1772522649526054400,8.231054443359374,0.04133271186351776,-0.011001761409826576,0.0009757588301319628
1772522649536052500,8.241052490234376,0.03594634265005588,-0.004374050365760922,0.013505551791144535
1772522649546049300,8.25104931640625,0.0591425093203783,-0.006450052922219038,0.0013883490858599542
1772522649556046600,8.261046630859376,0.06916705972850322,-0.004664283750299364,0.0014251100328285247
1772522649566043400,8.27104345703125,0.059143678364157674,0.000789104551076889,0.002095319178281352
1772522649576041500,8.28104150390625,0.05659867005646228,0.0044247028407640755,0.000557359888125211
1772522649586038300,8.291038330078125,0.0630330870181322,0.00003026727410033345,-0.009098412006534636
1772522649596035600,8.30103564453125,0.05555003778636455,-0.004605374903604388,0.0062420727273449295
1772522649606032400,8.311032470703125,0.05046352830231189,-0.002849799940548837,0.001328764385730028
1772522649616030500,8.321030517578125,0.04178454728424549,-0.0067767823922447856,0.006977519995579495
1772522649626027300,8.33102734375,0.04403203395009041,-0.006083137572277337,0.008776623573107644
1772522649636024600,8.341024658203125,0.05405950696766376,-0.007903009943198413,0.013063461446296424
1772522649646021400,8.351021484375,0.04792553425729274,0.0017373086540028453,0.012283362185582517
1772522649656019500,8.36101953125,0.05376315436959266,0.0008452003861777484,0.006095047205779701
1772522649666016300,8.371016357421874,0.056309331721067425,0.005106383228302001,0.013930380473937838
1772522649676013600,8.381013671875,0.054364627394080156,-0.0022792335109785198,0.020347051716363057
1772522649686010400,8.39101025390625,0.05451368047595024,-0.007145615704637021,0.016275080436561257
1772522649696008400,8.401008544921876,0.049127311262488364,-0.014403934536129235,0.01385154308406636
1772522649706005200,8.411005126953125,0.05152092840075492,-0.0012216872820630669,0.014718580842716619
1772522649716002600,8.42100244140625,0.049126142218708986,-0.0022110819119028745,0.019396345129096878
1772522649725999400,8.430999267578125,0.05586217247545719,-0.006098444739263504,0.01777453434723429
1772522649735997400,8.44099755859375,0.06259644916653632,-0.008251750315632671,0.01324855395592749
1772522649745994200,8.450994140625,0.05137479792833328,-0.005948971532285213,0.023560689133778213
1772522649755991600,8.460991455078124,0.05975567278265953,-0.002095090849418193,0.02209587727822363
1772522649765988400,8.47098828125,0.057660746330022807,-0.0005416143297217786,0.015240887683769687
1772522649775986400,8.480986328125,0.04524140973985195,-0.007252418813668191,0.01679314036075957
1772522649785983200,8.490983154296876,0.04898059626817703,-0.01227446649307385,0.017063089009094982
1772522649795980500,8.50098046875,0.05331950225532055,-0.007806582097709179,0.01920545306634158
1772522649805977300,8.510977294921876,0.049881929022073744,-0.003634447512216866,0.01330805645766668
1772522649815975400,8.520975341796875,0.048834465795755386,-0.007977481685206294,0.00657796275136061
1772522649825972200,8.53097216796875,0.04553893138170242,-0.0035337818830274044,0.003460871910443529
1772522649835969500,8.540969482421875,0.05511515350043773,-0.0001993767633102834,0.0028469412631820885
1772522649845966300,8.55096630859375,0.058256958657503126,0.0027663959734141826,0.007550680241035297
1772522649855964400,8.56096435546875,0.048231823727488514,-0.011005268541164695,0.010919983144197612
1772522649865961200,8.570961181640625,0.04134615586698055,0.0013149367897771298,0.005561406119959428
1772522649875958500,8.58095849609375,0.024738135415315627,-0.015985139312967658,-0.0017690007002092896
1772522649885955300,8.590955322265625,0.059901218733191486,0.003990366544108837,-0.003434933751588687
1772522649895953400,8.600953369140624,0.1212479600995779,0.005674136646278203,-0.003536932821338996
1772522649905950500,8.610950439453125,0.03251169202625751,-0.002208086237218231,-0.005397803922928869
1772522649915947000,8.620947021484374,-0.017165654334425927,-0.012083766226563602,0.001488713320950046
1772522649925943800,8.63094384765625,0.06094985100328922,-0.0073083319856785236,0.007431930965883657
1772522649935942000,8.64094189453125,0.11392331629991531,0.004786339227389544,-0.00031717619039118287
1772522649945939000,8.65093896484375,0.05062368730008602,-0.0024609650197438895,-0.0062366293672472236
1772522649955936000,8.66093603515625,0.012016016486287116,-0.008284246079437434,0.0029791710744146256
1772522649965932800,8.670932861328126,0.06753039843738079,-0.010434117589704691,0.0052284661048557605
1772522649975931000,8.680930908203125,0.06364215882718563,-0.010160396948549895,-0.007773063420597463
1772522649985928000,8.690927978515624,0.02682897021472454,-0.010082071015331893,0.0035205114095006136
1772522649995925000,8.700925048828125,0.051070262023806566,-0.00433083227854222,0.007808317397069185
1772522650005921800,8.710921875,0.06004618016183376,0.0006074826401658356,0.0021565204467624425
1772522650015919900,8.720919921875,0.06617956835031509,-0.0015373473688028753,0.004700642838468775
1772522650025917000,8.7309169921875,0.053309565383195874,-0.011108418388385326,0.0063255862923339
1772522650035914000,8.7409140625,0.055254854232072825,-0.005316756309662014,0.010020093428716063
1772522650045910800,8.750910888671875,0.06019347967803478,-0.002586144035682082,0.008021823150431737
1772522650055908900,8.760908935546874,0.05480418785512447,-0.005626370248105377,0.009475775685254484
1772522650065906000,8.770906005859375,0.06617664574086665,-0.005673351194988936,0.01941870309137739
1772522650075903000,8.780903076171874,0.04447977771759033,0.0003401186745613813,0.011584885926870628
1772522650085900800,8.79090087890625,0.03834405144155025,-0.003257229963969439,0.0104129104048945
1772522650095897900,8.80089794921875,0.05450491264760494,-0.005361563565768301,0.014194794430630282
1772522650105895000,8.81089501953125,0.05330547372996807,-0.00010848360946401953,0.013978210804192348
1772522650115892000,8.82089208984375,0.04881400752961635,-0.0014969970921054482,0.012897192368144168
1772522650125889800,8.830889892578124,0.05569850634634495,-0.006365936569031327,0.004044261288968846
1772522650135886800,8.840886962890625,0.06288169584870339,-0.007962704241182655,0.009160599655704572
1772522650145884000,8.8508837890625,0.05734276642203331,-0.004481456262990832,0.008116095571452752
1772522650155881000,8.860880859375,0.04985854814648628,0.00022253844318911433,0.00399338961825706
1772522650165878800,8.870878662109375,0.022178514060378074,-0.00599019859181717,0.007870842972956597
1772522650175875800,8.880875732421876,0.013504793739318847,-0.017729297832865268,0.01214467523409985
1772522650185873000,8.890872802734375,0.12199497907459735,0.0008390446400269865,0.009793052340345457
1772522650195870000,8.900869873046876,0.01590484061837196,-0.012565193067956715,0.012629289546422659
1772522650205867800,8.91086767578125,-0.002495323947072029,-0.006985785500425845,0.011600604085810482
1772522650215864800,8.92086474609375,0.1556651934862137,0.014261804385390132,0.009678924441384152
1772522650225862000,8.93086181640625,0.13979483965933323,0.02650876181703061,-0.009812926084594801
1772522650235859000,8.94085888671875,0.030705519387125967,0.005587901401240378,0.0048443895575590425
1772522650245857000,8.95085693359375,-0.12775602681934833,-0.025592194961383936,0.018977179002109913
1772522650255853800,8.960853759765625,0.05989011281728744,-0.011048340497910977,0.004790723141562194
1772522650265851000,8.970850830078126,0.1953086370885372,0.005561250856332481,-0.004228266953211278
1772522650275848000,8.980847900390625,0.04087736931145191,-0.00860650030374527,0.01253933710749261
1772522650285846000,8.990845947265624,-0.05114508082568645,-0.031156898150127378,0.015462047020625322
1772522650295842800,9.0008427734375,-0.022410569250583646,-0.013283826198708265,0.009230185160040856
1772522650305839900,9.01083984375,0.14622867209911344,0.003048646980896592,-0.0021005250763613727
1772522650315837000,9.0208369140625,0.10283084439933299,0.008245795498881488,-0.008902706771343945
1772522650325835000,9.0308349609375,0.025015783312916755,0.0035738764313980936,0.004424922036472708
1772522650335831800,9.040831787109376,0.00421849447786808,-0.0058854961083270605,0.004204100626334548
1772522650345828900,9.050828857421875,0.0763444040119648,-0.0008646905379369854,0.0037249022746458646
1772522650355826000,9.060825927734374,0.0929489173322916,-0.006294204773381352,-0.0052433531467337155
1772522650365824000,9.070823974609375,0.061224576291441915,-0.008843103804904967,-0.003060017758281901
1772522650375820800,9.08082080078125,0.004959668233990669,-0.01399844074146822,0.011176277726516127
1772522650385818000,9.090818115234375,0.022169746232032776,-0.0012515526973642407,0.008141303077945486
1772522650395816000,9.10081591796875,0.06122925246655941,0.0015906301923096179,0.013784642727160826
1772522650405813000,9.11081298828125,0.06436813501417636,-0.0026142193526960907,0.012640605524880812
1772522650415809800,9.120809814453125,0.0453653283804655,-0.00474094744939357,0.005789643651572987
1772522650425807000,9.13080712890625,0.030853403425216672,-0.004952069449424743,0.01471113732177764
1772522650435805000,9.140804931640625,0.07080781267285347,-0.00004539177799597382,0.011407337402878328
1772522650445802000,9.150802001953124,0.08202829486727714,0.0051531267131678755,0.010199167189514264
1772522650455798800,9.160798828125,0.06766250038444996,0.001077219043765217,0.011428224927280097
1772522650465796000,9.170796142578125,0.04327157097160816,-0.0033325054235756393,0.01537771147172898
1772522650475794000,9.1807939453125,0.022474282136559484,-0.014209033018536864,0.02316964398957789
1772522650485791000,9.190791015625,0.03683656948804855,-0.01842831294769421,0.016559185474412513
1772522650495787800,9.200787841796876,0.046266076612472534,-0.0033902452264912425,0.01633549625375308
1772522650505785000,9.21078515625,0.053150575429201125,0.006870762552320957,0.01229870588518679
1772522650515783000,9.220782958984374,0.06093114630281925,0.0040614407526329156,0.012569129457557573
1772522650525780000,9.230780029296875,0.036539632368087764,0.00013496975759044288,0.01665588731453754
1772522650535776800,9.24077685546875,0.033250527694821355,-0.010463361950498073,0.008786898371949792
1772522650545774000,9.250774169921876,0.0658697717487812,-0.005884089602530002,0.00835392291531898
1772522650555772000,9.26077197265625,0.0740998399555683,0.003927859234530478,0.009789408211689441
1772522650565769000,9.27076904296875,0.04088029192090034,0.0012259433320723472,0.012618247562600299
1772522650575765800,9.280765869140625,0.03968260656893253,-0.017806984445266426,0.008360398321878165
1772522650585763000,9.29076318359375,0.05958499239087105,-0.0142774586122483,0.005342036881390959
1772522650595761000,9.300760986328125,0.07753975127637386,-0.002694901639781892,0.0109647904003039
1772522650605758000,9.310758056640625,0.053147068297863004,0.0020676913858391345,0.000649549949914217
1772522650615754800,9.320754638671875,0.038030747708678245,-0.003676021631620824,0.00445241283159703
1772522650625752000,9.330751953125,0.028898762226104734,-0.009415095006581395,0.007415884013380855
1772522650635750000,9.34075,0.04834931262731552,-0.01457571090646088,0.0007385160081554204
1772522650645747000,9.350746826171875,0.04654956972897052,-0.006834211667906493,-0.0037279162156395613
1772522650655743700,9.36074365234375,0.049697220104932785,0.004603091614972799,0.008152043667668476
1772522650665741000,9.370740966796875,0.04580781145095825,0.0012570873890072106,0.011167272436153144
1772522650675739000,9.38073876953125,0.04147065902948379,-0.0013635982370935379,0.005557040472095832
1772522650685736000,9.39073583984375,0.04745791674554348,-0.006838339853752404,0.004064025435363873
1772522650695732700,9.400732666015625,0.06317044966220856,-0.0022542999991215762,0.0044744785329326985
1772522650705730800,9.410730712890626,0.05359072041213512,-0.006369206238351762,0.0013510401496198028
1772522650715728000,9.420727783203125,0.06241875451207161,0.0015444712293334305,0.00399271376482211
1772522650725725000,9.430724853515626,0.045510874330997465,0.008755882179178297,-0.000445551810413599
1772522650735721700,9.4407216796875,0.060624856832623475,0.0031806393301114437,0.007768953501060605
1772522650745719800,9.4507197265625,0.05119593423008918,-0.0021350210010074077,0.002946647911146283
1772522650755716900,9.460716796875,0.041918987318873405,-0.01366588431885466,0.0011963153787888587
1772522650765714000,9.4707138671875,0.021417466560006142,-0.011501052701473235,0.002101694120140746
1772522650775710700,9.480710693359375,0.06286474471390247,0.0005156213719397783,0.003542184385191649
1772522650785708800,9.490708740234375,0.06824994488358498,0.002477002839092165,0.011958331482298672
1772522650795705900,9.500705810546876,0.035329672056436535,-0.003940243792068213,0.004941822050046176
1772522650805703000,9.510702880859375,0.04565875836908817,-0.014588679985888302,0.006670116280531511
1772522650815699700,9.52069970703125,0.06660685385167599,-0.0037523930697701867,-0.003664897449407726
1772522650825697800,9.53069775390625,0.06226677882075309,0.009513769608084113,-0.007153799011092633
1772522650835694800,9.54069482421875,0.0357797539114952,0.00256486378563568,0.00006873612096533179
1772522650845692000,9.55069189453125,0.038921559068560596,-0.014388115912489592,0.0024973149747587737
1772522650855688700,9.560688720703125,0.04341127170324325,-0.006617317514214664,0.012386758627975359
1772522650865686800,9.570686767578126,0.060170098802447315,-0.014676212138868867,0.0026599947231821714
1772522650875683800,9.580683837890625,0.03906885858476162,-0.006990132881980389,0.00570021180245094
1772522650885681000,9.590680908203124,0.026350246787071225,0.00392577687529847,0.010803334494587034
1772522650895677700,9.600677734375,0.049095747080445284,0.004819382980465889,0.016262257487606256
1772522650905675800,9.61067578125,0.0636129327327013,-0.0039324075454846025,0.001375608335295692
1772522650915672800,9.6206728515625,0.0561316370666027,-0.0075805547894909975,-0.0003275788533966988
1772522650925669600,9.630669677734375,0.054637014594674106,-0.0013456059226766228,0.006324371582781895
1772522650935666700,9.640666748046876,0.05927402674555778,0.005002447929792105,0.005219771341746672
1772522650945664800,9.650664794921875,0.04520341581702232,0.005031564426422119,0.0161973938241601
1772522650955661800,9.660661865234376,0.03442658573687076,-0.0032942740387283263,0.02060056981970556
1772522650965658600,9.67065869140625,0.04205693448483944,-0.008008059486560522,0.013112606950802727
1772522650975655700,9.68065576171875,0.059113867747783655,-0.004801043606176972,0.015875486659724266
1772522650985653800,9.69065380859375,0.05522504361569881,-0.0015925298884510992,0.004644574402831494
1772522650995652600,9.700652587890625,0.0357715706050396,-0.01182546235024929,0.008913036369113251
1772522651005650000,9.71064990234375,0.05238134462237358,-0.0029831987955607473,0.00880981345665641
1772522651015646700,9.720646728515625,0.05238309818804264,-0.001655128529574722,0.011616897633485496
1772522651025644800,9.730644775390624,0.07018880399167537,0.0002854110789485276,0.007303710609488189
1772522651035641600,9.7406416015625,0.054476271075010296,0.0013096578264608979,0.0043999245925340795
1772522651045639000,9.750638916015625,0.04774140986204147,-0.0046608496841974555,0.0023817988363094627
1772522651055636700,9.76063671875,0.04609188908934593,-0.010566438732482492,0.010281383846560492
1772522651065633800,9.7706337890625,0.05581541072428226,-0.008268500521034002,0.0076523048514500255
1772522651075630600,9.780630615234376,0.05656359874308109,-0.002529445412382483,0.005352530875941738
1772522651085628000,9.7906279296875,0.0516267268627882,-0.0018591266690753398,0.015223717353260145
1772522651095626000,9.8006259765625,0.05342471619546413,-0.012104498487338423,0.015375866574514657
1772522651105622800,9.810622802734375,0.04369768742918968,-0.003943257733061909,0.017757921139150857
1772522651115619600,9.82061962890625,0.0341243879199028,-0.003624072248674929,0.022947881864523515
1772522651125617000,9.830616943359376,0.049987727484107014,-0.005451287675835192,0.020181741619436068
1772522651135615000,9.840614990234375,0.055225628137588495,0.003714600076340139,0.007409381207358091
1772522651145611800,9.85061181640625,0.05238251366615295,-0.0012753902306780218,0.004710844572074711
1772522651155608600,9.860608642578125,0.056274844929575914,-0.005840378324966877,0.004307259606709703
1772522651165606000,9.87060595703125,0.04938976159095764,-0.004832534722983837,0.007029980835178867
1772522651175604000,9.88060400390625,0.06420622245073318,-0.008359247544407844,0.007552242010459303
1772522651185600800,9.890600830078125,0.07497837635576725,-0.000796557205170393,0.010486057839496061
1772522651195597600,9.90059765625,0.043403672918677326,-0.01091530696908012,0.020366633199667555
1772522651205595000,9.910594970703125,0.031880408385396,-0.009231080209184438,0.016007488142093643
1772522651215593000,9.920593017578126,0.04400046976804733,-0.0014022497470490634,0.011831965156272052
1772522651225589800,9.93058984375,0.06958966905474662,0.0100966292636469,0.016511227279994635
1772522651235586600,9.940586669921874,0.06255670167803765,0.005636124457139522,0.004153539482876658
1772522651245584000,9.950583984375,0.04998305130898952,0.0017470263304188846,0.0021041966044809666
1772522651255582000,9.96058203125,0.039808863297104834,-0.014778448670636862,-0.0022711598023772237
1772522651265578800,9.970578857421875,0.040403906580805775,-0.006319558410346508,-0.003615140023548156
1772522651275575800,9.980575927734375,0.04997779061198234,-0.005917553480714559,0.0002095328311435878
1772522651285572900,9.99057275390625,0.059251814913749694,-0.0006921835152432322,-0.0034570633850060403
1772522651295571000,10.000571044921875,0.054012745216488835,-0.0016346702634356914,0.004597812651656568
1772522651305567700,10.010567626953126,0.03156535108685493,-0.0014277129818685353,0.00607286277343519
1772522651315564800,10.020564697265625,0.06493161411583423,-0.0019373064718209206,0.0022202607322018594
1772522651325561900,10.030561767578124,0.05924538517296314,0.000665806964971125,-0.003096961368340999
1772522651335560000,10.040559814453125,0.0400935254573822,-0.008893390953727065,-0.0030761286428663877
1772522651345556700,10.050556640625,0.04577683179080486,-0.009540602816082537,0.0011797295701690017
1772522651355553800,10.0605537109375,0.04757423660159111,-0.012382657841593026,-0.01034975464134477
1772522651365551600,10.070551513671875,0.04368541246950626,0.0019437910115346312,-0.006666198157239705
1772522651375549000,10.080548828125,0.059845104631781575,0.0043473998208530245,-0.003022224764851853
1772522651385545700,10.090545654296875,0.07271803020834923,0.0006908866073004901,-0.003825129512418061
1772522651395542800,10.100542724609374,-0.00942950712442398,-0.03041181540386751,-0.008375020502274856
1772522651405540600,10.11054052734375,-0.03500935406088829,-0.026068105377443133,0.007563448391063138
1772522651415538000,10.120537841796875,0.20889467937052247,0.03709233434740454,-0.003383660222077742
1772522651425534700,10.13053466796875,0.3296376125574112,0.08602499982062727,-0.01765386710963212
1772522651435531800,10.14053173828125,-0.08651040871739386,-0.0010195340397767723,-0.01275925433533266
1772522651445529600,10.150529541015626,-0.20561551156938074,-0.07762299084672704,0.01995876478482969
1772522651455527000,10.16052685546875,0.08138824339807033,-0.023695037836860864,0.0006534224074333906
1772522651465523700,10.170523681640624,0.22054653871953486,0.036887587289232755,-0.01744005082901567
1772522651475520800,10.180520751953125,0.04352057729661465,-0.004310063485149294,-0.0040343609494622795
1772522651485518600,10.1905185546875,-0.10401216313838958,-0.029782851584255695,0.027973856800375504
1772522651495516000,10.200515869140625,-0.009878419935703276,-0.015653697135206313,0.021633146004145964
1772522651505512700,10.2105126953125,0.13812135348916052,-0.031512360524293036,0.005836524133756757
1772522651515509800,10.220509765625,0.02021452051103115,-0.00562841607471928,0.019156782485870643
1772522651525507600,10.230507568359375,0.24929975499510765,0.08695179580934345,0.016712786867236717
1772522651535505000,10.2405048828125,0.21816227393150328,0.06541055673919617,0.013954811662295832
1772522651545501700,10.250501708984375,-0.21727906135618685,-0.06263205020288005,0.03247170707574114
1772522651555498800,10.260498779296874,-0.13347148185670374,-0.08223386390935629,0.03521307820575312
1772522651565496600,10.27049658203125,0.18884850116372107,0.012521317393612116,0.008518045702157542
1772522651575494000,10.280493896484375,0.3610673545658588,0.0756714001212269,0.00229300630800426
1772522651585490700,10.29049072265625,-0.009889525851607323,0.0008245777232572435,0.017764104284765197
1772522651595488800,10.30048876953125,-0.3091524584114551,-0.06042977265194058,0.05959100200654938
1772522651605485600,10.310485595703126,-0.0007388356685638427,-0.04079559104582295,0.02080328018441796
1772522651615483000,10.32048291015625,0.32277181844115255,0.02878605909924954,-0.012994314333377405
1772522651625479700,10.330479736328124,0.1593587873071432,0.020890045152418314,0.0047702557422686365
1772522651635477800,10.340477783203125,-0.07362871531248093,0.00031481983652338386,0.01533829277679324
1772522651645474600,10.350474609375,-0.10489479119181633,-0.005447141223680228,0.030707327751722184
1772522651655471900,10.360471923828126,0.10056114590167999,-0.004704670559614896,0.01833889023172669
1772522651665468700,10.37046875,0.2540811440527439,0.017090287543274463,-0.004837621890055015
1772522651675466800,10.380466796875,0.08378478314578533,0.007397033182438463,-0.006258759000664577
1772522651685463600,10.390463623046875,-0.10102058010697364,-0.030081304807867852,0.006821224322170019
1772522651695460900,10.4004609375,-0.0746796856701374,-0.026904099543858317,0.014726197893591596
1772522651705457700,10.410457763671875,0.1535159064978361,0.007975344527047127,-0.0016445249371696263
1772522651715455700,10.420455810546875,0.19510756155848502,0.04277098277201876,-0.0236910649146419
1772522651725452500,10.43045263671875,-0.003014379385113716,-0.0084699961761944,-0.010556173066794872
1772522651735449900,10.440449951171875,-0.09279284998774529,-0.03048694473300129,-0.0072996463557239615
1772522651745446700,10.45044677734375,0.030212767434120175,-0.013567903837095946,-0.013695585337374359
1772522651755444700,10.46044482421875,0.15755203014612196,0.009061495795939118,-0.006130419913260266
1772522651765441500,10.470441650390624,0.15185761789679528,0.014991579964663833,-0.005148240475496277
1772522651775438800,10.48043896484375,0.004460486540198326,-0.008924845537915825,-0.00686241484908387
1772522651785435600,10.490435546875,-0.04551496598422527,-0.02243846190450713,-0.008941349148144945
1772522651795433700,10.500433837890625,0.08167758173346519,-0.012597250440344213,-0.014796605381835252
1772522651805430500,10.510430419921875,0.11908113745450973,0.00855546423625201,-0.01270108527415432
1772522651815427800,10.520427734375,0.05248655856251716,0.022614439525920897,-0.0017100279214326292
1772522651825424600,10.530424560546875,0.015371756654977798,0.010762107435055077,-0.0033706272105686365
1772522651835422700,10.540422607421876,0.02868774982392788,-0.010896985861100255,0.0007885017628781497
1772522651845419500,10.55041943359375,0.046945291048288346,-0.02917699464559555,-0.013482636706437914
1772522651855416800,10.560416748046874,0.05846621749401092,-0.022403536721598356,-0.012463093533506615
1772522651865415000,10.570414794921875,0.05756839187145233,0.008641443752963095,-0.010856051062513142
1772522651875411700,10.58041162109375,0.033925065955519675,0.021901742945611476,0.0038999574474524704
1772522651885408800,10.59040869140625,0.04424772252738476,0.00015898995399475096,0.004479520034231245
1772522651895405800,10.60040576171875,0.09512158519625663,-0.014331179827172308,0.0022313666481059043
1772522651905404000,10.61040380859375,0.07581482717990874,-0.006540544217266142,0.005937865616381168
1772522651915401500,10.6204013671875,0.0460363595098257,0.012379899628926067,0.010748462502192704
1772522651925398500,10.6303984375,0.06099544371068477,0.01710964983087033,0.013658879189332946
1772522651935395600,10.6403955078125,0.06846972511410712,0.0037786965548060832,0.020387219329969956
1772522651945393700,10.6503935546875,0.037189620709419245,-0.021783249398786574,0.020172133540874347
1772522651955390500,10.660390380859376,0.0368780705422163,-0.0044387861650437115,0.014908185130683704
1772522651965387500,10.670387451171875,0.03507540503442287,-0.004086392530798912,0.029143448569020253
1772522651975384600,10.680384521484376,0.029081717577576636,0.00817019124571234,0.02891154864244163
1772522651985382700,10.690382568359375,0.038054128584265705,-0.004525313671026379,0.015988746909005567
1772522651995379500,10.70037939453125,0.04373860396146774,-0.01379489925969392,0.022001988449692724
1772522652005376500,10.71037646484375,0.036112346866726874,-0.0008223309672437608,0.024076328772027044
1772522652015373600,10.72037353515625,0.08609539817571639,0.018344507121760396,0.01581937255831435
1772522652025371600,10.73037158203125,0.08789572559595107,0.014043613323755562,0.019016698161745442
1772522652035368400,10.740368408203125,0.0521405216038227,0.004114248652104288,0.01990552762709558
1772522652045365500,10.750365478515626,0.03358955039083957,-0.006655311437044292,0.005037829770427197
1772522652055362600,10.760362548828125,0.06666413699686527,-0.002031761555932462,-0.0013797821869142354
