time,seconds_elapsed,z,y,x
1772476657999323000,0.071322998046875,0.0005142446607351303,0.00034312903881073,0.001387476921081543
1772476658009320700,0.08132080078125,-0.00020050350576639175,0.0004733237437903881,-0.00081201596185565
1772476658019317800,0.09131787109375,0.0026914230547845364,0.0027910727076232433,-0.0005486290901899338
1772476658029315600,0.101315673828125,0.000059827230870723724,-0.0007245829328894615,0.002769517246633768
1772476658039313000,0.11131298828125,-0.000001957640051841736,0.0003017992712557316,0.0014674975536763668
1772476658049310700,0.121310791015625,0.00042541325092315674,-0.0009157913736999035,-0.00036160415038466454
1772476658059308800,0.131308837890625,-0.000015074387192726135,0.0001766369678080082,0.00006716512143611908
1772476658069305900,0.141305908203125,0.00013926345854997635,-0.002009256277233362,0.000167792197316885
1772476658079303700,0.1513037109375,-0.0010929815471172333,0.0005905218422412872,0.002811778336763382
1772476658089301800,0.1613017578125,0.0007112352177500725,-0.0010095788165926933,0.000985391903668642
1772476658099298800,0.171298828125,-0.0008096955716609955,0.0017702290788292885,-0.0004841405898332596
1772476658109297000,0.181296875,0.0007057366892695427,-0.0005202572792768478,0.0021720058284699917
1772476658119295000,0.191294921875,-0.001463940367102623,0.002253425307571888,-0.0009572086855769157
1772476658129291800,0.201291748046875,0.0010722847655415535,-0.0001951819285750389,0.00031533418223261833
1772476658139289900,0.211289794921875,0.0007005073130130768,-0.0018189111724495888,0.0022218916565179825
1772476658149287700,0.22128759765625,0.0009532319381833076,-0.002118173986673355,-0.002603468019515276
1772476658159284700,0.23128466796875,-0.0015251049771904945,0.0025586034171283245,0.0015334859490394592
1772476658169282800,0.24128271484375,-0.0008166460320353508,-0.0007683234289288521,0.00016069598495960236
1772476658179280600,0.25128076171875,-0.000708521343767643,0.0028924578800797462,0.0025602043606340885
1772476658189278000,0.26127783203125,0.0005746502429246902,-0.003442558692768216,-0.0005871867761015892
1772476658199275800,0.27127587890625,0.00014588143676519394,-0.0013285414315760136,0.0016448087990283966
1772476658209272800,0.28127294921875,0.0028615924529731274,0.0023253969848155975,-0.00003211619332432747
1772476658219270700,0.291270751953125,0.0009217457845807076,0.0001991288736462593,0.0003809398040175438
1772476658229268700,0.301268798828125,0.0026179212145507336,-0.0023867469280958176,0.0016591302119195461
1772476658239265800,0.311265869140625,0.00017686747014522552,0.0001850677654147148,0.0017619277350604534
1772476658249263900,0.321263916015625,-0.0010981643572449684,-0.002189930994063616,-0.0013385862112045288
1772476658259262000,0.331261962890625,-0.0028318818658590317,0.0006814892403781414,0.001998355146497488
1772476658269258800,0.3412587890625,-0.0015121987089514732,0.000002205837517976761,-0.0016750036738812923
1772476658279256800,0.3512568359375,-0.0007300283759832382,-0.002465745434165001,0.0008065300062298775
1772476658289255000,0.3612548828125,0.0009255670011043549,0.002681269310414791,0.0009538284502923489
1772476658299251700,0.371251708984375,-0.00019881967455148697,-0.0007408922538161278,0.0005532889626920223
1772476658309249800,0.381249755859375,0.0017505441792309284,0.0003972947597503662,0.0008845450356602669
1772476658319247600,0.39124755859375,0.00007488299161195755,-0.0006732959300279617,0.00021715695038437843
1772476658329245000,0.401244873046875,0.0003310739994049072,-0.003500973340123892,-0.0003622518852353096
1772476658339242800,0.41124267578125,-0.00008224882185459137,0.0006540906615555286,-0.00016011809930205345
1772476658349240800,0.42124072265625,-0.00045351311564445496,-0.0011520832777023315,0.0010446063242852688
1772476658359238000,0.43123779296875,0.00040801987051963806,0.000337955541908741,0.003554368857294321
1772476658369235700,0.441235595703125,-0.0007077809423208237,-0.00026807282119989395,-0.0000830451026558876
1772476658379233000,0.45123291015625,0.0010464433580636978,-0.0009517064318060875,-0.0006529614329338074
1772476658389230000,0.46122998046875,0.00014648400247097015,-0.00032058916985988617,-0.0015404070727527142
1772476658399228200,0.471228271484375,-0.00047962553799152374,0.00019499892368912697,-0.0022812983952462673
1772476658409225200,0.48122509765625,-0.0015094159170985222,0.000672423280775547,-0.0027287020348012447
1772476658419223000,0.49122314453125,0.0007976805791258812,0.0006090397946536541,-0.0022205710411071777
1772476658429221000,0.50122119140625,0.0017922241240739822,-0.0014283428899943829,0.0005067009478807449
1772476658439218000,0.511218017578125,-0.0007750634104013443,-0.0000826474279165268,0.0004084305837750435
1772476658449216000,0.521216064453125,-0.001241288147866726,-0.0009426944889128208,-0.0020483643747866154
1772476658459214300,0.53121435546875,0.001033850945532322,-0.0004750434309244156,-0.0019530230201780796
1772476658469211100,0.541211181640625,0.0012055300176143646,0.0025926465168595314,0.00132845900952816
1772476658479209200,0.551209228515625,0.001592220738530159,0.0005217720754444599,-0.00033974554389715195
1772476658489207000,0.56120703125,-0.002634141594171524,-0.0006334851495921612,-0.0006446698680520058
1772476658499204000,0.5712041015625,-0.0006397003307938576,0.001440318301320076,0.0006357776001095772
1772476658509202200,0.5812021484375,0.0005092602223157883,0.0015964852645993233,-0.0011549349874258041
1772476658519200000,0.591199951171875,-0.002772820182144642,0.0020055468194186687,-0.0002912720665335655
1772476658529197300,0.601197265625,0.00003023538738489151,0.0003894725814461708,-0.000184615608304739
1772476658539195100,0.611195068359375,0.0020462488755583763,-0.0022284146398305893,0.000920330174267292
1772476658549192200,0.621192138671875,-0.0016870535910129547,0.000035188160836696625,-0.0024169031530618668
1772476658559190000,0.63118994140625,0.00034387316554784775,0.00014677457511425018,-0.0016746805049479008
1772476658569188000,0.64118798828125,-0.00048584211617708206,-0.0035502230748534203,-0.00038096867501735687
1772476658579185200,0.65118505859375,0.0009501343593001366,0.0022163200192153454,0.0007777726277709007
1772476658589183000,0.661182861328125,-0.0016498696058988571,-0.0033870674669742584,-0.0005433890037238598
1772476658599181000,0.67118115234375,0.0004923772066831589,0.0004833047278225422,0.0010092337615787983
1772476658609178000,0.68117822265625,0.0001584729179739952,0.001589450053870678,0.0017578927800059319
1772476658619176200,0.69117626953125,0.0010588876903057098,-0.0006697094067931175,0.0022010430693626404
1772476658629174300,0.70117431640625,-0.0013838214799761772,0.0003873473033308983,0.0013738232664763927
1772476658639171000,0.711171142578125,0.0005453722551465034,-0.00022917427122592926,0.0005879243835806847
1772476658649169200,0.721169189453125,0.0015765461139380932,0.001135923434048891,0.0025840038433670998
1772476658659167000,0.7311669921875,0.0005397768691182137,-0.00003400305286049843,-0.0006115236319601536
1772476658669164300,0.741164306640625,0.0006945915520191193,-0.0005853539332747459,-0.0001852479763329029
1772476658679162000,0.751162109375,0.000021078623831272125,-0.0015781805850565434,-0.0015823421999812126
1772476658689160200,0.76116015625,0.000932564027607441,-0.0005208887159824371,0.0033030640333890915
1772476658699157200,0.7711572265625,0.003051641397178173,0.002596873790025711,0.0011741332709789276
1772476658709155000,0.781155029296875,0.0006155436858534813,-0.00037255464121699333,-0.0007447665557265282
1772476658719153200,0.791153076171875,-0.0017898231744766235,-0.0006721601821482182,-0.0008725984953343868
1772476658729150000,0.80114990234375,-0.00003798026591539383,0.001479786355048418,-0.0002100723795592785
1772476658739148000,0.81114794921875,0.0001332610845565796,-0.0007285065948963165,-0.000020987819880247116
1772476658749145000,0.82114501953125,0.001192443072795868,-0.003108939854428172,-0.001104491762816906
1772476658759143200,0.83114306640625,0.0011967038735747337,0.0022762385196983814,-0.00034948578104376793
1772476658769141200,0.841141357421875,0.000660458579659462,-0.0017213774845004082,0.0014842716045677662
1772476658779138000,0.851137939453125,-0.0001691160723567009,0.0010365918278694153,0.0006152824498713017
1772476658789136100,0.86113623046875,-0.0008937614038586617,0.0012117177248001099,0.0007501537911593914
1772476658799134000,0.871134033203125,0.00077044777572155,-0.0011486420407891273,-0.0014855698682367802
1772476658809131300,0.88113134765625,0.000632154755294323,-0.00005644233897328377,-0.0006470386870205402
1772476658819129300,0.89112939453125,-0.0011412445455789566,-0.00037895096465945244,-0.0008635539561510086
1772476658829127200,0.901127197265625,0.0020455382764339447,0.0009555020369589329,0.0006942762993276119
1772476658839124200,0.911124267578125,-0.001964116469025612,0.00034004542976617813,-0.0010144077241420746
1772476658849122000,0.9211220703125,0.0005152178928256035,-0.0015122853219509125,0.000022557564079761505
1772476658859120000,0.9311201171875,-0.001874435693025589,-0.0005634012632071972,0.00021750107407569885
1772476658869117000,0.941116943359375,0.0014618895947933197,0.00042751384899020195,0.0005967291072010994
1772476658879115000,0.951114990234375,-0.001748817041516304,-0.003403176786378026,0.002118992153555155
1772476658889113000,0.961113037109375,0.002674659714102745,0.0006703538820147514,-0.0004051146097481251
1772476658899110100,0.971110107421875,0.0002690264955163002,-0.00006041768938302994,-0.0007483959197998047
1772476658909108200,0.981108154296875,0.0006174268200993538,-0.003099016612395644,-0.0008904626592993736
1772476658919105000,0.99110498046875,0.000725017860531807,0.00003685522824525833,-0.001080346293747425
1772476658929103000,1.00110302734375,-0.001997758634388447,-0.00083155557513237,0.0009979931637644768
1772476658939101200,1.01110107421875,-0.0019167987629771233,0.0008121472783386707,0.0011940021067857742
1772476658949098000,1.021097900390625,0.000406414270401001,-0.0003258003853261471,-0.0026082959957420826
1772476658959096300,1.031096435546875,-0.00018667150288820267,0.0010273517109453678,-0.0017603454180061817
1772476658969094100,1.04109423828125,-0.0005929199978709221,0.0015013068914413452,-0.0010414575226604939
1772476658979091200,1.05109130859375,-0.0006453841924667358,-0.002140033058822155,0.002191087231040001
1772476658989089300,1.06108935546875,0.00036979466676712036,0.0011616232804954052,0.0020712045952677727
1772476658999087000,1.071087158203125,-0.0002467278391122818,0.0002553495578467846,-0.000685966107994318
1772476659009084200,1.081084228515625,0.002676557283848524,-0.00006986595690250397,-0.001120986882597208
1772476659019082000,1.09108203125,0.001162816770374775,-0.0008174153044819832,-0.0037987951654940844
1772476659029080000,1.101080078125,-0.00006130896508693695,-0.00005752313882112503,-0.0004756757989525795
1772476659039077000,1.1110771484375,-0.0007598558440804482,-0.000894288532435894,0.0029571386985480785
1772476659049075200,1.1210751953125,-0.00011037196964025497,0.000421114731580019,0.00005797669291496277
1772476659059072000,1.131072021484375,-0.0007356815040111542,-0.00009873462840914726,0.000787150114774704
1772476659069070000,1.141070068359375,0.0001781415194272995,0.002141954842954874,-0.0011437535285949707
1772476659079068200,1.151068115234375,0.0006239544600248337,0.0006561777554452419,0.0006666635163128376
1772476659089065000,1.16106494140625,-0.00028236862272024155,-0.0024139557499438524,0.0022398782894015312
1772476659099063000,1.17106298828125,-0.0009550834074616432,-0.0003982093185186386,0.0005956427194178104
1772476659109061000,1.18106103515625,0.00043950509279966354,0.00015372596681118011,0.0022222506813704967
1772476659119058200,1.19105810546875,0.001924749929457903,-0.001431920100003481,0.00029785046353936195
1772476659129056300,1.20105615234375,-0.0010775625705718994,0.0003055902197957039,-0.00038427719846367836
1772476659139054000,1.21105419921875,-0.00027355458587408066,0.0011404911056160927,0.00011852756142616272
1772476659149051100,1.221051025390625,-0.0036876853555440903,0.00005877623334527016,0.0009563453495502472
1772476659159049000,1.231049072265625,-0.00004634540528059006,0.0015568039380013943,0.0032759588211774826
1772476659169047000,1.241047119140625,0.00009595323354005814,-0.000008986331522464752,0.0009073233231902122
1772476659179044400,1.25104443359375,-0.0017850380390882492,0.00016891304403543472,-0.00042159389704465866
1772476659189042200,1.261042236328125,0.00011880230158567429,0.0007100668735802174,0.0009350581094622612
1772476659199039200,1.271039306640625,-0.0006849393248558044,-0.0019869166426360607,-0.0017648544162511826
1772476659209037000,1.281037109375,0.00116046704351902,0.00268574059009552,0.000005585141479969025
1772476659219035100,1.29103515625,0.001399085856974125,-0.001631776336580515,-0.0027281497605144978
1772476659229032000,1.301031982421875,0.00029651354998350143,-0.00033481093123555183,-0.0004225997254252434
1772476659239030000,1.311030029296875,-0.0002925777807831764,-0.0000032475218176841736,-0.000470802653580904
1772476659249028000,1.321028076171875,0.0013643987476825714,-0.0019096280448138714,-0.0005186721682548523
1772476659259025200,1.331025146484375,0.00017050374299287796,0.000612917821854353,-0.0016100360080599785
1772476659269023200,1.341023193359375,-0.00101426150649786,-0.00016354676336050034,0.0012678662315011024
1772476659279021000,1.35102099609375,-0.0015516867861151695,-0.000248501542955637,0.0017328541725873947
1772476659289018000,1.36101806640625,0.00196831114590168,-0.00013248715549707413,0.0005924082361161709
1772476659299016200,1.37101611328125,-0.00015342887490987778,-0.0011764462105929852,0.0022590141743421555
1772476659309014000,1.381013916015625,0.002639200072735548,0.0013488060794770718,-0.0004848749376833439
1772476659319011300,1.39101123046875,-0.0009307675063610077,0.0011807605624198914,0.0000261855311691761
1772476659329009200,1.401009033203125,0.0015311636961996555,-0.0011893673799932003,-0.0013983147218823433
1772476659339006200,1.411006103515625,0.003060084767639637,0.0037246975116431713,-0.003664664924144745
1772476659349004000,1.421004150390625,0.000300050713121891,-0.0006668735295534134,0.00017264392226934433
1772476659359002000,1.431002197265625,-0.0007668109610676765,-0.00011426769196987152,0.0011790525168180466
1772476659368999200,1.440999267578125,0.0019497917965054512,0.001895706169307232,0.0005122083239257336
1772476659378996700,1.450996826171875,0.0004365835338830948,0.00040140608325600624,-0.0026308544911444187
1772476659388994800,1.460994873046875,-0.0006333691999316216,-0.0011528059840202332,0.0013668951578438282
1772476659398992000,1.470991943359375,0.0010534776374697685,0.0010674712248146534,-0.0005812067538499832
1772476659408990000,1.480989990234375,-0.00011001341044902802,-0.0009333863854408264,-0.0003984365612268448
1772476659418988000,1.490988037109375,-0.00039124395698308945,0.0022336444817483425,-0.00041441572830080986
1772476659428984800,1.50098486328125,0.00018306635320186615,0.000012399163097143173,-0.00011383974924683571
1772476659438983000,1.51098291015625,0.0007231561467051506,0.00252029811963439,-0.0006283624097704887
1772476659448980700,1.520980712890625,0.00039217621088027954,-0.0034148122649639845,0.00031882012262940407
1772476659458978000,1.53097802734375,-0.000519423745572567,-0.0011375430040061474,-0.0011515109799802303
1772476659468975900,1.540975830078125,0.00027542654424905777,0.0007650768384337425,0.00014975294470787048
1772476659478973000,1.550972900390625,-0.0017874585464596748,-0.000740142073482275,0.00008796760812401772
1772476659488971000,1.560970947265625,-0.0007727518677711487,-0.001911252737045288,0.0013103494420647621
1772476659498968800,1.57096875,0.0009705526754260063,0.0005252733826637268,0.001117004081606865
1772476659508966000,1.5809658203125,-0.0002305302768945694,0.0022307895123958588,-0.001691651064902544
1772476659518963700,1.590963623046875,-0.00019351206719875336,-0.0006973561830818653,-0.001182454638183117
1772476659528961800,1.6009619140625,-0.00031459610909223557,-0.00004152115434408188,-0.0008505163714289665
1772476659538958800,1.610958740234375,0.0017845076508820057,-0.00008732732385396957,0.000584927387535572
1772476659548957000,1.62095703125,-0.0009498409926891327,0.0017363596707582474,-0.0008330214768648148
1772476659558955000,1.630955078125,-0.0018683653324842453,-0.0010564974509179592,0.0014754068106412888
1772476659568951800,1.640951904296875,-0.00017194915562868118,0.001392618753015995,-0.001233572605997324
1772476659578950000,1.650949951171875,-0.00008699484169483185,0.00118169654160738,0.0005600661970674992
1772476659588947700,1.66094775390625,0.0006399583071470261,-0.00011954642832279205,0.0012030303478240967
1772476659598945000,1.670945068359375,0.0020831250585615635,-0.00022021401673555374,-0.0023757251910865307
1772476659608943000,1.680943115234375,-0.0009345337748527527,-0.00003685709089040756,-0.0025100745260715485
1772476659618940000,1.69093994140625,-0.0021060584113001823,-0.0011497922241687775,0.0024519269354641438
1772476659628938000,1.70093798828125,-0.0006827833130955696,-0.0021194610744714737,0.0000025331974029541016
1772476659638935800,1.710935791015625,0.0008424092084169388,0.0020949910394847393,0.0021375897340476513
1772476659648932900,1.720932861328125,-0.00019222311675548553,-0.000478875357657671,0.0004830397665500641
1772476659658930700,1.7309306640625,0.0005718376487493515,0.00005508866161108017,0.0006332420744001865
1772476659668928800,1.7409287109375,-0.0001473287120461464,-0.00013804016634821892,-0.0013733264058828354
1772476659678926000,1.750926025390625,0.0007717283442616463,0.003604766447097063,-0.00002257106825709343
1772476659688924000,1.760923828125,-0.00034055113792419434,-0.00010985741391777992,0.0017297947779297829
1772476659698922000,1.770921875,-0.0013434980064630508,-0.0012406357564032078,0.00006105797365307808
1772476659708918800,1.780918701171875,0.0008960533887147903,0.0017923833802342415,0.0013364660553634167
1772476659718916900,1.790916748046875,0.000929608941078186,-0.0011946181766688824,-0.0002630283124744892
1772476659728913700,1.80091357421875,-0.0008973907679319382,0.001103762537240982,0.0011782310903072357
1772476659738911700,1.810911865234375,-0.0008393339812755585,0.0016110949218273163,0.00108368881046772
1772476659748909800,1.820909912109375,-0.0005320673808455467,0.0008654631674289703,-0.0027336464263498783
1772476659758907000,1.830906982421875,-0.0007840031757950783,0.0006787753663957119,-0.00030990317463874817
1772476659768905000,1.840905029296875,0.0015214276500046253,0.0006076693534851074,-0.0006431075744330883
1772476659778902800,1.85090283203125,-0.0017745010554790497,-0.0003862222656607628,-0.00015761330723762512
1772476659788899800,1.86089990234375,0.00008274149149656296,-0.0000494103878736496,0.002022338565438986
1772476659798898000,1.87089794921875,0.0011043306440114975,0.0003354162909090519,0.00020286673679947853
1772476659808895700,1.880895751953125,0.0018084575422108173,0.001571932341903448,0.0023114322684705257
1772476659818893000,1.89089306640625,0.0002228114753961563,0.001004945021122694,0.0012214002199470997
1772476659828891000,1.900890869140625,0.0008808337152004242,0.0003543472848832607,0.0003873365931212902
1772476659838889000,1.910888916015625,0.0007729753851890564,-0.0024675382301211357,0.0008360794745385647
1772476659848885800,1.9208857421875,-0.0003509446978569031,0.001119417604058981,-0.0005545122548937798
1772476659858883800,1.9308837890625,0.0005878200754523277,0.00012153107672929764,0.0006614872254431248
1772476659868881000,1.940880859375,0.0005177371203899384,0.002537698484957218,-0.0005135070532560349
1772476659878878700,1.950878662109375,0.0008205389603972435,0.0002540377900004387,-0.0007713013328611851
1772476659888876800,1.960876708984375,0.0013469541445374489,0.00009164353832602501,0.0012258980423212051
1772476659898873900,1.970873779296875,-0.00019395072013139725,0.0020863511599600315,-0.0016734856180846691
1772476659908872000,1.980871826171875,-0.003361424431204796,-0.0011390126310288906,-0.0005859392695128918
1772476659918870000,1.9908701171875,0.002192331477999687,0.0006354516372084618,0.0022452669218182564
1772476659928866800,2.00086669921875,-0.0001218896359205246,0.0001443088985979557,-0.00021479930728673935
1772476659938865000,2.010864990234375,-0.0002585100010037422,-0.002386226784437895,0.0023940331302583218
1772476659948862700,2.02086279296875,0.0032191197387874126,0.003381977789103985,-0.0010541817173361778
1772476659958860000,2.030860107421875,0.0010987110435962677,0.0008764760568737984,-0.0001649525947868824
1772476659968857900,2.04085791015625,-0.0010475143790245056,-0.0017658239230513573,0.000670658890157938
1772476659978856000,2.05085595703125,-0.001632077619433403,-0.000988180749118328,0.0015247343108057976
1772476659988853000,2.06085302734375,0.0006839055567979813,-0.0000703977420926094,0.0019423095509409904
1772476659998850800,2.070850830078125,-0.0010729813948273659,-0.0007066270336508751,0.002240316942334175
1772476660008848000,2.080847900390625,-0.0008461009711027145,0.002088297624140978,0.0006840978749096394
1772476660018845700,2.090845703125,-0.0007717981934547424,-0.00009469594806432724,-0.0004863613285124302
1772476660028843800,2.10084375,0.0007595997303724289,0.0010842853225767612,0.0013087703846395016
1772476660038840800,2.1108408203125,-0.0017469674348831177,0.0003692265599966049,0.0015007848851382732
1772476660048839000,2.1208388671875,0.0006812773644924164,0.0002460125833749771,0.001803338062018156
1772476660058837000,2.1308369140625,0.00038966163992881775,0.0026449882425367832,0.0001867995597422123
1772476660068833800,2.140833740234375,-0.00021563563495874405,-0.0018414687365293503,0.0008564251475036144
1772476660078831900,2.150831787109375,0.0009673405438661575,-0.00113386707380414,0.000426590908318758
1772476660088830000,2.160829833984375,0.0009327670559287071,0.0007234178483486176,0.002069360576570034
1772476660098827000,2.170826904296875,-0.0011301171034574509,-0.0012289457954466343,0.0010650823824107647
1772476660108825000,2.1808251953125,-0.0022482750937342644,0.001955556683242321,0.001267417799681425
1772476660118822000,2.19082177734375,0.00042607076466083527,-0.0003893570974469185,-0.0025984272360801697
1772476660128820000,2.200820068359375,0.0009690709412097931,0.0009542787447571754,0.0007665706798434258
1772476660138817800,2.21081787109375,-0.0016890307888388634,0.004826781805604696,-0.0021312148310244083
1772476660148814800,2.22081494140625,0.0018438738770782948,-0.0008956114761531353,0.0025620944797992706
1772476660158813000,2.23081298828125,-0.0029623331502079964,0.0002213180996477604,-0.0024553011171519756
1772476660168810800,2.240810791015625,0.001726343296468258,-0.0008637704886496067,0.000921919010579586
1772476660178808000,2.25080810546875,0.0005992930382490158,0.0006901836022734642,0.0007362966425716877
1772476660188806000,2.260805908203125,-0.0002119448035955429,0.0010757786221802235,-0.0014699660241603851
1772476660198804000,2.270803955078125,-0.00013631023466587067,-0.0002454151399433613,-0.0005293376743793488
1772476660208800800,2.28080078125,0.000019591301679611206,0.0023745885118842125,0.0033131716772913933
1772476660218798800,2.290798828125,-0.0008091842755675316,-0.00030588312074542046,-0.0012464262545108795
1772476660228795600,2.300795654296875,-0.0008304361253976822,0.00024151336401700974,-0.00033173151314258575
1772476660238793700,2.310793701171875,-0.00024667102843523026,-0.0007667592726647854,0.0005005062557756901
1772476660248791800,2.320791748046875,0.0021635466255247593,-0.0013366816565394402,0.0004159226082265377
1772476660258788900,2.330788818359375,-0.0018024332821369171,-0.00239582103677094,-0.0014107394963502884
1772476660268787000,2.340786865234375,0.0004741530865430832,0.00027558114379644394,-0.0008185119368135929
1772476660278785000,2.350784912109375,0.0014379508793354034,-0.002339642960578203,-0.00034553464502096176
1772476660288781800,2.36078173828125,-0.0009068325161933899,0.0008094995282590389,-0.002924293279647827
1772476660298780000,2.37077978515625,-0.001796593889594078,0.0023189792409539223,-0.00007258029654622078
1772476660308777700,2.38077783203125,0.0021079392172396183,-0.002999411430209875,0.0002933163195848465
1772476660318775000,2.390775146484375,-0.0005011595785617828,-0.0014358693733811378,-0.0007144236005842686
1772476660328772900,2.40077294921875,-0.0007524630054831505,0.0030157016590237617,0.0011758040636777878
1772476660338770000,2.41077001953125,0.0006116079166531563,0.0004297727718949318,-0.0006926702335476875
1772476660348768000,2.42076806640625,0.0020653842948377132,-0.0009269411675632,0.00009381305426359177
1772476660358765800,2.430765869140625,-0.0014071110635995865,0.003311479464173317,0.00031538819894194603
1772476660368763000,2.440762939453125,-0.0013042520731687546,-0.0019246703013777733,-0.00019647739827632904
1772476660378761200,2.45076123046875,0.0002481043338775635,0.0011030775494873524,0.00005066394805908203
1772476660388759000,2.460759033203125,0.0013786577619612217,-0.00011764001101255417,0.00015893811360001564
1772476660398756400,2.47075634765625,-0.0009255092591047287,-0.0005096574313938618,-0.00027861911803483963
1772476660408754200,2.480754150390625,0.0007236413657665253,0.0009941048920154572,0.0005655498243868351
1772476660418752300,2.490752197265625,-0.0015975702553987503,0.0003671967424452305,-0.0010920017957687378
1772476660428749000,2.5007490234375,-0.0012316405773162842,0.0009997081942856312,-0.0008856090717017651
1772476660438747100,2.5107470703125,-0.0025395192205905914,-0.0007419991306960583,-0.0007588425651192665
1772476660448745200,2.5207451171875,-0.0006752125918865204,-0.00033660558983683586,-0.0001816009171307087
1772476660458742000,2.530741943359375,-0.0013207625597715378,0.00025594793260097504,-0.0001267394982278347
1772476660468740400,2.540740234375,-0.0010035252198576927,-0.0012697423808276653,-0.0006502973847091198
1772476660478737200,2.550737060546875,0.0013813353143632412,0.0021007535979151726,0.0019521433860063553
1772476660488735200,2.5607353515625,-0.000017449259757995605,0.0005900952965021133,0.0014422019012272358
1772476660498733300,2.5707333984375,-0.0022728797048330307,-0.0014802459627389908,-0.0004941821098327637
1772476660508730000,2.580730224609375,-0.000906684435904026,0.0007377089932560921,-0.0000646030530333519
1772476660518728200,2.590728271484375,-0.00011146441102027893,0.000743567943572998,0.0013021309860050678
1772476660528726000,2.60072607421875,-0.0006828214973211288,-0.0007137823849916458,-0.00010132789611816406
1772476660538723300,2.610723388671875,0.0006612753495573997,-0.0014003454707562923,0.0004422236233949661
1772476660548721200,2.62072119140625,-0.0007154420018196106,0.002661289181560278,-0.0014828182756900787
1772476660558718200,2.63071826171875,-0.001866726204752922,-0.0008948300965130329,0.0003899168223142624
1772476660568716300,2.64071630859375,0.0016846926882863045,0.00045561883598566055,0.0007601161487400532
1772476660578714000,2.650714111328125,-0.0017542475834488869,0.0019379346631467342,0.0013851597905158997
1772476660588711200,2.660711181640625,-0.0023826537653803825,0.0015329043380916119,0.001552522648125887
1772476660598709000,2.670708984375,0.002081337384879589,0.0021094786934554577,-0.00008185906335711479
1772476660608707000,2.68070703125,0.0018759374506771564,0.0002697184681892395,-0.0034027474466711283
1772476660618704100,2.6907041015625,-0.00017789285629987717,0.0006446917541325092,0.00039918115362524986
1772476660628702200,2.7007021484375,0.0012357085943222046,-0.002568806055933237,0.00034073134884238243
1772476660638700300,2.7107001953125,-0.000543549656867981,0.0006802505813539028,-0.0016214856877923012
1772476660648697000,2.720697021484375,0.0002767648547887802,-0.0012211129069328308,-0.0005509564653038979
1772476660658695200,2.730695068359375,0.0004988722503185272,-0.0024994302075356245,0.001645352691411972
1772476660668692200,2.740692138671875,0.0005226489156484604,0.0014743520878255367,-0.0020103342831134796
1772476660678690300,2.750690185546875,0.0005644606426358223,-0.001303857658058405,0.0029692440293729305
1772476660688688400,2.7606884765625,0.00029821787029504776,0.0007872777059674263,0.0018586399964988232
1772476660698685200,2.770685302734375,0.00029315799474716187,0.0013041971251368523,0.0005134777165949345
1772476660708683300,2.780683349609375,-0.001389823853969574,0.00016827788203954697,-0.001737141516059637
1772476660718681000,2.79068115234375,0.00011166650801897049,-0.0007976503111422062,-0.000409555621445179
1772476660728678100,2.80067822265625,0.001446605660021305,-0.0009605973027646542,-0.0015115831047296524
1772476660738676000,2.810676025390625,0.0021249125711619854,-0.0013400977477431297,0.0016495888121426105
1772476660748674000,2.820674072265625,-0.0014398172497749329,-0.0025006623473018408,0.0003653978928923607
1772476660758671400,2.83067138671875,0.003081431146711111,-0.0009435121901333332,-0.0008290298283100128
1772476660768669200,2.840669189453125,-0.0011489419266581535,-0.0015126890502870083,0.00238229101523757
1772476660778666200,2.850666259765625,0.0001291092485189438,-0.0014282669872045517,0.0014051771722733974
1772476660788664000,2.8606640625,-0.0006673652678728104,-0.002006454858928919,-0.0017679613083600998
1772476660798662100,2.870662109375,0.0010189488530158997,-0.00032839691266417503,-0.0015799421817064285
1772476660808659200,2.8806591796875,0.0018021524883806705,-0.001578866969794035,-0.0006155720911920071
1772476660818657300,2.8906572265625,-0.0010804533958435059,0.0009005358442664146,0.0014140228740870953
1772476660828655400,2.9006552734375,-0.0000040745362639427185,0.001148868352174759,-0.001787619199603796
1772476660838652200,2.910652099609375,0.00014319829642772675,-0.003565192921087146,-0.0007652314379811287
1772476660848650200,2.920650146484375,0.0014468478038907051,0.000990886241197586,-0.0015969057567417622
1772476660858648000,2.93064794921875,0.0011094249784946442,-0.0024392653722316027,0.0007940805517137051
1772476660868645000,2.94064501953125,0.0004336545243859291,-0.0014334162697196007,-0.0015453118830919266
1772476660878643200,2.950643310546875,0.0009337961673736572,0.000047301407903432846,0.0010504713281989098
1772476660888640300,2.96064013671875,-0.0009377347305417061,-0.0003875093534588814,0.001117753330618143
1772476660898638300,2.970638427734375,-0.0005073677748441696,-0.0009022983722388744,0.0009643551893532276
1772476660908636200,2.98063623046875,0.0010882802307605743,-0.0006109448149800301,-0.00029692240059375763
1772476660918633200,2.99063330078125,0.002075514290481806,0.0006884117610752583,-0.0039060383569449186
1772476660928631000,3.000631103515625,0.00004441756755113602,0.00033675506711006165,0.0007234755903482437
1772476660938629000,3.010629150390625,0.0009669363498687744,-0.00030373502522706985,-0.0010429988615214825
1772476660948626200,3.020626220703125,-0.0009876107797026634,-0.0008821734227240086,-0.0016924599185585976
1772476660958624000,3.0306240234375,0.0024665091186761856,0.002697913907468319,-0.0018325424753129482
1772476660968622000,3.0406220703125,-0.000042634084820747375,-0.0011573093943297863,0.0008298549801111221
1772476660978619100,3.050619140625,-0.0006445087492465973,0.0005377926863729954,-0.000756590161472559
1772476660988617200,3.0606171875,0.000050395727157592773,-0.00030080927535891533,-0.001351354643702507
1772476660998614000,3.070614013671875,0.0002948744222521782,-0.00007630512118339539,-0.00164030771702528
1772476661008612000,3.080612060546875,0.0012942366302013397,-0.0002223178744316101,0.0004306156188249588
1772476661018610200,3.090610107421875,-0.0005630515515804291,-0.001002890057861805,0.0001637670211493969
1772476661028607200,3.100607177734375,0.0009715268388390541,0.0011963453143835068,-0.0013626320287585258
1772476661038605300,3.110605224609375,0.000626646913588047,0.001412327867001295,-0.00012932205572724342
1772476661048603100,3.12060302734375,-0.0017649317160248756,-0.0007457691244781017,-0.00021443655714392662
1772476661058600200,3.13060009765625,-0.0004522595554590225,0.0022188620641827583,-0.0007396116852760315
1772476661068598300,3.140598388671875,-0.00023692473769187927,0.0014165290631353855,-0.002114929724484682
1772476661078595000,3.150594970703125,-0.001150122843682766,-0.00014328444376587868,0.0012145545333623886
1772476661088593200,3.16059326171875,0.0014171749353408813,0.0002343393862247467,-0.00325984600931406
1772476661098591000,3.170591064453125,-0.0010720817372202873,-0.0014615613035857677,-0.000893893651664257
1772476661108588300,3.18058837890625,0.0015017623081803322,-0.00011665048077702522,-0.00041662994772195816
1772476661118586000,3.190586181640625,0.0009616734459996223,0.00009240768849849701,-0.0017109261825680733
1772476661128584200,3.200584228515625,0.0019287243485450745,-0.002219963353127241,-0.0011561084538698196
1772476661138581200,3.210581298828125,0.00006530992686748505,-0.00005348166450858116,-0.0004461095668375492
1772476661148579000,3.2205791015625,0.0005177659913897514,0.00047911982983350754,0.00036786263808608055
1772476661158577200,3.2305771484375,0.000561974011361599,-0.0017126617021858692,0.0019500469788908958
1772476661168574200,3.24057421875,-0.0005617672577500343,-0.0014734421856701374,-0.0005148393101990223
1772476661178572300,3.250572265625,0.001166624017059803,-0.0014846273697912693,0.0010175439529120922
1772476661188569000,3.260569091796875,0.0009486982598900795,-0.001021785195916891,0.0018522776663303375
1772476661198567200,3.270567138671875,-0.0004910072311758995,0.00018968665972352028,-0.0023118415847420692
1772476661208565200,3.280565185546875,-0.0000054836273193359375,-0.00015647290274500847,0.0002548201009631157
1772476661218562000,3.29056201171875,0.00044752005487680435,0.0016922936774790287,-0.0009321505203843117
1772476661228560100,3.30056005859375,0.0011667069047689438,0.0003743707202374935,-0.0014708307571709156
1772476661238558200,3.31055810546875,-0.0006056269630789757,-0.0013329819776117802,-0.00011421646922826767
1772476661248555300,3.32055517578125,0.0015023923479020596,0.0018698987551033497,0.0009568864479660988
1772476661258553300,3.33055322265625,0.0005367305129766464,-0.00017301179468631744,0.0008988296613097191
1772476661268550100,3.340550048828125,0.0001203436404466629,-0.0004339138977229595,0.0000627255067229271
1772476661278548200,3.35054833984375,-0.0008439868688583374,0.003405032679438591,-0.0016773836687207222
1772476661288546000,3.360546142578125,0.002061056438833475,-0.0012060473673045635,0.0006497427821159363
1772476661298543000,3.370543212890625,-0.00028785131871700287,-0.0013935337774455547,-0.0014933031052350998
1772476661308541200,3.380541259765625,0.0006643654778599739,-0.001218894962221384,-0.00010249251499772072
1772476661318539300,3.390539306640625,0.0002672877162694931,0.0006184200756251812,-0.0015134355053305626
1772476661328536300,3.400536376953125,-0.00072496198117733,-0.00020563369616866112,0.0011663762852549553
1772476661338534100,3.4105341796875,0.000051349401473999023,0.0005259369499981403,-0.002236610744148493
1772476661348532200,3.4205322265625,0.0011045774444937706,0.0016126674599945545,0.00270167738199234
1772476661358529000,3.430529052734375,0.00014370866119861603,0.00037269992753863335,0.00040816329419612885
1772476661368527000,3.440527099609375,0.002511007245630026,0.0017135762609541416,0.0004967134445905685
1772476661378524200,3.450524169921875,0.0006281519308686256,-0.0007772780954837799,-0.0003855917602777481
1772476661388522200,3.460522216796875,0.0010760743170976639,0.000945189967751503,-0.0002143094316124916
1772476661398520000,3.47052001953125,-0.0002818712964653969,0.00026475265622138977,-0.0013623982667922974
1772476661408517000,3.48051708984375,0.0005305344238877296,0.0007948256097733974,0.0009622210636734962
1772476661418515000,3.490514892578125,0.0015803524293005466,0.00044541899114847183,-0.00013366993516683578
1772476661428513000,3.500512939453125,0.0007660156115889549,-0.0007194830104708672,0.0012702234089374542
1772476661438509800,3.510509765625,-0.0008819485083222389,-0.0005703461356461048,0.0014763521030545235
1772476661448508000,3.5205078125,0.0014456245116889477,0.00026517966762185097,-0.0006342907436192036
1772476661458505200,3.530505126953125,0.0000027241185307502747,-0.00011884840205311775,0.0015518981963396072
1772476661468503000,3.5405029296875,0.0008533988147974014,-0.0012934762053191662,0.0021493504755198956
1772476661478501000,3.550501220703125,0.0005596522241830826,0.00009775906801223755,0.0010723681189119816
1772476661488498000,3.560497802734375,-0.0010148612782359123,0.00027756206691265106,0.0007867719978094101
1772476661498496000,3.57049609375,-0.00017436780035495758,0.00004054093733429909,0.0033497982658445835
1772476661508494000,3.580494140625,-0.00010457262396812439,-0.0024294527247548103,-0.0016409414820373058
1772476661518491100,3.5904912109375,-0.0011767614632844925,0.000005475711077451706,-0.0013336129486560822
1772476661528489200,3.6004892578125,0.00008336547762155533,-0.0021409043110907078,0.0013985410332679749
1772476661538487000,3.610487060546875,0.0012932391837239265,-0.0004295571707189083,-0.00047605810686945915
1772476661548484000,3.620484130859375,0.0008104760199785233,-0.0033613573759794235,-0.0015923399478197098
1772476661558482000,3.63048193359375,-0.0006009992212057114,-0.0011788969859480858,0.00008838111534714699
1772476661568479000,3.64047900390625,-0.000035526230931282043,0.0014601298607885838,0.002256333362311125
1772476661578477000,3.65047705078125,0.0009200163185596466,-0.000015793833881616592,0.0003756089136004448
1772476661588475000,3.660474853515625,-0.0004838472232222557,0.0019393819384276867,0.001552059780806303
1772476661598472200,3.67047216796875,-0.0005120765417814255,-0.00040899356827139854,-0.001382477581501007
1772476661608470000,3.680469970703125,-0.00022069644182920456,-0.002410194603726268,0.0010002069175243378
1772476661618468000,3.690468017578125,0.0024398011155426502,0.0010444577783346176,0.0011717146262526512
1772476661628465000,3.70046484375,-0.0016039330512285233,0.0009181923232972622,-0.0013983710668981075
1772476661638463000,3.710462890625,0.0007308600470423698,0.0006092656403779984,0.0020288503728806973
1772476661648460000,3.7204599609375,0.0015587136149406433,0.0027839811518788338,-0.0005838079378008842
1772476661658458000,3.7304580078125,0.00186923798173666,0.0015948796644806862,0.0006132829003036022
1772476661668456200,3.740456298828125,0.0032536047510802746,0.000681490171700716,-0.00020618736743927002
1772476661678453000,3.750452880859375,-0.00047029368579387665,-0.0019401255995035172,-0.0015414967201650143
1772476661688451000,3.760451171875,-0.0007964922115206718,-0.0008399379439651966,-0.0019414275884628296
1772476661698449200,3.77044921875,0.0006006024777889252,0.002770510036498308,0.000236505176872015
1772476661708446000,3.780446044921875,-0.0002999100834131241,0.00296342046931386,0.001166472677141428
1772476661718444000,3.790444091796875,-0.0012088464573025703,0.0026105516590178013,0.0010993615724146366
1772476661728441000,3.800441162109375,-0.0007565142586827278,0.001371130347251892,0.0005370490252971649
1772476661738439200,3.810439208984375,0.0008688131347298622,0.00038789166137576103,0.00003744009882211685
1772476661748437200,3.820437255859375,-0.0009577926248311996,0.0006313873454928398,0.00022945832461118698
1772476661758434000,3.83043408203125,-0.0025402428582310677,-0.0010674428194761276,-0.0015154448337852955
1772476661768432000,3.84043212890625,-0.0010783746838569641,-0.002213727217167616,-0.00134740537032485
1772476661778430000,3.850429931640625,-0.0008299015462398529,0.0013961875811219215,0.002458518370985985
1772476661788427000,3.860427001953125,-0.0009809695184230804,-0.001318652182817459,-0.0004795761778950691
1772476661798424800,3.8704248046875,0.0011138729751110077,-0.00013620825484395027,0.0006317608058452606
1772476661808423200,3.880423095703125,0.0001707226037979126,0.0005862624384462833,0.000006587710231542587
1772476661818420000,3.890419921875,0.001688990741968155,-0.004634331911802292,-0.0026616333052515984
1772476661828418000,3.90041796875,-0.0010990723967552185,0.0006003715097904205,-0.0006971694529056549
1772476661838415000,3.9104150390625,0.0018122950568795204,-0.0009091082029044628,0.0004597073420882225
1772476661848413000,3.920412841796875,0.0014418009668588638,0.0026547666639089584,-0.000042253173887729645
1772476661858411000,3.930410888671875,0.0012287478893995285,0.0015652673318982124,-0.0005402644164860249
1772476661868408000,3.940407958984375,-0.0007527265697717667,-0.00014668330550193787,0.0006825597956776619
1772476661878406100,3.95040625,-0.0019729873165488243,0.003630212042480707,0.00026257894933223724
1772476661888404200,3.960404296875,0.0009942781180143356,0.001134360209107399,-0.0006320741958916187
1772476661898401000,3.970401123046875,0.00004858989268541336,-0.0013527655974030495,0.0001583523117005825
1772476661908399000,3.980399169921875,0.0011865664273500443,0.003699351567775011,-0.0001264140009880066
1772476661918396000,3.99039599609375,0.0008291704580187798,0.001575214322656393,-0.0012947428040206432
1772476661928394000,4.00039404296875,0.0006404127925634384,-0.00007087085396051407,0.0010555353946983814
1772476661938392000,4.01039208984375,-0.0009079491719603539,-0.0003491714596748352,-0.002401514444500208
1772476661948389000,4.02038916015625,-0.0003001159057021141,-0.0005696793086826801,-0.0005675628781318665
1772476661958387200,4.03038720703125,0.0004780590534210205,0.001199990976601839,-0.0003041764721274376
1772476661968385000,4.040385009765625,0.0003086784854531288,0.0016516698524355888,0.0008667269721627235
1772476661978382000,4.050382080078125,-0.0009930748492479324,-0.000534519087523222,-0.000590288545936346
1772476661988380000,4.0603798828125,0.0008602244779467583,0.002061652485281229,-0.0015100850723683834
1772476661998377000,4.070376953125,-0.0015539303421974182,-0.0009951237589120865,0.0002731676213443279
1772476662008375000,4.080375,0.0019374513067305088,-0.0001193266361951828,0.0020948313176631927
1772476662018373000,4.090373046875,-0.0008455514907836914,0.00005830591544508934,0.0012274393811821938
1772476662028370200,4.1003701171875,0.00047729164361953735,-0.0003180592320859432,0.0034022447653114796
1772476662038368000,4.110367919921875,-0.0017166202887892723,0.00016237515956163406,-0.0010700011625885963
1772476662048366000,4.120365966796875,-0.0009981505572795868,-0.0013355575501918793,-0.0009433804079890251
1772476662058363000,4.13036279296875,0.00045833177864551544,-0.0008295569568872452,0.0010119127109646797
1772476662068361000,4.14036083984375,-0.000531521625816822,-0.00004915287718176842,0.00011691544204950333
1772476662078358000,4.15035791015625,-0.00012645404785871506,0.0012786989100277424,-0.0020402451045811176
1772476662088356000,4.160356201171875,-0.000896083191037178,0.0010908651165664196,0.0011685770004987717
1772476662098354200,4.170354248046875,0.00028982292860746384,0.000662095844745636,0.0011182427406311035
1772476662108351000,4.18035107421875,0.0007504522800445557,-0.0025255975779145956,-0.00011914409697055817
1772476662118349000,4.19034912109375,-0.00042986031621694565,-0.002565811388194561,-0.0005481797270476818
1772476662128347100,4.20034716796875,0.00010584760457277298,-0.000054439064115285873,0.00011177873238921165
1772476662138344000,4.210343994140625,-0.0009580850601196289,-0.0007154354825615883,-0.0016664140857756138
1772476662148342000,4.220342041015625,0.0010478468611836433,0.0015241769142448902,0.001032050233334303
1772476662158339000,4.230339111328125,0.0016244212165474892,0.000472228042781353,0.0008440306410193443
1772476662168337200,4.240337158203125,-0.0007447078824043274,-0.002003270201385021,-0.0007819212041795254
1772476662178335000,4.2503349609375,0.0009304201230406761,-0.003663484938442707,-0.00033957045525312424
1772476662188332000,4.26033203125,0.0009715361520648003,-0.00045569753274321556,0.0008346233516931534
1772476662198330000,4.270330078125,0.0011462392285466194,0.0016082525253295898,0.000684687402099371
1772476662208328000,4.280327880859375,0.0019954973831772804,0.001806376501917839,-0.000016736797988414764
1772476662218325200,4.2903251953125,-0.000009862706065177917,0.0002822498790919781,0.0033902451395988464
1772476662228323000,4.300322998046875,0.00021009612828493118,0.0002954811789095402,-0.00007412116974592209
1772476662238320000,4.310320068359375,-0.002088211476802826,-0.0009607318788766861,4.4750049710273743e-7
1772476662248318000,4.32031787109375,0.0009275572374463081,-0.0008460544049739838,0.0018359296955168247
1772476662258316000,4.33031591796875,0.0000013103708624839783,0.0011640992015600204,0.00010780477896332741
1772476662268312800,4.340312744140625,-0.00001589115709066391,-0.0007958426140248775,0.0018967934884130955
1772476662278311000,4.350310791015625,0.0011926516890525818,-0.00008397968485951424,-0.0010167048312723637
1772476662288309000,4.36030908203125,0.0009982725605368614,0.0007213279604911804,0.00031187525019049644
1772476662298306000,4.37030615234375,-0.0008443687111139297,-0.0006121168844401836,0.000018395017832517624
1772476662308304100,4.38030419921875,0.0004185223951935768,0.0004208376631140709,0.0023494441993534565
1772476662318302200,4.39030224609375,0.0019722110591828823,-0.001464946661144495,-0.0010639289394021034
1772476662328299000,4.400299072265625,0.0006077056750655174,0.0003103213384747505,0.0010545020923018456
1772476662338297000,4.410297119140625,-0.00020162854343652725,0.003716771025210619,0.0000164019875228405
1772476662348294100,4.420294189453125,0.0005024699494242668,-0.0025501290801912546,-0.0014286492951214314
1772476662358292200,4.430292236328125,-0.0015428373590111732,0.001118374988436699,0.0012992261908948421
1772476662368290000,4.4402900390625,0.0004345038905739784,-0.001463577151298523,-0.0005488586612045765
1772476662378287000,4.450287109375,-0.0014472855255007744,-0.0011621075682342052,0.0017643626779317856
1772476662388285200,4.46028515625,-0.0008897054940462112,0.0026288600638508797,0.0009133173152804375
1772476662398282000,4.470281982421875,0.0002826172858476639,-0.0015176814049482346,-0.0010270620696246624
1772476662408280000,4.480280029296875,0.0009724413976073265,0.0005844244733452797,-0.0010833321139216423
1772476662418278100,4.490278076171875,-0.00051093939691782,0.0024750027805566788,-0.0015797456726431847
1772476662428275200,4.500275146484375,-0.0013825399801135063,0.0012370911426842213,-0.00035005807876586914
1772476662438273300,4.510273193359375,-0.0008064983412623405,0.0005934052169322968,-0.00040039187297225
1772476662448271000,4.52027099609375,0.002438753377646208,-0.0012987409718334675,-0.0002897409722208977
1772476662458268200,4.53026806640625,0.00005788728594779968,-0.00038101570680737495,-0.0008197100833058357
1772476662468266200,4.540266357421875,0.0006231376901268959,0.0033957893028855324,-0.001354568637907505
1772476662478264000,4.55026416015625,0.0007760031148791313,-0.0007241209968924522,-0.001297044102102518
1772476662488261000,4.56026123046875,0.0004681656137108803,-0.001315987203270197,-0.0013893451541662216
1772476662498259000,4.570259033203125,-0.0006708689033985138,0.000015593133866786957,-0.0020181178115308285
1772476662508256300,4.58025634765625,0.001631992869079113,-0.00037276139482855797,0.00004967954009771347
1772476662518254000,4.590254150390625,0.0016588903963565826,0.0006501586176455021,-0.0006853528320789337
1772476662528252200,4.600252197265625,-0.0012286826968193054,0.0003330102190375328,-0.00009057857096195221
1772476662538249000,4.6102490234375,0.0009705554693937302,-0.00023797107860445976,-0.0010114996694028378
1772476662548247000,4.6202470703125,-0.00009235739707946777,-0.0003704535774886608,0.0011286791414022446
1772476662558245000,4.6302451171875,0.00011030957102775574,0.00047510024160146713,-0.0002995738759636879
1772476662568242200,4.6402421875,0.0012272875756025314,0.0007737134583294392,-0.0006277915090322495
1772476662578240300,4.650240234375,-0.00012746267020702362,0.00013854959979653358,-0.0013814661651849747
1772476662588237000,4.660237060546875,-0.00014055147767066956,-0.0010222382843494415,0.00030264537781476974
1772476662598235100,4.670235107421875,0.0007265741005539894,0.0002744551748037338,0.0005481885746121407
1772476662608233200,4.680233154296875,0.001499732956290245,-0.0014355401508510113,-0.00008389214053750038
1772476662618230000,4.69022998046875,-0.00007792375981807709,0.00025077350437641144,-0.0005576685070991516
1772476662628228000,4.70022802734375,-0.0018358509987592697,-0.0007539135403931141,0.0021906145848333836
1772476662638226000,4.710225830078125,0.001004943624138832,0.00012919073924422264,0.0008249459788203239
1772476662648223200,4.72022314453125,-0.0024726465344429016,-0.0008984655141830444,-0.0011024787090718746
1772476662658221300,4.73022119140625,-0.0005221469327807426,-0.0011964733712375164,0.0009103384800255299
1772476662668218000,4.740218017578125,0.0016605998389422894,0.0005942210555076599,0.0005290452390909195
1772476662678216200,4.75021630859375,0.0009074574336409569,0.0010219248943030834,-0.0021418388932943344
1772476662688214000,4.760214111328125,-0.0018597235903143883,-0.0009180624037981033,0.0027726907283067703
1772476662698211000,4.770211181640625,-0.00022933632135391235,0.0020955707877874374,0.0018419157713651657
1772476662708209200,4.780209228515625,0.0008925693109631538,0.0024360818788409233,-0.00027537113055586815
1772476662718207200,4.790207275390625,-0.00047256704419851303,-0.000664902850985527,0.00007803039625287056
1772476662728204300,4.800204345703125,0.0005800975486636162,-0.001468762755393982,-0.003825537394732237
1772476662738202000,4.8102021484375,0.0021172743290662766,-0.0011736848391592503,0.00003231782466173172
1772476662748199200,4.82019921875,-0.0008061109110713005,-0.0025799893774092197,0.0022788643836975098
1772476662758197000,4.830197021484375,-0.0013123778626322746,0.0002999529242515564,-0.00003435695543885231
1772476662768195000,4.840195068359375,-0.0007637860253453255,-0.0018435241654515266,0.0003733341582119465
1772476662778192100,4.850192138671875,-0.0031358636915683746,0.0009229676797986031,-0.0025987536646425724
1772476662788190200,4.860190185546875,-0.0021749306470155716,0.001006951555609703,-0.001174770761281252
1772476662798187000,4.87018701171875,0.00019581522792577744,0.0014876523055136204,-0.0021944954060018063
1772476662808185000,4.88018505859375,-0.0015752725303173065,0.0005203890614211559,-0.00036013592034578323
1772476662818183200,4.89018310546875,-0.0004154657945036888,-0.002583791734650731,0.003319287672638893
1772476662828180000,4.900179931640625,-0.00008818972855806351,0.0025146547704935074,-0.000413509551435709
1772476662838178000,4.910177978515625,-0.0018037986010313034,0.0002554953098297119,0.0008355127647519112
1772476662848176000,4.920176025390625,-0.0014725513756275177,-0.0004707435145974159,0.0011089933104813099
1772476662858173200,4.930173095703125,-0.00004243385046720505,0.0005532419309020042,-0.0011038272641599178
1772476662868171300,4.940171142578125,-0.001612178049981594,-0.0007888870313763618,-0.0004145633429288864
1772476662878168000,4.95016796875,-0.0014886073768138885,0.0009674676693975925,0.0005050264298915863
1772476662888166100,4.960166259765625,0.0009608166292309761,0.0016168267466127872,0.001754208467900753
1772476662898164000,4.9701640625,-0.0010738382115960121,0.0010413173586130142,0.0024519572034478188
1772476662908161300,4.980161376953125,0.0005541881546378136,0.000830432865768671,0.00034287525340914726
1772476662918159400,4.990159423828125,-0.0000034775584936141968,0.001338297501206398,-0.0009817811660468578
1772476662928157200,5.0001572265625,-0.0005913414061069489,-0.0004561403766274452,-0.002681558020412922
1772476662938154200,5.010154296875,-0.0008557932451367378,0.0017915680073201656,-0.00022825412452220917
1772476662948152000,5.020152099609375,-0.0007268693298101425,-0.00014078430831432343,0.000554927159100771
1772476662958150100,5.030150146484375,0.00026648957282304764,-0.0019235042855143547,0.00009872764348983765
1772476662968147000,5.04014697265625,0.0018782173283398151,0.00048036035150289536,0.0010598134249448776
1772476662978145000,5.05014501953125,-0.0008355434983968735,-0.0005319071933627129,-0.001669393852353096
1772476662988142000,5.06014208984375,0.001795175950974226,-0.00037268688902258873,0.0003873896785080433
1772476662998140200,5.07014013671875,0.002063356339931488,0.0004883133806288242,-0.0005156882107257843
1772476663008138200,5.08013818359375,-0.0014382433146238327,-0.0005104853771626949,0.0018166904337704182
1772476663018135000,5.090135009765625,-0.00024301651865243912,-0.0004857182502746582,-0.0009609865956008434
1772476663028133000,5.100133056640625,0.000941210426390171,-0.0012307916767895222,-0.00021838350221514702
1772476663038130000,5.1101298828125,0.000718570314347744,-0.0013423780910670757,-0.00039069028571248055
1772476663048128300,5.120128173828125,0.0001170523464679718,0.001513525377959013,-0.0010153506882488728
1772476663058126300,5.130126220703125,0.0021434519439935684,-0.0015062331221997738,0.0018270406872034073
1772476663068123100,5.140123046875,0.00036649592220783234,-0.0013869572430849075,0.0018053133971989155
1772476663078121200,5.150121337890625,0.0010535912588238716,-0.00011849356815218925,-0.001680763904005289
1772476663088119000,5.160119140625,-0.00009655393660068512,0.0003402070142328739,0.0020796312019228935
1772476663098116000,5.1701162109375,0.0027863173745572567,0.0015293085016310215,-0.0013779508881270885
1772476663108114200,5.1801142578125,0.000380074605345726,0.0009970716200768948,-0.00039053475484251976
1772476663118111200,5.190111328125,0.0001672878861427307,-0.0003558141179382801,0.00005847448483109474
1772476663128109300,5.200109375,0.0005039721727371216,0.0018773828633129597,0.00014169886708259583
1772476663138107100,5.210107177734375,-0.00013598613440990448,-0.0009365128353238106,0.0020953938364982605
1772476663148104200,5.220104248046875,-0.001727626658976078,-0.0004371935501694679,0.0006821840070188046
1772476663158102000,5.23010205078125,-0.001313505694270134,0.00041475147008895874,0.0004187976010143757
1772476663168100000,5.24010009765625,-0.0008127661421895027,-0.0014690808020532131,0.0014461721293628216
1772476663178097200,5.25009716796875,-0.000176270492374897,0.0004699667915701866,0.0007177973166108131
1772476663188095000,5.260094970703125,0.0002923794090747833,-0.00030261650681495667,0.0015270104631781578
1772476663198092300,5.27009228515625,-0.0005462495610117912,-0.0006208643317222595,0.0008503012359142303
1772476663208090000,5.280090087890625,0.0009072907269001007,0.000542826484888792,-0.0007051322609186172
1772476663218088200,5.290088134765625,0.0014447164721786976,0.0001891585998237133,-0.002635391429066658
1772476663228085000,5.3000849609375,0.0008533494547009468,0.001518838107585907,0.0021295505575835705
1772476663238083000,5.3100830078125,-0.0018492266535758972,-0.0014553805813193321,0.002272296231240034
1772476663248078000,5.320078125,0.00036105886101722717,0.0012617669999599457,-0.0005263839848339558
1772476663258076200,5.330076171875,-0.0006157886236906052,0.0025454103015363216,-0.00037351856008172035
1772476663268074000,5.340073974609375,-0.00043983664363622665,-0.000481537077575922,-0.0015529952943325043
1772476663278071000,5.350071044921875,0.0011354228481650352,0.0011685574427247047,-0.0013932054862380028
1772476663288069400,5.3600693359375,-0.0008669774979352951,0.0006975121796131134,-0.0007226769812405109
1772476663298067200,5.370067138671875,0.0004528844729065895,-0.0019091898575425148,-0.0009748782031238079
1772476663308064300,5.380064208984375,0.0016603907570242882,-0.00006246427074074745,-0.0006822021678090096
1772476663318062000,5.39006201171875,-0.000921810045838356,0.0015524770133197308,0.0007985150441527367
1772476663328059100,5.40005908203125,-0.0001333039253950119,-0.0018619531765580177,-0.0016175108030438423
1772476663338057000,5.410056884765625,0.00030185654759407043,0.0012986864894628525,0.0004344545304775238
1772476663348055000,5.420054931640625,0.0008574705570936203,-0.0002356446348130703,-0.002687405329197645
1772476663358052000,5.430052001953125,0.00003135856240987778,-0.0017184927128255367,0.00046551087871193886
1772476663368050200,5.44005029296875,0.0004490641877055168,0.000554338563233614,0.00008627166971564293
1772476663378048300,5.45004833984375,-0.00012617837637662888,-0.0006446163170039654,-0.0007744617760181427
1772476663388045000,5.460045166015625,-0.0006078639999032021,-0.0012576901353895664,0.0019930843263864517
1772476663398043100,5.470043212890625,-0.0010656611993908882,0.00024113710969686508,-0.00042400090023875237
1772476663408040000,5.4800400390625,0.0003808755427598953,-0.0012717591598629951,0.001446982380002737
1772476663418038000,5.4900380859375,0.0004887338727712631,-0.001353518571704626,-0.0006553172133862972
1772476663428036000,5.5000361328125,-0.00009942986071109772,0.001149204559624195,-0.0012763580307364464
1772476663438033200,5.510033203125,-0.0020339498296380043,-0.000388504471629858,-0.0013032560236752033
1772476663448031200,5.52003125,0.0007882397621870041,0.001082252711057663,-0.0005705198273062706
1772476663458028000,5.530028076171875,-0.00015824753791093826,-0.000502327922731638,-0.00007330765947699547
1772476663468026000,5.540026123046875,0.0015944945625960827,0.0009382464922964573,0.0010257856920361519
1772476663478024200,5.550024169921875,0.0012967530637979507,0.0009949719533324242,-0.00010605761781334877
1772476663488021200,5.560021240234375,-0.0004197536036372185,-0.0012895260006189346,0.0011512045748531818
1772476663498019300,5.570019287109375,-0.0009625060483813286,0.000398918054997921,0.0002811499871313572
1772476663508017200,5.58001708984375,0.0005363421514630318,0.002433817833662033,0.0011517936363816261
1772476663518014200,5.59001416015625,-0.0000487547367811203,0.002409849315881729,-0.0005840547382831573
1772476663528012000,5.600011962890625,-0.0007399637252092361,0.0015039639547467232,0.0012388206087052822
1772476663538009000,5.610009033203125,-0.00006911344826221466,-0.0008691791445016861,0.00026676664128899574
1772476663548007200,5.620007080078125,0.0014744587242603302,0.0035830186679959297,-0.002091076225042343
1772476663558005000,5.6300048828125,-0.00013009551912546158,0.00017763441428542137,-0.00008278666064143181
1772476663568002300,5.640002197265625,0.0021078716963529587,-0.0015398715622723103,-0.00114479660987854
1772476663578000100,5.650000244140625,0.0009350161999464035,-0.0006554359570145607,-0.0010174973867833614
1772476663587998200,5.659998291015625,0.0011477349326014519,-0.0009115259163081646,-0.0020685000345110893
1772476663597995000,5.6699951171875,-0.00023844093084335327,-0.0022585527040064335,-0.0009331945329904556
1772476663607993000,5.6799931640625,-0.0010115886107087135,-0.0002226009964942932,0.000050891656428575516
1772476663617992200,5.6899921875,0.0017471802420914173,0.0005324049852788448,0.0014666281640529633
1772476663627989000,5.699989013671875,-0.0024951081722974777,-0.0005068909376859665,0.000567188486456871
1772476663637987000,5.709987060546875,0.00020986422896385193,0.00007394421845674515,0.0003797020763158798
1772476663647985200,5.719985107421875,-0.0011792276054620743,-0.000060216523706912994,0.0014865957200527191
1772476663657982200,5.729982177734375,-0.0008862800896167755,0.0022450159303843975,-0.001624242402613163
1772476663667980300,5.739980224609375,-0.0011362051591277122,0.0005495445802807808,-0.0025716484524309635
1772476663677977000,5.74997705078125,0.0017551886849105358,-0.0031389333307743073,0.00022600265219807625
1772476663687975200,5.75997509765625,-0.001029769890010357,-0.0010201269760727882,-0.001131211407482624
1772476663697973000,5.769972900390625,0.0006972905248403549,0.001988180447369814,0.0013194293715059757
1772476663707970000,5.779969970703125,0.0010229796171188354,-0.000405704602599144,-0.0005111643113195896
1772476663717968100,5.789968017578125,-0.0005498835816979408,-0.0012850803323090076,0.0020665088668465614
1772476663727966000,5.799966064453125,0.0009966669604182243,-0.0005596200935542583,0.0007947869598865509
1772476663737963300,5.80996337890625,-0.002105649560689926,0.0016966098919510841,-0.004211156629025936
1772476663747961000,5.819961181640625,-0.001983577385544777,0.0014115278609097004,0.00009455904364585876
1772476663757958100,5.829958251953125,-0.0018480224534869194,0.00043175090104341507,0.00219472823664546
1772476663767956000,5.8399560546875,-0.003142870031297207,0.00023506022989749908,-0.002265137154608965
1772476663777954000,5.8499541015625,-0.00011272542178630829,-0.0012264829128980637,-0.0005471319891512394
1772476663787951000,5.859951171875,-0.0006006062030792236,0.0032754638232290745,-0.0014902986586093903
1772476663797949200,5.86994921875,-0.0007513416931033134,-0.001177341677248478,0.002485268749296665
1772476663807947300,5.879947265625,0.0004989290609955788,0.0008893054910004139,0.0014349170960485935
1772476663817944000,5.889944091796875,-0.0026910053566098213,0.0011319196783006191,0.004588099662214518
1772476663827942100,5.899942138671875,0.0013555553741753101,0.00129732396453619,0.0011852779425680637
1772476663837939000,5.90993896484375,0.0014250637032091618,0.0028909598477184772,-0.0008709486573934555
1772476663847937000,5.91993701171875,-0.002694743685424328,-0.00026179151609539986,0.0013682241551578045
1772476663857935000,5.92993505859375,-0.00042732805013656616,0.0001145130954682827,0.0001362464390695095
1772476663867932200,5.93993212890625,0.0013351934030652046,-0.0010813218541443348,-0.0022558770142495632
1772476663877930200,5.94993017578125,-0.0006821509450674057,-0.0012147463858127594,0.0003212639130651951
1772476663887928300,5.95992822265625,0.0007017534226179123,0.0018273061141371727,0.002590910531580448
1772476663897925000,5.969925048828125,0.0011579524725675583,-0.00024436647072434425,-0.0021753483451902866
1772476663907923200,5.979923095703125,0.0014798259362578392,-0.00030701979994773865,-0.0015606777742505074
1772476663917920000,5.989919921875,0.001445204485207796,0.0011987313628196716,0.00009634112939238548
1772476663927918000,5.99991796875,-0.002962898463010788,-0.0002646525390446186,0.0012270924635231495
1772476663937916200,6.009916259765625,0.00158311752602458,-0.0007778434082865715,0.0004997830837965012
1772476663947913200,6.019913330078125,0.0013967403210699558,0.00035546673461794853,0.0024011367931962013
1772476663957911000,6.0299111328125,-0.0009111547842621803,-0.0022973082959651947,-0.0015382105484604836
1772476663967909000,6.0399091796875,0.0012392587959766388,-0.0007506567053496838,0.0022150129079818726
1772476663977906200,6.04990625,0.0018014521338045597,0.0015873322263360023,-0.0017206063494086266
1772476663987904000,6.059904052734375,-0.000089266337454319,-0.00024521443992853165,-0.0005475613288581371
1772476663997901300,6.0699013671875,0.0020266156643629074,-0.00038156844675540924,0.0011752373538911343
1772476664007899100,6.079899169921875,0.0006641959771513939,0.0000790497288107872,0.0003473348915576935
1772476664017897200,6.089897216796875,0.00012623704969882965,-0.0014994055964052677,-0.0008260537870228291
1772476664027894000,6.09989404296875,0.0018888330087065697,0.0006554117426276207,0.00004733121022582054
1772476664037892000,6.10989208984375,-0.001709097996354103,-0.0015036128461360931,0.0007908856496214867
1772476664047889200,6.11988916015625,0.0018880809657275677,-0.0015545375645160675,0.00010269833728671074
1772476664057887000,6.129886962890625,0.0006795385852456093,-0.0005811522714793682,0.00023851962760090828
1772476664067885000,6.139885009765625,0.0010560369119048119,-0.0033649250399321318,-0.0014084530994296074
1772476664077882000,6.149882080078125,0.00048452243208885193,-0.00046740565448999405,-0.00034185685217380524
1772476664087880200,6.159880126953125,-0.0023109139874577522,-0.0012870016507804394,-0.0007298956625163555
1772476664097878300,6.169878173828125,0.0017690490931272507,-0.001940541435033083,-0.0026172776706516743
1772476664107875000,6.179875,-0.00016169529408216476,0.0008348091505467892,0.0000212998129427433
1772476664117873200,6.189873046875,-0.0016655828803777695,-0.0010187509469687939,0.0024245362728834152
1772476664127870200,6.1998701171875,-0.000980445183813572,0.0011519119143486023,-0.0008141030557453632
1772476664137868300,6.209868408203125,-0.0006217174232006073,-0.002499281894415617,0.0014237510040402412
1772476664147866400,6.219866455078125,0.00023306068032979965,0.00004278728738427162,0.00009519746527075768
1772476664157863200,6.22986328125,0.000631735660135746,0.00039032939821481705,-0.00017058616504073143
1772476664167861200,6.239861328125,-0.0002574315294623375,0.00009865080937743187,0.0012736986391246319
1772476664177858000,6.249858154296875,0.002026229165494442,0.00018467102199792862,0.0012172390706837177
1772476664187856100,6.259856201171875,-0.001781306229531765,0.0013109827414155006,-0.00009154807776212692
1772476664197854000,6.26985400390625,0.00007731374353170395,-0.0006469734944403172,0.0022664149291813374
1772476664207851300,6.279851318359375,-0.0010721031576395035,-0.0026108911260962486,0.00020222505554556847
1772476664217849000,6.28984912109375,-0.0009099170565605164,0.003254454582929611,-0.00035490840673446655
1772476664227847200,6.29984716796875,0.0011019371449947357,-0.002063912805169821,-0.0027894824743270874
1772476664237844200,6.30984423828125,-0.0008751936256885529,-0.0002811928279697895,0.0020167245529592037
1772476664247842000,6.319842041015625,-0.0005500912666320801,0.0009238389320671558,-0.000916662160307169
1772476664257839000,6.329839111328125,-0.0002867048606276512,-0.0009963000193238258,-0.002487394493073225
1772476664267837000,6.3398369140625,-0.0006078528240323067,0.00168684683740139,-0.001438758336007595
1772476664277835000,6.3498349609375,-0.001036355271935463,0.00016192113980650902,-0.0016366313211619854
1772476664287832000,6.35983203125,0.0031747128814458847,0.0011834916658699512,-0.000009408220648765564
1772476664297830100,6.369830078125,0.003141955938190222,0.002120924647897482,0.001736560370773077
1772476664307827200,6.3798271484375,-0.0004887469112873077,-0.0026424711104482412,0.0021264459937810898
1772476664317825000,6.389824951171875,-0.0007310938090085983,0.0007109814323484898,0.000771429855376482
1772476664327823000,6.399822998046875,0.0016500568017363548,0.0004970291629433632,-0.003562070894986391
1772476664337820200,6.409820068359375,0.0005293982103466988,0.0014789365231990814,0.0017490708269178867
1772476664347818200,6.419818359375,0.000984494574368,0.0023157396353781223,-0.00008237781003117561
1772476664357816300,6.42981640625,-0.000856548547744751,-0.0018923208117485046,-0.0011649527586996555
1772476664367813000,6.439813232421875,-0.0005216896533966064,-0.0003260904923081398,0.001210988499224186
1772476664377811200,6.449811279296875,-0.0007856087759137154,0.0005679330788552761,-0.0011578933335840702
1772476664387808500,6.45980859375,-0.0014190729707479477,0.00043822452425956726,-0.0016147284768521786
1772476664397806600,6.469806640625,-0.0005623344331979752,-0.001137035433202982,-0.0005220337770879269
1772476664407804700,6.4798046875,-0.0002530170604586601,0.0010630055330693722,0.0005803732201457024
1772476664417801700,6.4898017578125,0.00012595020234584808,-0.0019998960196971893,0.0004858309403061867
1772476664427799800,6.4997998046875,0.0010364409536123276,-0.002192201092839241,-0.0007329932413995266
1772476664437798000,6.5097978515625,0.0009703943505883217,-0.0008670119568705559,-0.0018792180344462395
1772476664447794700,6.519794677734375,-0.00014750473201274872,0.004098296631127596,-0.0010976106859743595
1772476664457792800,6.529792724609375,0.002858138643205166,0.0025901491753757,-0.00042596179991960526
1772476664467789600,6.53978955078125,-0.00041997339576482773,-0.0015381453558802605,0.00023784348741173744
1772476664477787600,6.54978759765625,0.002077805809676647,0.0008571017533540726,-0.0007453956641256809
1772476664487785500,6.559785400390625,0.001235627569258213,-0.00025241635739803314,0.00038775568827986717
1772476664497782800,6.56978271484375,0.0007280288264155388,-0.003074834356084466,0.0011640670709311962
1772476664507780900,6.57978076171875,-0.0009719468653202057,0.0017673433758318424,-0.0008362848311662674
1772476664517777700,6.589777587890625,0.0000339290127158165,-0.002069472800940275,-0.000006443820893764496
1772476664527775700,6.599775634765625,-0.00032939575612545013,0.0016907393001019955,0.000506233423948288
1772476664537773600,6.609773681640625,-0.0014133024960756302,0.002263850998133421,-0.00047753844410181046
1772476664547770600,6.6197705078125,0.00045190006494522095,0.00048058340325951576,0.003163297660648823
1772476664557768700,6.629768798828125,-0.0003712829202413559,0.002285940572619438,0.002114012837409973
1772476664567766800,6.639766845703125,-0.0017589852213859558,-0.0007062368094921112,-0.0010769478976726532
1772476664577763600,6.649763671875,0.0018376139923930168,-0.0009475192055106163,-0.001109172124415636
1772476664587761700,6.65976171875,0.0003272267058491707,0.0007558437064290047,-0.00019811047241091728
1772476664597758700,6.6697587890625,0.0004899464547634125,0.00012946827337145805,-0.0005738823674619198
1772476664607756500,6.679756591796875,0.0016702278517186642,-0.0013971743173897266,-0.00041117146611213684
1772476664617754600,6.689754638671875,0.0007772697135806084,-0.0003774496726691723,-0.000342461746186018
1772476664627751700,6.699751708984375,-0.0017372248694300652,0.000993653666228056,-0.000173917505890131
1772476664637749800,6.709749755859375,0.0005645453929901123,0.00121283158659935,0.0009467406198382378
1772476664647747800,6.719747802734375,0.0007131630554795265,-0.0018586511723697186,-0.00042886286973953247
1772476664657744600,6.72974462890625,-0.000414418987929821,-0.0005587623454630375,-0.0013164947740733624
1772476664667742700,6.73974267578125,0.0003546169027686119,0.00032103294506669044,-0.0011572130024433136
1772476664677739500,6.749739501953125,-0.0006049200892448425,-0.0006893705576658249,0.0010233833454549313
1772476664687737600,6.759737548828125,-0.0003211069852113724,0.002400594763457775,-0.0008337013423442841
1772476664697735700,6.769735595703125,-0.0014044810086488724,-0.00031875865533947945,-0.0010784459300339222
1772476664707732700,6.779732666015625,-0.0006818966940045357,-0.001008261926472187,0.001022574957460165
1772476664717730800,6.789730712890625,-0.0002014627680182457,-0.0021403715945780277,0.0013882266357541084
1772476664727727600,6.7997275390625,0.0015575094148516655,0.0019024405628442764,-0.0018972265534102917
1772476664737725700,6.8097255859375,0.0004110187292098999,0.00030827242881059647,-0.0006045280024409294
1772476664747723500,6.8197236328125,-0.00007185526192188263,0.002306825015693903,-0.00038253702223300934
1772476664757720800,6.829720947265625,0.00028127990663051605,-0.0012487615458667278,-0.002610004972666502
1772476664767719000,6.839718994140625,-0.0010346407070755959,-0.000244207214564085,0.0005667028017342091
1772476664777716700,6.849716796875,0.00018721725791692734,-0.0019904416985809803,-0.0005973647348582745
1772476664787713800,6.8597138671875,-0.0004482325166463852,-0.00021540559828281403,0.0003952421247959137
1772476664797711600,6.869711669921875,0.001917453482747078,0.0007278858684003353,0.0010083015076816082
1772476664807708700,6.879708740234375,-0.00017897412180900574,-0.0025345943868160248,0.0009422753937542439
1772476664817706500,6.88970654296875,0.00019147153943777084,0.0002691815607249737,0.0014485418796539307
1772476664827704600,6.89970458984375,-0.00008162111043930054,-0.00046463264152407646,-0.0026580914855003357
1772476664837701600,6.90970166015625,-0.0004294300451874733,-0.001363981980830431,0.0016402504406869411
1772476664847699700,6.91969970703125,0.0009600911289453506,0.001978763844817877,0.002025294117629528
1772476664857696800,6.92969677734375,0.0007206732407212257,-0.0007400577887892723,0.0005067591555416584
1772476664867694600,6.939694580078125,0.000781727023422718,-0.0024515220429748297,0.0011611748486757278
1772476664877692700,6.949692626953125,-0.0016782348975539207,0.0008049914613366127,-0.001275084912776947
1772476664887689500,6.959689453125,-0.00010448042303323746,0.0002778465859591961,0.002096786629408598
1772476664897687600,6.9696875,0.0010614516213536263,0.0005404343828558922,-0.0012172511778771877
1772476664907684600,6.9796845703125,0.0017659841105341911,-0.000735539011657238,0.0009073503315448761
1772476664917682700,6.9896826171875,0.0009135063737630844,-0.0007706927135586739,-0.0008221068419516087
1772476664927680800,6.9996806640625,0.001356022898107767,0.0007228781469166279,0.0013303239829838276
1772476664937677600,7.009677490234375,-0.0017670663073658943,-0.0004952517338097095,0.00008662790060043335
1772476664947675600,7.019675537109375,0.0004183845594525337,-0.0012539578601717949,-0.0010982505045831203
1772476664957673700,7.029673828125,-0.00025353021919727325,0.0007681800052523613,-0.0009954525157809258
1772476664967670800,7.0396708984375,-0.000637151300907135,-0.0012216721661388874,-0.0004474683664739132
1772476664977668900,7.0496689453125,0.0009061507880687714,4.5262277126312256e-7,0.00028490088880062103
1772476664987665700,7.059665771484375,0.0008459798991680145,-0.00025807134807109833,0.0002368120476603508
1772476664997663700,7.069663818359375,-0.0002254098653793335,0.0013451515696942806,-0.0006425636820495129
1772476665007661600,7.07966162109375,0.00266256183385849,-0.0013079764321446419,0.0012940908782184124
1772476665017658600,7.08965869140625,-0.0006621284410357475,0.00027953367680311203,-0.0001221783459186554
1772476665027656400,7.099656494140625,0.0008258931338787079,-0.0004428853280842304,0.00022200122475624084
1772476665037654500,7.109654541015625,-0.00081674475222826,0.003177682403475046,0.0018625087104737759
1772476665047651800,7.11965185546875,-0.0018747961148619652,-0.0013946089893579483,0.0004956978373229504
1772476665057649700,7.129649658203125,-0.0013235220685601234,0.0004027583636343479,0.00014149723574519157
1772476665067646700,7.139646728515625,0.0007454100996255875,-0.0007681283168494701,0.005171498749405146
1772476665077644500,7.14964453125,-0.00038803089410066605,-0.0001832982525229454,-0.0004139491356909275
1772476665087642600,7.159642578125,-0.0011940645053982735,0.0010535321198403835,0.0023607881739735603
1772476665097639700,7.1696396484375,0.0012456574477255344,0.0003312826156616211,-0.0014347494579851627
1772476665107637800,7.1796376953125,0.0006270706653594971,0.000048451125621795654,0.0008586547337472439
1772476665117634800,7.189634765625,-0.0015013283118605614,-0.0008210712112486362,0.0010898169130086899
1772476665127632600,7.199632568359375,0.001788439229130745,0.00031280936673283577,-0.00004896940663456917
1772476665137630700,7.209630615234375,0.00013008899986743927,0.003387961070984602,0.0010503833182156086
1772476665147627500,7.21962744140625,-0.00008272193372249603,-0.0018199295736849308,-0.0007205815054476261
1772476665157625600,7.22962548828125,-0.000618283636868,-0.0003722351975739002,-0.0018617459572851658
1772476665167622700,7.23962255859375,-0.0007036365568637848,0.00008960114791989326,0.00020626885816454887
1772476665177620700,7.249620849609375,-0.00019443966448307037,0.0003263563849031925,0.0013706032186746597
1772476665187618800,7.259618896484375,-0.00006372854113578796,0.0009261444211006165,0.001298416405916214
1772476665197615600,7.26961572265625,0.0009554633870720863,0.0008313357830047607,-0.0009405030868947506
1772476665207613700,7.27961376953125,-0.0003476245328783989,0.00024287868291139603,-0.00040467409417033195
1772476665217611800,7.28961181640625,-0.0010674763470888138,0.0009840363636612892,-0.0007599396631121635
1772476665227608600,7.299608642578125,-0.002979215234518051,0.0008190684020519257,0.00047080498188734055
1772476665237606700,7.309606689453125,-0.00170968659222126,-0.0019519506022334099,0.00025109434500336647
1772476665247603700,7.319603759765625,0.0016790027730166912,0.0019327905029058456,0.001482042483985424
1772476665257601800,7.329601806640625,0.0009671393781900406,0.0002368898130953312,-0.0013294569216668606
1772476665267599600,7.339599609375,-0.0009522456675767899,-0.0012685083784162998,-0.0007091574370861053
1772476665277596700,7.3495966796875,-0.0023943474516272545,-0.0021833041682839394,0.0007736906409263611
1772476665287594500,7.359594482421875,-0.0008332803845405579,-0.002609314862638712,-0.00010938383638858795
1772476665297591800,7.369591796875,0.0011241426691412926,-0.0013725426979362965,0.0005060723051428795
1772476665307590000,7.37958984375,0.0003356216475367546,0.0013013645075261593,0.00010094791650772095
1772476665317587700,7.389587646484375,-0.0014106128364801407,-0.0012587322853505611,0.0013603568077087402
1772476665327584800,7.399584716796875,0.00011704675853252411,-0.0008280486799776554,-0.0016297874972224236
1772476665337582600,7.40958251953125,0.000897618941962719,0.0005357558839023113,-0.0013621398247778416
1772476665347580700,7.41958056640625,-0.0011962270364165306,0.00020600995048880577,-0.003197410609573126
1772476665357577500,7.429577392578125,0.0020357854664325714,0.0024196291342377663,0.0007914719171822071
1772476665367575600,7.439575439453125,0.0005585933104157448,0.0006324476562440395,0.0021803737618029118
1772476665377572900,7.44957275390625,0.00006484333425760269,0.0005389703437685966,-0.00035628676414489746
1772476665387570700,7.45957080078125,-0.0021613724529743195,-0.00039875274524092674,-0.00022812513634562492
1772476665397568500,7.469568603515625,0.0010003317147493362,0.00013467855751514435,-0.00046940753236413
1772476665407565600,7.479565673828125,-0.002819472923874855,0.001954813487827778,0.0009264284744858742
1772476665417563400,7.4895634765625,-0.00089267548173666,-0.002580016851425171,0.0015541352331638336
1772476665427560400,7.499560546875,-0.001603330485522747,0.003389643505215645,0.0014857081696391106
1772476665437558500,7.50955859375,-0.0005569746717810631,0.00038932589814066887,0.000052661169320344925
1772476665447556600,7.519556640625,-0.0007132189348340034,-0.0012649628333747387,-0.00020391913130879402
1772476665457553700,7.5295537109375,-0.000764084979891777,0.002325244713574648,0.0007921033538877964
1772476665467551500,7.539551513671875,-0.0004238830879330635,0.00046968506649136543,0.0019835890270769596
1772476665477549600,7.549549560546875,-0.0007096398621797562,-0.0019095828756690025,0.0010544126853346825
1772476665487546400,7.55954638671875,0.0016484642401337624,0.00043150782585144043,-0.0007058009505271912
1772476665497544400,7.56954443359375,-0.00036168936640024185,-0.0023032925091683865,-0.0012605376541614532
1772476665507541500,7.57954150390625,-0.0012202635407447815,-0.0020324368961155415,0.002260388806462288
1772476665517539600,7.58953955078125,0.0008162558078765869,-0.0033613541163504124,-0.0007532443851232529
1772476665527537700,7.59953759765625,-0.00020711030811071396,-0.0007298775017261505,-0.003148899180814624
1772476665537534500,7.609534423828125,-0.0009581213817000389,0.0005417820066213608,0.0009339931420981884
1772476665547532500,7.619532470703125,0.00047517474740743637,-0.0007780548185110092,0.0003890013322234154
1772476665557529300,7.629529296875,-0.00035866163671016693,-0.0026262886822223663,0.00023826630786061287
1772476665567527400,7.63952734375,0.0010794876143336296,0.0033210301771759987,0.0023536402732133865
1772476665577525500,7.649525390625,-0.0019479943439364433,-0.00206974009051919,-0.0004791645333170891
1772476665587522600,7.6595224609375,0.0008772304281592369,-0.00045564398169517517,-0.00017729075625538826
1772476665597520600,7.669520751953125,-0.0016913888975977898,0.0004085516557097435,-0.002446304075419903
1772476665607518500,7.6795185546875,0.0004537133499979973,0.0013369456864893436,0.0018609445542097092
1772476665617515500,7.689515625,0.000420156866312027,0.003021661192178726,-0.0016443082131445408
1772476665627513300,7.699513427734375,0.0007186383008956909,0.0007918896153569221,-0.001632085070014
1772476665637510700,7.7095107421875,-0.001674477942287922,0.0005050674080848694,0.00008139293640851974
1772476665647508700,7.7195087890625,0.0001161675900220871,0.0010188198648393154,0.002551383338868618
1772476665657506600,7.729506591796875,-0.001202629879117012,-0.0008049127645790577,-0.0009565320797264576
1772476665667503600,7.739503662109375,-0.0007314588874578476,-0.0006206915713846684,0.0009037302806973457
1772476665677501400,7.74950146484375,-0.0005921749398112297,-0.0013320217840373516,-0.0013927137479186058
1772476665687498500,7.75949853515625,-0.00006775651127099991,0.0003650845028460026,-0.0002911258488893509
1772476665697496300,7.769496337890625,0.0009812628850340843,0.0025470126420259476,0.002213577274233103
1772476665707494400,7.779494384765625,-0.0010934732854366302,-0.0004039853811264038,-0.000009369570761919022
1772476665717491500,7.789491455078125,-0.0004098396748304367,-0.0002673650160431862,0.00012272316962480545
1772476665727489500,7.799489501953125,0.002167483326047659,0.0005272608250379562,-0.002439130563288927
1772476665737487600,7.809487548828125,0.00007716845721006393,0.0007408466190099716,0.0005523981526494026
1772476665747484400,7.819484375,-0.0019052410498261452,0.00025021424517035484,-0.0021544303745031357
1772476665757482500,7.829482421875,0.0011632535606622696,-0.0002978644333779812,-0.0007682554423809052
1772476665767479300,7.839479248046875,-0.002865847200155258,-0.0014101974666118622,0.0008049276657402515
1772476665777477400,7.849477294921875,0.003268744796514511,0.0006825141608715057,-0.000050479546189308167
1772476665787475700,7.859475830078125,0.0015610260888934135,-0.00074806809425354,0.000515445601195097
1772476665797472500,7.869472412109375,-0.0006030583754181862,0.0013981731608510017,-0.0018156194128096104
1772476665807470600,7.879470703125,-0.0007253978401422501,-0.0005084946751594543,-0.0005349898710846901
1772476665817467400,7.88946728515625,-0.0003450978547334671,0.000727212056517601,0.0004413248971104622
1772476665827465500,7.899465576171875,0.00007957778871059418,0.0009866328909993172,0.0005078716203570366
1772476665837463600,7.909463623046875,0.00046333856880664825,-0.002448844723403454,0.0020764735527336597
1772476665847460600,7.919460693359375,-0.0000669620931148529,-0.00045495713129639626,0.0010522780939936638
1772476665857458700,7.929458740234375,-0.000713045708835125,0.000572490505874157,-0.00020846258848905563
1772476665867455500,7.93945556640625,0.0004221145063638687,-0.0015417658723890781,0.0006778119131922722
1772476665877453600,7.94945361328125,0.0001632552593946457,-0.0011066053993999958,-0.0003890502266585827
1772476665887451400,7.959451416015625,-0.00005767401307821274,-0.0005293511785566807,-0.0005898051895201206
1772476665897448400,7.969448486328125,-0.0004789857193827629,0.0008959728293120861,0.002396130934357643
1772476665907446500,7.979446533203125,0.0019146394915878773,-0.0013729818165302277,0.0017522554844617844
1772476665917444400,7.9894443359375,-0.0008089756593108177,-0.0009165159426629543,0.0010318709537386894
1772476665927441700,7.999441650390625,-0.00017988961189985275,0.002383314073085785,-0.00005306815728545189
1772476665937439500,8.009439453125,-0.0005303621292114258,-0.00041620107367634773,-0.0011644051410257816
1772476665947436500,8.0194365234375,-0.00008153729140758514,-0.00009277462959289551,-0.0020487369038164616
1772476665957434400,8.029434326171875,0.002021827269345522,-0.001344726886600256,-0.002192547544836998
1772476665967432400,8.039432373046875,-0.0008046608418226242,-0.0023239552974700928,-0.001032110769301653
1772476665977429500,8.049429443359376,0.0018523754552006721,0.0003434666432440281,-0.0013386406935751438
1772476665987427600,8.059427490234375,-0.0003652237355709076,0.0017762593924999237,0.0003186548128724098
1772476665997424600,8.069424560546874,0.0011948561295866966,0.0016162032261490822,0.0010105441324412823
1772476666007422500,8.07942236328125,0.0012183580547571182,0.002606359776109457,0.000521879643201828
1772476666017420500,8.089420654296875,-0.0006639650091528893,-0.0017092926427721977,0.00017114123329520226
1772476666027417300,8.099417236328126,0.00008218735456466675,-0.0014172494411468506,-0.0020019966177642345
1772476666037415400,8.10941552734375,-0.0007697585970163345,-0.002063598483800888,0.001612445805221796
1772476666047413500,8.11941357421875,0.0007387557998299599,0.00011891964823007584,0.0024946341291069984
1772476666057410600,8.12941064453125,-0.0001986771821975708,-0.002079519908875227,-0.0009291260503232479
1772476666067408600,8.13940869140625,-0.0004915427416563034,0.002390714827924967,0.0000901808962225914
1772476666077405400,8.149405517578124,0.00067172572016716,0.0002705720253288746,-0.0011985227465629578
1772476666087403500,8.159403564453125,0.0004076864570379257,-0.0014341715723276138,-0.0009239041246473789
1772476666097401600,8.169401611328125,-0.0006575779989361763,0.0025642989203333855,0.0011200718581676483
1772476666107398400,8.1793984375,-0.0009189480915665627,-0.0009896517731249332,-0.002564867027103901
1772476666117396500,8.189396484375,0.0018848283216357231,-0.0004434371367096901,-0.0002828044816851616
1772476666127393500,8.1993935546875,0.0011098915711045265,-0.0006323684938251972,0.0005742162466049194
1772476666137391600,8.2093916015625,-0.0004235571250319481,-0.0014744601212441921,-0.00029210979118943214
1772476666147389400,8.219389404296875,0.00002389773726463318,0.00035897642374038696,0.0015520588494837284
1772476666157386500,8.229386474609376,0.0008942186832427979,0.00038214586675167084,0.002274042461067438
1772476666167384600,8.239384521484375,0.002677129115909338,-0.000707719475030899,-0.000752781517803669
1772476666177382400,8.24938232421875,0.00045498739928007126,0.0009594191797077656,-0.0003479807637631893
1772476666187379700,8.259379638671875,0.001085398718714714,-0.0004666922613978386,0.0012292927131056786
1772476666197377500,8.26937744140625,-0.000658704899251461,-0.0003476487472653389,0.0015137181617319584
1772476666207374600,8.27937451171875,0.00009711459279060364,-0.0005400301888585091,-0.0004798946902155876
1772476666217372400,8.289372314453125,0.0019970135763287544,-0.0008702622726559639,0.0034290924668312073
1772476666227370500,8.29937060546875,-0.000972893089056015,-0.0013236179947853088,0.0001988820731639862
1772476666237367300,8.3093671875,0.0012708203867077827,-0.0014045778661966324,0.001870814710855484
1772476666247365400,8.319365478515625,0.0010828850790858269,-0.0004735100083053112,-0.0008472064509987831
1772476666257362700,8.32936279296875,-0.002623968757688999,-0.0023736755829304457,-0.0007073902525007725
1772476666267360500,8.339360595703125,0.0033104741014540195,-0.00023855594918131828,-0.0005254982970654964
1772476666277358600,8.349358642578125,-0.0009423280134797096,0.0002317586913704872,0.0025999872013926506
1772476666287355400,8.35935546875,-0.001073748804628849,-0.0009831762872636318,0.00155355641618371
1772476666297353500,8.369353515625,-0.0004849238321185112,-0.0007080715149641037,-0.00004966696724295616
1772476666307350300,8.379350341796876,0.0004751048982143402,-0.0011918195523321629,-0.0015523605979979038
1772476666317348600,8.3893486328125,-0.00102958083152771,-0.00027729012072086334,0.00045939115807414055
1772476666327346700,8.3993466796875,0.0020823716185986996,-0.0011992929503321648,-0.000048601068556308746
1772476666337343500,8.409343505859376,0.0010831532999873161,-0.0020997077226638794,0.001941579394042492
1772476666347341600,8.419341552734375,0.00034401286393404007,-0.0023776914458721876,0.0023616482503712177
1772476666357339600,8.429339599609374,-0.001262672245502472,-0.000047159381210803986,0.000666013453155756
1772476666367336400,8.43933642578125,0.001358700916171074,-0.0022233123891055584,0.0022093886509537697
1772476666377334500,8.44933447265625,0.0011235438287258148,-0.0008746879175305367,-0.0012375405058264732
1772476666387331600,8.45933154296875,0.0002773841843008995,0.0010742680169641972,0.0003140880726277828
1772476666397329700,8.46932958984375,0.0005290526896715164,0.001133390236645937,-0.000017208978533744812
1772476666407327500,8.479327392578124,0.003169568721204996,0.0010741730220615864,-0.0012141289189457893
1772476666417324500,8.489324462890625,-0.0001378105953335762,-0.002000446431338787,-0.0007203789427876472
1772476666427322400,8.499322265625,0.0007791090756654739,-0.00043978868052363396,0.0015400350093841553
1772476666437319400,8.5093193359375,0.0011495547369122505,0.0005285362713038921,0.00030779046937823296
1772476666447317500,8.5193173828125,-0.0017876885831356049,-0.0007908260449767113,0.0015372284688055515
1772476666457315300,8.5293154296875,-0.00041988957673311234,0.001560478936880827,0.00015291757881641388
1772476666467312600,8.539312744140625,-0.001564214937388897,0.0006700474768877029,-0.0001414800062775612
1772476666477310500,8.549310546875,0.0008736429736018181,-0.0002628578804433346,-0.00025013694539666176
1772476666487307500,8.5593076171875,-0.002253992483019829,-0.0010260902345180511,0.003421735018491745
1772476666497305300,8.569305419921875,-0.001756248064339161,-0.001072695478796959,0.0009425980970263481
1772476666507303400,8.579303466796874,0.000830966979265213,-0.003382594557479024,-0.0005164192989468575
1772476666517300500,8.589300537109375,-0.0028412658721208572,-0.00007814448326826096,0.0002945130690932274
1772476666527298600,8.599298583984375,-0.0012224968522787094,-0.0006091240793466568,0.00003073597326874733
1772476666537296600,8.609296630859374,-0.0006347373127937317,0.0009293840266764164,-0.0006001670844852924
1772476666547293400,8.61929345703125,-0.002775775268673897,0.00030036037787795067,-0.001225778367370367
1772476666557291500,8.62929150390625,0.001772371120750904,-0.0010288232006132603,-0.0010516075417399406
1772476666567288300,8.639288330078125,0.0001264084130525589,0.0032052998431026936,0.000028698239475488663
1772476666577286400,8.649286376953125,-0.0016445936635136604,-0.0015332624316215515,0.000978647731244564
1772476666587284500,8.659284423828124,0.00004501640796661377,0.0003059143200516701,0.0014307028613984585
1772476666597281500,8.669281494140625,-0.001195484772324562,0.0003743576817214489,-0.0010023610666394234
1772476666607279600,8.679279541015624,-0.0002488326281309128,0.0005321973003447056,0.0011320775374770164
1772476666617276400,8.6892763671875,0.0004798080772161484,-0.0010457257740199566,-0.0003726081922650337
1772476666627274500,8.6992744140625,-0.0001987554132938385,-0.0006208876147866249,0.0013481630012392998
1772476666637272600,8.7092724609375,-0.0012088920921087265,-0.0005175569094717503,0.0016248654574155807
1772476666647269400,8.719269287109375,-0.0009754877537488937,0.0005789468996226788,0.0010062693618237972
1772476666657267500,8.729267333984374,0.001014692708849907,-0.0012181540951132774,-0.0011780555360019207
1772476666667264500,8.739264404296875,-0.0011716308072209358,0.0015687299892306328,-0.0016960715875029564
1772476666677262600,8.7492626953125,0.0011104317381978035,0.0013591391034424305,-0.0012183007784187794
1772476666687260400,8.759260498046874,0.0019307727925479412,0.0002544946037232876,0.0004657115787267685
1772476666697257500,8.769257568359375,-0.000913749448955059,-0.0013276897370815277,0.0004140459932386875
1772476666707255600,8.779255615234375,-0.0014258380979299545,0.000020416919142007828,0.0016628643497824669
1772476666717253400,8.78925341796875,0.0005262596532702446,0.00043294066563248634,-0.000582180917263031
1772476666727250700,8.799250732421875,-0.002741576172411442,0.0017472715117037296,0.0011455751955509186
1772476666737248500,8.80924853515625,-0.0016736481338739395,0.0014111809432506561,-0.0002571116201579571
1772476666747245600,8.81924560546875,-0.0005297577008605003,0.0011637937277555466,-0.0019470020197331905
1772476666757243400,8.829243408203125,-0.00016783457249403,0.00010971445590257645,0.000543585978448391
1772476666767241500,8.839241455078126,-0.0002813059836626053,0.004227456171065569,0.001527159009128809
1772476666777238500,8.849238525390625,0.000652664341032505,-0.003128461539745331,-0.0036095462273806334
1772476666787236400,8.859236328125,-0.0006404323503375053,0.001684342510998249,0.00019353628158569336
1772476666797233700,8.869233642578125,0.0008312296122312546,-0.00014498271048069,-0.0012994320131838322
1772476666807231500,8.8792314453125,0.0022674896754324436,0.000886362511664629,0.0000690915621817112
1772476666817229600,8.8892294921875,-0.00006703753024339676,0.0031455219723284245,0.0003489898517727852
1772476666827226400,8.899226318359375,0.002884672489017248,0.003920761402696371,-0.0028433348052203655
1772476666837224400,8.909224365234374,0.0002824980765581131,-0.0000817030668258667,-0.000018519815057516098
1772476666847222500,8.919222412109375,0.00015300419181585312,0.0008668871596455574,0.000846195500344038
1772476666857219600,8.929219482421875,0.0008821776136755943,0.0010727494955062866,0.0005732215940952301
1772476666867217700,8.9392177734375,-0.001208988018333912,-0.0008376380428671837,0.0010415338911116123
1772476666877214500,8.94921435546875,-0.0004992559552192688,-0.0009524202905595303,0.0014471332542598248
1772476666887212500,8.959212646484374,-0.0016234256327152252,0.001150557305663824,0.001103957649320364
1772476666897210600,8.969210693359376,0.0013318844139575958,-0.0003448077477514744,-0.002704096492379904
1772476666907207400,8.97920751953125,0.0007048146799206734,0.0020857532508671284,-0.0006962548941373825
1772476666917205500,8.98920556640625,0.0005056103691458702,0.0006875940598547459,0.0012971214018762112
1772476666927202600,8.99920263671875,0.0009303726255893707,-0.0012602093629539013,0.000900589395314455
1772476666937200600,9.00920068359375,-0.0003812341019511223,-0.000051400624215602875,-0.002345005050301552
1772476666947198500,9.019198486328126,-0.0000677136704325676,-0.0021389606408774853,0.0002137920819222927
1772476666957195500,9.029195556640625,-0.001506619155406952,-0.0001751454547047615,-0.001475717406719923
1772476666967193600,9.039193603515624,-0.0024351272732019424,0.0008007162250578403,-0.0009541762992739677
1772476666977190400,9.0491904296875,0.0007814392447471619,0.002765862736850977,0.0006514433771371841
1772476666987188500,9.0591884765625,0.00039954762905836105,0.0008083595894277096,-0.0013491767458617687
1772476666997186300,9.069186279296876,-0.0018178001046180725,-0.0008308161050081253,-0.001288190484046936
1772476667007183600,9.07918359375,0.0006442423909902573,0.0007708771154284477,-0.0008255699649453163
1772476667017181400,9.089181396484374,-0.000843399204313755,0.0013762135058641434,0.0029971315525472164
1772476667027179500,9.099179443359375,-0.0008024880662560463,0.0013091829605400562,-0.0013700490817427635
1772476667037176600,9.109176513671875,-0.00020913593471050262,0.0001613609492778778,-0.000695470254868269
1772476667047174400,9.11917431640625,-0.0005729831755161285,0.0019790860824286938,-0.0013771005906164646
1772476667057171500,9.12917138671875,0.0008467482402920723,0.000060811638832092285,-0.0003334078937768936
1772476667067169500,9.13916943359375,-0.001450830139219761,0.0026782331988215446,-0.002487722784280777
1772476667077167600,9.149167724609375,0.0016533504240214825,0.0007940470241010189,-0.0026981125120073557
1772476667087164400,9.159164306640625,-0.0017617754638195038,-0.0004711584188044071,0.0009806831367313862
1772476667097162500,9.16916259765625,0.000741063617169857,0.0011568320915102959,0.0011564521118998528
1772476667107159600,9.17915966796875,-0.0012890798971056938,0.0014776084572076797,-0.0005420176312327385
1772476667117157400,9.189157470703124,0.0011389236897230148,0.0007308581843972206,0.0007994165644049644
1772476667127155500,9.199155517578125,-0.0005095219239592552,0.0004058331251144409,0.0020412937738001347
1772476667137152500,9.209152587890625,0.0003512119874358177,-0.0022080594208091497,0.001101996749639511
1772476667147150600,9.219150634765626,-0.0007313434034585953,0.0001928950659930706,0.0002988092601299286
1772476667157147400,9.2291474609375,0.00041567999869585037,-0.00044413283467292786,0.0011981590650975704
1772476667167145500,9.2391455078125,-0.0002879975363612175,0.00030022673308849335,-0.00041113002225756645
1772476667177143600,9.2491435546875,0.0015099020674824715,0.0008179452270269394,-0.0014907754957675934
1772476667187140400,9.259140380859375,-0.00028043799102306366,-0.0004864749498665333,-0.0002509984187781811
1772476667197138400,9.269138427734376,-0.0008681975305080414,0.0003582797944545746,0.00020440202206373215
1772476667207136500,9.279136474609375,0.0005282284691929817,0.0001488872803747654,-0.00043484102934598923
1772476667217133600,9.289133544921874,-0.0008153356611728668,0.0004911036230623722,0.000294332392513752
1772476667227131600,9.299131591796876,0.002131964545696974,-0.00013962574303150177,-0.0021040593273937702
1772476667237128400,9.30912841796875,0.0015082522295415401,-0.0004482860676944256,-0.0016859429888427258
1772476667247126500,9.31912646484375,-0.0008056405931711197,0.0016160458326339722,-0.0006207372061908245
1772476667257122600,9.32912255859375,-0.00020856037735939026,-0.00025748787447810173,0.00035531166940927505
1772476667267120600,9.33912060546875,0.0012655574828386307,-0.00044092442840337753,0.0008432250469923019
1772476667277117400,9.349117431640625,-0.00014671683311462402,0.0007010390982031822,-0.0004279017448425293
1772476667287115500,9.359115478515625,0.00046417582780122757,-0.000008196104317903519,-0.002570898737758398
1772476667297113300,9.36911328125,0.0002801511436700821,-0.0013264608569443226,0.00041343923658132553
1772476667307110700,9.379110595703125,-0.0014634793624281883,-0.00027411431074142456,0.001149982213973999
1772476667317108500,9.3891083984375,-0.0007351050153374672,-0.001016870141029358,0.0006985762156546116
1772476667327105500,9.39910546875,-0.0019000954926013947,0.001809476874768734,0.0002763140946626663
1772476667337103600,9.409103515625,-0.0006715795025229454,0.0016888352110981941,-0.0016347700729966164
1772476667347101400,9.419101318359376,-0.0003126133233308792,0.0014338563196361065,0.00017200876027345657
1772476667357098500,9.429098388671875,-0.001492394134402275,0.0022133630700409412,0.0015709670260548592
1772476667367096300,9.439096435546874,-0.0010213116183876991,0.002981548197567463,0.0017260154709219933
1772476667377093600,9.44909375,-0.0005890810862183571,-0.0004661804996430874,0.00032466044649481773
1772476667387091500,9.459091552734375,-0.0012926310300827026,0.0024249288253486156,0.00021238485351204872
1772476667397089300,9.46908935546875,0.001537777017802,0.0030148192308843136,-0.0010291808284819126
1772476667407086000,9.479086181640625,0.00028992537409067154,-0.000451007392257452,0.00039499392732977867
1772476667417084200,9.489084228515624,-0.00020302552729845047,0.0023248051293194294,0.00020058313384652138
1772476667427081200,9.499081298828125,0.00045638997107744217,-0.00043101049959659576,-0.003324541263282299
1772476667437079300,9.509079345703125,-0.00024109240621328354,-0.0012342198751866817,-0.0003761555999517441
1772476667447077000,9.5190771484375,0.0010165069252252579,0.0014008479192852974,0.0020427927374839783
1772476667457074200,9.52907421875,-0.000461013987660408,-0.001146465539932251,-0.00013753725215792656
1772476667467072300,9.539072265625,-0.0005776640027761459,0.001155368983745575,-0.0003998889587819576
1772476667477070000,9.549070068359375,-0.0015808762982487679,-0.0022121979855000973,-0.0017999126575887203
1772476667487067100,9.559067138671875,-0.000011282972991466522,0.00032520992681384087,0.00016988394781947136
1772476667497065000,9.56906494140625,0.0022353599779307842,0.00158381974324584,-0.0000066836364567279816
1772476667507062300,9.579062255859375,-0.0007599657401442528,-0.0013683331198990345,0.0010220203548669815
1772476667517060000,9.58906005859375,0.0020696427673101425,0.0012032152153551579,0.0026476136408746243
1772476667527058200,9.59905810546875,0.000057306140661239624,0.0011050454340875149,-0.0013699885457754135
1772476667537055000,9.609054931640625,-0.0009349873289465904,-0.0013937987387180328,-0.001209133304655552
1772476667547053000,9.619052978515626,-0.0017757471650838852,0.0016062520444393158,0.0006699929945170879
1772476667557050000,9.629050048828125,-0.00119808129966259,-0.001082302536815405,-0.0004703332670032978
1772476667567048200,9.639048095703124,0.0007461579516530037,-0.0011208811774849892,-0.0009213038720190525
1772476667577046300,9.64904638671875,-0.0003808923065662384,0.0029705329798161983,-0.00025498075410723686
1772476667587043000,9.65904296875,-0.0014859698712825775,-0.0007208981551229954,-0.0014252089895308018
1772476667597041200,9.669041259765624,0.00010953005403280258,0.0016415920108556747,0.0003878707066178322
1772476667607038000,9.679037841796875,0.000652361661195755,0.0007427693344652653,0.0008416972123086452
1772476667617036000,9.6890361328125,-0.0003180941566824913,0.0012682108208537102,0.00010746391490101814
1772476667627034000,9.6990341796875,0.0021665082313120365,0.002509507816284895,-0.00033394480124115944
1772476667637031200,9.70903125,-0.00068680290132761,-0.0011464795097708702,0.0006847144104540348
1772476667647030000,9.719030029296874,-0.0004851454868912697,0.0017635454423725605,-0.0012991470284759998
1772476667657028000,9.729028076171875,-0.0008300244808197021,0.0012061456218361855,-0.00011803535744547844
1772476667667026000,9.73902587890625,0.0012450804933905602,0.0006668674759566784,0.000283640343695879
1772476667677023200,9.749023193359376,-0.0009568212553858757,0.001314814668148756,-0.00402535405009985
1772476667687021000,9.75902099609375,-0.0008514225482940674,-0.0020969929173588753,-0.00032140547409653664
1772476667697018000,9.76901806640625,0.0006399480625987053,-0.002319633262231946,0.0009393347427248955
1772476667707016200,9.77901611328125,0.000797743909060955,0.0007528136484324932,0.001276225782930851
1772476667717014000,9.789013916015625,0.0010241130366921425,-0.0011279103346168995,-0.001920898910611868
1772476667727011300,9.79901123046875,-0.00042115431278944016,-0.0005485573783516884,0.0014589237980544567
1772476667737009200,9.809009033203125,0.0005493015050888062,0.0010919501073658466,-0.00013417890295386314
1772476667747006200,9.819006103515624,0.0011207340285182,-0.0005406909622251987,-0.0013975701294839382
1772476667757004000,9.829004150390626,-0.000792481005191803,-0.00008475780487060547,0.0007585249841213226
1772476667767002000,9.839002197265625,-0.0013513043522834778,0.00021477742120623589,-0.0008306927047669888
1772476667776999200,9.848999267578124,0.0002987906336784363,0.0016582105308771133,-0.0002831467427313328
1772476667786997000,9.8589970703125,0.000470663420855999,0.000693050678819418,0.0004619681276381016
1772476667796994300,9.868994384765625,-0.0016010096296668053,0.0016398043371737003,0.0016364222392439842
1772476667806992100,9.8789921875,-0.00013507530093193054,0.0014156666584312916,0.0007659639231860638
1772476667816990200,9.888990234375,0.0010747993364930153,0.00019940128549933434,0.0008431952446699142
1772476667826987000,9.898987060546874,0.00017226114869117737,-0.0017791739664971828,0.0019000377506017685
1772476667836985000,9.908985107421875,-0.00007035303860902786,0.0010778652504086494,0.00004141777753829956
1772476667846983200,9.918983154296875,0.0018865186721086502,0.0002843574620783329,0.000261085107922554
1772476667856980000,9.92897998046875,0.0008795773610472679,-0.00012763356789946556,0.00007066922262310982
1772476667866978000,9.93897802734375,-0.0009578000754117966,0.0010116803459823132,-0.0026302977930754423
1772476667876975000,9.94897509765625,0.0009327782317996025,-0.0005819555371999741,-0.0004209396429359913
1772476667886973200,9.95897314453125,0.0008278926834464073,-0.000014637131243944168,0.0013687270693480968
1772476667896971300,9.96897119140625,0.00021643098443746567,-0.0003848164342343807,-0.0004920237697660923
1772476667906968000,9.978968017578126,-0.0006883600726723671,-0.0007858062162995338,0.0013777250424027443
1772476667916966100,9.988966064453125,0.0011364379897713661,-0.00008912337943911552,-0.0011325711384415627
1772476667926963200,9.998963134765624,-0.0024667102843523026,-0.00039862096309661865,0.0021413294598460197
1772476667936961300,10.008961181640625,0.0006931303068995476,0.0023558861576020718,0.0005668685771524906
1772476667946959000,10.018958984375,0.0021164780482649803,0.00014039641246199608,-0.0004956908524036407
1772476667956956200,10.0289560546875,-0.0026308726519346237,-0.0008790614083409309,0.002964820247143507
1772476667966954200,10.038954345703125,-0.00010440126061439514,0.001241795253008604,-0.00042140576988458633
1772476667976951000,10.048950927734374,-0.0018780669197440147,-0.000289255753159523,-0.00048798462375998497
1772476667986949000,10.05894921875,0.0010145148262381554,-0.0033942610025405884,-0.00019269483163952827
1772476667996947000,10.068947021484375,-0.0025637084618210793,0.0006398954428732395,-0.003151732962578535
1772476668006944300,10.0789443359375,0.0003790194168686867,-0.00009056879207491875,0.0003964342176914215
1772476668016942000,10.088942138671875,-0.0011616190895438194,0.0002915947698056698,0.0006662122905254364
1772476668026939100,10.098939208984374,-0.0015571760013699532,-0.0014779004268348217,0.0016489382833242416
1772476668036937200,10.108937255859376,-0.00017978902906179428,-0.0011969367042183876,0.0006190934218466282
1772476668046935000,10.11893505859375,0.000912221148610115,-0.0004726266488432884,0.0015351297333836555
1772476668056932000,10.12893212890625,0.0002480288967490196,-0.00016156956553459167,-0.0000558425672352314
1772476668066930200,10.13893017578125,0.0014579081907868385,-0.001178254373371601,-0.0019734110683202744
1772476668076928300,10.14892822265625,0.0007452461868524551,0.0012734518386423588,0.0019752574153244495
1772476668086925000,10.158925048828126,0.0005910024046897888,-0.0015555107966065407,0.001127342227846384
1772476668096923100,10.168923095703125,-0.0009634848684072495,0.001520440448075533,0.000038908328860998154
1772476668106920200,10.178920166015626,0.00007583200931549072,0.0013239658437669277,0.000658857636153698
1772476668116918000,10.18891796875,0.0021331245079636574,0.000696791335940361,-0.001968883443623781
1772476668126916000,10.198916015625,0.0001991167664527893,-0.00014341436326503754,0.002215854823589325
1772476668136913200,10.2089130859375,0.0015871562063694,0.000058453064411878586,-0.0009716828353703022
1772476668146911200,10.2189111328125,0.0011926311999559402,-0.0028384188190102577,0.0013725603930652142
1772476668156908000,10.228907958984376,-0.0008015437051653862,-0.0009803315624594688,0.0002172812819480896
1772476668166906000,10.238906005859375,-0.002968556247651577,-0.001106619369238615,0.0017648227512836456
1772476668176904200,10.248904296875,-0.0008042054250836372,0.00026863720268011093,0.00024602143093943596
1772476668186901000,10.25890087890625,-0.0003761881962418556,-0.0009243008680641651,-0.0010068533010780811
1772476668196899000,10.268899169921875,0.00040438491851091385,-0.0000015152618288993835,0.000052552204579114914
1772476668206896000,10.278896240234374,0.0010341685265302658,0.00018867943435907364,0.0013150041922926903
1772476668216894200,10.288894287109375,-0.00040313974022865295,0.000864855945110321,-0.0014698635786771774
1772476668226892300,10.298892333984375,-0.0021124090999364853,0.0007290779612958431,0.0005202377215027809
1772476668236889000,10.30888916015625,-0.00042689498513936996,0.0017056590877473354,-0.001616150140762329
1772476668246887200,10.31888720703125,-0.00016285013407468796,-0.00041657639667391777,0.00024155247956514359
1772476668256885000,10.328885009765624,0.0006821705028414726,0.00009315274655818939,-0.00028335629031062126
1772476668266882300,10.33888232421875,0.00015078019350767136,-0.0004562102258205414,-0.0005374201573431492
1772476668276880100,10.348880126953125,-0.0007973043248057365,-0.0008426345884799957,-0.0010679219849407673
1772476668286877200,10.358877197265626,-0.0010022874921560287,0.00007814774289727211,0.0016329288482666016
1772476668296875300,10.368875244140625,0.00022862572222948074,-0.0003322456032037735,-0.00044966256245970726
1772476668306873000,10.378873046875,0.00018206704407930374,-0.0015344247221946716,-0.0014538494870066643
1772476668316870100,10.3888701171875,0.0022856974974274635,0.0008744047954678535,-0.0005233408883213997
1772476668326868000,10.398867919921875,0.0005382932722568512,0.000897988211363554,-0.0022407290525734425
1772476668336865300,10.408865234375,0.0008525466546416283,-0.0005284007638692856,0.0009153829887509346
1772476668346863000,10.418863037109375,0.00003525149077177048,-0.00022969022393226624,0.0004957490600645542
1772476668356861200,10.428861083984375,-0.0009450577199459076,0.0003245137631893158,-0.00025126757100224495
1772476668366858200,10.438858154296875,0.0022565932013094425,0.002163833472877741,-0.0007154787890613079
1772476668376856000,10.44885595703125,0.0009463177993893623,-0.001377105712890625,-0.0005205352790653706
1772476668386853600,10.458853515625,0.0005729235708713531,-0.0008980385027825832,0.0006218231283128262
1772476668396851500,10.4688515625,-0.001294485293328762,0.0021177250891923904,-0.003224313957616687
1772476668406849500,10.478849609375,0.0013542575761675835,0.0012761801481246948,-0.000996855553239584
1772476668416846600,10.4888466796875,-0.0013139639049768448,-0.0000151866115629673,0.0006345971487462521
1772476668426844700,10.4988447265625,0.00023955199867486954,-0.0003002914600074291,-0.0014600581489503384
1772476668436841700,10.508841796875,0.0009993510320782661,-0.0014976486563682556,-0.00042142532765865326
1772476668446839600,10.518839599609375,0.0006776293739676476,0.0008159796707332134,0.0004963274113833904
1772476668456837600,10.528837646484375,-0.0004859054461121559,-0.00114517193287611,0.0010760976001620293
1772476668466834400,10.53883447265625,-0.0015785451978445053,-0.001032841857522726,0.0006975061260163784
1772476668476832500,10.54883251953125,-0.00045069679617881775,0.00007423432543873787,-0.0014932099729776382
1772476668486830600,10.55883056640625,0.0019228411838412285,0.00043042004108428955,-0.0011480688117444515
1772476668496827600,10.56882763671875,-0.0005962429568171501,0.0007316237315535545,-0.00007880944758653641
1772476668506825700,10.57882568359375,-0.0018983781337738037,-0.000649734865874052,0.0013268464244902134
1772476668516822500,10.588822509765626,0.001203404739499092,-0.0010092617012560368,-0.0005333716981112957
1772476668526820600,10.598820556640625,0.001089329831302166,0.0005602221935987473,0.0009675472974777222
1772476668536818700,10.608818603515624,0.00014976691454648972,-0.0013255621306598186,0.0014067022129893303
1772476668546815700,10.618815673828125,0.0011315420269966125,0.0019627632573246956,0.0005610412918031216
1772476668556813800,10.628813720703125,-0.000371013768017292,0.00016592862084507942,0.0019642608240246773
1772476668566810600,10.638810546875,0.0005590245127677917,-0.0005868114531040192,0.0006081392057240009
1772476668576808700,10.64880859375,-0.0019225087016820908,-0.0001463247463107109,0.0016656802035868168
1772476668586806500,10.658806640625,0.0013092691078782082,-0.0003501768223941326,0.0010343114845454693
1772476668596803600,10.668803466796875,0.0011484138667583466,-0.0009544482454657555,0.0006356365047395229
1772476668606801700,10.6788017578125,-0.000056269578635692596,-0.0009210654534399509,0.00015635555610060692
1772476668616798700,10.688798828125,-0.0017210114747285843,-0.00018390268087387085,-0.0012940019369125366
1772476668626796800,10.698796875,0.00025858450680971146,-0.0003889617510139942,0.0005916999652981758
1772476668636794600,10.708794677734375,-0.0012809885665774345,-0.0021953838877379894,0.0013440432958304882
1772476668646791700,10.718791748046876,-0.0000983281061053276,0.0010386817157268524,0.002292250283062458
1772476668656789500,10.72878955078125,-0.0004464033991098404,-0.0011757365427911282,0.003693872131407261
1772476668666787600,10.73878759765625,-0.0018454482778906822,-0.0016152611933648586,0.003983092959970236
1772476668676784600,10.74878466796875,-0.0028345463797450066,-0.002807025797665119,0.00553997652605176
1772476668686782700,10.75878271484375,0.0000065891072154045105,-0.0003414633683860302,0.004334720782935619
1772476668696779800,10.76877978515625,-0.0016464358195662498,0.0012013060040771961,-0.0012810872867703438
1772476668706777600,10.778777587890625,-0.0007376018911600113,-0.00008712708950042725,-0.0032449171412736177
1772476668716775700,10.788775634765624,-0.0017320262268185616,0.0017941296100616455,-0.003403907874599099
1772476668726772500,10.7987724609375,0.00018777791410684586,-0.00046216463670134544,-0.0033124082256108522
1772476668736770600,10.8087705078125,0.00003784243017435074,-0.0012999949976801872,-0.0005158227868378162
1772476668746767600,10.818767578125,-0.0008167261257767677,0.0003110473044216633,-0.0015618824400007725
1772476668756765700,10.828765625,-0.00176321342587471,0.00003674160689115524,-0.0008058110252022743
