time,seconds_elapsed,z,y,x
1772611434219177700,0.097177734375,0.07424889303743838,-0.01307451256327331,0.04953622999009676
1772611434229174500,0.107174560546875,0.07799275574088096,0.006126483523659408,0.05265038908841088
1772611434239171600,0.117171630859375,0.0755991386026144,-0.004505860051885247,0.046853548511071125
1772611434249168600,0.127168701171875,0.09998597636222839,-0.011079466288536786,0.043620859333314
1772611434259165400,0.13716552734375,0.07843816142082213,-0.023391342182550578,0.05477077877586707
1772611434269162800,0.147162841796875,0.04282382720410824,-0.023718930169101805,0.06575397248254157
1772611434279159600,0.15715966796875,0.0497054034113884,-0.019141301788948475,0.061533057718724006
1772611434289156600,0.167156494140625,0.02740881592929363,-0.016982150993682443,0.04961300328704528
1772611434299153700,0.177153564453125,0.0396796839594841,-0.020696513608004896,0.050732554502040145
1772611434309151700,0.18715185546875,0.035789106261730194,-0.02333234200431034,0.042046869748551395
1772611434319148500,0.1971484375,0.06017886663079262,-0.01242224093331024,0.046602587690996004
1772611434329145600,0.2071455078125,0.037135844695568083,-0.013131850507389754,0.03721974185304716
1772611434339142700,0.217142578125,0.07783551935255527,-0.014637487563677132,0.04037384936925955
1772611434349139700,0.2271396484375,0.047906245034933084,-0.00917755992366001,0.050029319869820024
1772611434359136500,0.237136474609375,0.07050093868076801,-0.01165452623013407,0.045664987180475146
1772611434369133800,0.2471337890625,0.049998248878121376,-0.02416360519668087,0.044828874283051115
1772611434379130600,0.257130615234375,0.0534346530675888,-0.01807367255743593,0.044164501223340626
1772611434389127700,0.267127685546875,0.05477788437008858,-0.01004316377704963,0.0344141920461785
1772611434399125500,0.27712548828125,0.04908931733965873,-0.005041610896401107,0.04539345849640667
1772611434409122800,0.287122802734375,0.054769116541743275,-0.007875373017601668,0.038476774443127214
1772611434419119600,0.29711962890625,0.04084814321696758,-0.018890487099345772,0.03786237800498493
1772611434429116700,0.30711669921875,0.031416298004984855,-0.019157887597568334,0.03749551745397039
1772611434439113700,0.31711376953125,0.05999298866987228,-0.005862480558920652,0.04057348186089657
1772611434449110500,0.327110595703125,0.059534723508358,-0.016037454022094607,0.03721560453404672
1772611434459107600,0.337107666015625,0.06296995865404606,-0.010510397696308791,0.03164195085386745
1772611434469104600,0.347104736328125,0.04785129997730255,-0.01523209245596081,0.031134412323683497
1772611434479101700,0.357101806640625,0.029143092375993728,-0.013442195098195225,0.032624797011911864
1772611434489099500,0.367099609375,0.04649520919322967,-0.015442081944830715,0.03541594383409247
1772611434499096600,0.3770966796875,0.055465282112359994,-0.01581917162891477,0.03355238758507185
1772611434509093600,0.38709375,0.05052139596939086,-0.014392536359280348,0.02718859730735421
1772611434519090700,0.397090576171875,0.06309037016332149,-0.010349946437589824,0.03406714130733162
1772611434529087500,0.40708740234375,0.044531800165772434,-0.01549483504537493,0.02898068662220612
1772611434539084800,0.417084716796875,0.06757306853532791,-0.016415146494377402,0.02684692599652335
1772611434549081600,0.42708154296875,0.047966450789570805,-0.017751290468964724,0.025970417156629264
1772611434559078700,0.43707861328125,0.06157762751281261,-0.010165383650921284,0.033723816895531486
1772611434569075700,0.44707568359375,0.025509704309701918,-0.0072216035502962765,0.03732986943032592
1772611434579073800,0.45707373046875,0.04795242226421833,-0.013676844104286283,0.04214272220530547
1772611434589070600,0.467070556640625,0.0554302107989788,-0.019972747644409535,0.028676790038496255
1772611434599067600,0.477067626953125,0.05527531249821186,-0.013906835201568902,0.03327451135860756
1772611434609064700,0.487064697265625,0.0365641822874546,-0.020922559182532132,0.04659856910300441
1772611434619061800,0.497061767578125,0.04643558796048164,-0.017341321428585795,0.03398840438215993
1772611434629058600,0.50705859375,0.05810206035673618,-0.011784070893935858,0.035159640118619426
1772611434639055600,0.5170556640625,0.05540566087961197,-0.011603691092040389,0.03914261794071644
1772611434649052700,0.527052734375,0.04088730618357658,-0.015004549044091254,0.050134405945800244
1772611434659050200,0.53705029296875,0.04327566262483597,-0.007867993428744375,0.047104545863764356
1772611434669048300,0.54704833984375,0.052099605071544645,-0.01343244088916108,0.04046062347041443
1772611434679045000,0.557045166015625,0.06765840873122216,-0.01438546729767695,0.040801335800020024
1772611434689042400,0.56704248046875,0.07288695703446865,-0.002486318656709045,0.04592431397009641
1772611434699039200,0.577039306640625,0.028292613026499748,-0.014119655968341976,0.041877632395178076
1772611434709036300,0.587036376953125,0.04803834698200225,-0.010977321088314056,0.04549295508181676
1772611434719033300,0.597033447265625,0.05312193385660648,-0.019575985145475715,0.04272423928715288
1772611434729030100,0.607030029296875,0.05806055930256843,-0.019229802056308833,0.02913692749668844
1772611434739027200,0.617027099609375,0.0442892235815525,-0.015403613097965717,0.0366314845031593
1772611434749024300,0.627024169921875,0.06598433803915978,-0.00818126062899828,0.03926909386459738
1772611434759022300,0.637022216796875,0.04503039733767509,-0.00793093912974,0.033953260003542526
1772611434769019100,0.64701904296875,0.05864215858280658,-0.007818400399666279,0.04131245452677831
1772611434779016200,0.65701611328125,0.04442132552862167,-0.013877901368029414,0.02798052400317974
1772611434789013200,0.66701318359375,0.05578793819546699,-0.0057015543761663135,0.030626389736309646
1772611434799010300,0.67701025390625,0.05578092393279075,-0.008458652798272669,0.02241679806197062
1772611434809007000,0.687007080078125,0.050091772380471224,-0.01594073391566053,0.025173074500169604
1772611434819004400,0.69700439453125,0.04649520919322967,-0.013802315381169319,0.01986978959343396
1772611434829001200,0.707001220703125,0.053225394231081004,-0.009692377578001468,0.019404802430188283
1772611434838999300,0.716999267578125,0.052177931004762645,-0.012235340059082955,0.017859892809437585
1772611434848996000,0.72699609375,0.05187281057834625,-0.011525913148093968,0.02472212499543093
1772611434858993400,0.736993408203125,0.04663081827163696,-0.012619389206916094,0.02556981873279437
1772611434868990200,0.746990234375,0.05814999115169048,-0.014109773895144461,0.023999546341923996
1772611434878987300,0.7569873046875,0.03943944546282291,-0.006906692382227629,0.011066077084001154
1772611434888984300,0.766984375,0.06951309668719768,-0.017380283465795218,0.02130084530985914
1772611434898981400,0.7769814453125,0.04676642735004425,-0.012090360364131629,0.01465554381017573
1772611434908978200,0.786978271484375,0.057687634336948394,-0.00833659732118249,0.020933948226226493
1772611434918975200,0.796975341796875,0.03464227431416511,-0.012203026958368718,0.01846662653093226
1772611434928973300,0.806973388671875,0.0584323152244091,-0.014398527708649635,0.02418927849405445
1772611434938970400,0.816970458984375,0.046458968836069106,-0.015450794974248856,0.024618262762157245
1772611434948967200,0.82696728515625,0.061867550370097155,-0.019539817853551356,0.028902269357442854
1772611434958964200,0.836964111328125,0.060218029597401614,-0.0032838257099501787,0.02400477050631307
1772611434968961300,0.846961181640625,0.058116088882088655,-0.0018696480630896984,0.031690804097428915
1772611434978958000,0.8569580078125,0.0443459222048521,-0.005538637165725231,0.032842695812601595
1772611434988955100,0.866955078125,0.044643443846702574,-0.01188210617462173,0.025457700127828865
1772611434998952200,0.8769521484375,0.0467377857774496,-0.013839377722237258,0.02702662081182934
1772611435008949200,0.88694921875,0.04778407995998859,-0.004113499733433127,0.03201196234319359
1772611435018947000,0.896947021484375,0.05346738629341125,-0.007797996932454407,0.03684070680704899
1772611435028944100,0.906944091796875,0.05885024837553501,-0.010151957913767546,0.03483389702928252
1772611435038941200,0.916941162109375,0.0693248806387186,-0.012368958109803497,0.030332229095324872
1772611435048938200,0.926938232421875,0.03834755857288837,-0.025243582453113048,0.03011186434291303
1772611435058935000,0.93693505859375,0.04687514842152595,-0.014602233587205408,0.03899352832622826
1772611435068932400,0.946932373046875,0.05525251614451408,-0.005315587265882641,0.030141574494587257
1772611435078929200,0.95692919921875,0.050611996862292286,0.0005751695394515991,0.03511466846573166
1772611435088926200,0.96692626953125,0.05330547372996807,-0.005737703401781619,0.030542054187413303
1772611435098924300,0.97692431640625,0.05195405912101268,-0.008478197748959065,0.03139000365310348
1772611435108921300,0.98692138671875,0.049559857460856435,-0.014757314551062882,0.03271944389226846
1772611435118918100,0.996918212890625,0.044618893927335736,-0.016046276649367062,0.03215763615788892
1772611435128915200,1.006915283203125,0.059577978128194806,-0.011388112112600355,0.03337517698779702
1772611435138912300,1.016912353515625,0.06107201607823372,-0.007611461384408175,0.02438052674983628
1772611435148909300,1.026909423828125,0.05178980847001075,-0.015893259778432547,0.026272551041515543
1772611435158906000,1.036906005859375,0.04026479037106037,-0.007142620029952377,0.0319710001451429
1772611435168903400,1.0469033203125,0.06031155309975147,-0.008339026740286498,0.02615037683341652
1772611435178901200,1.0569013671875,0.06015431671142578,-0.00727631114590913,0.01844910000739619
1772611435188898300,1.066898193359375,0.06269406432211398,-0.016711754820775238,0.02104215784105472
1772611435198895000,1.07689501953125,0.05535831460654735,0.002184614030085504,0.022748221973422914
1772611435208892400,1.086892333984375,0.039194530791044235,-0.01169679446928203,0.016436125350324435
1772611435218889200,1.09688916015625,0.05685118351280689,-0.014763890422321855,0.015288023894280195
1772611435228886000,1.106885986328125,0.03769581666588783,-0.01866544617181644,0.020497776165511458
1772611435238883300,1.11688330078125,0.060734746947884555,-0.011583342423755675,0.009316374739306047
1772611435248880000,1.126880126953125,0.04487082286179066,-0.007649491839855909,0.007524258024990558
1772611435258877200,1.136877197265625,0.04786182137131691,-0.012264694017730653,0.014757981271343305
1772611435268875000,1.146875,0.053394905579090116,-0.014600680950935929,0.0053379178286995736
1772611435278872300,1.156872314453125,0.05907879643440246,-0.020697554787620902,0.01271064768694341
1772611435288869000,1.166869140625,0.05862754553556442,-0.014372279022540896,0.01766785910236649
1772611435298866200,1.1768662109375,0.055932315102219576,-0.010317085347604006,0.01654194207866676
1772611435308863200,1.18686328125,0.0571294159322977,-0.0035299094255082306,0.006552426451304927
1772611435318860300,1.1968603515625,0.05877133792042732,-0.0021453414656221865,0.014432740505505352
1772611435328857000,1.206857177734375,0.060712535116076466,-0.011738405121304094,0.019710434313258154
1772611435338854400,1.2168544921875,0.056819034808874125,-0.010306344757881015,0.022739061419432983
1772611435348852200,1.226852294921875,0.05696633432507515,-0.006604037907533347,0.03394055578559637
1772611435358849300,1.236849365234375,0.05351999326348304,-0.013181699264794587,0.02721003282102756
1772611435368846000,1.24684619140625,0.06922668096125126,-0.01076119411960244,0.026441377402935177
1772611435378843400,1.256843505859375,0.05545417619645595,-0.009117317636404186,0.03432599317291751
1772611435388840200,1.266840087890625,0.017593524357676506,-0.009720489427633584,0.02966704318486154
1772611435398837200,1.276837158203125,0.01430325064063072,-0.012142876002658157,0.03303517704424448
1772611435408834300,1.286834228515625,0.04228548254370689,-0.009078538262285291,0.027990607005776835
1772611435418831400,1.296831298828125,0.0692161595672369,-0.004621175260934978,0.02826009899638593
1772611435428829200,1.3068291015625,0.06741700119078159,-0.007167370878718793,0.029273413357930256
1772611435438826200,1.316826171875,0.06920914530456065,-0.009810852858517318,0.032393107147887346
1772611435448823300,1.3268232421875,0.05319383004903793,-0.0026193887181580064,0.02107481800164096
1772611435458820400,1.3368203125,0.04601122506856918,0.0050060281263664365,0.02364456802494824
1772611435468817200,1.346817138671875,0.04331716367900371,-0.009202456902898847,0.02398335325894877
1772611435478814200,1.356814208984375,0.045559974169731135,-0.011272267180588096,0.016417849908117205
1772611435488811300,1.366811279296875,0.058577276653051374,-0.011826740991882979,0.029115053591597825
1772611435498808000,1.37680810546875,0.054687283477187154,-0.010200327100139111,0.027480447260243818
1772611435508806100,1.38680615234375,0.05244213489890098,-0.01199997866693884,0.023078239379078148
1772611435518803500,1.396803466796875,0.055282911282777784,-0.011520140994433313,0.023417444738186896
1772611435528800300,1.40680029296875,0.04495440949201584,-0.0082873878845945,0.017718264982197432
1772611435538797000,1.416797119140625,0.06036825172305107,-0.017090652869455516,0.013157934796717017
1772611435548794400,1.42679443359375,0.050639469391107556,-0.009481657436769455,0.016095632216427475
1772611435558791200,1.436791259765625,0.04450140502750873,-0.0017739326036535202,0.016013753486098722
1772611435568788200,1.446788330078125,0.0419540586322546,-0.0038277415946125983,0.014034836362255736
1772611435578785300,1.456785400390625,0.056314592418074606,-0.01661567403515801,0.01336868233741261
1772611435588783400,1.466783447265625,0.051821957173943514,-0.012742485863622277,0.025398371156025678
1772611435598780200,1.4767802734375,0.051070846545696255,-0.014890859536547212,0.014221910766419023
1772611435608777200,1.486777099609375,0.04762801261544227,-0.01011275841454044,0.017415966700529677
1772611435618774300,1.496774169921875,0.04762742809355259,0.0017213621661998331,0.016643393159145488
1772611435628771300,1.506771240234375,0.03745031747221946,-0.0066453562986105675,0.009204466196894644
1772611435638768000,1.51676806640625,0.049720016458630556,-0.004141501985210925,0.013451127323321998
1772611435648765400,1.526765380859375,0.05959317569732666,-0.0066865285592153665,0.015655341103021053
1772611435658761700,1.53676171875,0.06153495741486549,-0.0024997078612446783,0.014066711071552707
1772611435668759600,1.546759521484375,0.05255202501416206,-0.00674609499303624,0.009698076666425913
1772611435678756600,1.556756591796875,0.04431728063225746,-0.007235047553759068,0.01418135042716749
1772611435688753700,1.566753662109375,0.0404243648469448,-0.008661755888629705,0.012152429282292723
1772611435698750700,1.576750732421875,0.0516442625194788,-0.00662045931937173,0.025663040841044857
1772611435708747500,1.58674755859375,0.05643091227412223,-0.008049724937509745,0.016964049081411213
1772611435718744800,1.596744873046875,0.05089373641312122,-0.0030434045501984653,0.0173982301144395
1772611435728741600,1.60674169921875,0.05164192443192005,-0.003619779666047543,0.018761134231789038
1772611435738739700,1.61673974609375,0.06136661511063576,-0.0009325133434496819,0.019524876012746245
1772611435748736500,1.626736572265625,0.05867021563351154,-0.012821615514438599,0.021363014692720023
1772611435758733800,1.63673388671875,0.06031330666542053,-0.008250508206617086,0.02666704851812683
1772611435768730600,1.646730712890625,0.04789046294391155,-0.0008091244257986545,0.017925185731146483
1772611435778727700,1.656727783203125,0.04774199438393116,-0.00223663647826761,0.010695006148749962
1772611435788724700,1.666724853515625,0.05043254864215851,-0.00584923748485744,0.019279733012104405
1772611435798721500,1.676721435546875,0.047587096083164214,-0.010188746260199695,0.018225264656264333
1772611435808718600,1.686718505859375,0.045043256819248194,-0.011341934883315115,0.01003414935353212
1772611435818716700,1.696716552734375,0.04549275415241718,-0.0007278210842050611,0.022007221747236325
1772611435828713700,1.706713623046875,0.05222177014648914,-0.0017876506017521024,0.021994572328217325
1772611435838710500,1.71671044921875,0.0544628270715475,-0.008271550994645804,0.02082374758371152
1772611435848707600,1.72670751953125,0.04997136087119579,-0.012919595996197313,0.014975587811088188
1772611435858704600,1.73670458984375,0.04996843826174736,-0.004172152851801366,0.02414617913784459
1772611435868701700,1.74670166015625,0.055956280499696726,-0.007802618308644742,0.013271989630442111
1772611435878698500,1.756698486328125,0.05610299549400806,-0.008046089942008257,0.023029486600216476
1772611435888695800,1.76669580078125,0.05520458534955978,-0.006550608953554183,0.014156937505118547
1772611435898693600,1.776693603515625,0.056849429947137826,-0.008342716534715145,0.016311311660567297
1772611435908691700,1.786691650390625,0.05565116007328033,-0.014312073267903179,0.018641608638502657
1772611435918688800,1.796688720703125,0.049665655922889705,-0.006834357798378914,0.007578125370386987
1772611435928685600,1.806685546875,0.052660746085643764,-0.012450133587233722,0.01408528790785931
1772611435938682600,1.8166826171875,0.05430383711755275,-0.0051668447112664575,0.010547907561948523
1772611435948680700,1.8266806640625,0.05984042845666408,-0.007873418522533029,0.0004851897010579705
1772611435958677800,1.836677734375,0.06567454143762588,-0.011191383964102715,0.007208524873014539
1772611435968674600,1.846674560546875,0.053851417174935336,-0.005883888673130422,0.009144269575411453
1772611435978671600,1.856671630859375,0.05923895543217659,-0.007495178060978651,0.008025165884988382
1772611435988668700,1.866668701171875,0.056392918351292606,-0.007175079261139035,0.008152007135050371
1772611435998665500,1.87666552734375,0.06043488721847534,0.0004112659483216703,0.014183122259145602
1772611436008662800,1.886662841796875,0.05878653548955917,-0.00242039554733783,0.008343246257677673
1772611436018659600,1.89665966796875,0.05294891537725925,-0.007027560549229383,0.008577630402287468
1772611436028657700,1.90665771484375,0.05878302835822105,-0.005584503867756575,0.009484890573471783
1772611436038654500,1.916654541015625,0.046959904095530504,-0.0016029964835382997,0.010360668761003762
1772611436048651800,1.92665185546875,0.03693418464362621,-0.007712601937633007,0.008168666008906438
1772611436058648600,1.936648681640625,0.05444003071784973,-0.0048106882173568006,0.0073361424412112675
1772611436068645600,1.946645751953125,0.06221767898201942,-0.005239361958205699,0.014951759410928933
1772611436078642700,1.956642578125,0.0629676205664873,-0.003648950961604714,0.01185075205513276
1772611436088639700,1.9666396484375,0.057577744221687314,-0.007512531054578721,0.018146911323582753
1772611436098637600,1.976637451171875,0.055180035430192946,-0.0043920974791049954,0.014645817000605165
1772611436108634600,1.986634521484375,0.058470893669128415,-0.0013265724286437035,0.02138406661390327
1772611436118631700,1.996631591796875,0.0554781415939331,-0.003215144387912005,0.026949399990309028
1772611436128628700,2.006628662109375,0.04455576556324958,-0.005218867159448564,0.02396868541277945
1772611436138625500,2.01662548828125,0.055931146058440205,-0.00014549115160480142,0.0248699268351309
1772611436148622800,2.026622802734375,0.053386137750744814,-0.009891279417276381,0.02700378792551346
1772611436158619600,2.03661962890625,0.053986441731452936,-0.005476349051855504,0.025961220070021225
1772611436168617700,2.04661767578125,0.05458382310271263,-0.011913323296792804,0.0221437624074053
1772611436178614500,2.056614501953125,0.05952069498300552,-0.005447543082479387,0.015658062783069908
1772611436188611800,2.06661181640625,0.054880175700783726,-0.005699855609424412,0.021608029829198492
1772611436198608600,2.076608642578125,0.05862111579477787,-0.006425795263797045,0.027111129890661684
1772611436208605700,2.086605712890625,0.05637713626027107,-0.004920596598926932,0.01502491597868502
1772611436218602800,2.096602783203125,0.058469724625349044,-0.0018904168564826249,0.01581374653512612
1772611436228599600,2.106599609375,0.05607143131196499,-0.007689001866336911,0.02786673403093591
1772611436238596600,2.1165966796875,0.055772156104445456,-0.000029646219592541454,0.014229473018366842
1772611436248594700,2.1265947265625,0.05592179370820522,-0.007085683944635093,0.019155248115910215
1772611436258591700,2.136591796875,0.04918985510468483,-0.004407094118837267,0.019953458422049878
1772611436268588500,2.146588623046875,0.055474634462594985,-0.0056038478890433905,0.015756856115581468
1772611436278585600,2.156585693359375,0.060707858940958974,-0.011327668895944953,0.009945238094218075
1772611436288582700,2.166582763671875,0.05397182868421077,0.003955861486308276,0.015353974403114989
1772611436298579700,2.176579833984375,0.0499316133826971,-0.00973572352938354,0.013169944894919171
1772611436308576500,2.186576416015625,0.053071664974093435,-0.00890489872843027,0.007276594273699447
1772611436318574600,2.19657470703125,0.05037994167208671,-0.007966668030247091,0.020015582139138132
1772611436328571600,2.206571533203125,0.05022971954643726,-0.0036464850098825987,0.016046066586812957
1772611436338568700,2.216568603515625,0.04633738828301429,-0.001067848427221179,0.012818692904990166
1772611436348565500,2.2265654296875,0.05740998643934726,-0.0042371626457199454,0.01317928811199963
1772611436358562800,2.236562744140625,0.06040040042698383,0.001196278846170753,0.008914369809674099
1772611436368559600,2.2465595703125,0.057557285955548286,-0.0034409707667306063,0.002474820015160367
1772611436378556700,2.256556640625,0.04887888945937156,-0.008235328903794288,0.009852289980603382
1772611436388554500,2.266554443359375,0.051123453515768046,-0.0042320663454942405,0.0060404492080211635
1772611436398551800,2.2765517578125,0.056359016081690784,-0.008759937299787997,0.006331869902648031
1772611436408548600,2.286548583984375,0.053065819755196565,0.0009403495900332927,0.005905397252039983
1772611436418545700,2.296545654296875,0.05156535206437111,0.0006994717725552619,0.011538014577841385
1772611436428542700,2.306542724609375,0.0593470919817686,-0.011661613558046518,0.005618488335749134
1772611436438539800,2.316539794921875,0.04976794725358486,-0.01103392838006839,0.009250944820279255
1772611436448536600,2.32653662109375,0.05110942499041557,-0.0034579219015315175,0.007832940381672232
1772611436458534700,2.33653466796875,0.041831309035420414,-0.005501355628948658,0.008302028331300244
1772611436468531700,2.34653173828125,0.057394788870215416,-0.0024265878261066974,0.008912323983060196
1772611436478528800,2.35652880859375,0.05694178440570831,-0.0025912038032896816,0.00849794362904504
1772611436488525600,2.366525634765625,0.056942368927598,-0.010471125131845473,0.020705783759849144
1772611436498523000,2.37652294921875,0.05005903915464878,-0.013626100297737866,0.013043651634128763
1772611436508519700,2.386519775390625,0.05694003084003925,-0.007671667139045894,0.007223320583347231
1772611436518516500,2.3965166015625,0.05484393534362316,0.0012729790778830646,0.009086018315842374
1772611436528514600,2.4065146484375,0.05304536148905754,-0.004911225982382893,0.010055246940487995
1772611436538512000,2.416511962890625,0.04960018947124481,-0.0031884207777678965,0.015421477548219263
1772611436548508700,2.4265087890625,0.05902268233299255,-0.003603705314081162,0.007088853149255737
1772611436558505700,2.436505615234375,0.06036591363549232,-0.01128688022783026,0.012638943290757015
1772611436568502800,2.446502685546875,0.05931494327783584,-0.00938718408634886,0.015797827446786684
1772611436578499600,2.45649951171875,0.04943535429835319,-0.00608180413171649,0.01797084237062372
1772611436588496600,2.46649658203125,0.045696167770028114,-0.002714775384031236,0.015176590275904163
1772611436598494700,2.47649462890625,0.03731763100326061,-0.0018728811997920274,0.00933081425661221
1772611436608491800,2.48649169921875,0.04524842400252819,-0.00818221047706902,0.016934996516862883
1772611436618488600,2.496488525390625,0.053180970567464826,-0.008669044145941733,0.02152238823920488
1772611436628485600,2.506485595703125,0.049290977391600606,-0.00865457722917199,0.021417831886187195
1772611436638482700,2.516482666015625,0.058417702177166936,-0.002441273938585073,0.003129018740728497
1772611436648479700,2.526479736328125,0.052578328499197954,-0.0010922887487336992,0.02180992734315805
1772611436658477000,2.53647705078125,0.055118660631775854,-0.012569376052729784,0.022083173060277475
1772611436668475000,2.546474853515625,0.0605021072357893,-0.009820351339224726,0.01279699252983555
1772611436678472000,2.556471923828125,0.05107376915514469,-0.0005044971897266805,0.014565609637554735
1772611436688469000,2.566468994140625,0.04987374571561813,0.0023862740820273756,0.009344066463829948
1772611436698466000,2.576466064453125,0.05331014990508556,-0.0038847142125479875,0.008152555124321953
1772611436708462800,2.586462890625,0.0533083963394165,-0.0010953574886545538,0.009341764908889308
1772611436718460200,2.596460205078125,0.03624970951080322,-0.007463686944171786,0.006557604949921369
1772611436728457000,2.60645703125,0.0603448708474636,-0.005160469769407063,0.011310498565435409
1772611436738455000,2.616455078125,0.0622884061306715,-0.0047318142948672174,0.0024855332054197787
1772611436748451800,2.626451904296875,0.04926993460357189,0.00027949279481545087,0.00866745497705415
1772611436758449200,2.63644921875,0.05959376021921634,-0.0004772803892381489,0.012641089582070707
1772611436768446000,2.646446044921875,0.0628852029800415,-0.0059925914783030745,0.010537541431561112
1772611436778443000,2.656443115234375,0.06617547669708729,-0.0026324308628216386,0.001669312318554148
1772611436788440000,2.666440185546875,0.06168576406240463,-0.0026129772436805066,0.00884119497560896
1772611436798436900,2.676436767578125,0.05510463210642338,-0.008726857014093547,0.0033439675325062125
1772611436808435000,2.68643505859375,0.046128129446506495,-0.0043595834489911795,0.015266277853352947
1772611436818432000,2.696431884765625,0.05525426971018314,0.0003135777275077998,0.011601480868645011
1772611436828429000,2.706428955078125,0.05315992777943611,-0.00721994131617248,0.008435445452621206
1772611436838425900,2.71642578125,0.05974456686675548,-0.009293423121981323,0.010740754119772463
1772611436848423000,2.7264228515625,0.057201312124729155,-0.003777892837207764,0.005678036503260955
1772611436858420000,2.736419921875,0.05735036520659923,-0.0052343021905981,0.006888462605793028
1772611436868417000,2.7464169921875,0.06198796187937259,-0.00951767859822139,0.011660088321240618
1772611436878415000,2.7564150390625,0.05150865344107151,-0.004126066954061388,0.01196489822040312
1772611436888412000,2.766411865234375,0.05374971036612987,-0.0036746333921328185,0.01760498646660708
1772611436898409000,2.776408935546875,0.05853752916455268,-0.0026202472346834836,0.01174913657787256
1772611436908406000,2.786406005859375,0.04446984084546566,0.0039916086531244215,0.009257182764820755
1772611436918402800,2.79640283203125,0.06182780288159847,-0.006505217175558209,0.016883485525334252
1772611436928400100,2.806400146484375,0.054197454133629794,-0.003968319109082222,0.015591491219727322
1772611436938397000,2.81639697265625,0.058388476082682605,-0.002970631574932486,0.008440386489219963
1772611436948395000,2.82639501953125,0.06093114630281925,-0.003723020844813436,0.009850426817080005
1772611436958391800,2.836391845703125,0.04970657245516777,-0.007454864316899329,0.015276260391250253
1772611436968389000,2.84638916015625,0.052099605071544645,-0.010290087742824108,0.016098783154739067
1772611436978386000,2.856385986328125,0.05778466497063636,-0.003973799001798033,0.013370317172072828
1772611436988383000,2.866383056640625,0.048505379971861835,-0.0005210647320374846,0.013259806002303956
1772611436998380000,2.876380126953125,0.06062602587640285,-0.000626826661452651,0.01585646229884587
1772611437008377000,2.886377197265625,0.05538637165725231,-0.006246310511045157,0.010972535315342247
1772611437018375000,2.896375,0.03937397901117801,0.0023194011245854197,0.023814408166520296
1772611437028372000,2.9063720703125,0.055388125222921365,-0.007394950823206454,0.015355243911594152
1772611437038369000,2.916369140625,0.06257014568150043,-0.005842643347289413,0.01760413708323613
1772611437048366000,2.926365966796875,0.05224573554396629,-0.008861863304302095,0.014182784332428127
1772611437058363000,2.93636279296875,0.05239478862583637,-0.007653455628920346,0.020264944657171144
1772611437068360200,2.946360107421875,0.046106502136588096,-0.009525734040513633,0.00995732125765644
1772611437078357000,2.95635693359375,0.043265141230821605,-0.00431968983002007,0.0137549325754866
1772611437088355000,2.96635498046875,0.04954933606684207,-0.00821293440889567,0.002661227699043229
1772611437098351900,2.976351806640625,0.050149640047550195,-0.008038052766025067,0.006975556367356329
1772611437108349200,2.98634912109375,0.06242109259963035,-0.011477032505068928,0.0008823083930183202
1772611437118346000,2.996345947265625,0.05449088412225246,-0.005986143471207469,0.009661041724821552
1772611437128343000,3.006343017578125,0.053743865147233005,-0.0023910598549991844,0.01064392441548407
1772611437138340000,3.016340087890625,0.0582318242162466,-0.006249671511910856,0.01406808104473166
1772611437148338200,3.026338134765625,0.057332829549908634,-0.010758563771098852,0.007208579671941697
1772611437158335000,3.0363349609375,0.05313946951329708,0.0014939831511117517,0.016147316737892107
1772611437168332000,3.04633203125,0.04505845438838005,-0.001619545759540051,0.017325676334882155
1772611437178329000,3.0563291015625,0.06121697750687599,-0.0024380408018827436,0.005459808909008279
1772611437188326000,3.066325927734375,0.06061842709183692,0.004006422629766166,0.011576812218269332
1772611437198323000,3.076322998046875,0.058223056387901304,-0.0015216931419447064,0.010337890673615038
1772611437208320000,3.086320068359375,0.04879588735103607,-0.0012780023128725587,0.003857552210986614
1772611437218318000,3.096318115234375,0.052238136759400366,-0.008524119249917566,0.004566851257812232
1772611437228315000,3.10631494140625,0.05044073194861412,-0.0022911796770989892,0.013801447731489315
1772611437238312000,3.11631201171875,0.05044014742672443,-0.013808398062083869,0.00717599257659167
1772611437248309000,3.12630908203125,0.05418459465205669,-0.009464998562913388,0.00708421350675635
1772611437258306000,3.13630615234375,0.03742050685584545,-0.007165672111976891,0.002646340657165274
1772611437268302800,3.146302734375,0.0579226121366024,-0.007270812986884266,0.00864306032131426
1772611437278300200,3.156300048828125,0.05777414357662201,-0.007188358867820352,0.006846039103018119
1772611437288298000,3.166298095703125,0.0637614012926817,0.002730484409816563,0.005171338223293423
1772611437298295000,3.176294921875,0.06062076517939567,-0.008009630389139056,0.004428036442166194
1772611437308291800,3.186291748046875,0.052988662865757936,-0.002945022209640592,0.009770913573773576
1772611437318289200,3.1962890625,0.038023733446002,-0.008308777732495219,0.009094640013715252
1772611437328286000,3.206285888671875,0.04700257419347763,-0.005641348621528595,0.0008815412080381065
1772611437338283000,3.216282958984375,0.04460661896765232,-0.0057356393088586624,0.000977786390436813
1772611437348280800,3.22628076171875,0.059869070029258724,-0.00013929887283593417,0.0012991638319101184
1772611437358278100,3.236278076171875,0.05837386303544044,-0.009982410033140331,0.007540533306356519
1772611437368275000,3.24627490234375,0.04161620498001575,-0.00804733205102384,0.00524422079641372
1772611437378272000,3.25627197265625,0.0498445196211338,-0.0056932980044744905,0.005874819450685754
1772611437388269000,3.26626904296875,0.05972001694738865,-0.00835124690104276,0.01916455480037257
1772611437398266000,3.27626611328125,0.06914309433102607,-0.009068930183723569,0.021794236583681775
1772611437408263000,3.286262939453125,0.05866904658973217,-0.0014617065830156207,0.01938880114345811
1772611437418261000,3.296260986328125,0.03742050685584545,-0.006168276838771998,0.02649391130777076
1772611437428258000,3.306258056640625,0.04819382980465889,-0.001941379858739674,0.022332097186893222
1772611437438255000,3.316255126953125,0.055526072388887404,-0.002593468825612217,0.028552825732110067
1772611437448252000,3.326251953125,0.05597206259071827,-0.008028682149481027,0.02489180987337604
1772611437458249200,3.336249267578125,0.04804419220089912,-0.00506431591855362,0.028793338223407045
1772611437468246000,3.34624609375,0.046996728974580765,-0.00205841210084036,0.019549645127821712
1772611437478242800,3.356242919921875,0.04789221650958061,-0.0036134777894243596,0.02652022392596118
1772611437488241000,3.366240966796875,0.06031564475297928,-0.003219984959810972,0.01382562319152057
1772611437498238200,3.37623828125,0.07064122393429279,-0.0040037740149535235,0.012489068224979563
1772611437508235000,3.386235107421875,0.0642050534069538,0.0013880750912241638,0.012068395127495751
1772611437518232000,3.396232177734375,0.032331074762344356,-0.00940594358574599,0.002827697706595063
1772611437528229000,3.40622900390625,0.041158524340391155,-0.010353216106910259,0.011842596148140727
1772611437538226000,3.416225830078125,0.04519815512001514,-0.011834321510139852,-0.0038872532295063135
1772611437548224000,3.42622412109375,0.06794014828205108,-0.006144347973912954,-0.001373745171772316
1772611437558221000,3.436220947265625,0.045942251485586165,-0.005863119879737496,-0.0026718038919847456
1772611437568218000,3.446218017578125,0.06464812099933624,-0.003770823775604367,-0.008427700537582858
1772611437578215000,3.45621484375,0.05327332502603531,0.0009366597956046461,-0.0016017726408317685
1772611437588212000,3.4662119140625,0.0646451983898878,-0.007247285980824381,-0.00862392636258155
1772611437598209000,3.476208984375,0.04638999525308609,-0.014389705081377177,-0.005996673998376354
1772611437608207000,3.48620703125,0.05821078142821789,-0.007803769086115062,-0.004540127647668123
1772611437618204000,3.496203857421875,0.05432254181802273,-0.009970262937620282,0.006443038659542799
1772611437628201000,3.506200927734375,0.06464402934610844,-0.006411437944881617,0.007562370678829029
1772611437638198000,3.516197998046875,0.07346797179281711,-0.004975486857630313,0.00814417088846676
1772611437648195000,3.526195068359375,0.040996027255058284,-0.01324537561815232,0.00582223988007754
1772611437658192100,3.536192138671875,0.03740180215537548,-0.01726217351146042,0.0032786472113337365
1772611437668189000,3.54618896484375,0.022739655074477193,-0.014639898716472088,0.002440616351459175
1772611437678187000,3.55618701171875,0.04773381107747555,-0.010506525238789617,0.013617962657054885
1772611437688184000,3.56618408203125,0.0773638101875782,-0.004970025231223553,0.008940554563701152
1772611437698181000,3.57618115234375,0.07122516130208968,0.002850914185401052,0.011631720743281766
1772611437708178000,3.586177978515625,0.04638590359985828,-0.0009767360776662827,0.016998371476121245
1772611437718175200,3.59617529296875,0.03830898012816906,-0.01304433662071824,0.022645318721374496
1772611437728172000,3.606172119140625,0.061355509194731706,-0.005589070445019752,0.02905125850723125
1772611437738170000,3.616170166015625,0.07077741753458976,-0.0005696165814995766,0.01491561038531363
1772611437748167000,3.6261669921875,0.08528817344605923,0.017479104197770354,0.02209605994131416
1772611437758164200,3.636164306640625,0.049967269217967986,-0.004032853978965432,0.017675266090687362
1772611437768161000,3.6461611328125,0.03739478789269924,-0.0019259448275901377,0.027096498577110467
1772611437778158000,3.656157958984375,0.0451736052006483,-0.013377587163075804,0.02642498339056037
1772611437788155100,3.666155029296875,0.06058569386601448,-0.010027509550191462,0.02033354378081858
1772611437798153200,3.6761533203125,0.056698038777709,-0.0017072240429930388,0.018628109836112707
1772611437808150000,3.68614990234375,0.0423287371635437,-0.004677198030799627,0.011701333647081627
1772611437818147000,3.69614697265625,0.040537177571654315,-0.0051025655697099865,0.004029520377563312
1772611437828144000,3.70614404296875,0.056101241928339,-0.004229874388407916,0.006944320978876203
1772611437838141200,3.71614111328125,0.06029109483361244,-0.007521079687215387,0.012002599882287903
1772611437848138000,3.726137939453125,0.06163724874556064,0.0001774389261379838,0.004265009633870795
1772611437858135300,3.73613525390625,0.056253217619657514,0.003040134880878031,0.0008391999036539346
1772611437868133000,3.746133056640625,0.06493044507205487,-0.0017468071347102522,-0.003437728496873751
1772611437878130200,3.756130126953125,0.06941548153162003,0.0007480966872535646,-0.006999859691550955
1772611437888127000,3.766126953125,0.06013327392339706,-0.0025434739377349614,-0.017879967483086512
1772611437898124300,3.776124267578125,0.05145370838344097,-0.010910502929799257,-0.005357572377240285
1772611437908121000,3.78612109375,0.027060440883040427,-0.004882200817298144,-0.013395789540046825
1772611437918118000,3.796117919921875,0.022270868518948553,-0.013016279570013283,-0.008990859978832304
1772611437928116000,3.806115966796875,0.06940846726894379,-0.0067991403545252975,-0.0043281562642659985
1772611437938113300,3.81611328125,0.06297346578538418,-0.0025233444651588796,-0.009332056365627795
1772611437948110000,3.826110107421875,0.06507073032557964,-0.0023857443590648473,-0.006074150548223405
1772611437958107100,3.836107177734375,0.0460667546480894,-0.0019203553370200097,-0.002760331558808684
1772611437968104200,3.846104248046875,0.05369710339605808,-0.003480663456302136,0.005969785991450771
1772611437978101000,3.85610107421875,0.06267360605597495,-0.004833338440582156,0.011542133630532771
1772611437988099000,3.86609912109375,0.049507250490784645,-0.004957476276904345,0.0032680344857741145
1772611437998096100,3.87609619140625,0.06955810487270354,0.0022877090783789754,0.009172280960343778
1772611438008093200,3.88609326171875,0.05953121637701988,-0.0029032106282189485,0.014992420214880257
1772611438018090000,3.896090087890625,0.07060556809902191,-0.00398990988638252,0.01618947537918575
1772611438028087000,3.906087158203125,0.034544074636697765,-0.0038644203431904313,0.008174620825657621
1772611438038084000,3.916083984375,0.03439560607671738,-0.0068265946170315145,0.013932417167397215
1772611438048082200,3.926082275390625,0.05295242250859737,-0.00673056863034144,0.030164891438093033
1772611438058079000,3.936078857421875,0.06208206990361213,0.0033051972915418442,0.021407310492172836
1772611438068076000,3.946075927734375,0.07390227155685425,-0.0002668342426419258,0.018679849156504495
1772611438078073000,3.956072998046875,0.02945873419642448,-0.010378387080784887,0.01761995570687577
1772611438088070100,3.966070068359375,0.06058277125656605,-0.013212277066148817,0.02089261156884022
1772611438098067000,3.97606689453125,0.04217734599411487,-0.0004680924357846379,0.02000962732238695
1772611438108064300,3.986064208984375,0.08048164994716644,-0.0056172005609609185,0.017690171398874372
1772611438118062000,3.99606201171875,0.05130114817023277,-0.000730067840218544,0.01860712184701115
1772611438128059100,4.00605908203125,0.04741173951625824,-0.0030592231738381086,0.02605711819254793
1772611438138056000,4.016055908203125,0.0652162762761116,-0.011460154435504227,0.0257583635748364
1772611438148053200,4.02605322265625,0.07509235812425613,-0.0035567426335066554,0.019442257496900855
1772611438158050000,4.036050048828125,0.052044075492024416,-0.007113375669158995,0.01398724349401891
1772611438168047000,4.046047119140625,0.05413958646655082,-0.005793379111774266,0.009366771485982462
1772611438178045000,4.056044921875,0.027354455393552777,-0.008412183308042585,0.008073891264386474
1772611438188042200,4.066042236328125,0.028104981499910354,-0.019077771566063165,0.018032609894685445
1772611438198039000,4.0760390625,0.0682090283513069,-0.00521965261073783,0.004710360514884815
1772611438208036000,4.0860361328125,0.032146950367093086,-0.014135657255072145,0.009439553594402968
1772611438218033200,4.096033203125,0.056389411219954486,-0.009918788478709757,0.01536070553800091
1772611438228030200,4.1060302734375,0.07254676529467105,0.002057900644186884,0.01093688861322589
1772611438238028000,4.116028076171875,0.059978375622630115,-0.006801624572556466,0.004106841663783416
1772611438248025000,4.126025146484375,0.051449032208323475,-0.006089001057483255,0.015453973312024026
1772611438258022100,4.136022216796875,0.05219605118334293,0.001405811677314341,0.006854615135118365
1772611438268019200,4.146019287109375,0.09244213685393333,0.003141695559211075,0.005812458271579816
1772611438278016000,4.15601611328125,0.04111351615488529,0.002242280767764896,0.014464405152248217
1772611438288013300,4.166013427734375,0.047991585230827326,0.0039048436851240693,0.007911512910062446
1772611438298011100,4.17601123046875,0.056819619330763814,-0.004738572829216719,0.0026750370286870748
1772611438308008200,4.18600830078125,0.03721650871634483,-0.011772490053996443,-0.001579633874259889
1772611438318005000,4.1960048828125,0.05113280586600304,-0.011324600156024097,0.016094746300438417
1772611438328002300,4.206002197265625,0.03766834413707256,-0.010681973137240857,-0.0009161284642294049
1772611438337999000,4.2159990234375,0.06145896956920623,0.0024024032329209148,0.010001023402065039
1772611438347996000,4.225995849609375,0.06804536222219466,0.0017256912814453244,0.006889047127682716
1772611438357994000,4.235993896484375,0.0634036738961935,-0.0008783172044903039,0.005000740029895678
1772611438367991300,4.2459912109375,0.06744038206636906,-0.001439147691335529,0.009036763213481753
1772611438377988000,4.255988037109375,0.012524550530314444,-0.006787175922095775,0.002275616781786084
1772611438387985200,4.265985107421875,0.057117725494503974,-0.0047804757421836255,0.0037392869930248703
1772611438397982200,4.275982177734375,0.0740261901974678,0.004861559888068586,-0.002948766802996397
1772611438407979000,4.28597900390625,0.04320318191051483,0.0026179639460518953,-0.007009997493075206
1772611438417977000,4.29597705078125,0.07342763978242874,-0.00302716580145061,-0.004853814973030239
1772611438427974100,4.30597412109375,0.03856149358451366,-0.0038956374653615054,-0.007701806548982859
1772611438437971200,4.31597119140625,0.06175707573294639,0.0026469525785185397,-0.008251814247714356
1772611438447968000,4.325968017578125,0.03766425248384476,-0.00603968202304095,0.0009739321992266923
1772611438457965000,4.335965087890625,0.04065817360281944,-0.005212437418662012,-0.0008531827632337808
1772611438467962000,4.345962158203125,0.058463879406452174,0.005278762386832386,0.003291132233571261
1772611438477960200,4.355960205078125,0.08464987554252147,0.010990637227613478,0.010324145276052877
1772611438487957000,4.36595703125,0.03108136696219444,-0.008762622447218746,0.0065229811611119655
1772611438497954000,4.3759541015625,0.01821370208263397,-0.009994648460205644,0.012235595787409691
1772611438507951000,4.385951171875,0.03797288004159927,-0.017509572401270268,0.016084690697304904
1772611438517948200,4.3959482421875,0.07314063953459263,-0.009964801311213523,0.014540392997907475
1772611438527945000,4.405945068359375,0.050993689656257626,0.004286025022435933,0.00014524455643258989
1772611438537943000,4.415943115234375,0.05667816503345966,0.00524166351314634,0.017287554547889158
1772611438547940000,4.425940185546875,0.05997136135995388,0.004209123861324042,0.020824560434464363
1772611438557937200,4.435937255859375,0.05279167898893356,0.004579820337239653,0.015254943608585744
1772611438567934000,4.445933837890625,0.047404725253582,-0.0072126165262423455,0.019764822248462585
1772611438577931300,4.45593115234375,0.06580781242847442,-0.008922470917738973,0.016422325153835116
1772611438587928000,4.465927978515625,0.048747372034192084,-0.0037021241872571406,0.017831726160878313
1772611438597926100,4.475926025390625,0.08735328928232193,-0.0024437033576890825,0.018328624566039068
1772611438607923000,4.4859228515625,0.0361766442745924,-0.0038045616484247147,0.01572497227312997
1772611438617920300,4.495920166015625,0.0518880081474781,-0.004960453685279935,0.03189618134326301
1772611438627917000,4.5059169921875,0.04066518786549568,-0.002613525232952088,0.02586148602259345
1772611438637914000,4.5159140625,0.0592208352535963,-0.004320913672726601,0.022202333327382803
1772611438647911200,4.5259111328125,0.04410860631763935,0.005637640560790896,0.02581866979417391
1772611438657909200,4.5359091796875,0.06415653809010982,-0.0006557239623740315,0.019313425219152122
1772611438667906300,4.54590625,0.07627484590709209,-0.004307579267118126,0.012830785201583057
1772611438677903000,4.555903076171875,0.06849544407725333,-0.001972231654729694,0.01737209102618508
1772611438687900400,4.565900390625,0.047694648110866544,-0.00852779077803716,0.014755743648484348
1772611438697897200,4.575897216796875,0.03961538655161857,-0.015417915617953986,0.011073392740776762
1772611438707894300,4.585894287109375,0.0595171878516674,-0.0034076895516365765,0.0049817522016353906
1772611438717892000,4.59589208984375,0.036923663249611854,-0.004751158316154033,-0.003125794737180695
1772611438727889400,4.605889404296875,0.06296235986948014,0.0025573745989240703,0.0002694554579909891
1772611438737886200,4.61588623046875,0.033035423639416694,0.0026890564208850265,-0.006461104039195925
1772611438747883300,4.62588330078125,0.06655366235971451,-0.009839092572312802,-0.004355309132672846
1772611438757880300,4.63588037109375,0.05533142659962177,-0.005089760887064039,-0.004984638278465718
1772611438767877400,4.64587744140625,0.05114098917245864,0.0013397424374707043,-0.006075483988784253
1772611438777875200,4.655875244140625,0.052335751914978024,0.0035537652251310644,-0.005024888090463355
1772611438787872300,4.665872314453125,0.03946808703541756,-0.003967606723029166,-0.0024471374237909913
1772611438797869300,4.675869384765625,0.059070028606057166,-0.004187770546041429,-0.009021328182332217
1772611438807866400,4.685866455078125,0.05443477002084255,-0.007553045728057622,-0.0001904993371106684
1772611438817863200,4.69586328125,0.05413491029143333,-0.003206632287893444,-0.0014075926424469798
1772611438827860500,4.705860595703125,0.04740121812224388,-0.0071141245878301555,0.008311956070270389
1772611438837858300,4.7158583984375,0.07343933022022246,0.004000796606577933,0.0023398685238789764
1772611438847855400,4.72585546875,0.039024434921145434,-0.0036551249740645287,0.007659894502861425
1772611438857852200,4.73585205078125,0.03797814073860645,-0.009482278491277247,0.013577694578748195
1772611438867849500,4.745849365234375,0.08511340140104293,-0.006294387436471879,0.004778977904841304
1772611438877846300,4.75584619140625,0.045158407631516455,0.00461153064975515,0.006715635922690853
1772611438887843000,4.765843017578125,0.07673311106860638,-0.004643807217851281,0.006372813834389672
1772611438897841200,4.775841064453125,0.05189268432259559,-0.006076671298872679,0.016427942043868823
1772611438907838500,4.78583837890625,0.06461012707650661,-0.005555825762543827,0.02433084238921292
1772611438917835300,4.795835205078125,0.06521276914477347,-0.007515453664027154,0.021108428010297938
1772611438927832000,4.80583203125,0.0625192922770977,-0.0166001111398451,0.027470017197774723
1772611438937829400,4.815829345703125,0.054288639548420906,-0.0050318932199850674,0.024490718259196728
1772611438947826200,4.825826171875,0.03348959714770317,-0.008033321791980415,0.020031903086276722
1772611438957824300,4.83582421875,0.0783832163631916,-0.0021823490077629683,0.020903370424872263
1772611438967821000,4.845821044921875,0.04396422941088676,-0.0038561457051895557,0.02493364885426126
1772611438977818400,4.855818359375,0.09079904582202435,-0.002636540782358497,0.022324635399645194
1772611438987815200,4.865815185546875,0.05697860928475856,0.00675804115915671,0.012693404291197656
1772611438997812200,4.875812255859375,0.0325865108281374,-0.004913326607923954,0.018458023099368438
1772611439007809300,4.885809326171875,0.03453121515512466,-0.002052859142888337,0.008556085290759801
1772611439017807400,4.895807373046875,0.06789630914032459,0.001705415678396821,0.017323995834449307
1772611439027804200,4.90580419921875,0.03542202651500702,-0.014090411607548594,0.015842789966519923
1772611439037801200,4.91580126953125,0.07881634708344935,-0.009072199853044003,0.011118775385618208
1772611439047798300,4.92579833984375,0.05367781417369842,-0.00005317322565242648,0.010327077018655836
1772611439057795300,4.93579541015625,0.05816401967704296,0.0075652293561957774,0.007000910004321485
1772611439067793200,4.945793212890625,0.06025485447645187,0.003475987281184643,0.012533784149540587
1772611439077790200,4.955790283203125,0.02569207513928413,-0.0009767178113572299,0.012920856371521948
1772611439087787300,4.965787353515625,0.04574409856498241,-0.014906769491732119,0.01981572131863795
1772611439097784300,4.975784423828125,0.06445113712251185,-0.0033629553607665,0.001560271586664021
1772611439107781000,4.985781005859375,0.06714578303396701,-0.0011739756828173995,0.0006882927914150059
1772611439117778200,4.995778076171875,0.05831716441214084,0.002737937063910067,0.014622171263536437
1772611439127776300,5.0057763671875,0.055772156104445456,-0.0029616445508785544,-0.005815983669226989
1772611439137773300,5.015773193359375,0.04889116441905498,0.0005334127569571137,0.0006565824788995087
1772611439147770000,5.02577001953125,0.04454992034435272,0.0012507307134568691,0.0141203226886224
1772611439157767200,5.03576708984375,0.05233166026175022,-0.001583615929633379,-0.003059341904846951
1772611439167764200,5.04576416015625,0.09183306504487991,-0.0031880919842049477,0.004480031490884721
1772611439177761300,5.05576123046875,0.09841302795708179,0.00012439356464892626,0.0008223035677801817
1772611439187759000,5.065759033203125,0.01700724890232086,0.004828205607738345,-0.005111625659000129
1772611439197756400,5.07575634765625,0.02149637701511383,0.0012306560398079455,0.008134087885869666
1772611439207753200,5.085753173828125,0.0026437925070524216,-0.011810429177898913,-0.0012140610980335622
1772611439217750300,5.095750244140625,0.06983224563896656,-0.0034633104627020653,0.0012220708745531736
1772611439227747300,5.105747314453125,0.08120294995903968,0.000702997170202434,0.0028992925049271434
1772611439237745400,5.115745361328125,0.0550163693010807,-0.0028492336849682033,0.0032332736996468154
1772611439247742200,5.1257421875,0.0598047726213932,-0.0053155324669554825,0.010503319501550867
1772611439257739300,5.1357392578125,0.02030044522881508,-0.004218129151687026,0.001434151855809614
1772611439267736300,5.145736328125,0.07417056710422039,0.007196615239512175,0.004396490526432172
1772611439277733400,5.1557333984375,0.04648702588677406,-0.004112513352744281,0.009351610449468717
1772611439287730200,5.165730224609375,0.05456511840224266,-0.00952597150253132,0.012191573982592671
1772611439297728300,5.175728271484375,0.058604164659976955,-0.004039685578551143,0.012851809723302722
1772611439307725300,5.185725341796875,0.040347792479395864,-0.012545374122634529,0.008214943702891468
1772611439317722400,5.195722412109375,0.05546002141535282,0.004778758709132671,0.0037771347853820768
1772611439327719200,5.20571923828125,0.04797580313980579,0.0062228748365305364,0.01495439889258705
1772611439337716200,5.21571630859375,0.04752279867529869,0.0006477781179361045,0.015578138547809794
1772611439347713300,5.22571337890625,0.050668695485591886,-0.0013995280670002102,0.013722656007390468
1772611439357711400,5.23571142578125,0.04991992294490337,-0.0031118301439099012,0.011108820247184485
1772611439367708200,5.245708251953125,0.062490066182613366,-0.0026597572611644863,0.015490962587855756
1772611439377705200,5.255705322265625,0.05485854839086532,0.003569181989971548,0.006019342487910762
1772611439387702300,5.265702392578125,0.07550853770971298,0.001321311731636524,0.018142280814237893
1772611439397699300,5.27569921875,0.040493338429927826,0.001444170926325023,0.008073270209878683
1772611439407697200,5.285697265625,0.053662616604566574,-0.0022256766928359863,0.020650144582474602
1772611439417694200,5.295694091796875,0.05261690694391727,0.003943495195079595,0.00973890186715871
1772611439427691300,5.305691162109375,0.07012216849625111,0.0024382234649732706,0.005689863938372582
1772611439437688300,5.315688232421875,0.04617839832901954,-0.0009436375256627798,0.0030987697329372165
1772611439447685000,5.32568505859375,0.06024784021377563,0.005353307194076478,0.013348982123099267
1772611439457682200,5.33568212890625,0.035708442240953445,-0.006951828431896865,0.012335028440738097
1772611439467678200,5.34567822265625,0.08030220172703266,0.0013338424196466803,0.012038255717558786
1772611439477675300,5.35567529296875,0.048878304937481874,-0.000047163609974086285,0.00798089748499915
1772611439487673300,5.36567333984375,0.06653729574680328,0.0017009039000608025,0.00519102930445224
1772611439497670100,5.375670166015625,0.04843173021376133,0.0073000390813685945,0.003615094357775524
1772611439507667200,5.385667236328125,0.05696107362806797,0.005944240558240562,0.010345142398308962
1772611439517664300,5.395664306640625,0.04977846864759922,-0.007117467322386801,0.006544845933048054
1772611439527661300,5.405661376953125,0.04678337848484516,-0.009638948624022304,0.005980398717010393
1772611439537659100,5.4156591796875,0.05261807598769665,-0.0055269649942405515,0.0004419716138392687
1772611439547656200,5.42565625,0.0527636219382286,-0.0072518160254694515,0.0010036514840554445
1772611439557653200,5.4356533203125,0.04812310265600681,-0.006505198909249156,0.0031042496256530284
1772611439567650300,5.445650390625,0.050367666712403295,-0.0004053659304976463,0.010394717161078005
1772611439577647000,5.455647216796875,0.07221826399266719,0.0003248480401933193,0.01535607502865605
1772611439587644400,5.46564453125,0.035709611284732816,-0.0036296800055541094,0.0036606779320165514
1772611439597642200,5.475642333984375,0.04169511543512344,-0.005706559344846755,0.013138472044421359
1772611439607639300,5.485639404296875,0.044538229906558986,0.004720379585400223,0.000324062588904053
1772611439617636000,5.495635986328125,0.06668167265355586,0.008023183990456163,0.0028998130947351453
1772611439627633400,5.50563330078125,0.07356324886083603,0.005212839277461171,0.008813357120612635
1772611439637630200,5.515630126953125,0.04947334822118282,0.0013736081744544206,0.004299167631799355
1772611439647628300,5.525628173828125,0.05441255818903446,-0.0015064590401947498,0.005377208659471944
1772611439657625000,5.535625,0.07356091077327728,-0.004497165288776159,0.01241414895839989
1772611439667621600,5.54562158203125,0.028071663752198217,0.00047198315961286425,0.010522837052773683
1772611439677618400,5.555618408203125,0.03256137638688087,-0.0022847864689305424,0.004790193418599665
1772611439687615700,5.56561572265625,0.053959553724527355,0.001286057755164802,0.015700477152690292
1772611439697612500,5.575612548828125,0.04213993659317493,-0.009216211433615534,0.014159138595359399
1772611439707610600,5.585610595703125,0.06578326250910758,0.005628087281156331,0.007587505120085552
1772611439717607400,5.595607421875,0.04663198731541633,-0.003412749319244176,0.005424098274810239
1772611439727604700,5.605604736328125,0.058602411094307895,0.0022994177824817597,0.013644448805181309
1772611439737601500,5.6156015625,0.050970308780670166,0.0004784676993265748,0.022103813989507032
1772611439747598600,5.6255986328125,0.05500584790706634,-0.0005177950627170502,0.00815155961047858
1772611439757596400,5.635596435546875,0.07281096918880939,0.0018472718345001339,0.015797863979404792
1772611439767593700,5.64559375,0.04946399587094784,0.0007764459989033638,0.008678624825039878
1772611439777590500,5.655590576171875,0.004423077139258384,0.00012905147345736623,0.012974559320136903
1772611439787587600,5.665587646484375,0.054552843442559236,0.001878379358816892,0.019400838641123845
1772611439797584600,5.675584716796875,0.05470365009009838,-0.008139065455086528,0.012876423574751243
1772611439807581400,5.68558154296875,0.07041267587542534,0.004288582305703312,0.012584774551261215
1772611439817579500,5.69557958984375,0.025672201395034788,-0.01249939782274887,0.007074377099331468
1772611439827576600,5.70557666015625,0.07071604273617267,-0.008020151783153415,0.01560511788628064
1772611439837573600,5.71557373046875,0.03644961599707603,0.002390164805855602,0.018417764154216275
1772611439847570400,5.7255703125,0.07416004571020603,-0.002204926165752113,0.01554807220310904
1772611439857567500,5.7355673828125,0.05470540365576744,0.00335451632598415,0.007261296239867806
1772611439867565600,5.745565673828125,0.06966682594418526,0.0025538309349678453,0.01274848634614609
1772611439877562600,5.755562744140625,0.05724515126645565,0.006546261571999639,0.00841400080579333
1772611439887559400,5.765559326171875,0.03390168507993221,-0.007087930700648576,0.013047304895939305
1772611439897556500,5.775556396484375,0.043029578909277916,-0.006230345756933093,0.01748410003329627
1772611439907553500,5.785553466796875,0.05276011480689048,-0.005176544121373444,0.01622551480694674
1772611439917550600,5.795550537109375,0.05470598817765712,-0.0036958040443249044,0.017906270968122407
1772611439927548700,5.805548583984375,0.06652502078711986,-0.003666230889968574,0.010439816678129136
1772611439937545500,5.81554541015625,0.04333411481380462,0.0023976905251853167,0.01637944499333389
1772611439947542500,5.82554248046875,0.07041793657243252,0.0037664581277407705,0.00979479677285999
1772611439957539600,5.83553955078125,0.05380757803320885,0.0017153160179033875,0.006374585666367784
1772611439967536400,5.845536376953125,0.04558101695775985,-0.0002681676832027733,0.008042518878588452
1772611439977534500,5.855534423828125,0.07401157715022563,-0.004248323360551148,0.01003530013100244
1772611439987531500,5.865531494140625,0.03809738320410251,0.002196815924532711,-0.0005220693790353834
1772611439997528600,5.875528564453125,0.045727731952071186,0.0011686419205740094,0.0021219149242620913
1772611440007525400,5.885525390625,0.03600128770768642,-0.0046824039288796485,0.004492242518486455
1772611440017522700,5.895522705078125,0.05590133544206619,-0.00265431390106678,0.002686544803390279
1772611440027519500,5.90551953125,0.05066109670102596,0.00048192003173753615,0.011788792734825982
1772611440037517600,5.915517578125,0.08388006021380424,0.0006644004591740667,0.0074632759522181
1772611440047514400,5.925514404296875,0.05993629004657268,0.006861720729339867,0.0060894759815186255
1772611440057511700,5.93551171875,0.06113105278909206,0.0011742314111441374,0.012050603742478414
1772611440067508500,5.945508544921875,0.06187807176411152,-0.001896810064651072,0.012054001275962218
1772611440077505500,5.955505615234375,0.05828501570820808,-0.003349986281339079,0.010401137768710031
1772611440087503400,5.96550341796875,0.035087679994106294,-0.002372647415474057,0.01489387347754091
1772611440097500700,5.975500732421875,0.03359247300028801,-0.003188822636567056,0.01741300755846314
1772611440107497500,5.98549755859375,0.05529051006734371,-0.004615129112638533,0.009428584675816818
1772611440117494500,5.99549462890625,0.03853168296813965,-0.0025584157785400745,0.0002989007481839508
1772611440127491600,6.00549169921875,0.08551789054870605,-0.0030060682144947347,0.008984457637509331
1772611440137488600,6.015488525390625,0.05693477014303207,-0.0014952252601273357,0.006179163558967411
1772611440147486500,6.025486572265625,0.06980185050070285,-0.008620784557424484,0.004780804535746574
1772611440157483500,6.0354833984375,0.04959902042746544,-0.0019675737459212543,0.006706429702928289
1772611440167480600,6.04548046875,0.06126724638938903,0.00859448107238859,0.01405358672849834
1772611440177477600,6.0554775390625,0.051237435284256935,0.0049978265536017715,0.018152181153744458
1772611440187474400,6.065474365234375,0.05602759217023849,-0.0024486535274423657,0.015449708128860219
1772611440197472500,6.075472412109375,0.0549772063344717,-0.00267449817257002,0.007555027622589841
1772611440207469600,6.085469482421875,0.039865561920404434,0.003236625567357987,0.009804459650348872
1772611440217466600,6.095466552734375,0.06036766720116138,-0.0008021284294314682,0.013237393241096287
1772611440227463400,6.10546337890625,0.06575403641462325,-0.004558887147065252,0.007962676841719075
1772611440237460700,6.115460693359375,0.08355857317447662,0.005254230733774602,0.007618119454057886
1772611440247458600,6.12545849609375,0.023403671941161153,0.0034081096767447886,0.007819697307609022
1772611440257455600,6.13545556640625,0.035227380725741386,-0.0054751982743851835,0.017738047394901514
1772611440267452400,6.145452392578125,0.06336158832013607,-0.0023128983185626566,0.011315640531433746
1772611440277449700,6.15544970703125,0.056629649716615674,-0.0018653189478442071,0.007949296770337969
1772611440287446500,6.165446533203125,0.05902385137677192,-0.006592018676176667,0.011280961943697184
1772611440297443600,6.175443603515625,0.042265608799457545,-0.004226275925524533,0.01654206994283013
1772611440307441400,6.18544140625,0.06815408329367638,0.0014109993090853095,0.006552508649695664
1772611440317438700,6.195438720703125,0.052744917237758634,-0.005419376433920115,0.00022842019470408558
1772611440327435500,6.205435546875,0.057682958161830895,0.0006558518265374004,0.007352490787813439
1772611440337432600,6.2154326171875,0.06217150175273418,0.0012039141633547843,0.0017170787167269735
1772611440347429600,6.2254296875,0.056336219727993006,-0.0074561794911511235,-0.002144546881178394
1772611440357427700,6.235427734375,0.062469023394584655,-0.0025335370656102895,-0.0019982063462026414
1772611440367424500,6.245424560546875,0.03613105156719684,-0.0010386405990459025,0.005382725084805861
1772611440377421600,6.255421630859375,0.06276537599265575,0.005594988729152828,0.00731968449675478
1772611440387418600,6.265418701171875,0.06934767699241638,-0.0006584639087319373,0.00843736341507174
1772611440397415700,6.275415771484375,0.05827274074852466,-0.004754062659293413,0.006041782648582011
1772611440407413500,6.28541357421875,0.0573737460821867,-0.0005071823371574283,0.009790741652250289
1772611440417410600,6.29541064453125,0.039866146442294116,-0.004122578089032322,0.008120835678651928
1772611440427407600,6.30540771484375,0.04630114792585373,-0.005868983364943414,0.002685859816800803
1772611440437404700,6.31540478515625,0.06126666186749935,-0.006086114980652928,0.011526123210648075
1772611440447401500,6.3254013671875,0.05004325706362724,-0.004995177938789129,0.006168212906690314
1772611440457399600,6.335399658203125,0.07248714406192303,-0.003852145383507013,0.012608365489402786
1772611440467396600,6.345396728515625,0.0657522828489542,0.010556647990830241,0.006117204238660633
1772611440477393700,6.3553935546875,0.05213584542870521,-0.0005402626228518784,0.004358670133538544
1772611440487390500,6.365390380859375,0.04989303493797779,-0.0022500804817304015,0.0032007322700694204
1772611440497387500,6.375387451171875,0.053934419283270835,0.00015509923016652463,0.002213730526715517
1772611440507385600,6.385385498046875,0.0654553457289934,-0.002136756300367415,0.007195455328887328
1772611440517382700,6.395382568359375,0.06321078167259693,-0.0013094934296794235,0.004718014098377898
1772611440527379500,6.40537939453125,0.04525368469953537,0.00058435749290511,0.00537994860582985
1772611440537376800,6.415376708984375,0.04420388338565826,-0.00008183306455612182,0.00010283931996673344
1772611440547373600,6.42537353515625,0.050938744598627086,-0.007769574555568396,0.0045941319903824475
1772611440557370400,6.435370361328125,0.05572890148460865,-0.001778480914607644,0.012033506477205082
1772611440567368400,6.445368408203125,0.04120937774479389,-0.004460577871743589,0.011792172002000733
1772611440577365800,6.45536572265625,0.053479076731204986,0.002030154120735824,0.004194912672881037
1772611440587362600,6.465362548828125,0.045700259423255916,0.0015337123733013868,0.013851177757885306
1772611440597359400,6.475359375,0.06380757852196693,-0.002731854382995516,0.011914848533598706
1772611440607356700,6.485356689453125,0.057822658893465995,-0.007528221814054995,0.007294212128780782
1772611440617354800,6.495354736328125,0.0612643237799406,-0.006098097679391503,0.00914205021886155
1772611440627351600,6.5053515625,0.03477905243635177,-0.00023094094535335897,0.01115513447378762
1772611440637348400,6.515348388671875,0.04809270751774311,-0.004156096766144037,0.00683294215942733
1772611440647345700,6.525345703125,0.05332827008366584,-0.002004088097717613,0.0057388176466338335
1772611440657342500,6.535342529296875,0.07577566421329975,0.0022275398563593625,0.017834877099189905
1772611440667341300,6.54534130859375,0.03567220188379287,-0.0008839797602966427,0.011555303639359771
1772611440677338400,6.55533837890625,0.0585673397809267,0.004453636674303561,0.0116746374364011
1772611440687335200,6.565335205078125,0.04255611617863178,-0.0012336151818744838,0.0007602529159281402
1772611440697332500,6.57533251953125,0.07278174309432506,0.004526500981114804,0.004036151047749445
1772611440707329300,6.585329345703125,0.038215456625819204,-0.002554305859003216,-0.003054921458056196
1772611440717327400,6.595327392578125,0.05467734660506248,-0.0013179872633889316,0.0014122870838735252
1772611440727324200,6.60532421875,0.08804536319971085,-0.008776450043171643,0.003189133163820952
1772611440737321500,6.615321533203125,0.027736732709407803,-0.009061806323193013,0.002930144300917163
1772611440747318300,6.625318359375,0.058114919838309284,-0.00450810680789873,0.00519133069855161
1772611440757315300,6.6353154296875,0.061706806850433345,0.004874693364277482,0.011787459294265135
1772611440767313200,6.645313232421875,0.04389934748113155,-0.002020783504191786,0.011877457398967816
1772611440777310500,6.655310546875,0.06559738454818725,-0.0021980580335482953,0.002743161228299141
1772611440787307300,6.665307373046875,0.04524667043685913,0.002200304789561778,0.00996130331302993
1772611440797304300,6.67530419921875,0.05303191748559475,-0.006692081517167389,0.005358905817801132
1772611440807301400,6.68530126953125,0.05138473480045795,-0.003522822097595781,0.003984082933794707
1772611440817298200,6.695298095703125,0.048392567247152324,-0.0017458755529485641,-0.0006256210850551724
1772611440827296300,6.705296142578125,0.0726361971437931,-0.008295278930105269,-0.0005955730066634714
1772611440837293300,6.715293212890625,0.05018412683904171,-0.008282583845313638,0.00037167372344993054
1772611440847290400,6.725290283203125,0.06439677658677101,0.006417155299615115,0.0083170889031142
1772611440857287200,6.735287109375,0.06439736110866069,0.010054434089735149,0.0011957947889808564
1772611440867284200,6.7452841796875,0.05556815796494484,-0.002653254455141723,0.0036808987361378965
1772611440877282300,6.7552822265625,0.04703647646307945,-0.008973287789523601,-0.004425214297417551
1772611440887279400,6.765279296875,0.0477881716132164,-0.001000427480507642,-0.001042458257637918
1772611440897276200,6.775276123046875,0.06544423981308936,0.00013126169685274362,-0.0010361381147056818
1772611440907273200,6.785273193359375,0.05631809954941273,-0.011068232508469372,0.0059863444006070495
1772611440917270300,6.795270263671875,0.05662029736638069,-0.007980112033709883,0.006545366522856057
1772611440927268400,6.805268310546875,0.056768765926361084,-0.002203610991500318,0.008086796411732211
1772611440937265400,6.815265380859375,0.055870940303802484,0.0005812156877480447,0.004318803914031014
1772611440947262200,6.82526220703125,0.058410687914490694,0.005888418717775494,0.014928615997359156
1772611440957259300,6.83525927734375,0.06993102983832358,-0.0007252455346286297,0.011540517062181605
1772611440967256300,6.84525634765625,0.0802566090196371,-0.005221278312243521,0.008566962877800687
1772611440977254400,6.85525439453125,0.07097907758653163,0.0028129567951895294,0.014335636806581169
1772611440987251200,6.865251220703125,0.04075169710516929,-0.0023522074156440793,0.00944939000182785
1772611440997248300,6.875248291015625,0.03656242872178554,-0.008241849976126104,0.00988910572649911
1772611441007245300,6.885245361328125,0.047186698588728905,-0.007519581849873065,0.014628089547669514
1772611441017242000,6.8952421875,0.04808335516750812,-0.013267021194379777,0.012703551225876434
1772611441027240200,6.905240234375,0.05810849009752273,-0.006799450881779193,0.005398004852328449
1772611441037237200,6.9152373046875,0.06873626709580422,0.006907130773644894,0.0046561095769982784
1772611441047234300,6.925234375,0.05751695394515991,0.01250392786739394,0.006849875027919188
1772611441057231000,6.935231201171875,0.05856266360580921,0.0042504970513284205,0.0006072725776117295
1772611441067228400,6.945228515625,0.041351416563987727,-0.008166099592484533,-0.002507178781647235
1772611441077226500,6.9552265625,0.05182312621772289,0.005218209572322666,0.003646822936600074
1772611441087223300,6.965223388671875,0.05615852507352829,0.005793780970573425,-0.004257849240722134
1772611441097220000,6.97522021484375,0.06288637202382087,0.01048170132478699,0.004000513478787615
1772611441107217400,6.985217529296875,0.061684595018625256,0.003950089332647622,-0.0015062215781770645
1772611441117214200,6.995214111328125,0.04791910451650619,0.00010578019572421908,0.00847780502331443
1772611441127212300,7.00521240234375,0.05435527504384517,-0.00008618044611066579,0.005712715090997517
1772611441137209000,7.015208984375,0.07216390345692635,0.0018843707081861792,0.0020838662025053052
1772611441147206400,7.025206298828125,0.06692892541289329,0.010868344288505614,0.00011160714831203222
1772611441157203200,7.035203125,0.05151566770374775,0.007312003513798117,0.0068218636429868635
1772611441167200300,7.0452001953125,0.0603448708474636,0.0030097580089233815,0.0005983860182575882
1772611441177198000,7.055197998046875,0.055258945885300635,-0.002773556366562843,-0.0037272494953591376
1772611441187195400,7.0651953125,0.06558394054472447,-0.0024676139562390745,-0.0010414992764126508
1772611441197192200,7.075192138671875,0.0589987169355154,-0.003981635248381644,0.0061938496714457865
1772611441207189200,7.085189208984375,0.04822539398670196,-0.000014850509259849785,0.015134385968837887
1772611441217186300,7.095186279296875,0.05361176320016384,-0.007298395113553851,0.007640669212583452
1772611441227184400,7.105184326171875,0.050770986816287035,-0.0002025368347764015,0.01275131762404926
1772611441237181200,7.11518115234375,0.06034662441313266,-0.000974416256416589,0.016410616449732334
1772611441247178200,7.12517822265625,0.06947451824247837,0.0002876761012710631,0.011349497135262936
1772611441257175300,7.13517529296875,0.06962240228056907,-0.004045037607103586,0.0016857793961651622
1772611441267172400,7.14517236328125,0.05301029017567634,-0.0056038296227343375,0.00745754033117555
1772611441277170200,7.155170166015625,0.04986614693105221,-0.004259666738472879,0.0071972728266380724
1772611441287167200,7.165167236328125,0.05540156922638416,0.0073196570972912005,0.011683633593609556
1772611441297164300,7.175164306640625,0.05390577771067619,0.0025011874322779476,0.01781794423069805
1772611441307161300,7.185161376953125,0.05435235243439674,-0.002531198978051543,0.01950833586989902
1772611441317158100,7.195158203125,0.045675124981999396,-0.007791914251539855,0.009729832644714042
1772611441327156200,7.20515625,0.05330547372996807,-0.0031993074979633092,0.015262186200125143
1772611441337153300,7.2151533203125,0.06527648203074932,-0.002775054203905165,0.008368736891960724
1772611441347150300,7.225150390625,0.056743631485104556,0.0067218556009232995,0.005813837377913296
1772611441357147100,7.235147216796875,0.06527180585563182,-0.004901782300602645,0.008637342966580763
1772611441367144400,7.24514453125,0.05299976878166198,-0.002966211128141731,0.0022892982472665605
1772611441377142300,7.255142333984375,0.05913491053581237,0.0015862280118279159,0.003975388170685619
1772611441387139300,7.265139404296875,0.05195581268668174,0.0068481853943318126,0.003458689086511731
1772611441397136100,7.27513623046875,0.05031155261099338,0.002324990615155548,-0.0003828801040537655
1772611441407133400,7.285133544921875,0.052554947623610494,-0.002483578710351139,0.0005735712374094873
1772611441417130200,7.295130126953125,0.0621311697423458,-0.009466733862273395,0.0022355313665699214
1772611441427128300,7.30512841796875,0.05764613328278064,-0.007952091515623032,-0.0014015738936141132
1772611441437125000,7.315125,0.05390402414500713,-0.00109857235904783,0.00120587779157795
1772611441447122400,7.325122314453125,0.047769466912746424,-0.0028761034255847333,0.0015619338207878172
1772611441457119200,7.335119140625,0.06333353126943111,-0.0021359708490781486,-0.003037513665528968
1772611441467116300,7.3451162109375,0.06333470031321048,0.0016611198789440096,-0.008890486610587686
1772611441477114000,7.355114013671875,0.05435644408762454,0.0015045410777442157,0.003831230459641665
1772611441487111400,7.365111328125,0.04837327802479267,0.005850169066619127,0.0011101075332146137
1772611441497108200,7.375108154296875,0.05331541060209274,0.0031581352373585103,-0.00451151347453706
1772611441507105300,7.385105224609375,0.04688391624987125,-0.010827226826827973,0.0023323702040128408
1772611441517102300,7.395102294921875,0.06020517011582851,-0.0004353957425802946,0.0012672799894586206
1772611441527100400,7.405100341796875,0.05541676679551601,0.0007716419596225023,-0.008119456572318448
1772611441537097200,7.41509716796875,0.04509294117987156,-0.007450571734271943,0.0025356650906149295
1772611441547094300,7.42509423828125,0.05152677361965179,-0.008203910852223634,0.005480184976756572
1772611441557091300,7.43509130859375,0.045242578783631325,-0.01136120583936572,0.00671649443921633
1772611441567088400,7.44508837890625,0.0549684385061264,-0.0017725991630926727,-0.003192110572196543
1772611441577086200,7.455086181640625,0.056765843316912645,-0.00036176425078883766,0.0015949593075551092
1772611441587083300,7.465083251953125,0.056468906196951864,0.0013052739122882484,0.004612361766817048
1772611441597080300,7.475080322265625,0.05018178875148296,0.00766205906048417,-0.0014502444740850478
1772611441607077400,7.485077392578125,0.06529343316555022,0.009510390340909362,0.000010813654959201812
1772611441617074200,7.49507421875,0.05556640439927578,-0.009085205465089528,-0.00413535537221469
1772611441627072300,7.505072265625,0.05631342337429523,-0.007001658922992646,-0.000025116174947470425
1772611441637069300,7.5150693359375,0.0560141481667757,0.001572309084329754,0.005414599794102832
1772611441647066400,7.52506640625,0.055416182273626324,0.0046572877539321775,-0.0057089978971052915
1772611441657063200,7.535063232421875,0.05840834982693195,0.0006951243910007178,0.0010841145754326134
1772611441667060500,7.545060546875,0.05795826797187328,-0.006157097857631743,0.0016319120507687329
1772611441677058600,7.55505859375,0.05481821638047695,-0.0013324541801586747,0.0015297942500095813
1772611441687055400,7.565055419921875,0.05601648625433445,0.0001416552267037332,-0.005782903383532539
1772611441697052400,7.575052490234375,0.05886076976954937,-0.004595638960879295,0.0030253939694724974
1772611441707049500,7.585049560546875,0.061551324027776716,-0.002557228468451649,0.0099708931252826
1772611441717047600,7.595047607421875,0.05422200405299663,-0.005659194805473089,0.00254457904943265
1772611441727044400,7.60504443359375,0.05466974782049656,-0.009948471230920403,0.008955058013089
1772611441737041400,7.61504150390625,0.059604281613230704,0.0006965126304887234,0.012497333729825913
1772611441747038500,7.62503857421875,0.05885375550687313,-0.004381886612344533,0.0045791992827318604
1772611441757035300,7.63503515625,0.03985094887316227,-0.00179722214769572,0.006607252777926623
1772611441767033300,7.645033447265625,0.04928162504136562,-0.006683277156203985,0.006432964790100231
1772611441777030400,7.655030517578125,0.06290098507106304,-0.005114785730466247,0.002138729061745107
1772611441787027500,7.66502734375,0.06424538541734218,0.0009130597243085503,0.00984130279570818
1772611441797024300,7.675024169921875,0.06005436346828937,-0.001257178720552474,0.002380922053474933
1772611441807021300,7.685021240234375,0.05691022022366524,0.004602653223555535,-0.001015542851248756
1772611441817019400,7.695019287109375,0.049428340035676956,-0.001117386657372117,-0.0015151446701493114
1772611441827016400,7.705016357421875,0.0522714545071125,0.0015565635259263215,0.005514991428656503
1772611441837013500,7.715013427734375,0.06498948178291321,-0.0017457476887851953,0.001975967114930972
1772611441847010300,7.72501025390625,0.061248541688919064,0.00767042503003031,0.0018220186622347682
1772611441857007400,7.73500732421875,0.05256956067085266,-0.003964976374525577,-0.002502721802238375
1772611441867005400,7.74500537109375,0.06094751291573047,-0.0031716523060575127,0.0031253654789179562
1772611441877002500,7.75500244140625,0.054659810948371884,-0.007991071819141507,-0.005878500111959875
1772611441886999300,7.764999267578125,0.05122106867134571,0.0011806246193125844,-0.004171961055556312
1772611441896996400,7.774996337890625,0.0536135167658329,-0.0001828822862356901,-0.00456913454644382
1772611441906993400,7.784993408203125,0.05002455236315727,0.0003435892732813954,0.0002894570664037019
1772611441916991500,7.794991455078125,0.0581055674880743,-0.003306238471157849,0.0024938626423478124
1772611441926988300,7.80498828125,0.06005377894639968,-0.005464055825863033,0.00678849109634757
1772611441936985300,7.8149853515625,0.05152326648831367,-0.0005417239275760948,0.0013292941086925564
1772611441946982400,7.824982421875,0.05735445685982704,-0.0007961918789893388,0.010947519605094566
1772611441956979200,7.834979248046875,0.054663318079710005,-0.005931856000702828,0.005958981469646096
1772611441966977300,7.844977294921875,0.055711950349807735,-0.009027045537065714,0.014175423009879886
1772611441976974300,7.854974365234375,0.06274257963895798,-0.007292001905385404,0.0066445799804758275
1772611441986971400,7.864971435546875,0.05286182161569595,0.00032998087303712963,0.009644035791093483
1772611441996968200,7.87496826171875,0.04717325458526611,-0.00006637976709753275,0.013899409946938977
1772611442006966300,7.88496630859375,0.05629939484894275,-0.007997903418727218,0.01989273207760416
1772611442016963600,7.894963623046875,0.06377718338370322,-0.00044135055933147666,0.011823416523635387
1772611442026960400,7.90496044921875,0.06571954962313174,-0.002627498959377408,0.013647508411947637
1772611442036957200,7.914957275390625,0.050906595894694325,-0.010428473300207406,0.014136881097778678
1772611442046954500,7.92495458984375,0.05599193633496761,-0.005744845528621226,0.014199214877421035
1772611442056952600,7.93495263671875,0.05179916082024574,-0.008373111672978847,0.010664894138276577
1772611442066949400,7.944949462890625,0.04641220708489418,0.0040704643093049525,0.005577608336089179
1772611442076946200,7.9549462890625,0.059279287442564964,0.004949859226029366,0.002175553940795362
1772611442086943500,7.964943603515625,0.054042555832862854,-0.004665215332061052,-0.0021462456479202953
1772611442096940300,7.974940185546875,0.05060089094638824,-0.004562412544712424,0.005431340866349637
1772611442106938400,7.9849384765625,0.07453706232905387,0.0030413404572755096,-0.002731178529560566
1772611442116935200,7.99493505859375,0.0652554392427206,-0.0017271160535514353,-0.015669031701656056
1772611442126932500,8.004932373046875,0.060164838105440134,-0.007469806157704442,-0.015173137943493202
1772611442136929300,8.01492919921875,0.05627075327634811,-0.000969886211771518,-0.02070812184740789
1772611442146926300,8.02492626953125,0.04728957444131374,-0.0020385566229000687,-0.02417122224755585
1772611442156924200,8.034924072265625,0.03890928410887718,-0.002423994010221213,-0.0307339143645484
1772611442166921500,8.04492138671875,0.056416883748769756,-0.0004789426233619451,-0.03102973723965697
1772611442176918300,8.054918212890625,0.05686462751626968,0.0060506600747816264,-0.026375372095173225
1772611442186915300,8.064915283203124,0.0438449869453907,0.005994271978735924,-0.01740096092764288
1772611442196912400,8.074912353515625,0.05192483302652835,0.00571961975581944,-0.015143930115317925
1772611442206910500,8.084910400390624,0.05386836830973625,-0.0013845496935769915,-0.016518944795569403
1772611442216907300,8.0949072265625,0.060900751164555546,-0.0038002873321063813,-0.015068663788866251
1772611442226904300,8.104904296875,0.04669394663572311,-0.0034239648330025374,-0.017639171863999218
1772611442236901400,8.1149013671875,-0.031253800919651985,-0.021916465590707958,-0.0009525058187078684
1772611442246899500,8.1248994140625,0.02784545378088951,-0.004155530510563403,-0.01024315246171318
1772611442256896300,8.134896240234376,0.27533260639607904,0.021092088796850293,-0.021854561069328336
1772611442266893300,8.144893310546875,-0.08485387368202209,-0.023979773062374442,0.0096507303933613
1772611442276890400,8.154890380859374,0.06644260320067405,-0.012527162612508982,0.022886671462887895
1772611442286887400,8.164887451171875,0.043245267486572266,0.030684385267551986,0.0023026783186476676
1772611442296885200,8.17488525390625,0.10189151772260666,0.010955346718523652,0.017061052315635605
1772611442306882300,8.18488232421875,0.07825403702557086,-0.0026662783334963024,0.01513873335039243
1772611442316879400,8.19487939453125,-0.014969605594873427,-0.02047916279658675,0.027280714303907005
1772611442326876400,8.20487646484375,0.08528232822716236,0.0017878880637697875,0.025440721593564374
1772611442336873200,8.214873291015625,0.08319266247153281,0.01042540456028655,0.02331089735748246
1772611442346871300,8.224871337890624,0.007026537635922431,-0.011651201761886477,0.023771546272328123
1772611442356868400,8.234868408203125,0.05251286204755306,-0.010329031513724475,0.033130792038980866
1772611442366865400,8.244865478515624,0.08558218795657158,0.0038126353570260107,0.025374816750502214
1772611442376862200,8.2548623046875,0.07032382854819297,0.007530176309123635,0.015319469345314427
1772611442386860300,8.2648603515625,0.026184242570400237,-0.007897822311427443,0.021479608543403444
1772611442396857300,8.274857421875,0.06927870340943336,0.0025185038932599127,0.026889440830843523
1772611442406854400,8.2848544921875,0.05267009843587875,-0.004863112524338066,0.01555145147028379
1772611442416851200,8.294851318359376,0.052369654184579846,-0.008592636175174266,0.013384437028970568
1772611442426848500,8.3048486328125,0.07196808862388133,0.0025324045544490217,0.01453209096044302
1772611442436846300,8.314846435546874,0.06059504621624946,0.005926613570004701,0.015935865944297984
1772611442446843400,8.324843505859375,0.035009938582777976,-0.013468060191813855,0.004358286541048437
1772611442456840200,8.334840087890624,0.037705753538012504,-0.008901336798164993,-0.0015734872612636534
1772611442466837500,8.34483740234375,0.07526186947226524,-0.0013247457977384328,-0.0007483706818893551
1772611442476834300,8.354834228515625,0.054907648229598996,0.00352187224952504,0.0037542105675209313
1772611442486832400,8.364832275390626,0.04293722445070743,0.0057768846346996725,0.00006393208168447018
1772611442496829200,8.3748291015625,0.05415712212324142,0.005409329963941127,-0.006462099553039297
1772611442506826500,8.384826416015626,0.054905894663929936,0.004040507562458515,-0.009472085890825837
1772611442516823300,8.3948232421875,0.040543022790551185,-0.004150616873428225,-0.012728612601896748
1772611442526821400,8.4048212890625,0.04922375737428665,-0.004419460410065949,-0.010831309346901252
1772611442536818200,8.414818115234375,0.059250645869970316,0.0044443025903776285,-0.018798324437020345
1772611442546815500,8.4248154296875,0.046080783173441886,0.008704151991941035,-0.01657384418742731
1772611442556812300,8.434812255859375,0.023038930281996727,-0.0009032872489653527,-0.0013857096042018382
1772611442566809300,8.444809326171875,0.03007540479004383,-0.014470442167390137,-0.01943927095537074
1772611442576807200,8.45480712890625,0.05237433035969734,-0.0070764411922544235,-0.011004099497385322
1772611442586804500,8.464804443359375,0.0713771369934082,-0.00023433847883716225,-0.015887578956317157
1772611442596801300,8.47480126953125,0.08245031967163086,0.0066665086844936005,-0.011110299818217755
1772611442606798300,8.48479833984375,0.0502758967757225,0.01361093926122412,-0.011637118437606842
1772611442616795400,8.49479541015625,0.05610884071290493,0.007329155577998608,-0.0034150417410302907
1772611442626793500,8.50479345703125,0.061200610893964766,-0.0024111710612662136,0.005480020579975098
1772611442636790300,8.514790283203125,0.07601765627563,0.0046898565829731525,-0.0032820630111265927
1772611442646787300,8.524787353515626,0.06284779357910156,-0.00612359744682908,-0.0008760521821677684
1772611442656784400,8.534784423828125,0.056118193063139914,-0.0030802842281758783,0.00028658012272790074
1772611442666782500,8.544782470703124,0.04504793299436569,-0.009352551164384932,0.006441193762328475
1772611442676779300,8.554779296875,0.06525017854571342,-0.0002471614277921617,0.004400143788242712
1772611442686776300,8.5647763671875,0.06195756674110889,-0.017162695192359387,0.0012005074967164546
1772611442696773400,8.5747734375,0.06599836656451225,-0.010615830832161008,0.000002255889168009162
1772611442706770200,8.584770263671874,0.0550730679243803,-0.004033365435618907,0.001880945775238797
1772611442716768300,8.594768310546876,0.05596797093749046,-0.0033341676576994356,0.009913025458203628
1772611442726765300,8.604765380859375,0.056416883748769756,0.005138404068071395,0.004762620425084606
1772611442736762400,8.614762451171876,0.06314999139606953,-0.0004903408002108335,0.004033447634009644
1772611442746759200,8.62475927734375,0.058953708750009534,-0.00167914872597903,0.009804048658395185
1772611442756757200,8.63475732421875,0.04069499848186969,-0.0047573323286138475,0.014663827581331133
1772611442766754300,8.64475439453125,0.04473638282716274,-0.0005012640530243516,0.008674907631147652
1772611442776751400,8.65475146484375,0.06314005452394485,-0.000998125925567001,0.0058208151079714296
1772611442786748200,8.664748046875,0.06239069746136665,0.0045003436265513294,0.004078894210932776
1772611442796745200,8.6747451171875,0.05356266336143017,0.0043422852543182665,0.008319079930800943
1772611442806743300,8.684743408203126,0.06269231075644492,0.0011037782571278513,0.012784242646116762
1772611442816740400,8.694740234375,0.06179506965577602,0.004813537761569023,0.002467403893684968
1772611442826737200,8.704737060546876,0.06747837598919867,0.005474595486186444,0.007321447195578366
1772611442836734200,8.714734130859375,0.09141571641564368,0.005855192301608622,0.01270186159228906
1772611442846731300,8.724731201171876,0.04921498954594135,-0.00320937223425135,0.00482536519668065
1772611442856729300,8.734729248046875,0.0269178175419569,-0.011241908574942498,0.0007617690195795148
1772611442866726400,8.744726318359374,0.029909985095262527,-0.004432721750438213,0.0002058521698694676
1772611442876723200,8.75472314453125,0.02931026563644409,-0.006496522412449121,-0.013748402370000258
1772611442886720300,8.76472021484375,0.018840894070267677,-0.009644428516738116,-0.011229597082640975
1772611442896718300,8.77471826171875,0.059249476826190944,-0.00955366322705522,-0.014354104045033454
1772611442906715400,8.78471533203125,0.0815466488301754,0.006622340749204159,-0.007861609353730455
1772611442916712200,8.794712158203126,0.08842997860312461,0.013022855441272258,-0.007284430520283058
1772611442926709200,8.804709228515625,0.03351473158895969,0.003826700414996594,-0.014122980436589569
1772611442936706300,8.814706298828124,0.04773264203369617,-0.005186353129334747,0.0022548753878567367
1772611442946704400,8.824704345703125,0.06194762986898422,-0.004599328755307943,-0.009452915399475022
1772611442956701200,8.834701171875,0.05626198544800281,-0.0030293029596097764,-0.012177965582348406
1772611442966698200,8.8446982421875,0.052072717064619065,-0.005148103478178382,0.0002450060033239424
1772611442976695300,8.8546953125,0.05311842672526836,-0.0003907528832554817,-0.0028587778314482417
1772611442986693400,8.864693359375,0.045486908933520316,0.003673994071315974,-0.004172271582810208
1772611442996690200,8.874690185546875,0.05402151304483414,-0.0011452975776046514,0.002202633743965998
1772611443006687200,8.884687255859374,0.052523967963457104,-0.006521474190615117,0.002176101930066943
1772611443016684300,8.894684326171875,0.05237257679402828,0.004157430206704884,0.014536840200796722
1772611443026681000,8.90468115234375,0.05805880573689937,0.015185842161439358,0.007460810000495984
1772611443036679200,8.91467919921875,0.052367900618910786,0.004916578010935336,0.006834348665224388
1772611443046676500,8.924676513671875,0.06209142225384712,-0.0056528929288499055,0.01746670137392357
1772611443056673300,8.93467333984375,0.06657821227908134,-0.0045568778530694545,0.01633998063262552
1772611443066670000,8.944670166015625,0.06104395902752876,-0.0014758081736043094,0.025836735173827036
1772611443076668200,8.954668212890626,0.06284136383831501,-0.002399718085490167,0.02500791053371504
1772611443086665500,8.96466552734375,0.05191606519818306,-0.002550616064574569,0.020878802239196373
1772611443096662300,8.974662353515624,0.05311082794070243,0.000781962424237281,0.012406924633169546
1772611443106659000,8.9846591796875,0.05715221228599548,-0.004342084324918687,0.025145967297535387
1772611443116656400,8.994656494140624,0.05101882409751415,-0.004927921388857066,0.021252978446986526
1772611443126654500,9.004654541015626,0.06104512807130813,-0.001067355236876756,0.011377453721268102
1772611443136651300,9.0146513671875,0.060895490467548365,0.0029507578306831417,0.00819703358686529
1772611443146648000,9.02464794921875,0.05446048898398876,0.0017767273489385843,0.011470420101191849
1772611443156645400,9.034645263671875,0.0631377164363861,0.004194602145627141,0.0006168075909372419
1772611443166643500,9.0446435546875,0.04892039051353931,-0.0019353702430613337,0.0026323212649673224
1772611443176640300,9.05464013671875,0.059839843934774394,-0.00350722266966477,0.0027519016571808607
1772611443186637000,9.064636962890624,0.060139703664183614,-0.0005113105230033397,-0.005191595560032874
1772611443196634400,9.07463427734375,0.04981529352664947,0.01057390965288505,-0.009770913573773576
1772611443206631200,9.084631103515624,0.048316579401493066,0.0008972045680508017,-0.009266873041773215
1772611443216629200,9.094629150390626,0.0540010547786951,0.003272811125591397,-0.015815856293821706
1772611443226626300,9.104626220703125,0.05729191301763057,-0.001491042275354266,-0.01660725326668471
1772611443236623400,9.114623291015626,0.05594751267135143,-0.004305752636212855,-0.01720710972282104
1772611443246620200,9.1246201171875,0.05759411083459854,-0.003441847549565136,-0.019297232136176897
1772611443256618200,9.1346181640625,0.04682429501712322,-0.004911006786674261,-0.011276651094760745
1772611443266615300,9.144615234375,0.061787470871210094,-0.006856569630187004,-0.012519865222042426
1772611443276612400,9.1546123046875,0.06028992578983307,-0.004585300229955464,-0.017347239712718874
1772611443286609200,9.164609130859375,0.06896481515467166,-0.004624536261800676,-0.011324225696688518
1772611443296606200,9.174606201171875,0.06148410401046276,0.005079202960431575,-0.0018637023794930427
1772611443306604300,9.184604248046876,0.04771744446456432,0.004361665808223188,-0.005416663887025788
1772611443316601300,9.194601318359375,0.04801496610641479,0.004852280603069812,0.0015672767161857336
1772611443326598100,9.20459814453125,0.06372749902307986,0.00787193895149976,0.0004249748132657259
1772611443336595200,9.21459521484375,0.03858312089443207,-0.0023875892562791705,-0.0026269235706422476
1772611443346593300,9.22459326171875,0.04875730890631676,-0.0013791063334792852,0.00788328232942149
1772611443356590300,9.23459033203125,0.05205284332036972,-0.006659786682762205,0.0058161024002358315
1772611443366587400,9.24458740234375,0.06163081900477409,0.004887023122888058,0.008891345127113162
1772611443376584200,9.254584228515625,0.06327858621180057,0.006796984930057078,0.00851381705161184
1772611443386581200,9.264581298828125,0.06821721165776252,0.002781684874091297,0.008124543739389627
1772611443396579300,9.274579345703126,0.052205403533577915,-0.00867711785454303,0.00737936052842997
1772611443406576400,9.284576416015625,0.049960254955291744,-0.006530497747287154,0.015924394702212883
1772611443416573200,9.2945732421875,0.05460194328129291,0.003016132950782776,0.014261767852772026
1772611443426570200,9.3045703125,0.06013619653284549,0.0039209728360176084,0.009496727141737937
1772611443436568300,9.314568359375,0.060735331469774244,0.004392444538976997,0.013902423887932672
1772611443446565400,9.3245654296875,0.05100947174727916,-0.0031321240132674575,0.004484835530165583
1772611443456562200,9.334562255859375,0.056097150275111196,-0.0051429706453345716,0.0066414381753187625
1772611443466559200,9.344559326171876,0.05101122531294822,0.005224036524910479,0.010227342971228062
1772611443476557300,9.354557373046875,0.05564648389816284,-0.0005610496825538575,0.008128635392617434
1772611443486554400,9.364554443359374,0.056990884244441986,-0.003309636004641652,0.009434101101150736
1772611443496551200,9.37455126953125,0.055498015338182445,0.00016472557503730058,0.0020546949069481344
1772611443506548200,9.38454833984375,0.05100830270349979,-0.003749397395085543,0.013828545800969004
1772611443516545300,9.394545166015625,0.051608022162318225,-0.004371511348802596,0.010411065507680176
1772611443526543400,9.40454345703125,0.054601358759403223,0.0007247158116661012,0.004338851188216358
1772611443536540200,9.4145400390625,0.05624678787887096,-0.0023023221256211397,-0.00007522066067904233
1772611443546537500,9.424537353515625,0.04891396077275276,-0.0005821838021278381,0.0002721771380398422
1772611443556534300,9.4345341796875,0.04592062417566776,-0.00038233211478218434,-0.004672037798492238
1772611443566531000,9.444531005859375,0.043375615867972374,-0.008309910243656486,-0.008778422804549336
1772611443576529200,9.454529052734374,0.052204819011688226,-0.0002252601232379675,-0.004987707018386573
1772611443586526500,9.4645263671875,0.04756663781702518,0.0004319616764783859,0.0004960764212533831
1772611443596523300,9.474523193359374,0.05519581752121448,0.002820245052501559,-0.0007073262854479253
1772611443606520000,9.48452001953125,0.0517529835909605,-0.006585278408136218,-0.00808617535722442
1772611443616518100,9.49451806640625,0.05668868642747402,-0.007171900923363864,-0.011330902032647281
1772611443626515500,9.504515380859376,0.04456920956671238,-0.0014572313372977078,-0.011513629055256023
1772611443636512300,9.51451220703125,0.05339782818853855,-0.004685381337255239,-0.009231116741802542
1772611443646509000,9.524509033203126,0.05653963334560394,0.0007497223887592553,-0.0050107499672565605
1772611443656507100,9.534507080078125,0.049957916867733,0.00296350771440193,-0.010289594552479684
1772611443666504200,9.544504150390624,0.053395490100979805,-0.0008494381698779762,-0.00926437969058752
1772611443676501000,9.5545009765625,0.04935293671190739,0.00292083761645481,-0.0026548344908747822
1772611443686498000,9.564498046875,0.060875032201409336,0.0018744521023705601,-0.008169113533478229
1772611443696495000,9.5744951171875,0.06042904199957847,0.002397416530549526,-0.0050935146135743705
1772611443706493200,9.5844931640625,0.05265022469162941,0.002689257350284606,-0.006154083916638046
1772611443716490000,9.594489990234376,0.049206806239485736,0.000026230419799685477,-0.008461219214694574
1772611443726487000,9.604487060546875,0.05294657728970051,-0.00566440070355311,-0.004027803344512358
1772611443736484000,9.614484130859376,0.05473930592536926,-0.0009749277130700647,0.006029398091044276
1772611443746482200,9.624482177734375,0.05772445921599865,0.007124244123045354,0.0016919990743976085
1772611443756479000,9.63447900390625,0.05757306804656982,0.0004905234633013606,0.0039299872595351185
1772611443766476000,9.64447607421875,0.04589958138763904,0.006280852101463824,0.006933379459753632
1772611443776473000,9.65447314453125,0.04919336223602295,0.004078629349451512,-0.00024997443938627837
1772611443786471200,9.66447119140625,0.04650105441212654,-0.004960745946224779,0.008897793134208768
1772611443796468000,9.674468017578125,0.04411035988330841,-0.0011366393471136688,0.0016938622379209845
1772611443806465000,9.684465087890626,0.05802548798918724,-0.005890994267351925,0.012421473748330027
1772611443816462000,9.694462158203125,0.060118660876154896,-0.0019617650596424935,-0.00018814298324286937
1772611443826459100,9.704459228515624,0.047097266739606854,0.006416150652617216,-0.005879915750911459
1772611443836457000,9.71445703125,0.048293783047795295,0.010640873941872268,0.015055027989158407
1772611443846454000,9.7244541015625,0.04545008405447006,-0.007528148748818785,0.007647802206268534
1772611443856451000,9.734451171875,0.046046296381950375,0.0026897505406290293,0.007689294127281755
1772611443866449200,9.74444921875,0.04514788623750209,-0.00487359738573432,0.017918801656132563
1772611443876446000,9.754446044921876,0.05786708255708217,-0.00440563281411305,0.01031151412334293
1772611443886443300,9.764443359375,0.04574351404309272,0.0034932854758575557,0.010689708919124677
1772611443896441300,9.77444140625,0.04619476494193077,0.00208926389683038,0.0068932483787648375
1772611443906438100,9.784438232421875,0.04709375960826873,-0.005801251890975982,0.0020760116896126417
1772611443916435000,9.79443505859375,0.03990940106213092,0.000395885716099292,0.010886181339295581
1772611443926432300,9.804432373046875,0.05337736992239952,-0.0007032346322201192,0.002761254007415846
1772611443936430300,9.814430419921875,0.05397416677176952,0.0069509333827532825,0.009871990194916724
1772611443946427100,9.82442724609375,0.06474807424247264,0.004750190201774239,0.005720962329534813
1772611443956424000,9.834423828125,0.050832946136593816,0.0017937880815938115,-0.00462597930021584
1772611443966421200,9.844421142578126,0.053828036299347876,-0.005653970641084015,-0.010309267367329449
1772611443976419300,9.85441943359375,0.05951368072032928,-0.00614067644579336,-0.000366613955842331
1772611443986416000,9.864416015625,0.09407879814505576,0.006870652954466641,-0.00776986681651324
1772611443996413200,9.8744130859375,0.04918810153901577,0.002666168735641986,-0.008362024023383855
1772611444006410200,9.88441015625,0.04185761252045631,-0.005268679384235292,-0.00046418344564735887
1772611444016407000,9.894406982421875,0.05277881950736046,-0.008970566109474748,-0.006992324839066714
1772611444026405000,9.904405029296875,0.05457505527436733,-0.0016160386282019316,-0.007523545638937502
1772611444036402200,9.914402099609376,0.08270458669364451,0.004595109237916767,-0.005486998310033232
1772611444046399200,9.924399169921875,0.03317512437105179,-0.0029851715569384394,-0.006784563839901238
1772611444056396000,9.93439599609375,0.04379764067232608,-0.007003211559262127,-0.0077696384876500815
1772611444066394000,9.94439404296875,0.03272387347221374,0.00044511341899633407,-0.00469952859361656
1772611444076391200,9.95439111328125,0.059062429821491236,-0.0038496246328577396,0.004594716512272134
1772611444086388200,9.96438818359375,0.05592646988332271,0.00478624789584428,0.012118362615909426
1772611444096385000,9.974385009765625,0.07298866384327411,-0.0009774301974102854,0.0192746367118787
1772611444106382000,9.984382080078126,0.06820142956674098,0.00006197758661583065,0.019514171955641358
1772611444116380200,9.994380126953125,0.061169046711921686,-0.006910692703910172,0.009145575616508722
1772611444126377200,10.004377197265624,0.041267829933762545,0.0036758755011484026,0.006878151274332776
1772611444136374000,10.0143740234375,0.05189093075692653,0.00954535205643624,0.006565450329659506
1772611444146371000,10.02437109375,0.06371171693205833,0.012113485511392354,0.010867467505671084
1772611444156369200,10.034369140625,0.06311141295135021,0.01234258155953139,0.007693440579436719
1772611444166366200,10.0443662109375,0.05398293460011482,-0.004948854579031467,0.0044281825726386155
1772611444176363300,10.05436328125,0.04261047671437263,-0.009717274557240307,-0.0033359942886047062
1772611444186360000,10.064360107421875,0.050992520612478255,0.0031791049601510167,-0.003662303633522242
1772611444196358100,10.074358154296876,0.057873512297868725,0.009964289854560047,-0.01135664839525707
1772611444206355200,10.084355224609375,0.04964285956919193,-0.007967179486900568,-0.009287523104157298
1772611444216352300,10.094352294921874,0.021517419803142545,-0.012414094159472732,-0.006904600889841094
1772611444226349000,10.10434912109375,0.052044660013914106,0.008002031604573131,-0.031309065637690946
1772611444236347100,10.11434716796875,0.1294032095044851,0.015442538602557032,-0.030560256564384325
1772611444246344200,10.12434423828125,0.050097033077478405,0.007516695773042738,-0.02669078558674082
1772611444256341200,10.13434130859375,0.00910100582242012,-0.011524543174915015,-0.008344561431929468
1772611444266338000,10.144338134765626,0.0650678077161312,0.00043658305266872045,-0.019596516476850956
1772611444276335000,10.154335205078125,0.09828092601001262,0.012490191602986304,-0.02545107859079726
1772611444286333200,10.164333251953124,0.07673135750293732,0.007309263567440211,-0.018315673752920703
1772611444296330200,10.174330322265625,0.03019523177742958,-0.00019762319764122366,-0.007948611783748493
1772611444306327000,10.1843271484375,0.028852584996819496,-0.009481200779043138,0.0018376089570112525
1772611444316324400,10.194324462890625,0.06237140823900699,-0.018490655860491097,0.00418997163628228
1772611444326322200,10.204322265625,0.06357084715664386,-0.01279003306608647,0.0001471442525740713
1772611444336319200,10.2143193359375,0.05638415052294731,0.000799717276636511,0.00542582444101572
1772611444346316000,10.22431591796875,0.042023032215237614,0.008356124005559832,0.02233518419312313
1772611444356313300,10.234313232421876,0.04576397230923176,0.0009248232273384928,0.0310707816360984
1772611444366311200,10.244311279296875,0.06251987679898738,0.0002469422320835292,0.01839084874782711
1772611444376308200,10.25430810546875,0.06880524067878722,-0.0072170369730331,0.027992890294408424
1772611444386305000,10.264304931640625,0.06251753871142864,-0.0015304244376718997,0.021694438604172316
1772611444396302300,10.27430224609375,0.04246785337328911,-3.653261810541153e-8,0.017312716388609258
1772611444406300200,10.284300048828126,0.042920273315906525,-0.0013818097472190856,0.03202802756200544
1772611444416297200,10.294297119140625,0.06251812323331833,-0.002699212488718331,0.030592560531944035
1772611444426294000,10.3042939453125,0.07239478960335254,-0.011659421600960194,0.00908760748472996
1772611444436291300,10.314291259765625,0.0487555553406477,-0.011225121836923061,0.007037378690345213
1772611444446288100,10.3242880859375,0.03334229763150215,0.0065202320815995335,0.013225611471757291
1772611444456286200,10.3342861328125,0.06027881987392902,0.016824878072738646,0.005371043780166655
1772611444466283000,10.344282958984374,0.07838380088508129,0.002064878374245018,-0.008709275691630318
1772611444476280300,10.3542802734375,0.06491290941536426,-0.0009726261581294238,-0.004917792720487341
1772611444486277000,10.364277099609374,0.05907353573739528,0.0005509484136477112,-0.00555807251855731
1772611444496275200,10.374275146484376,0.04635492393970489,0.0038367468849755822,-0.014950270706741138
1772611444506272000,10.38427197265625,0.05713467662930488,-0.0029575528976507484,-0.014534118520747869
1772611444516269300,10.394269287109376,0.06611468642055988,-0.0026560126678086817,-0.008871151722455397
1772611444526266000,10.40426611328125,0.05593757579922676,-0.012444178770482539,-0.02251413008975796
1772611444536264200,10.41426416015625,0.04381692989468574,-0.00542609843565151,-0.020124860333045943
1772611444546261000,10.424260986328125,0.0403723423987627,0.003603504384681582,-0.02216948137055151
1772611444556258300,10.43425830078125,0.04201777151823043,-0.005230484532006085,-0.024151047109207138
1772611444566255000,10.444255126953125,0.056684594774246214,-0.007818418665975331,-0.021655887558916582
1772611444576253200,10.454253173828125,0.06102408528327941,0.004848736939113587,-0.02202581684985198
1772611444586250000,10.46425,0.08122282370328902,0.0064460891331546005,-0.02701646474399604
1772611444596247300,10.474247314453125,0.06655950757861137,-0.00012790069598704577,-0.023806763716181737
1772611444606244000,10.484244140625,0.034683190846443175,-0.010163118628598748,-0.02026994049269706
1772611444616241200,10.4942412109375,0.04036941978931427,-0.009862765708845108,-0.012042822294821962
1772611444626239000,10.504239013671874,0.04500993907153606,-0.003918123291805386,-0.012271516484161839
1772611444636236300,10.514236328125,0.08151976082324981,-0.0004896649467758834,-0.015554803337994963
1772611444646233000,10.524233154296875,0.06535889961719513,0.003251275147218257,-0.009978893768647685
1772611444656230100,10.534230224609376,0.036628479695320126,-0.00785000111432746,-0.007302331503154709
1772611444666228200,10.544228271484375,0.036032851889729496,-0.0059545610228553415,-0.000031271921098232266
1772611444676225500,10.5542255859375,0.051750645503401756,-0.0006107340431772172,0.00803954147021286
1772611444686222300,10.564222412109375,0.07210077509284019,0.008391049188468605,0.010275209834100678
1772611444696219400,10.574219482421874,0.07270107907354831,-0.0020154862745665014,0.010130741595802828
1772611444706217200,10.58421728515625,0.046664136019349094,-0.010358823863789439,0.018850556947756558
1772611444716214500,10.594214599609375,0.035444822868704796,-0.01585641663307324,0.015343663071654736
1772611444726211300,10.60421142578125,0.049966684696078296,-0.0021179602683521806,0.022166166035458443
1772611444736208400,10.61420849609375,0.06418459514081477,0.0076742974875494835,0.035516983922617505
1772611444746206200,10.624206298828126,0.07076689614057541,0.0038127084222622214,0.031696914177807047
1772611444756203500,10.63420361328125,0.06657470514774322,-0.0034687720891088247,0.02488146200929768
1772611444766200300,10.644200439453124,0.05729834275841712,-0.004864975687861442,0.033891008422290904
1772611444776197400,10.654197265625,0.0442804557532072,0.00963958794483915,0.032107577337929974
1772611444786194400,10.6641943359375,0.06478022294640541,0.006139050744287669,0.026030686843348666
1772611444796192500,10.674192626953126,0.06806698953211307,-0.0034089864595793187,0.009319361280836165
1772611444806189300,10.684189208984375,0.052799277773499485,-0.005591390266269445,0.005809270800650119
1772611444816186400,10.694186279296876,0.05369534983038902,-0.01063365874979645,0.016693506778031587
1772611444826183400,10.704183349609375,0.044267596271634096,-0.004797280746512114,0.015902000207314266
1772611444836181500,10.714181396484374,0.04606558560431003,0.00470348324952647,0.010415312424534931
1772611444846178300,10.72417822265625,0.050257776597142215,-0.004542484001535922,0.0072781012441962955
1772611444856175400,10.73417529296875,0.058036593905091284,-0.0016261764297261833,0.008263860878534614
1772611444866172400,10.74417236328125,0.07554419354498386,-0.0011235058709047733,-0.0048636605136096476
1772611444876170500,10.75417041015625,0.04531447497606277,0.010329049780033529,-0.003745150478230789
1772611444886167300,10.764167236328126,0.050099371165037154,0.007359422852098942,-0.00004692614795640111
1772611444896164400,10.774164306640625,0.06970072821378707,0.009088968324754386,-0.011986260668840258
1772611444906161400,10.784161376953126,0.0746364310503006,0.0005317505228333174,-0.010647614209912717
1772611444916159500,10.794159423828125,0.05578209297657013,-0.010113014142867176,-0.010092811605054885
1772611444926156300,10.80415625,0.046503392499685284,-0.008909173044748604,-0.01360492964554578
1772611444936153300,10.8141533203125,0.046349663242697715,0.005021938081551343,-0.004852591130323707
1772611444946150400,10.824150390625,0.05667407338023185,0.003769015411008149,-0.011359333542687818
1772611444956148500,10.8341484375,0.05308277088999748,-0.005713591873832046,-0.014878876837808638
1772611444966145300,10.844145263671875,0.055177112820744514,-0.002001914406940341,-0.014216640936257317
1772611444976142300,10.854142333984376,0.052635611644387244,0.003308631357643753,-0.007717689104704186
1772611444986139400,10.864139404296875,0.04784779284596443,0.010697152440063655,-0.01420856722765602
1772611444996136400,10.874136474609376,0.053985272687673565,0.005623849497456103,-0.017044603504333643
1772611445006134300,10.88413427734375,0.06266308466196059,-0.0009866364171728492,-0.0172794260403607
1772611445016131300,10.89413134765625,0.06415946069955826,-0.005386661474406719,-0.013566269002435728
