time,seconds_elapsed,z,y,x
1772527250485729000,0.06672900390625,-0.007312953361868858,0.046697453767061234,0.10142769960314035
1772527250495727000,0.07672705078125,0.07090951948165893,0.10368132374882698,0.12444704840183257
1772527250505725200,0.08672509765625,0.11533405988067388,0.08226151910126209,0.16502835737615823
1772527250515723000,0.096722900390625,0.08715309053510427,0.02031388923227787,0.13918372202366588
1772527250525721000,0.10672119140625,0.05739946504533291,-0.072584174695611,0.08922375932931899
1772527250535719200,0.11671923828125,0.022301263657212255,-0.07670213140845299,0.07442366508245468
1772527250545717000,0.126717041015625,-0.05589519796222448,0.03796469673514366,0.029509587600827215
1772527250555714000,0.136714111328125,0.0217351542070508,0.05402034400105476,0.01877630440145731
1772527250565712000,0.1467119140625,0.15729659408032892,0.06339198345839978,0.028517946214973926
1772527250575710000,0.1567099609375,0.2255991459339857,0.07316694301962852,0.006693360158801079
1772527250585708000,0.1667080078125,0.21936288189291953,0.01756546730697155,0.02148907049149275
1772527250595706000,0.1767060546875,0.11991700375676155,-0.09942483534812926,0.13202771278917788
1772527250605704200,0.1867041015625,-0.016292086370289324,-0.11073299582600593,0.19334844293147324
1772527250615701000,0.196700927734375,-0.035871231587231156,-0.1481435658097267,0.15955284857451915
1772527250625699000,0.206698974609375,-0.0067775313109159465,-0.15039455960690976,0.056439972363412375
1772527250635697200,0.216697265625,-0.06651596069782972,-0.09113456138670444,-0.0701046328395605
1772527250645695000,0.226695068359375,-0.07521043154597282,0.045647652453184126,-0.18575638036727904
1772527250655693000,0.236693115234375,0.11922229949086904,0.17009645442068574,-0.22538404187858102
1772527250665691100,0.246691162109375,0.32118454924970863,0.07649287257194519,-0.11739070014953612
1772527250675688000,0.25668798828125,0.3723229080736637,0.1567050579279661,-0.08210340593010186
1772527250685686000,0.26668603515625,0.1970502200588584,0.14359189385473728,0.06065028353482484
1772527250695683800,0.276683837890625,0.05994418109208345,0.02975041061937809,0.1791530365794897
1772527250705682000,0.286681884765625,0.03403027989566326,-0.1270961016058922,0.2655833657979965
1772527250715680000,0.296679931640625,-0.0017447978407144546,-0.2323649868071079,0.37930093039274215
1772527250725678000,0.306677978515625,-0.08899813387989998,-0.15286358006894588,0.4246598290324211
1772527250735676200,0.31667626953125,-0.15653700788468122,-0.14902970099449156,0.4751511221244931
1772527250745673000,0.3266728515625,-0.13999211579710244,-0.20013444980978964,0.3903703136786818
1772527250755671000,0.336671142578125,-0.16181640959233046,-0.3803542388379574,0.5421864305213093
1772527250765669000,0.346669189453125,-0.3967909943759441,-0.7000345210045575,0.5632476309895516
1772527250775667000,0.3566669921875,-0.2030167272478342,0.34418343978226185,0.13511749549806118
1772527250785665000,0.3666650390625,0.3590978080585599,0.616563626113534,-0.2773480378717184
1772527250795663000,0.3766630859375,0.7248217562586069,0.2626508194774389,-0.696270200034976
1772527250805661000,0.386660888671875,0.7131482695996761,0.20237959838807582,-0.8073290668144821
1772527250815658000,0.396657958984375,0.48827656115740536,0.012418167546391487,-0.6047589142903685
1772527250825656000,0.406656005859375,0.28239392308443784,-0.1941536218345165,-0.3722279232665896
1772527250835654100,0.416654052734375,0.10166560001224278,-0.23183014927804468,-0.19643150363862513
1772527250845652200,0.42665234375,0.06236205588877201,-0.1100678099155426,-0.11217793393731117
1772527250855650000,0.436650146484375,0.1266197162657976,0.0730021078467369,-0.05921148290336132
1772527250865648000,0.446648193359375,0.17920622807145117,0.07602876219153404,-0.04624474156349897
1772527250875645200,0.456645263671875,0.2647001532226801,0.023559154763817786,0.04320464321523904
1772527250885643000,0.46664306640625,0.3419754083439708,-0.08566168293356895,0.08429916240870952
1772527250895641000,0.47664111328125,0.46336453047990794,-0.10467676452696323,0.19091157117336988
1772527250905639000,0.486638916015625,0.4666615261986851,-0.2548655724287033,0.2552072254732251
1772527250915637000,0.496636962890625,0.45975130841881034,-0.1905722562164068,0.20762217521667478
1772527250925635000,0.506635009765625,0.301288008646667,0.10787409926354885,0.1403948513790965
1772527250935633000,0.5166328125,0.11458791768848896,0.22394436446428298,0.10593991633057594
1772527250945630000,0.5266298828125,0.15684592770338057,0.2553770290821791,-0.06460282055288553
1772527250955628000,0.5366279296875,0.3128334850117564,0.23082126449644563,-0.14117752618938684
1772527250965626000,0.546626220703125,0.3969070219710469,0.13559738796949386,-0.2790828988403082
1772527250975624200,0.556624267578125,0.31565088052004575,0.10166881488263606,-0.3798591487973928
1772527250985622000,0.5666220703125,0.013598024980723857,0.013453355813026428,-0.34121991380155087
1772527250995620000,0.5766201171875,-0.3263859172850847,-0.1539694954842329,-0.15815408769249914
1772527251005617200,0.5866171875,-0.6189569509908557,-0.15283376945257185,-0.011991466566920279
1772527251015615000,0.596614990234375,-0.6305258082315326,-0.0898071121752262,0.18146306708753107
1772527251025613000,0.606613037109375,-0.5429784576818346,-0.16853695001900196,0.4158718346819281
1772527251035611100,0.616611083984375,-0.46664662089049813,-0.25229075350463387,0.3929387028619647
1772527251045609000,0.62660888671875,-0.34729192719161506,-0.14718436538875102,0.21786855168193578
1772527251055607000,0.63660693359375,-0.2827858450114727,-0.017439210578799248,0.01599777959883213
1772527251065605000,0.646605224609375,-0.15651011987775562,-0.05052548762261867,-0.15610796881765127
1772527251075602200,0.656602294921875,-0.11852554939836263,-0.13013386186659334,-0.28427959070056674
1772527251085600300,0.666600341796875,-0.037571898025274275,-0.20171675056517124,-0.2622650350302458
1772527251095598000,0.67659814453125,0.021254384952783582,-0.21134791774153708,-0.29884266132116316
1772527251105596200,0.68659619140625,0.05152034387886524,-0.1880418609559536,-0.3810705704137683
1772527251115594200,0.69659423828125,0.046000119152665137,-0.06413491078019141,-0.30847061362713574
1772527251125592000,0.706592041015625,0.0677323507502675,-0.12290215704739094,-0.29187165326476094
1772527251135589000,0.716589111328125,0.07748948239386082,-0.043023733690381046,-0.3825724994093179
1772527251145587000,0.7265869140625,0.07571575071960687,0.004233107525110244,-0.49269846925288435
1772527251155585000,0.7365849609375,0.022457915523648262,0.04568623089790344,-0.5462105714708566
1772527251165583000,0.7465830078125,0.03737140701711177,0.12669979576468468,-0.5038298118591308
1772527251175581000,0.756580810546875,-0.06365501830875873,0.013051204752922057,-0.47669893608838315
1772527251185579000,0.7665791015625,-0.17298428481668232,-0.09881985519230366,-0.34012159717082974
1772527251195577000,0.7765771484375,-0.31424276728779077,-0.14883739329278467,-0.1359270583152771
1772527251205574100,0.78657421875,-0.30870763725340367,-0.10290683224499225,0.07013795058727264
1772527251215572200,0.796572265625,-0.197175892265141,-0.09875438874065876,0.18484364943653345
1772527251225570000,0.806570068359375,-0.10646160211712122,-0.0951531493782997,0.20790069989711046
1772527251235568000,0.816568115234375,-0.03660217621028423,-0.03955518079698086,0.16085633238852023
1772527251245566200,0.826566162109375,0.019769991613924502,-0.0556394696354866,0.11880319729596375
1772527251255564000,0.83656396484375,0.00926262612491846,-0.06291501359641552,0.11317249793261289
1772527251265562000,0.84656201171875,0.013847908088564872,-0.02631692903935909,0.12091712071001529
1772527251275559000,0.856558837890625,0.0561579405516386,0.0046259062349796294,0.12734569245278834
1772527251285557000,0.866556884765625,0.10985153681635856,0.10101941106319427,0.15824030467122793
1772527251295555000,0.87655517578125,0.18052900110781192,0.2108499050915241,0.1903258802399039
1772527251305553000,0.886552978515625,0.23524784876704213,0.2634393395066261,0.19669307718425988
1772527251315551000,0.896551025390625,0.3191349232435226,0.21674948452413081,0.20612463013529778
1772527251325549000,0.906549072265625,0.45509033087044953,0.10099486114382743,0.27207126651257274
1772527251335546000,0.916546142578125,0.5527364661082625,0.06746142485439777,0.2650540812268853
1772527251345544200,0.926544189453125,0.5437050183907151,0.07502864523828029,0.21286533656716344
1772527251355542000,0.9365419921875,0.3015846535056829,0.07675883003175259,0.14723901818543672
1772527251365540000,0.9465400390625,0.14455723175555465,-0.01641863535940647,0.2196016590848565
1772527251375538200,0.9565380859375,0.2500304073572159,-0.3162473851084709,0.30797172419428825
1772527251385536000,0.966535888671875,-0.03547667931169271,-0.5866945575505494,0.24458032525777815
1772527251395534000,0.9765341796875,-0.4974032859429717,-0.5678115779042243,0.13005524367243051
1772527251405531000,0.98653076171875,-0.7765490208864212,-0.39954350795447824,0.14780746572315692
1772527251415529000,0.996529052734375,-0.7196233108326793,-0.32595804726183414,0.22112550765126943
1772527251425527000,1.006527099609375,-0.42852118063569067,-0.2636994517475366,0.2026286047130823
1772527251435524900,1.01652490234375,-0.08976970277428627,-0.1533843890726566,0.05135989262014627
1772527251445523000,1.02652294921875,0.21449586037844418,-0.03764963943660259,-0.19965631090402602
1772527251455521000,1.03652099609375,0.3583376373410225,0.013591302978992461,-0.42675855487734077
1772527251465518000,1.04651806640625,0.3120139853224158,-0.021873393633961676,-0.5117161811947822
1772527251475516200,1.05651611328125,-0.0176589908093214,-0.13668576772809027,-0.4812199206441641
1772527251485514200,1.06651416015625,-0.5330164511159062,-0.2520394090920687,-0.35680443642437454
1772527251495512000,1.076511962890625,-0.8913196016654372,-0.2883487398356199,-0.18714111272394657
1772527251505510100,1.08651025390625,-0.9942050988614558,-0.2920890954077244,-0.01953559833616018
1772527251515508000,1.096508056640625,-0.8544988142684101,-0.27858722427785393,0.06536766744554043
1772527251525505000,1.106505126953125,-0.570604131232202,-0.22109540477395057,0.08460457509607076
1772527251535503000,1.116503173828125,-0.33985680875480173,-0.10752513969540595,-0.026703298008441925
1772527251545501000,1.1265009765625,-0.11129062970876694,-0.0019125556230545043,-0.18411738098859787
1772527251555499000,1.1364990234375,0.09159721046239137,0.09154431123137474,-0.3102808779194951
1772527251565497000,1.1464970703125,0.22426497472077606,0.16350713915824888,-0.3916749665364623
1772527251575495000,1.156494873046875,0.2097021963611245,0.22494389689564703,-0.39000937141180037
1772527251585493000,1.166492919921875,0.10002133993655443,0.2169727718859911,-0.29279928950369355
1772527251595490000,1.176489990234375,0.011318681871891022,0.1370072547674179,-0.0903188610896468
1772527251605488000,1.186488037109375,0.029819384202361104,0.10608429323732853,0.14592822784781456
1772527251615486200,1.196486328125,0.008073708601295948,0.12842121272981166,0.36211394100934263
1772527251625484000,1.206484130859375,-0.051415422199666494,0.16970190214514733,0.554119444899261
1772527251635482400,1.216482421875,-0.11325257743149995,0.16071896974444388,0.7285203185155987
1772527251645480400,1.22648046875,-0.14666063377559185,0.041339726126194,0.9134080993548035
1772527251655478300,1.236478271484375,-0.12210574597269296,-0.058330608415603634,0.9955074136316776
1772527251665475300,1.246475341796875,-0.15978694959133863,-0.06495557951331138,0.9667956984102726
1772527251675473400,1.256473388671875,-0.18486819935590026,-0.09464870698750019,0.7760293809264898
1772527251685471200,1.26647119140625,-0.04290127635449171,-0.053201428833603855,0.40961335880905386
1772527251695469300,1.27646923828125,0.10092208816856145,-0.013763152414560317,0.0042912674531340594
1772527251705467100,1.286467041015625,0.28389409851431846,0.09550853868722915,-0.28031097933053967
1772527251715465200,1.29646533203125,0.45738253346085544,0.16706570842266083,-0.29161855528652664
1772527251725462500,1.306462646484375,0.4999117616325617,0.17265373768806455,-0.17578940536528825
1772527251735460400,1.31646044921875,0.44642157898545265,0.16195347997546194,-0.0001578209102153778
1772527251745458400,1.32645849609375,0.3070359046489,0.1137193181604147,0.20553163267821073
1772527251755456500,1.33645654296875,0.1326847153931856,0.03947159416675567,0.4377887751966715
1772527251765454300,1.346454345703125,0.04369681064635515,-0.014521277305483818,0.6632695554479956
1772527251775452400,1.356452392578125,0.06358195307254791,0.002974631896615028,0.761517455971241
1772527251785450200,1.3664501953125,0.026112054117023942,0.05280863012373447,0.6282219152033328
1772527251795447300,1.376447265625,0.17454992669820785,0.11260814204812049,0.4214090105429292
1772527251805445400,1.3864453125,0.38089229123741386,0.1711485938221216,0.16508914765268562
1772527251815443200,1.396443115234375,0.588368335981667,0.21506430791616438,-0.05986059446185827
1772527251825441300,1.406441162109375,0.6219044026196002,0.321903803434968,-0.21714783619195221
1772527251835439400,1.416439453125,0.6851897108331322,0.3948006973415613,-0.22687691078484057
1772527251845437200,1.426437255859375,0.7359039990261197,0.33969489619135856,-0.053103521417081356
1772527251855434500,1.4364345703125,0.5586936209470034,0.30389702210128305,0.07386515441685915
1772527251865432300,1.446432373046875,0.41371641021370886,0.2465162617564201,0.15234832402318715
1772527251875430400,1.456430419921875,0.42740152895599604,0.22369769622683525,0.21977643112987277
1772527251885428500,1.466428466796875,0.43964697028398514,0.22132278378903864,0.32689445132911205
1772527251895426300,1.47642626953125,0.4122235413074493,0.20219956564605235,0.3704743575975299
1772527251905424400,1.48642431640625,0.3844745336383581,0.1368465112477541,0.35907267361730333
1772527251915422500,1.49642236328125,0.32604864815473555,0.09003682927787303,0.33033436264991756
1772527251925419300,1.506419189453125,0.1922565560415387,0.021163784059882163,0.31321254745721816
1772527251935417300,1.516417236328125,0.0329328400477767,-0.004710077387094497,0.3154305157676339
1772527251945415200,1.526415283203125,-0.09290274010300635,-0.003474398112297058,0.27374825981408357
1772527251955413200,1.536413330078125,-0.13061024720668793,-0.03027180414497852,0.17141104415059089
1772527251965411300,1.546411376953125,-0.10544248820245265,-0.07467676306068897,0.05149520943760871
1772527251975409200,1.5564091796875,-0.12301380072832106,-0.12684534171521664,-0.07488309928774833
1772527251985406500,1.566406494140625,-0.1340881524503231,-0.13909808956682682,-0.20085428851693868
1772527251995404300,1.576404296875,-0.11778116077184676,-0.11288520542383193,-0.2824348396167159
1772527252005402400,1.58640234375,-0.10961714353859424,-0.10599018521308898,-0.28892010998278855
1772527252015400400,1.596400390625,-0.12328326531946658,-0.10525777928531169,-0.2406333411976695
1772527252025398300,1.606398193359375,-0.1474611365035176,-0.1467325299680233,-0.16400632085204123
1772527252035396400,1.616396240234375,-0.18929536814838646,-0.18487258327007292,-0.09565437689870596
1772527252045393200,1.62639306640625,-0.25068711770027874,-0.17670739699304103,-0.03102437607795
1772527252055391200,1.63639111328125,-0.26837942625731226,-0.12663023765981196,0.03698503804802895
1772527252065389300,1.646389404296875,-0.22831658819913864,0.006648351973295211,0.12644231387227772
1772527252075387100,1.65638720703125,-0.16054390543848276,0.12150105807781218,0.15500760636031627
1772527252085385200,1.66638525390625,0.032582711435854436,0.07092354800701141,0.16546002679169178
1772527252095383300,1.67638330078125,0.21538316460698842,0.03872632875740528,0.19260726917535065
1772527252105381400,1.68638134765625,0.21145020907223222,0.06362696125805378,0.18018471771478653
1772527252115378400,1.69637841796875,0.12301496977210044,0.04532791897952557,0.17957067746967076
1772527252125376300,1.706376220703125,0.0603536386758089,0.010167758271098136,0.157831723870337
1772527252135374300,1.716374267578125,0.0479036146864295,0.006909048736095428,0.11859949141740798
1772527252145372400,1.726372314453125,0.06115414140373468,0.025049685582518577,0.08656623055785893
1772527252155370200,1.736370361328125,0.13961071526408195,-0.0038221886366605756,0.13997721048891543
1772527252165368300,1.746368408203125,0.2733645211935043,0.009428922602534294,0.16837269936800003
1772527252175365400,1.756365478515625,0.34177199472635983,0.034629999354481696,0.1670446656346321
1772527252185363200,1.76636328125,0.3459934118136763,0.07492401582002639,0.16065467233657835
1772527252195361300,1.776361328125,0.3084764588460326,0.10167992079854012,0.16957535315603017
1772527252205359000,1.786359130859375,0.21615181089192628,0.08629939631521702,0.21001754592061042
1772527252215357200,1.796357177734375,0.12205869196057319,0.06769406456649303,0.2684592134952545
1772527252225355300,1.806355224609375,0.012073591892421244,0.047151627275347704,0.27469723110198974
1772527252235353300,1.816353271484375,-0.0723012661010027,0.026350246787071225,0.2240247362241149
1772527252245350400,1.826350341796875,-0.07331219670921564,0.016579963400959966,0.13062486025393008
1772527252255348500,1.836348388671875,-0.006613280659914017,0.009434183299541472,-0.0027852468043565747
1772527252265346300,1.84634619140625,0.08250818733870982,0.014403203883767127,-0.14513853877484797
1772527252275344400,1.856344482421875,0.09559855505824089,0.03931961847543716,-0.2757853185996413
1772527252285342500,1.866342529296875,0.09140461049973964,0.03795885151624679,-0.34581396359354255
1772527252295340300,1.87634033203125,0.08982143296152353,0.020489245799183844,-0.3612307284340262
1772527252305337300,1.88633740234375,0.06253332080245018,-0.012328151175379753,-0.27920769426375625
1772527252315335200,1.896335205078125,0.046855859199166294,-0.058309565627574916,-0.15518383971005678
1772527252325333200,1.906333251953125,-0.008347264845669269,-0.054683191823959344,-0.04490647869706153
1772527252335331300,1.916331298828125,-0.08315846794098615,-0.037865912535786625,0.04851473232209682
1772527252345329400,1.926329345703125,-0.0850038035467267,-0.044434769532084466,0.11745295173078775
1772527252355327500,1.936327392578125,-0.0482958288744092,-0.05557341866195201,0.16043869149833917
1772527252365325600,1.94632568359375,-0.0310547712162137,-0.05691781900823116,0.17329554272294043
1772527252375322400,1.956322265625,0.009238368466496467,-0.017124737802147863,0.1954220343351364
1772527252385320400,1.966320556640625,0.11172200686335564,-0.01066343283355236,0.20685791284590957
1772527252395318300,1.976318359375,0.18117255970835686,0.014365794482827186,0.1601370782032609
1772527252405316400,1.98631640625,0.1892369159594178,0.07966624191105365,0.09663812723904848
1772527252415314400,1.996314453125,0.17554565973728894,0.11943185058832168,0.03156009038984775
1772527252425312300,2.006312255859375,0.19139146364480256,0.14188450541496275,-0.01089694932848215
1772527252435309300,2.016309326171875,0.2327361582070589,0.07637713723778725,0.00765314510166645
1772527252445307100,2.02630712890625,0.2155734264820814,-0.030500352203845976,0.04523381095528602
1772527252455305200,2.03630517578125,0.14744710797816515,-0.08723287777304649,0.10375848063826561
1772527252465303300,2.04630322265625,0.09608955344557761,-0.09010463381707667,0.15402122567147017
1772527252475301400,2.05630126953125,0.09386281730681657,-0.08672434372901916,0.1758870205208659
1772527252485299500,2.066299560546875,0.12545739448815582,-0.055149640291929244,0.1701473078250885
1772527252495297500,2.076297607421875,0.1362692958816886,-0.015149638336896896,0.16659136890918017
1772527252505294300,2.08629443359375,0.1376695180684328,-0.01528933906853199,0.13801847763657568
1772527252515292400,2.09629248046875,0.12747311822474003,-0.03935819692015648,0.0988309611082077
1772527252525290200,2.106290283203125,0.07392039173543453,-0.04593348365724086,0.1049418452039361
1772527252535288300,2.116288330078125,0.026370412792265412,-0.014694295784831047,0.1139253621265292
1772527252545286400,2.126286376953125,-0.010440145471692084,0.01992693574130535,0.11342471912801265
1772527252555284200,2.1362841796875,0.008476151922345162,0.027303017467260358,0.07040624613463878
1772527252565281300,2.14628125,0.06927198140770197,0.024033202016353606,0.03182429428398609
1772527252575279400,2.156279296875,0.14620236861407757,0.04911795891225338,-0.027590017715096473
1772527252585277400,2.16627734375,0.18307371715456247,0.07603753001987934,-0.07534954775571823
1772527252595275500,2.176275634765625,0.18562369389832017,0.05664367824196815,-0.1017082701101899
1772527252605273300,2.1862734375,0.17011282103359698,0.04335515760183334,-0.0678328885152936
1772527252615271400,2.196271484375,0.09178454972803592,0.041894437399506566,-0.015489830076694487
1772527252625268200,2.206268310546875,0.018448095360398292,0.025671616873145103,0.04787351180911064
1772527252635266800,2.216266845703125,-0.02659925311207771,0.018206103298068047,0.08235650390833615
1772527252645264600,2.2262646484375,-0.05627367588579654,0.006141571494936942,0.11852321131080389
1772527252655262700,2.2362626953125,-0.06492518437504768,0.02118482684791088,0.11286240907013416
1772527252665260500,2.246260498046875,-0.027826456819474696,0.021937106519937515,0.07456570390164852
1772527252675258600,2.256258544921875,0.04117664451897144,-0.025967384949326513,0.03946399538218975
1772527252685256700,2.266256591796875,0.068050330658257,-0.011308744999766349,-0.02589695006161928
1772527252695253500,2.27625341796875,0.07287643564045429,0.015697919869422913,-0.034247429777681825
1772527252705251600,2.28625146484375,0.11411357817500829,0.010699673190712928,0.002543547002971172
1772527252715249700,2.296249755859375,0.12770634245872498,0.03390343864560127,-0.01121112984418869
1772527252725247700,2.306247802734375,0.12050386373400687,0.03851940800845623,-0.04484218128919601
1772527252735245800,2.316245849609375,0.1278700085878372,-0.0014075287103652954,-0.07354045250713825
1772527252745244000,2.326243896484375,0.10565554643124342,-0.012715689188241957,-0.0925330300077796
1772527252755240700,2.33624072265625,0.07860942633450031,0.01789572217464447,-0.11712854208201169
1772527252765238800,2.34623876953125,0.025678923396766185,0.009399111986160278,-0.12490443678051233
1772527252775236600,2.356236572265625,0.02891717466562986,-0.025167759004235266,-0.10943214236050844
1772527252785234700,2.366234619140625,0.03628916473835706,-0.05705284356474876,-0.05746726958453655
1772527252795232800,2.376232666015625,-0.06087094054818153,-0.09601824177503586,-0.023521745362877846
1772527252805230600,2.386230712890625,-0.12953209658116102,-0.07030220123827458,0.03009440175145864
1772527252815228700,2.396228759765625,-0.1268883040741086,-0.04270867639183998,0.0683250559464097
1772527252825225500,2.4062255859375,-0.12949848657250404,-0.05419160891473293,0.053226271013915534
1772527252835223600,2.4162236328125,-0.10867138712108135,-0.04094049767553806,0.01533113238364458
1772527252845221600,2.4262216796875,-0.061305240312218665,0.004881926822662353,0.021613865914940834
1772527252855219700,2.4362197265625,-0.045754912219941615,0.018543372428417203,0.07497486922442913
1772527252865217800,2.4462177734375,-0.0011561842978000641,0.034850948628783227,0.12381079632490873
1772527252875216000,2.4562158203125,0.12289689635038376,0.008518822020292282,0.16973989606797693
1772527252885212700,2.466212646484375,0.19226883100122213,-0.04666004436612129,0.1773001021891832
1772527252895210800,2.476210693359375,0.17047113295197486,-0.0871451994895935,0.17472031482905148
1772527252905208600,2.48620849609375,0.0972667805314064,-0.07140227143466472,0.17405249857008456
1772527252915206700,2.49620654296875,0.05921089838147163,-0.027202479702234265,0.15239216316491364
1772527252925204700,2.506204833984375,0.08848550818264483,0.017165654334425927,0.13698855006694793
1772527252935202600,2.51620263671875,0.1538008609190583,0.06774024179577827,0.10385258866250514
1772527252945200600,2.52620068359375,0.2235252622693777,0.04649754728078842,0.08418488837927579
1772527252955197700,2.53619775390625,0.24346038131713865,-0.005671031373739242,0.08659779473990202
1772527252965195800,2.54619580078125,0.16786328854113816,-0.010194061756134033,0.1092266829162836
1772527252975193900,2.55619384765625,0.05840455043464899,-0.0013338789522647856,0.14867664977312087
1772527252985191700,2.566191650390625,-0.042866205041110515,-0.0182820911437273,0.15800678817629812
1772527252995189800,2.576189697265625,-0.08910714721232652,-0.03203063051104545,0.17027999429404733
1772527253005187800,2.586187744140625,-0.06668254943639039,0.0074228434771299355,0.16647592583596704
1772527253015184600,2.5961845703125,-0.02258475677371025,0.04408113378882408,0.13144435994327067
1772527253025182700,2.6061826171875,-0.03472264607399702,0.00027706337571144104,0.06870733326226472
1772527253035180500,2.6161806640625,-0.02897124294042587,0.00912497121989727,-0.030952187624573704
1772527253045178600,2.6261787109375,0.023885025717318056,0.01760112314224243,-0.10213029491454362
1772527253055176700,2.6361767578125,0.09205138397067784,-0.04698562305867671,-0.15812690742462873
1772527253065174500,2.646174560546875,0.10755524257272481,-0.012261515679955481,-0.17506372143924234
1772527253075172600,2.656172607421875,0.040756665541231626,0.011061492240428924,-0.17281594251245258
1772527253085169700,2.666169677734375,-0.030079496443271635,0.00824701934158802,-0.1051598718687892
1772527253095167700,2.676167724609375,-0.08396744623631239,0.024672084441781043,-0.038761692331731316
1772527253105165800,2.686165771484375,-0.03891337576210498,-0.00289221431016922,0.05675795227140188
1772527253115163600,2.69616357421875,0.09203267927020788,-0.05945113687813282,0.14574527249634264
1772527253125161700,2.70616162109375,0.18586597822159528,-0.10182079057395457,0.22296733612567185
1772527253135159800,2.716159912109375,0.11215163045227527,-0.18619301821887493,0.2563677936851978
1772527253145156600,2.726156494140625,0.018028700904548167,-0.14595277776718138,0.2593792504608631
1772527253155154700,2.73615478515625,-0.05200958870053291,-0.0834369926214218,0.22082272531241176
1772527253165152800,2.74615283203125,-0.08067220408320426,-0.06566869621872902,0.18265987565666436
1772527253175150600,2.756150634765625,-0.04959492877423763,-0.023281506866216658,0.19008359591662882
1772527253185148700,2.766148681640625,-0.011665595613420008,-0.0039759178936481475,0.17771335916519165
1772527253195146500,2.776146484375,-0.0033399580776691433,-0.04733282906115055,0.14614508546888827
1772527253205143800,2.786143798828125,0.04871639237403869,0.026877485531568525,0.06460603542327881
1772527253215142000,2.796141845703125,0.11920447157323359,0.07570844419598578,0.02000584619641304
1772527253225139700,2.8061396484375,0.16665274370759725,0.042916181662678715,0.052361763139069074
1772527253235137800,2.8161376953125,0.1713207355186343,0.04765197801291942,0.05203267731517553
1772527253245136000,2.826135986328125,0.17721856138557196,0.05357201571166515,0.03465980997085571
1772527253255133700,2.8361337890625,0.17689210591018198,0.02107552125453949,0.060663435277342796
1772527253265131800,2.8461318359375,0.17823007651567457,-0.01611585302054882,0.12534633532911538
1772527253275128600,2.856128662109375,0.1507514102205634,-0.05473521427214145,0.2173319605872035
1772527253285126700,2.866126708984375,0.07872545392960309,-0.07729659017026425,0.30484336304068566
1772527253295124700,2.876124755859375,0.018491934502124784,-0.10360299781560897,0.36543227177709336
1772527253305122600,2.88612255859375,0.00468903459906578,-0.0842430483072996,0.34166824209094043
1772527253315120600,2.89612060546875,0.014395312838256359,-0.038865444967150685,0.25563918714970346
1772527253325118700,2.90611865234375,0.0368760247156024,0.010882628542184828,0.1677209574609995
1772527253335115800,2.91611572265625,0.059875207509100435,0.013484335473179817,0.02624415606409311
1772527253345113900,2.92611376953125,0.0983165818452835,0.010263035339117049,-0.09841536604464053
1772527253355111700,2.936111572265625,0.11254618272781372,0.0011310498565435408,-0.1132522851705551
1772527253365109800,2.94610986328125,0.06989362043738365,0.03415829018950462,-0.12498247045278549
1772527253375107800,2.95610791015625,0.023554478588700294,0.07086568033993244,-0.14941577770262957
1772527253385105700,2.966105712890625,0.0024421324551105496,0.08677636617720126,-0.14176000225245952
1772527253395103700,2.976103759765625,-0.007375497204065323,0.08044307150244713,-0.08866524866372347
1772527253405100500,2.9861005859375,-0.01452595348060131,0.022570143726468084,-0.007204232290387153
1772527253415098600,2.9960986328125,-0.014089607889950275,-0.03409691539108753,0.03728665134310722
1772527253425096700,3.0060966796875,-0.050227673719823354,-0.059848611763119695,0.06187748724222183
1772527253435094500,3.016094482421875,-0.048132455006241796,-0.08007599175572395,0.06595774229317904
1772527253445092600,3.026092529296875,-0.02519289344549179,-0.10238777680695056,0.03530161500573158
1772527253455090700,3.036090576171875,-0.011609189251065254,-0.10304185680150985,0.048752924992144106
1772527253465087700,3.046087646484375,-0.02624327928125858,-0.08207739470601082,0.04966068748682737
1772527253475085800,3.0560859375,-0.021948504696786404,-0.05949322245419025,0.031181027944386003
1772527253485083600,3.066083740234375,-0.00691986239105463,-0.0513216064363718,-0.012307400648295878
1772527253495081700,3.076081787109375,0.009912906727194786,-0.04959317520856857,-0.04419570007920265
1772527253505079800,3.086079833984375,0.027407354624569415,-0.025159575697779653,-0.07036503734141587
1772527253515077600,3.09607763671875,0.011646598652005196,0.014347089782357216,-0.09659019644409418
1772527253525074700,3.10607470703125,-0.005253390483558178,0.04123334314227104,-0.1140372980684042
1772527253535072500,3.116072509765625,-0.021998773579299448,0.04148994825184345,-0.08462444884032011
1772527253545070600,3.126070556640625,-0.04322890087366104,0.04819149171710014,-0.05470481913387775
1772527253555068700,3.136068603515625,-0.02547171038687229,0.037761867639422415,-0.0033007951110601425
1772527253565066500,3.14606640625,-0.014341829085350036,0.03164192345440388,0.005864800380170345
1772527253575064600,3.156064697265625,0.023533435800671576,0.04693886130750179,0.02437777767032385
1772527253585062700,3.166062744140625,0.07199906828403473,0.04774082534015178,0.029584698663651942
1772527253595059700,3.176059814453125,0.14441314710974693,0.015175941821932791,0.0057250996485352515
1772527253605057800,3.186057861328125,0.16216010846346615,-0.03255962282121181,-0.009674421796202658
1772527253615055600,3.1960556640625,0.12888444632738827,-0.027194880917668342,0.005187339510023594
1772527253625053700,3.2060537109375,0.1124205105215311,0.007548515683412552,0.018990823934972284
1772527253635051500,3.216051513671875,0.06503565901219845,-0.07611877856254577,0.023703823931515215
1772527253645049300,3.22604931640625,-0.000635083033144474,-0.08047054403126239,0.02721884631514549
1772527253655046400,3.23604638671875,-0.024247137027978895,-0.03532324231564998,0.048805531962215896
1772527253665044200,3.246044189453125,-0.02848813559859991,-0.03178980749249458,0.08386573942750691
1772527253675042300,3.256042236328125,0.034652503447234625,-0.0702092622578144,0.13577216001451015
1772527253685040400,3.266040283203125,0.10640636479854583,-0.07011281614601611,0.148504800337553
1772527253695038200,3.2760380859375,0.10346855778098106,-0.05972469312250614,0.1358905256971717
1772527253705036300,3.286036376953125,0.028586627537012098,-0.05513794985413551,0.09593465514481067
1772527253715034400,3.296034423828125,-0.011075520765781402,-0.041811435291171074,0.05338321514129638
1772527253725031400,3.306031494140625,0.015111644414067267,-0.011361351969838143,0.0449035560876131
1772527253735029500,3.316029541015625,0.06702654056847095,-0.023343466186523436,0.0037441549643874167
1772527253745027300,3.32602734375,0.09501812482178211,-0.07257891399860382,-0.061986208313703536
1772527253755025400,3.336025390625,0.07734452096521854,-0.08728606926500797,-0.06725830349773168
1772527253765023500,3.3460234375,0.04021072209626436,-0.0742266812056303,-0.013335282391309737
1772527253775021300,3.356021240234375,0.024724399150907992,-0.04814414544403553,0.0059074704781174655
1772527253785018400,3.366018310546875,0.05309972202479839,-0.05368190582692623,-0.04139496344476938
1772527253795016400,3.376016357421875,0.12666326314657925,-0.043292613759636875,-0.09485504321455955
1772527253805014300,3.38601416015625,0.17545038266927002,-0.022699907585978507,-0.09217004191428423
1772527253815012400,3.396012451171875,0.16778496260792017,0.0023860183537006375,-0.09559884731918573
1772527253825010400,3.406010498046875,0.11797113038599491,0.02963525980710983,-0.08372107025980949
1772527253835008300,3.41600830078125,0.056653907375037664,0.021110592567920684,-0.05791998178809881
1772527253845006600,3.426006591796875,-0.005001169288158416,0.0166308168053627,-0.004669745376706123
1772527253855003400,3.43600341796875,-0.05787935751676559,0.056653030592203134,0.031184827336668965
1772527253865001500,3.44600146484375,-0.11259411352276802,0.05259878676533699,0.024254735812544823
1772527253874999600,3.45599951171875,-0.1532721608698368,0.026496377259492873,-0.006812894885241985
1772527253884997400,3.465997314453125,-0.1535375338077545,-0.005263619616627693,-0.02741407662630081
1772527253894995500,3.475995361328125,-0.10044833317697048,-0.041841830429434776,-0.00019026187509298324
1772527253904993500,3.48599365234375,-0.019558102428913114,-0.09687982704043388,0.07222469373345375
1772527253914990300,3.495990234375,0.038514439572393894,-0.13250234456360338,0.16453239055275917
1772527253924988400,3.505988525390625,0.06282412044256926,-0.14712357511222363,0.2364107550665736
1772527253934986200,3.515986328125,0.034905016903579236,-0.10666121634244918,0.22872838387042282
1772527253944984300,3.525984375,0.029423078361153602,-0.042485389029979705,0.16291268039643764
1772527253954982400,3.535982421875,0.13015548917651176,-0.03205167329907417,0.07068886246830225
1772527253964980500,3.54598046875,0.19862638333439825,-0.044947979751229286,-0.0034700141981244084
1772527253974978600,3.555978515625,0.2091822641402483,-0.04045183737576007,-0.06635872430950403
1772527253984975400,3.565975341796875,0.17538228586912155,-0.021314006185531614,-0.09247720816731453
1772527253994973400,3.575973388671875,0.10696458320319652,0.010949848559498786,-0.08915946192145346
1772527254004971500,3.585971435546875,0.04848521396666765,0.004604278925061225,-0.0375903104647994
1772527254014969300,3.59596923828125,-0.010056114590168,-0.026250878065824507,0.052696109659969806
1772527254024967400,3.605967529296875,-0.03438274659514427,-0.04286766634583473,0.15867781930565833
1772527254034965500,3.615965576171875,-0.020470833359658717,-0.04570785820782184,0.24653613550066947
1772527254044962300,3.62596240234375,-0.023298750261962414,0.003991115462779998,0.30107173554748295
1772527254054960400,3.63596044921875,-0.0002674187645316124,0.08795242421925067,0.26204613158255813
1772527254064958200,3.645958251953125,0.07012362980097532,0.07372165429294109,0.19712825373113155
1772527254074956500,3.65595654296875,0.1308092769101262,0.021907880425453184,0.1464268250197172
1772527254084954600,3.66595458984375,0.15603899523466824,0.020148469537496567,0.12453852607756852
1772527254094952400,3.675952392578125,0.1577694722890854,0.023290274694561956,0.086788056614995
1772527254104949500,3.685949462890625,0.1792535743445158,-0.0027244565278291702,0.023656185397505757
1772527254114947300,3.695947265625,0.18747399794012307,0.019201544076204297,-0.01872135934382677
1772527254124945400,3.7059453125,0.20079145241379737,0.0963514192521572,-0.035171266624331475
1772527254134943500,3.715943603515625,0.20592209330052136,0.12688508920371533,-0.06952361808121205
1772527254144941300,3.72594140625,0.17453268330246208,0.05558861623108387,-0.10012187770158051
1772527254154939400,3.735939453125,0.1542617564290762,-0.014961422288417816,-0.028665537992119787
1772527254164937500,3.7459375,0.12214900059252977,-0.01287292557656765,0.07429653157144785
1772527254174934300,3.755934326171875,0.08986731792986392,-0.009899462723731994,0.12383330041766166
1772527254184932400,3.765932373046875,0.04058101671338081,-0.0055050271570682525,0.13494447701871395
1772527254194930400,3.775930419921875,-0.01726385401189327,-0.012810381734371185,0.15364304000884293
1772527254204928500,3.785928466796875,-0.008716390419006348,0.00189443544447422,0.15904109966009855
1772527254214926600,3.795926513671875,0.05511164636909961,-0.02872808183431625,0.13535364234149455
1772527254224924400,3.80592431640625,0.07845423577278852,-0.05777355905473232,0.11057575943768023
1772527254234921500,3.81592138671875,0.07232347793281078,-0.037862405404448504,0.07991437145322561
1772527254244919600,3.82591943359375,0.07087678625583649,0.02545651281774044,0.036160569922626014
1772527254254917400,3.83591748046875,0.09374942006021737,0.09251520209014415,-0.022897768245637416
1772527254264915500,3.84591552734375,0.17616349937468767,0.10370295105874537,-0.05769669442623853
1772527254274913300,3.855913330078125,0.22757746026962994,0.08205109122097491,-0.07212474049031734
1772527254284911400,3.865911376953125,0.2240174297004938,0.05615735602974891,-0.02553220840245485
1772527254294909400,3.875909423828125,0.20354513503611085,0.010053776502609251,0.05110708690285683
1772527254304906500,3.885906494140625,0.12587503537833689,0.01120586914718151,0.13065350182652472
1772527254314904600,3.895904541015625,0.03594868073761463,0.0017909750699996946,0.178839148324728
1772527254324902700,3.905902587890625,-0.013712006749212741,-0.01535246743261814,0.18675737410336732
1772527254334900500,3.915900390625,-0.03771101423501968,0.008734510597586632,0.14973317308872938
1772527254344898600,3.925898681640625,-0.02307750872671604,0.0062456163913011545,0.07164484801888465
1772527254354896400,3.935896484375,-0.02253945632725954,0.039888942795991894,0.004163549420237541
1772527254364893400,3.9458935546875,0.00008095628172159194,0.0785264242261648,-0.07874328184723854
1772527254374891500,3.9558916015625,0.06563625525385142,0.03825754220187664,-0.14628127906918525
1772527254384889300,3.965889404296875,0.10909604227393865,-0.011053893455862999,-0.1782680704385042
1772527254394887400,3.975887451171875,0.09353548504859209,-0.04947276369929313,-0.15092793583124875
1772527254404885500,3.985885498046875,0.05230155738443136,-0.055984922072291374,-0.09041618398427963
1772527254414883300,3.99588330078125,0.04101180934607982,-0.03382686627805233,-0.0439124992236495
1772527254424880400,4.00588037109375,0.044964930886030194,-0.03221943108141422,0.004074117571115494
1772527254434878500,4.01587841796875,0.04190554331541061,-0.05815174471735954,0.055925885361433024
1772527254444876500,4.02587646484375,-0.019929858350753782,-0.11094050109684467,0.0974105729162693
1772527254454874600,4.03587451171875,-0.06212064834833145,-0.11253975298702716,0.16837971363067625
1772527254464872400,4.04587255859375,-0.096325700289011,-0.08763502883315086,0.18731793059557675
1772527254474870500,4.05587060546875,-0.10843991645276546,-0.08317804942429065,0.1693096879571676
1772527254484868600,4.06586865234375,-0.0787970578610897,-0.04716857841014862,0.14280805000066757
1772527254494865400,4.075865478515625,0.0029626491978764534,0.0032832594543695448,0.08369330547004937
1772527254504863500,4.085863525390625,0.06244622704088688,0.012357961791753767,0.010270634123682976
1772527254514861300,4.095861328125,0.10167787497192621,0.05945289044380188,-0.07095072827488183
1772527254524859400,4.105859375,0.10451894361674785,0.05473579879403114,-0.07347966223061084
1772527254534857500,4.115857421875,0.08323182543814182,0.04476736248731613,-0.03763181151896715
1772527254544855300,4.125855224609375,0.1059782025143504,0.01743862605690956,0.031005086855590343
1772527254554852600,4.1358525390625,0.1490650645688176,-0.007578326299786567,0.10189268676638602
1772527254564850400,4.145850341796875,0.14773644631356,-0.03810089033544063,0.12252952434271573
1772527254574848500,4.1558486328125,0.1308545773565769,-0.06516250026226043,0.12115502111911773
1772527254584846600,4.1658466796875,0.07461305017471313,-0.09337328022420406,0.12981588195860386
1772527254594844400,4.175844482421875,-0.006928045697510242,-0.10179448708891868,0.15620499945133923
1772527254604842500,4.185842529296875,-0.0704009854376316,-0.10176467647254467,0.1739405626282096
1772527254614840600,4.195840576171875,-0.0709632954955101,-0.11155717169046402,0.18609686436802148
1772527254624837400,4.20583740234375,-0.017270576013624667,-0.08761340152323245,0.17566256411522627
1772527254634835700,4.215835693359375,0.041571196794509886,-0.0496703320980072,0.13385960439145564
1772527254644833800,4.225833740234375,0.08671499137878418,-0.04857026190161705,0.056740708875656125
1772527254654831600,4.23583154296875,0.12710866882652044,-0.008884732723236083,0.007627133877575397
1772527254664829700,4.24582958984375,0.1979319713294506,0.0363379723161459,-0.05651917507946491
1772527254674827800,4.255827880859375,0.22014146504998205,-0.00464110380411148,-0.08859861316829919
1772527254684824800,4.265824951171875,0.14725830740779638,-0.034741643035411836,-0.09456219774782657
1772527254694823000,4.275822998046875,0.05132452904582023,0.01707739152908325,-0.05814385367184877
1772527254704820700,4.28582080078125,-0.035577217076718806,0.04861994626224041,-0.03730243343412876
1772527254714818800,4.29581884765625,-0.07870470340251923,0.047096682217717165,-0.009780512519180775
1772527254724817000,4.30581689453125,-0.09022709115296602,0.043348727861046786,0.008149111925065518
1772527254734814700,4.315814697265625,-0.06991027931123972,0.035141456007957456,0.032877602729201316
1772527254744811800,4.325811767578125,-0.041758243799209595,0.0264472774207592,0.03724836515933275
1772527254754809600,4.3358095703125,-0.005643558844923973,0.025454759252071378,0.03297930953800678
1772527254764807700,4.3458076171875,0.0469362309589982,0.02889408605098724,0.018751169960200785
1772527254774805800,4.3558056640625,0.11994535306841134,0.009656886139512062,-0.01588964304924011
1772527254784803600,4.365803466796875,0.13543109149187801,-0.004938040924072265,-0.02863485059291124
1772527254794801700,4.3758017578125,0.10709902323782443,-0.010748773029446601,-0.024647242261469363
1772527254804799700,4.3857998046875,0.061544309765100474,-0.030867431950569152,-0.0037760114073753354
1772527254814796800,4.395796875,0.03213467540740966,-0.05686638108193874,0.03533610179722309
1772527254824795000,4.405794921875,0.019180501288175583,-0.070471128064394,0.07481909414082766
1772527254834792700,4.415792724609375,0.021593115387856958,-0.081603347453475,0.0731654817149043
1772527254844790800,4.425790771484375,0.01303454587906599,-0.06056114394664764,0.05052168823033571
1772527254854788900,4.435788818359375,-0.006525017854571342,-0.05704524478018284,0.01657733305245638
1772527254864786700,4.44578662109375,0.03456277933716774,-0.037109541210532185,0.0033951953962445256
1772527254874783700,4.45578369140625,0.08874474364072084,-0.002100187149643898,-0.021383272029459475
1772527254884781600,4.465781494140625,0.09098609282672404,-0.015161913296580313,-0.018947277054190633
1772527254894779600,4.475779541015625,0.05923135664761066,-0.016180734950304032,0.018135960671305656
1772527254904777700,4.48577783203125,0.053906946754455565,0.006387655210494995,0.06667232030332088
1772527254914775600,4.495775634765625,0.08812690400332211,0.048369186371564864,0.0956891559511423
1772527254924773600,4.505773681640625,0.06713467711806297,0.01066518639922142,0.07579846056699753
1772527254934771000,4.51577099609375,-0.022425474558770656,0.033652678754925724,0.020998948886990547
1772527254944768800,4.525768798828125,-0.012274375161528586,0.08150982395112515,0.00868015006184578
1772527254954766800,4.535766845703125,0.06816226660013198,0.0824701934158802,-0.007821487405896187
1772527254964764700,4.5457646484375,0.11796937682032585,0.05059153859615326,-0.04689239181727171
1772527254974762800,4.5557626953125,0.1304135555908084,0.023566169026494024,-0.05662935745567083
1772527254984760800,4.5657607421875,0.11657996828854084,0.02215221057534218,-0.037624797256290914
1772527254994758700,4.575758544921875,0.11859101585000753,0.02099018105864525,0.011695698490738869
1772527255004755700,4.585755615234375,0.10532207669317721,0.02448912909030914,0.05646598358750343
1772527255014753800,4.59575390625,0.09930588514357805,0.017094927185773847,0.08833119440376758
1772527255024751600,4.605751708984375,0.08919394871294498,-0.0062134676873683925,0.10456687441170215
1772527255034749700,4.615749755859375,0.08040800018906592,-0.0162561382740736,0.10157295329272746
1772527255044747800,4.625747802734375,0.06449585304707288,-0.02115267814397812,0.08605302033871412
1772527255054745600,4.63574560546875,0.07383037536442279,-0.021900866162776946,0.058551849950850006
1772527255064743000,4.645742919921875,0.06371639310717582,-0.023797639694809913,0.03580722644031047
1772527255074740700,4.65574072265625,0.02670212896466255,-0.020479308927059174,0.011446692165732382
1772527255084738800,4.66573876953125,-0.002797521764039993,-0.009820552268624305,0.010009937360882758
1772527255094737000,4.67573681640625,-0.02740326297134161,-0.002735562443733215,0.0013519991308450698
1772527255104734700,4.685734619140625,-0.041003041517734526,-0.009249474382400513,-0.017895137652754783
1772527255114732800,4.69573291015625,-0.03930266734063625,-0.03213467540740966,0.0004991816937923431
1772527255124731000,4.70573095703125,0.006501052457094192,-0.030052023914456365,0.06147855105251074
1772527255134727700,4.715727783203125,0.032926410306990145,-0.0306301160633564,0.11944178746044636
1772527255144725800,4.725725830078125,0.046394379167258734,-0.03968611370027065,0.13555676369816064
1772527255154723600,4.7357236328125,0.05335223548114299,-0.025539514926075934,0.16563333753198384
1772527255164721700,4.7457216796875,0.05570201347768306,-0.01802548603415489,0.17227964367866516
1772527255174719700,4.7557197265625,0.0716445557579398,-0.012574234890937805,0.16401567320227622
1772527255184717600,4.765717529296875,0.11292319934666156,-0.013005027523636817,0.16657529455721376
1772527255194715000,4.77571484375,0.15679741238653658,-0.006008885025978088,0.15359189434349535
1772527255204712700,4.785712646484375,0.1697483716353774,0.001734276446700096,0.11735825918465852
1772527255214710800,4.795710693359375,0.13089987780302761,-0.01908873135149479,0.07660831564515828
1772527255224708900,4.805708984375,0.08188800961375237,0.0034130233138799666,0.047967327572405336
1772527255234706700,4.815706787109375,0.028109365414083,-0.010126257216930388,0.05417202743142843
1772527255244704800,4.825704833984375,0.000398059406876564,-0.030139117676019667,0.07981821760237216
1772527255254701600,4.83570166015625,-0.020572540168464184,-0.037818566262722016,0.09731909524053335
1772527255264699600,4.84569970703125,-0.007618073788285255,-0.0244908826559782,0.08319441603720187
1772527255274697700,4.85569775390625,0.0011836568266153334,-0.019648118799924848,0.05270341618359089
1772527255284695600,4.865695556640625,-0.017967910628020764,-0.020288754791021345,0.04452712399065494
1772527255294693600,4.875693603515625,0.00770107589662075,0.020960370442271233,0.030123920106887817
1772527255304691700,4.885691650390625,0.03221154003590345,0.05805705217123031,-0.024647242261469363
1772527255314689500,4.895689453125,0.08898965831249951,0.04365677089691162,-0.060491293580830094
1772527255324686800,4.905686767578125,0.13595569988787173,0.038244682720303534,-0.0580029838964343
1772527255334684700,4.9156845703125,0.14353987140655516,0.012405892586708068,-0.016260522188246248
1772527255344682800,4.925682861328125,0.10622837788313627,-0.009472761744260788,0.028741818098723886
1772527255354680800,4.935680908203125,0.0500341969743371,-0.005681552767753601,0.09565934533476829
1772527255364678700,4.9456787109375,0.03208528330773115,-0.014968436551094054,0.11606763485223054
1772527255374676700,4.9556767578125,0.04762918165922165,-0.015303952115774153,0.12163929750472306
1772527255384673500,4.965673583984375,0.07218816111534833,-0.0035842882275581357,0.09653788173496723
1772527255394671600,4.975671630859375,0.08028525059223175,0.009115034347772598,0.04876870708316564
1772527255404669700,4.985669677734375,0.08260463345050811,0.00005611410140991211,0.0027478374034166334
1772527255414667500,4.99566748046875,0.06346680226027965,0.009551672199368475,-0.0036909634724259376
1772527255424665600,5.00566552734375,0.016864917822182177,0.01153963114619255,0.018501579113304613
1772527255434663700,5.01566357421875,0.004115034103393554,0.02403086392879486,0.04643471117764711
1772527255444661500,5.02566162109375,0.033173955327272416,0.05407821166813373,0.06580839695036411
1772527255454658800,5.035658935546875,0.0762000271052122,0.05556465083360672,0.07523673503100872
1772527255464657000,5.045656982421875,0.10546849942654371,0.03318681480884552,0.07241144847720861
1772527255474654700,5.05565478515625,0.10104337646067142,0.02017126589119434,0.07097936984747648
1772527255484652800,5.06565283203125,0.08773556659817695,-0.011297054561972617,0.06377572207897901
1772527255494650600,5.075650634765625,0.06983429146558046,-0.0357364992916584,0.041465398332476616
1772527255504648700,5.085648681640625,0.056847091859579084,-0.03705927232801914,0.018593933571875096
1772527255514645800,5.095645751953125,0.044971360626816746,-0.053670799911022186,-0.009303542657196521
1772527255524643600,5.1056435546875,0.0474614238768816,-0.041999651339650154,-0.027817104469239712
1772527255534641700,5.1156416015625,0.05114098917245864,-0.02890811457633972,-0.0006613865181803703
1772527255544639700,5.1256396484375,0.030194647255539893,-0.039322541084885594,0.03625058629363775
1772527255554637600,5.135637451171875,0.010216565848886966,-0.032329905718564984,0.06271744519770145
1772527255564635600,5.1456357421875,-0.00997018987238407,-0.008372691547870636,0.07702800236195326
1772527255574632700,5.1556328125,-0.0015846388429403304,-0.0008645078748464583,0.09489595974683761
1772527255584630800,5.165630859375,0.025968553993105888,-0.035191140368580814,0.11227847170233726
1772527255594628900,5.17562890625,0.05081657952368259,-0.04141103779673576,0.11549509566128253
1772527255604626700,5.185626708984375,0.08543430391848086,-0.028049451920390128,0.08357698561400174
1772527255614624800,5.195624755859375,0.10364274530410766,0.001142155772447586,0.07393091312944888
1772527255624622800,5.205622802734375,0.1478916368752718,0.01324935767352581,0.04511339944601059
1772527255634620200,5.2156201171875,0.16699702710062264,0.014951485416293143,0.032763328699767585
1772527255644617200,5.2256171875,0.15966098512411117,0.013702362138032912,0.04907821142375469
1772527255654615300,5.235615234375,0.12211129893064498,-0.01655015278458595,0.05607786105275154
1772527255664613000,5.245613037109375,0.06589052227586507,-0.028891747963428496,0.06603373013883829
1772527255674611500,5.255611572265625,0.03180938897579908,-0.008453940090537071,0.0778296741336584
1772527255684609500,5.265609619140625,0.043597734186053276,-0.0022515783190727233,0.0699061876580119
1772527255694607400,5.275607421875,0.04994885677844286,-0.026686346873641013,0.04220511078387498
1772527255704604400,5.2856044921875,0.04074029892832041,-0.04648936397433281,0.04018178826272487
1772527255714602200,5.295602294921875,0.012354746921360491,-0.05216624056696891,0.072505848762393
1772527255724600300,5.305600341796875,-0.011707681189477443,-0.04701601819694042,0.0844523071438074
1772527255734598400,5.315598388671875,0.008199673068523407,-0.03218611333370208,0.0780699126303196
1772527255744594400,5.325594482421875,0.007924070997536182,-0.03292436448037624,0.07605623472034931
1772527255754591200,5.33559130859375,0.017338088291883467,0.003375613912940025,0.06024374856054782
1772527255764589300,5.34558935546875,0.065301324211061,0.03115501672029495,0.007349778240919112
1772527255774587400,5.35558740234375,0.09746814832240343,0.058202598121762275,-0.02941401827186346
1772527255784585200,5.365585205078125,0.08368862929493188,0.05907762739062309,-0.06283873348981142
1772527255794583300,5.375583251953125,0.051398178803920745,0.05492518388628959,-0.061003042495250695
1772527255804581400,5.385581298828125,0.05055032980293035,0.029274609801173208,-0.01395604463815689
1772527255814578200,5.395578125,0.04506546865105629,-0.005903671085834503,0.03185965785831213
1772527255824576300,5.405576171875,0.024387130020558832,-0.0012105448335409164,0.03829670516848564
1772527255834574300,5.41557421875,0.028081016102433205,0.014051321706175804,0.05550473733991384
1772527255844572400,5.425572509765625,0.05313683916479349,0.013903437668085097,0.05380670125037432
1772527255854570500,5.435570556640625,0.07534808645099401,-0.0183867205619812,0.012547931405901908
1772527255864568300,5.445568359375,0.08255261100232601,-0.052259179547429084,-0.040536885310709474
1772527255874566400,5.45556640625,0.057607262577116486,-0.040814825469255446,-0.07640753237605094
1772527255884563200,5.465563232421875,0.02416676526814699,-0.03975158015191555,-0.06627659898400307
1772527255894561300,5.475561279296875,-0.021997604535520077,-0.06252864462733268,-0.04021247566193342
1772527255904559400,5.485559326171875,-0.042755145882070064,-0.06172434250712394,-0.02280161439478397
1772527255914557200,5.49555712890625,-0.011950257773697376,-0.10132453148961067,-0.012727671886980534
1772527255924555300,5.50555517578125,0.014205635485053061,-0.13031857078373432,0.00853022019714117
1772527255934553300,5.51555322265625,-0.014003390911221504,-0.0935457141816616,-0.015245792187750339
1772527255944550400,5.52555029296875,-0.0672246934890747,-0.08087854031026363,-0.042032676826417446
1772527255954548500,5.535548583984375,-0.09956891999393701,-0.07142039161324501,-0.04900748427510261
1772527255964546300,5.54554638671875,-0.06615238808244467,-0.06649462564885616,-0.0016217559829354285
1772527255974544400,5.55554443359375,-0.02684066065251827,-0.05715922654867172,0.02462766077816486
1772527255984542500,5.56554248046875,-0.015303367593884468,-0.06493979742228985,0.023349311405420303
1772527255994540300,5.575540283203125,-0.02575929515659809,-0.05474807375371456,0.030946050144731996
1772527256004538400,5.585538330078125,-0.013608546374738215,-0.02206219420433044,0.041751521797478194
1772527256014535200,5.59553515625,-0.009654255791008473,-0.002072130098938942,0.03990530940890312
1772527256024533200,5.605533203125,0.010465279912948608,0.014561609315872191,0.026360183659195898
1772527256034531300,5.61553125,0.051533203360438345,0.018249357917904854,0.006840659675002097
1772527256044529200,5.625529052734375,0.08006868523210287,0.014481529816985129,0.006062661039829254
1772527256054527200,5.63552734375,0.08571750477403402,0.011415712505578993,0.020762509782612324
1772527256064525300,5.645525390625,0.057796939930319785,0.00035012861192226406,0.004921674311161041
1772527256074522400,5.6555224609375,0.021307868705689906,-0.01341711545586586,-0.015990473075211047
1772527256084520400,5.6655205078125,0.003890577697753906,0.0037649054914712906,0.0036672903358936308
1772527256094518300,5.675518310546875,0.018999007241427897,0.0032400048345327375,0.01860153235644102
1772527256104516400,5.685516357421875,0.06518968053013086,-0.02046761848926544,0.04271919778585434
1772527256114514400,5.695514404296875,0.10701748243421315,-0.0298719911724329,0.04766220714598894
1772527256124512300,5.70551220703125,0.1062359766677022,-0.042533319824934,0.046132221099734305
1772527256134509300,5.71550927734375,0.06796265237480402,-0.04543137935400009,0.0452741429656744
1772527256144509400,5.725509521484375,0.020802549532055854,-0.04324585200846195,0.04641805230379104
1772527256154507500,5.735507568359375,-0.003350479471683502,-0.045447161445021624,0.055578971619904036
1772527256164504300,5.74550439453125,0.04155395339876413,-0.04142272823452949,0.07862988460063934
1772527256174502400,5.75550244140625,0.07741612489670514,-0.05955342820882797,0.09048252721875906
1772527256184500200,5.765500244140625,0.08721709568202494,-0.07147241406142711,0.10190788433551788
1772527256194498300,5.775498291015625,0.0641091918170452,-0.05079378316998481,0.10740414366424084
1772527256204496400,5.785496337890625,0.03360971639603376,-0.06256488498449325,0.10122603955119848
1772527256214494200,5.795494140625,0.0005102876096963882,-0.04096095594167709,0.09461392793506383
1772527256224491300,5.8054912109375,0.004062719394266605,0.018895839127898214,0.06826806506216526
1772527256234489000,5.815489013671875,0.054525955435633655,0.04511106135845184,-0.004324877461791038
1772527256244487200,5.825487060546875,0.11665975552648306,0.02877250549793243,-0.054581485015153884
1772527256254485200,5.8354853515625,0.13678747453689574,0.032578327521681785,-0.07126081713736057
1772527256264483300,5.8454833984375,0.12476210570037365,0.02322480824291706,-0.04981295543909073
1772527256274481400,5.8554814453125,0.06023761108070612,0.008578443253040312,-0.0015641805768013
1772527256284479500,5.8654794921875,0.00972790554910898,0.03234627233147621,0.058544835688173764
1772527256294476300,5.875476318359375,-0.011628770734369754,0.04095978689789772,0.08653262054920197
1772527256304474400,5.885474365234375,0.05697013371735811,-0.014856792870163917,0.09913374344706535
1772527256314472200,5.89547216796875,0.09469722230434417,-0.029013328516483305,0.11217939524203538
1772527256324470300,5.90547021484375,0.09160627055168151,-0.022992753052711486,0.08481558749824762
1772527256334468400,5.91546826171875,0.05790683004558086,-0.010815408524870871,0.040597091065347195
1772527256344466200,5.925466064453125,0.028099136281013487,0.03153261786103249,-0.021202947026491163
1772527256354463200,5.935463134765625,-0.004003098161518574,0.019116788402199745,-0.033438743743300435
1772527256364461000,5.9454609375,-0.019412264217436314,-0.0018079262048006056,-0.013345803785324096
1772527256374459400,5.95545947265625,0.06542582737356424,-0.0069482117027044295,0.042082653447985646
1772527256384457500,5.96545751953125,0.1526557825371623,-0.05993453648090362,0.09146861564666033
1772527256394455300,5.975455322265625,0.12792290781885385,-0.07491875512301921,0.12037994509339332
1772527256404453400,5.985453369140625,0.031902912478148936,-0.03329670492410659,0.13376228149682282
1772527256414450400,5.995450439453125,-0.023882395368814466,-0.00018996961414813993,0.12506605708301066
1772527256424448300,6.0054482421875,0.027319384080171583,0.01630757620036602,0.08043079654276371
1772527256434446300,6.0154462890625,0.10795622458904981,0.02243745725750923,-0.006119944185018539
1772527256444444200,6.025444091796875,0.15458850416541098,-0.0006295300751924514,-0.04322860861271619
1772527256454442200,6.035442138671875,0.11363456248641013,-0.004383329650759697,-0.02596621590554714
1772527256464440300,6.0454404296875,0.05059913738071918,-0.0021036942809820173,0.057064826263487335
1772527256474438100,6.055438232421875,-0.03050970455408096,-0.015589783319830894,0.12012217094004153
1772527256484435200,6.065435302734375,-0.08886252480149269,-0.03692950846850872,0.15267010332345962
1772527256494433300,6.075433349609375,-0.06596329525113105,-0.05237900653481483,0.16766835049092768
1772527256504431400,6.085431396484375,-0.03282031958401203,-0.027884032225608823,0.16002894165366888
1772527256514429400,6.095429443359375,0.03824088332802057,0.011158522874116897,0.1132522851705551
1772527256524427500,6.105427490234375,0.08363660684674978,0.007177344283461571,0.03414484618604183
1772527256534425300,6.11542529296875,0.09585019173175095,-0.009034954848885536,-0.034108898089826103
1772527256544422400,6.12542236328125,0.16247341219633818,0.008771919998526573,-0.05476677845418453
1772527256554420200,6.135420166015625,0.17819266711473464,-0.01930266636312008,-0.03869885622859001
1772527256564418300,6.145418212890625,0.11764175230115652,-0.03915069164931774,-0.04836714054495096
1772527256574416400,6.15541650390625,0.05615501794219017,-0.0400151995241642,-0.03807546363323927
1772527256584414200,6.165414306640625,0.015301614028215407,-0.010922376030683517,-0.03750847740024328
1772527256594412300,6.175412353515625,0.034950609610974785,-0.004987725284695625,-0.031652737109363074
1772527256604409300,6.185409423828125,0.07918488813489676,-0.025208675536513327,-0.028033962090313433
1772527256614407400,6.195407470703125,0.09086889618784189,-0.04687924007475376,-0.034903263337910176
1772527256624405500,6.205405517578125,0.032275837443768975,-0.04895955348014831,-0.007570435254275799
1772527256634403300,6.2154033203125,-0.01803805325478315,-0.05207914680540562,0.03001344546973705
1772527256644401400,6.2254013671875,-0.047858314239978786,-0.06643851154744625,0.07728577651530504
1772527256654399500,6.2353994140625,-0.0599573328346014,-0.06788929487764835,0.09273469005972146
1772527256664397300,6.245397216796875,-0.054444999153912065,-0.03957563906311989,0.09985416667610407
1772527256674394400,6.255394287109375,-0.025790859338641167,-0.016050386568903924,0.08361497953683138
1772527256684392200,6.26539208984375,0.019411387434601784,0.003168693163990974,0.051691316531598565
1772527256694390300,6.275390380859375,0.06301730492711066,-0.01647007328569889,0.017310615763068197
1772527256704388400,6.285388427734375,0.060357438068091865,-0.030503274813294408,-0.01737491317093372
1772527256714386200,6.29538623046875,0.05375672462880611,0.011370119798183441,-0.03841302502453327
1772527256724384300,6.30538427734375,0.06579203033745289,0.018739771783351896,-0.06402385162115097
1772527256734381300,6.31538134765625,0.097567809304595,0.0033697686940431593,-0.08031389216482639
1772527256744379400,6.32537939453125,0.1428852068901062,-0.012758943808078765,-0.040947804199159145
1772527256754377500,6.33537744140625,0.12747545631229876,-0.02222176868021488,0.0014595511585474012
1772527256764375300,6.345375244140625,0.05224982719719409,-0.03510287756323814,0.01281271982192993
1772527256774373400,6.355373291015625,-0.016878069564700126,-0.030069559571146962,0.00927314751893282
1772527256784371500,6.365371337890625,-0.06521978340744972,-0.018261632877588273,0.04808247838467359
1772527256794368300,6.3753681640625,-0.04033756334632635,-0.017360884645581245,0.06293430281877517
1772527256804366300,6.385366455078125,0.011631693343818188,-0.020533669462800025,0.06918839477747678
1772527256814364200,6.3953642578125,0.04806991116404533,-0.01653553973734379,0.036865503321588035
1772527256824362200,6.4053623046875,0.05618161368817091,0.005684475377202034,0.031766426616907116
1772527256834360300,6.4153603515625,0.062029170672595495,0.016387071177363394,0.030069559571146962
1772527256844358100,6.425358154296875,0.08014350403398275,-0.004953238493204117,0.060034489724040026
1772527256854356200,6.435356201171875,0.08797375926822423,-0.014561609315872191,0.08209522262364626
1772527256864353300,6.445353271484375,0.1008677276328206,-0.014276947155594825,0.05702800138443708
1772527256874351400,6.455351318359375,0.09590981296449899,-0.014641688814759253,0.029752748706936834
1772527256884349400,6.465349365234375,0.07426175251901149,-0.014691373175382614,0.026346155133843422
1772527256894347300,6.47534716796875,0.04957563955187797,-0.03612053017318249,0.0587023643374443
1772527256904345300,6.485345458984375,0.056879240563511846,-0.04762450548410416,0.08702654154598713
1772527256914343400,6.495343505859375,0.03245294757634401,-0.06096212596297264,0.09537468317449092
1772527256924340200,6.50534033203125,0.01911824970692396,-0.0330178879827261,0.0936544352531433
1772527256934338300,6.51533837890625,0.05341594836711883,0.01693067653477192,0.07999211286455392
1772527256944336400,6.52533642578125,0.07245762570649385,0.04959492877423763,0.04531009106189012
1772527256954334200,6.535334228515625,0.07600041287988424,0.028842648124694822,0.010221242024004458
1772527256964332300,6.545332275390625,0.05781009167283773,0.004226677784323692,0.016186580169200895
1772527256974330000,6.555330078125,0.012665420305728911,0.008297872745990753,0.05637976660877466
1772527256984327400,6.565327392578125,-0.02054389859586954,0.03395487657189369,0.08554770116508006
1772527256994325500,6.575325439453125,-0.03313391557782888,0.024914076504111288,0.08586568107306956
1772527257004323300,6.5853232421875,0.000009060089290142059,0.024279870253801343,0.09000497283488512
1772527257014321400,6.5953212890625,0.05314356116652488,-0.010538929671049118,0.11400865649580955
1772527257024319500,6.605319580078125,0.0717234662130475,-0.02328442947566509,0.07488105346113443
1772527257034317300,6.6153173828125,0.07243892100602388,0.0024678514182567596,0.030023382341861724
1772527257044315400,6.6253154296875,0.09233809195756912,0.03997720560133457,-0.0030640637457370755
1772527257054312200,6.635312255859375,0.11322948881685733,0.03653554071485996,-0.033627544313669204
1772527257064310300,6.645310302734375,0.1298392628341913,0.019099252745509148,-0.06021189211755991
1772527257074308400,6.655308349609375,0.11751140391975641,-0.026117607074975967,-0.01464139655381441
1772527257084306200,6.66530615234375,0.0693052991554141,-0.04314589876532554,0.030364158603549
1772527257094304300,6.67530419921875,0.03801613466143608,-0.03364566449224949,0.0746358465284109
1772527257104302300,6.68530224609375,0.03425912021547556,-0.0311702142894268,0.10688362692147493
1772527257114299400,6.69529931640625,0.0429646969795227,-0.025094109246134755,0.11965221534073352
1772527257124297500,6.70529736328125,0.04916968909949064,-0.024319617742300032,0.09301701413244008
1772527257134295300,6.71529541015625,0.04520955329686403,-0.04238660483062267,0.05528963328450918
1772527257144293400,6.72529345703125,0.00824789612442255,-0.05909867017865181,0.02644201672375202
1772527257154291500,6.73529150390625,-0.029084055665135382,-0.053988779819011685,0.020536299811303615
1772527257164289300,6.745289306640625,-0.03667582596838474,-0.03529109361171722,0.018878887993097303
1772527257174286300,6.755286376953125,-0.008531681501865387,-0.03984393461048603,0.0030035657301545142
1772527257184284200,6.7652841796875,0.04778349543809891,-0.041434418672323226,-0.002368190436065197
1772527257194282200,6.7752822265625,0.07116174067705869,-0.024909400328993796,0.010907178461551665
1772527257204280300,6.7852802734375,0.08724193786233662,-0.020793197181820867,-0.011212298887968063
1772527257214278100,6.795278076171875,0.09169219526946544,-0.016529109996557236,-0.020293138705193996
1772527257224276200,6.805276123046875,0.11848989356309175,0.006912555867433548,-0.019998247411847112
1772527257234273300,6.815273193359375,0.13197072190493345,0.028881811091303822,-0.03674421502947807
1772527257244271400,6.825271240234375,0.16000030008107421,0.04622516008019447,-0.04705342759788036
1772527257254269400,6.83526953125,0.16685031210631132,0.04517711233198642,-0.05784019455015659
1772527257264267300,6.845267333984375,0.14038023833185434,0.04376958362162113,-0.05005231715291738
1772527257274265300,6.855265380859375,0.06420680697262286,0.010384031370282173,0.011901450195908546
1772527257284263400,6.865263427734375,-0.02368131983876228,-0.050881461453437804,0.12945669325739145
1772527257294261200,6.87526123046875,-0.03620557810813188,-0.06849076790213585,0.24761691647469997
1772527257304258300,6.88525830078125,-0.012316168476641177,-0.07269055767953396,0.30721067669391633
1772527257314256100,6.895256103515625,0.007151333059370517,-0.06978139223456382,0.28639994385540485
1772527257324254200,6.905254150390625,-0.008596855692565441,-0.05456628744602203,0.2248611870482564
1772527257334252300,6.915252197265625,0.0005503273591399193,-0.04230944794118404,0.121755032838881
1772527257344250000,6.92525,0.015094401018321513,0.004954992058873176,-0.006677870328724384
1772527257354248200,6.935248291015625,0.05263385807871818,0.03407587260305881,-0.12744827604442835
1772527257364245500,6.94524560546875,0.07631459339559078,0.034440614262223244,-0.19244126495867966
1772527257374243300,6.955243408203125,0.06694704559147358,0.00573474425971508,-0.17906068212091922
1772527257384241400,6.965241455078125,0.033737434428930284,0.013452186769247055,-0.076825173266232
1772527257394239200,6.9752392578125,0.015268296280503272,0.06899637933671474,0.03488485089838505
1772527257404237300,6.9852373046875,0.06688596305400132,0.06909574805796145,0.07840922758728265
1772527257414235400,6.9952353515625,0.11664046630412339,0.027591771280765533,0.10419511848986149
1772527257424232200,7.005232177734375,0.08521890760213136,0.019950316616892814,0.14495470664054155
1772527257434230300,7.015230224609375,0.0472325835570693,0.025266543203592298,0.18346797716915605
1772527257444228400,7.025228271484375,0.038629005862772466,0.0015285247415304183,0.18424363771677016
1772527257454226200,7.03522607421875,0.05288637153506279,-0.0014607202023267745,0.1663067067489028
1772527257464224300,7.045224365234375,0.04748948092758655,0.011775193467736244,0.13226970485150813
1772527257474222000,7.05522216796875,0.029262627102434633,0.009560440027713776,0.10883797585964203
1772527257484220200,7.06522021484375,0.02193856782466173,0.011840075397491455,0.1212824468910694
1772527257494217500,7.075217529296875,0.039250644892454147,0.0012584756284952164,0.12045739424377679
1772527257504215300,7.08521533203125,0.05942249530553818,-0.03501461475789547,0.10074994647204875
1772527257514213400,7.09521337890625,0.10419541075080632,-0.051962826949357985,0.08390022621899842
1772527257524211500,7.10521142578125,0.12249942146539687,-0.0493652116715908,0.0446226933196187
1772527257534209300,7.115209228515625,0.09297609760016202,-0.0022357962280511855,0.01936141081303358
1772527257544207400,7.125207275390625,0.08168459599614143,0.03463467552959919,-0.01317658469825983
1772527257554204200,7.1352041015625,0.09282529095262289,0.0006762918263673782,-0.060222705772519106
1772527257564202200,7.1452021484375,0.04825169747173786,-0.04445405875444412,-0.04302899438738823
1772527257574200300,7.155200439453125,-0.015361819782853125,-0.05556172822415829,0.009108604606986046
1772527257584198100,7.1651982421875,-0.0699959117680788,-0.04095803333222866,0.05813420906066894
1772527257594196200,7.1751962890625,-0.0936328079432249,-0.04657587321400642,0.08971768032610417
1772527257604194300,7.1851943359375,-0.06281126096099615,-0.02701543269753456,0.09846855753660201
1772527257614191400,7.19519140625,0.048641865833103655,-0.00920855785012245,0.07513765857070684
1772527257624189400,7.205189453125,0.11764058325737714,-0.013490765213966369,0.01740384700447321
1772527257634187300,7.215187255859375,0.10236965662837028,-0.008919219514727591,-0.020380816988646983
1772527257644185300,7.225185302734375,0.06330605874061584,0.0045031566381454466,-0.03998655795156956
1772527257654183400,7.235183349609375,0.028117548720538614,-0.0083785367667675,-0.04082973077744245
1772527257664181500,7.245181396484375,0.005078618438541889,-0.008394318857789039,-0.011712941886484623
1772527257674179300,7.255179443359375,0.03668108666539192,0.006526186898350716,0.010524608884751796
1772527257684176400,7.26517626953125,0.06723024644702673,0.050497430571913714,0.011031681624054908
1772527257694174500,7.275174560546875,0.09384761973768473,0.030841128465533253,-0.003385258524119854
1772527257704172300,7.28517236328125,0.08964081569761037,-0.03041384296417236,0.03056727996021509
1772527257714170400,7.29517041015625,0.09564327098280191,-0.04188508504927158,0.09286737652868032
1772527257724168400,7.30516845703125,0.06343845294862985,-0.06684826139211654,0.12403583725243807
1772527257734166300,7.315166259765625,0.05005640880614519,-0.05289747745096683,0.14056670081466435
1772527257744163600,7.32516357421875,0.06647153703421355,-0.017882862693071364,0.13847089757919312
1772527257754161400,7.335161376953125,0.08164221815913915,0.005333762243390083,0.1110609126061201
1772527257764159500,7.345159423828125,0.09507043953090906,0.009435352343320847,0.08209405357986688
1772527257774157600,7.355157470703125,0.09118015409409999,0.0031488194197416305,0.0631944150596857
1772527257784155400,7.3651552734375,0.06015519349426031,-0.01695581097602844,0.09786386964172124
1772527257794153500,7.375153564453125,0.004176701162755489,-0.018290274450182914,0.1063973047092557
1772527257804150300,7.385150390625,-0.023263386687636375,-0.01405365979373455,0.1058282726496458
1772527257814148400,7.3951484375,-0.011488777741789817,0.0014227262794971466,0.09467705629914998
1772527257824146400,7.405146484375,0.0477639139547944,0.02111468422114849,0.060659051363170145
1772527257834144300,7.415144287109375,0.10644815811365842,0.03828559925258159,0.03222118464708328
1772527257844142300,7.425142333984375,0.11421733081042766,0.032055764952301974,-0.0008005027279257774
1772527257854140400,7.435140380859375,0.1091875199496746,0.009334814578294753,0.005650865368545055
1772527257864138200,7.44513818359375,0.08294979362636803,0.0005804302364587784,0.05119271935969591
1772527257874135600,7.455135498046875,0.05823328552097082,-0.019959668967127798,0.0877662539973855
1772527257884133400,7.46513330078125,0.029448212802410122,-0.008991700229048728,0.09094400725066662
1772527257894131500,7.47513134765625,0.016748597966134548,0.05854220533967018,0.08031359990388154
1772527257904129500,7.485129638671875,0.03680822017639875,0.06594575959444046,0.045156069543957705
1772527257914127400,7.49512744140625,0.06822481044232845,0.022877602240443228,0.015829729555547237
1772527257924125400,7.50512548828125,0.06932341933399438,0.006209376034140586,0.01768821690380573
1772527257934122200,7.515122314453125,0.03469429676234722,-0.015356559085845947,0.03673690850585699
1772527257944120300,7.525120361328125,0.019649287843704222,-0.03390168507993221,0.049424248382449146
1772527257954118400,7.535118408203125,0.020892565903067588,-0.029585575446486472,0.05986527063697576
1772527257964116200,7.5451162109375,0.04025777610838413,-0.014734043273329734,0.059741059735417365
1772527257974114300,7.5551142578125,0.05254588753432035,-0.005309212324023246,0.04404927734583616
1772527257984112400,7.5651123046875,0.0887634483411908,-0.00552431637942791,0.036578503073751926
1772527257994109400,7.575109375,0.09347790964245796,-0.02861877624094486,0.01927723966091871
1772527258004107500,7.585107421875,0.07249883449971675,-0.054150107860565184,0.023214579109847543
1772527258014105300,7.595105224609375,0.04895078565180301,-0.04348550598323345,0.04003039709329605
1772527258024103400,7.605103515625,0.019763269612193105,-0.023300796088576315,0.03670417528003454
1772527258034101500,7.6151015625,-0.029713585740327834,-0.016259060883522032,0.03876929111629724
1772527258044099300,7.625099365234375,-0.013370353704690932,-0.03518821775913238,0.056113224627077574
1772527258054097400,7.635097412109375,0.05210661933422088,-0.01838379795253277,0.05608604435920715
1772527258064094200,7.64509423828125,0.09094634533822536,0.0013537526965141295,0.04697422488182783
1772527258074092300,7.65509228515625,0.07877016985416412,0.00980243209004402,0.03337532311826944
1772527258084090400,7.66509033203125,0.07076835744529962,0.02612695942521095,0.03721066349744796
1772527258094088200,7.675088134765625,0.041732524836063385,0.02524608493745327,0.010842881053686141
1772527258104086300,7.685086181640625,0.01695288836658001,0.02570142748951912,0.04827770869582891
1772527258114084600,7.695084716796875,0.039293314990401264,0.008974164572358131,0.0685518504396081
1772527258124081400,7.705081298828125,0.041240941926836965,-0.025837621089816094,0.06892506766617297
1772527258134079500,7.71507958984375,0.07691986581236124,-0.034275194567441936,0.0882630976036191
1772527258144077600,7.72507763671875,0.0816790430381894,-0.021899112597107886,0.08530600136369466
1772527258154075400,7.735075439453125,0.08054770092070102,-0.003537526476383209,0.0518771944925189
1772527258164073500,7.745073486328125,0.09644757310301065,0.011162030005455017,0.02986059299558401
1772527258174071300,7.7550712890625,0.13628741606026887,0.008476736444234847,0.005087970788776874
1772527258184069400,7.7650693359375,0.13028642207980154,-0.0029991818159818646,-0.015875906784832475
1772527258194066400,7.77506640625,0.06963584628403187,-0.018218378257751463,-0.034947979262471195
1772527258204064300,7.785064208984375,-0.007950374482572077,-0.039137832167744635,-0.04447714736908674
1772527258214062300,7.795062255859375,-0.04894581721574068,-0.045806057885289186,0.0027250410497188567
1772527258224060400,7.805060302734375,-0.07569733828008174,-0.018498948764801026,0.05318681578636169
1772527258234058500,7.81505859375,-0.07414104874879121,-0.020019874721765515,0.07942132723927497
1772527258244056600,7.825056640625,-0.03239917156249285,-0.019193360769748688,0.0651075552046299
1772527258254053400,7.835053466796875,0.03739712598025799,-0.015011691170930862,0.060438102088868614
1772527258264051500,7.845051513671875,0.07240881812870502,-0.018958967491984367,0.038567046542465684
1772527258274049500,7.855049560546875,0.04638911847025156,-0.01405190622806549,0.021131343095004557
1772527258284047400,7.86504736328125,0.02430149756371975,-0.011150339567661285,0.013443126679956912
1772527258294045400,7.87504541015625,0.013562661406397818,-0.020954525223374366,0.0181754158988595
1772527258304043500,7.88504345703125,-0.008740355816483497,-0.013871288964152335,0.04047434146851301
1772527258314040300,7.895040283203125,0.022478958311676976,-0.0037128830432891845,0.0453328874155879
1772527258324038400,7.905038330078125,0.07583060927093029,-0.000772153416275978,0.04410246883779764
1772527258334036200,7.9150361328125,0.10557195980101823,0.005059621477127075,0.046316345494985575
1772527258344034600,7.92503466796875,0.10256634824424982,0.012760697373747824,0.05205956532210111
1772527258354032600,7.93503271484375,0.08781096992194652,-0.013146481820940971,0.059174950285255906
1772527258364030500,7.945030517578125,0.014988310295343399,-0.03207797678411007,0.049427463252842425
1772527258374028500,7.955028564453125,-0.03545008356571197,-0.04330313515365124,0.05642857418656349
1772527258384025300,7.965025390625,-0.04126023114919662,-0.033277415701746936,0.06519377218335866
1772527258394023400,7.9750234375,-0.019480945539474485,-0.029995909813046454,0.0433656789958477
1772527258404021500,7.985021484375,0.01588935078829527,-0.05248889665007591,0.03686199619024992
1772527258414019300,7.995019287109375,0.014199790266156196,-0.060464113312959665,0.03322597777545452
1772527258424017400,8.005017333984375,0.01197276186645031,-0.07109715100824833,0.059032034683227534
1772527258434015500,8.015015380859374,0.020713702204823492,-0.04954524441361427,0.07086655712276697
1772527258444012300,8.02501220703125,0.05070493584275245,-0.04189794453084469,0.0472258615553379
1772527258454010400,8.03501025390625,0.05295592963993549,-0.03947685486376285,0.011534078188240527
1772527258464008400,8.045008544921876,0.046130467534065245,-0.02596153973042965,-0.010943711079657078
1772527258474006500,8.055006591796875,0.04354220460653305,-0.026005963394045827,-0.025142916823923587
1772527258484004600,8.065004638671875,0.02867196773290634,-0.014328969603776932,-0.011254384464025496
1772527258494002400,8.07500244140625,0.021488778230547904,0.006268412744998932,-0.014411679451167583
1772527258503999500,8.08499951171875,0.0371197703436017,0.015688567519187926,-0.007030337028205394
1772527258513997300,8.094997314453124,0.05302431870102882,0.0013140052080154417,0.012606968116760254
1772527258523995400,8.104995361328125,0.06063537822663784,-0.012964110991358756,0.03510580017268657
1772527258533993500,8.114993408203125,0.04733750523626804,-0.01741641422510147,0.05163052625507116
1772527258543991300,8.1249912109375,0.006439969919621944,-0.0033732758253812787,0.05645137054026127
1772527258553989400,8.1349892578125,-0.01846943040937185,-0.018003274202346802,0.058335869112610815
1772527258563987500,8.144987548828125,0.011648644478619097,-0.032550854992866515,0.07478606865406036
1772527258573984500,8.154984619140626,0.03196311823278666,-0.03224690361022949,0.09167816674411296
1772527258583982600,8.164982666015625,0.012931670026481152,-0.03495616256892681,0.0652858343809843
1772527258593980400,8.17498046875,0.012969663949310779,-0.034548166289925575,0.05287292753159999
1772527258603978500,8.184978515625,0.014684066651761531,0.007125321835279464,0.042291327762603755
1772527258613976600,8.1949765625,0.03553074758648872,0.03757774324417114,0.026203824053704736
1772527258623974400,8.204974365234374,0.06490501836985349,0.044917000091075895,0.0094809450507164
1772527258633971500,8.214971435546875,0.10397358469367027,0.03663607847988605,-0.002599368843436241
1772527258643969800,8.2249697265625,0.12858429433703422,0.046539048334956166,-0.012547931405901908
1772527258653967600,8.234967529296876,0.12792203103601932,0.04033142586648464,-0.017262977229058743
1772527258663965700,8.244965576171875,0.08795476230680942,0.021973346877098083,0.008845277495682239
1772527258673963800,8.2549638671875,0.06128273621946573,-0.027412323060631752,0.057556409172713756
1772527258683961600,8.264961669921876,0.028975042332708832,-0.05151157605051994,0.08883592905551195
1772527258693958700,8.274958740234375,0.002745499315857887,-0.04849076692461967,0.1173877775400877
1772527258703956500,8.28495654296875,-0.03131897511035204,-0.020004677152633665,0.10382160900235175
1772527258713954600,8.29495458984375,-0.020822423276305197,0.003655599898099899,0.06952098773270846
1772527258723953000,8.304952880859375,0.029990649116039273,0.012945990812778472,0.04057926314771175
1772527258733950700,8.31495068359375,0.07145458614379167,-0.005517302116751671,0.03580225800424814
1772527258743948800,8.32494873046875,0.0694748105034232,-0.04207680822908878,0.04787994154989719
1772527258753947000,8.33494677734375,0.030161914029717445,-0.03807750945985317,0.05273848749697208
1772527258763943700,8.344943603515626,0.0018336451679468154,-0.012613982379436492,0.05336947887688875
1772527258773941800,8.354941650390625,0.020814239969849584,-0.007887538379430771,0.047401802644133566
1772527258783939600,8.364939697265624,0.06090747316628694,0.01823591391444206,0.03976999259144068
1772527258793937700,8.374937744140626,0.10471475844979286,0.02387012040913105,0.04077478571981191
1772527258803935700,8.384935791015625,0.11736965736150741,0.03765665369927883,0.041298517332971095
1772527258813933600,8.39493359375,0.10432897400259972,0.029752748706936834,0.04463730636686086
1772527258823930600,8.4049306640625,0.09663549689054489,0.0029302082329988478,0.0587003185108304
1772527258833928700,8.4149287109375,0.06774170310050248,0.010939327165484427,0.08033172008246182
1772527258843926800,8.4249267578125,0.04225830227583646,-0.0033317747712135314,0.07097118654102087
1772527258853924900,8.4349248046875,0.015010522127151489,-0.0361199456512928,0.03042436435818672
1772527258863922700,8.444922607421875,0.004396773654222488,-0.06206804137825966,0.040915070973336694
1772527258873920800,8.454920654296876,-0.03659165481626987,-0.0902560249865055,0.06335428179651498
1772527258883917600,8.46491748046875,-0.054281040763854975,-0.0744096365571022,0.11130787310451269
1772527258893915600,8.47491552734375,-0.05216448700129986,-0.03906301336586475,0.14222177454531193
1772527258903913700,8.484913818359376,-0.00665887336730957,-0.012357377269864082,0.11643413007706403
1772527258913911600,8.49491162109375,0.05103343714475631,0.0021329203754663468,0.08183598716557025
1772527258923909600,8.50490966796875,0.10490648162961005,0.015541852524876594,0.0707823859706521
1772527258933907700,8.51490771484375,0.10773907470703124,0.03283434810936451,0.072183192679286
1772527258943905500,8.524905517578125,0.0799953277349472,0.04573825334608555,0.06391220794022083
1772527258953902800,8.53490283203125,0.07360270408838987,0.04865560209751129,0.06690086836218834
1772527258963900700,8.544900634765625,0.09825666835159062,0.03905833719074726,0.06605564970970153
1772527258973898800,8.554898681640625,0.1044666289076209,0.011027005448937416,0.07021276938915252
1772527258983896800,8.564896728515626,0.11062485927641391,-0.024501988571882245,0.07195406009852885
1772527258993894700,8.574894775390625,0.11020809516906738,-0.03336743207275867,0.05626578484028578
1772527259003892700,8.584892822265624,0.09502163195312023,-0.027712767311930654,0.05254939466565847
1772527259013889800,8.594889892578125,0.05882832880467176,-0.020186463460326192,0.0451958170324564
1772527259023887600,8.6048876953125,0.028404256707429885,0.009175240102410316,0.052477498473227024
1772527259033885700,8.6148857421875,0.06913344971984624,0.005680968245863914,0.05373714314550161
1772527259043883500,8.624883544921875,0.06968728421032429,-0.01298047760426998,0.045217736603319646
1772527259053881600,8.634881591796875,0.034384500160813326,-0.02198386827111244,0.05559592275470495
1772527259063879700,8.644879638671876,0.019120587794482707,-0.013315408647060394,0.05424509266763925
1772527259073876700,8.654876708984375,0.008353402325510979,-0.01431026490330696,0.05521978291869163
1772527259083874800,8.664874755859374,-0.007757774519920348,-0.02987374473810196,0.08215659742206334
1772527259093873000,8.674872802734376,-0.004368716603517532,-0.025475802040100096,0.10425590876638889
1772527259103870700,8.68487060546875,0.03062164049595594,-0.012903905236721039,0.09616992520540953
1772527259113868800,8.694868896484374,0.05869535007476806,0.009127309307456016,0.08388765899837017
1772527259123866600,8.70486669921875,0.06920271556377411,0.022664251750707624,0.024057167413830755
1772527259133863700,8.71486376953125,0.09722323365062474,0.021900866162776946,-0.0037748423635959624
1772527259143861800,8.72486181640625,0.10259908147007227,0.010758125379681587,-0.011002163268625735
1772527259153859600,8.734859619140625,0.08388327508419752,-0.016949381235241888,-0.00921557211279869
1772527259163857700,8.744857666015625,0.04084522060751915,-0.004193944558501243,0.020562311035394666
1772527259173855700,8.754855712890626,0.02051642606705427,0.026304654079675673,0.04038023344427347
1772527259183853600,8.764853515625,0.06244944191128015,-0.009023264411091804,0.055742053227126595
1772527259193851600,8.7748515625,0.08999562048465012,-0.03358078256249428,0.04179419189542532
1772527259203848700,8.7848486328125,0.05989478899240493,-0.01411503459215164,0.03067658555358648
1772527259213846800,8.7948466796875,0.02424655250608921,0.0005845218896865845,0.004842179334163666
1772527259223844900,8.804844970703124,0.023737726201117037,0.00044482115805149076,0.0018868366599082945
1772527259233842700,8.8148427734375,0.05174012410938739,-0.004569207611680031,-0.010201076018810271
1772527259243840800,8.8248408203125,0.06044833122193813,-0.03340484147369861,-0.03833645265698433
1772527259253838800,8.8348388671875,0.06135463241189718,-0.053040100792050356,-0.029618893194198605
1772527259263835600,8.844835693359375,0.027206863616406916,-0.07345394326746463,-0.013096505199372768
1772527259273833700,8.854833740234374,0.00436316364556551,-0.08780863183438778,0.02070610342025757
1772527259283831600,8.86483154296875,-0.01102028344720602,-0.08018821995854378,0.02580722595155239
1772527259293829600,8.87482958984375,-0.027506431084871292,-0.06826338888704776,0.020649404796957968
1772527259303827700,8.88482763671875,-0.007165653845667839,-0.06222644681036472,0.009089899906516074
1772527259313825500,8.894825439453125,0.010057575894892215,-0.054395022532343865,-0.020850772587954997
1772527259323823600,8.90482373046875,0.03208002261072397,-0.056581134399771686,-0.01535509778112173
1772527259333820700,8.914820556640626,0.029319617986679074,-0.03935819692015648,0.0021545476853847504
1772527259343818800,8.92481884765625,0.03266132963001728,-0.02339782672226429,0.01260842942148447
1772527259353816800,8.93481689453125,0.04252367521375418,-0.02361643790900707,0.03337181598693132
1772527259363814700,8.944814697265626,0.03906973536759615,-0.015108137282729148,0.07124035887122154
1772527259373812700,8.954812744140625,0.0447840213611722,-0.013231822016835213,0.10150690231919288
1772527259383810800,8.964810791015625,0.07104600534290074,0.015502105036377906,0.0972647347047925
1772527259393807600,8.9748076171875,0.09105652771443128,0.00246434428691864,0.08793342725783586
1772527259403805700,8.9848056640625,0.03570727319717407,-0.0543149430334568,0.08217033368647098
1772527259413803500,8.994803466796874,0.017518121033906934,0.03342237713038921,0.03631722178906202
1772527259423801600,9.004801513671875,0.10061053800135851,0.058601242050528524,0.03272387347221374
1772527259433799700,9.014799560546875,0.10847557228803634,0.03226911544203758,0.007345394326746463
1772527259443797500,9.024797607421876,0.11158084482699632,0.04673427864611149,-0.013088614153861998
1772527259453794800,9.034794921875,0.13860329178720712,0.019339491242170333,0.02143617126047611
1772527259463792600,9.044792724609374,0.07866992435008287,-0.00549509028494358,0.04544423883557319
1772527259473790700,9.054790771484376,0.04071750257462263,0.013563245928287506,0.04239917205125093
1772527259483788800,9.064788818359375,0.02439326750040054,0.010280570995807647,0.033247605085372924
1772527259493786600,9.07478662109375,0.022997721488773822,-0.033223639687895774,0.01672755517810583
1772527259503784700,9.08478466796875,0.03999357221424579,-0.039024434921145434,0.036839784358441825
1772527259513782800,9.09478271484375,0.08264613450467587,-0.03034428485929966,0.03870879310071468
1772527259523779600,9.104779541015626,0.11054010360240936,-0.11250292810797691,0.03790098384916782
1772527259533777700,9.114777587890625,0.035577217076718806,-0.10881108785271644,0.05488046796172857
1772527259543775500,9.124775390625,-0.0036971009522676467,-0.05693944631814956,0.09436696743667125
1772527259553773600,9.134773681640626,0.015014321519434451,-0.024705986711382865,0.09530103341639042
1772527259563771600,9.144771728515625,0.06151362236589193,0.0002484218031167984,0.06398731900304555
1772527259573769500,9.15476953125,0.11563713448047637,-0.008097381737828254,0.035516719061136244
1772527259583766800,9.164766845703125,0.11158902813345194,-0.006835983499884605,0.023365385757386684
1772527259593764900,9.174764892578125,0.06781681416332722,0.012867080357670783,0.03521072185188532
1772527259603762700,9.1847626953125,0.009587328034639358,0.016183073037862778,0.032524843768775465
1772527259613760800,9.1947607421875,-0.009495850358903407,0.02125496947467327,0.027203941006958485
1772527259623758600,9.204758544921875,0.015704349610209466,0.017001988205313682,0.015574293489754198
1772527259633756700,9.214756591796874,0.05777940427362919,0.029095161581039426,0.01771656621545553
1772527259643752700,9.224752685546875,0.12331775211095809,0.04639233334064483,0.010458265650272369
1772527259653750800,9.234750732421874,0.15594167234003542,0.029909400573372838,-0.004540566039085388
1772527259663748900,9.244748779296875,0.10250555796772241,0.013854337829351424,-0.00028232407271862027
1772527259673747000,9.254746826171875,0.03321107246726751,-0.004155366113781929,0.03458879056125879
1772527259683745000,9.2647451171875,0.00010462941825389861,-0.031153847676515578,0.05427519554495811
1772527259693742800,9.274742919921875,-0.006835398977994918,-0.050182373273372646,0.06734101334512234
1772527259703740000,9.284739990234375,-0.016454291194677353,-0.0674602558106184,0.06973346143960953
1772527259713737700,9.29473779296875,0.004728489826619625,-0.05046119021475315,0.06613105303347111
1772527259723735800,9.30473583984375,0.049936581818759436,-0.033190321940183634,0.057764498965442175
1772527259733734000,9.31473388671875,0.061812313051521774,-0.048365094718337054,0.020736206297576425
1772527259743731700,9.324731689453126,0.03614975626766682,-0.033649171623587604,0.0011085457637906074
1772527259753729800,9.334729736328125,-0.011207330451905726,-0.022877602240443228,-0.009500526534020901
1772527259763728000,9.344727783203124,-0.013352525787055492,-0.027560207098722457,0.0049032618716359135
1772527259773724700,9.354724609375,-0.006536123770475387,-0.000011690437793731688,0.034819092185795306
1772527259783722800,9.36472265625,0.03595394143462181,-0.014727029010653495,0.03746668408513069
1772527259793720800,9.374720947265626,0.05235942505151033,-0.021904373294115067,0.04536942003369331
1772527259803719000,9.384718994140625,0.07054799269288778,-0.0062730889201164245,0.07230915714651345
1772527259813717000,9.394717041015625,0.07020020216852427,-0.027464930030703542,0.07071984212845564
1772527259823714800,9.40471484375,0.07094634436070918,-0.027938977283239363,0.04089578175097704
1772527259833711900,9.4147119140625,0.060952189090847965,-0.02501286070346832,0.0396641941294074
1772527259843709700,9.424709716796874,0.00906564224809408,-0.02392798807621002,0.05605038852393627
1772527259853707800,9.434707763671875,-0.006462474012374877,-0.024201544320583343,0.07188304068893193
1772527259863705900,9.444705810546875,0.014073533537983893,-0.021418635603785513,0.06933101811856031
1772527259873703700,9.45470361328125,0.0315928236156702,0.001765256106853485,0.043032209257781506
1772527259883701800,9.46470166015625,0.04347703041583299,0.012316460737586021,0.0079363459572196
1772527259893698800,9.47469873046875,0.08814940809607505,-0.0016828385204076767,-0.022350948017835617
1772527259903697000,9.48469677734375,0.1000245548069477,-0.010863923841714859,-0.03320814985781908
1772527259913695000,9.494695068359375,0.07737316253781318,-0.019532967987656594,-0.02980477115511894
1772527259923692800,9.50469287109375,0.03069675155878067,-0.021917817297577857,-0.0016486439898610115
1772527259933691000,9.51469091796875,0.00015226795226335526,-0.02698971373438835,0.049721185502409934
1772527259943689000,9.52468896484375,-0.006422434262931346,-0.027304186511039732,0.07551672101616859
1772527259953686800,9.534686767578124,0.012837269741296767,-0.019110943183302878,0.07916267630308867
1772527259963683800,9.544683837890625,0.023481705613434312,-0.019433014744520187,0.05994885726720094
1772527259973681700,9.554681640625,0.021407821948826313,-0.03375672365128994,0.03858165958970785
1772527259983679700,9.5646796875,0.012140519648790359,-0.04621989938318729,0.05705547391325235
1772527259993677800,9.574677734375,0.022582418686151504,-0.05028408008217811,0.07826865007281303
1772527260003675600,9.584675537109375,0.012552899841964244,-0.060899582120776174,0.07927519676685332
1772527260013673700,9.594673828125,0.029599896232783793,-0.04689560668766498,0.09592588731646537
1772527260023670800,9.6046708984375,0.04465834915488958,-0.027479543077945708,0.09319149391651153
1772527260033668900,9.6146689453125,0.08799684788286685,-0.015247253492474555,0.08050736891031265
1772527260043667000,9.6246669921875,0.13655395804196596,-0.03115852385163307,0.08243219949305057
1772527260053664800,9.634664794921875,0.1394713067933917,-0.029690789386630057,0.08442688044160604
1772527260063662800,9.644662841796874,0.12143062319010496,-0.01783726998567581,0.0918634601831436
1772527260073661000,9.654660888671875,0.05260346294045448,-0.013032500052452087,0.09086480453461408
1772527260083657700,9.66465771484375,-0.022343933755159376,0.00850888514816761,0.08023001327365636
1772527260093655800,9.67465576171875,-0.060574295689165586,0.026222821015119552,0.06426438237875699
1772527260103654000,9.68465380859375,-0.0713487876817584,0.017124153280258177,0.026494331432878968
1772527260113651700,9.694651611328124,-0.023790040910243986,0.01982815154194832,0.006538461858034134
1772527260123649800,9.70464990234375,0.046294718185067175,0.017041151171922682,0.030323826593160626
1772527260133647600,9.714647705078125,0.09866612593531608,0.014846271476149558,0.03425473630130291
1772527260143645700,9.724645751953124,0.1100043892905116,0.02975508679449558,0.019929273828864096
1772527260153643000,9.73464306640625,0.09788812730014324,0.02889057891964912,0.007640870141983031
1772527260163640800,9.744640869140625,0.0673860215306282,0.011577625069022178,0.021218729117512703
1772527260173639000,9.754638916015624,0.03729278882294893,-0.005108136793971062,0.044372810211777684
1772527260183637000,9.764636962890625,0.027588264149427413,-0.023859014493227002,0.04913549456894398
1772527260193634800,9.774634765625,0.03004354834705591,-0.020037410378456116,0.05748217489272356
1772527260203633000,9.7846328125,0.055853112386167046,0.00376665905714035,0.042996261161565776
1772527260213629700,9.794629638671875,0.09692015905082225,0.006733692169189453,0.0009372808501124381
1772527260223627800,9.804627685546874,0.09225888924151658,-0.002409399229288101,-0.026724340796470642
1772527260233625900,9.8146259765625,0.06786036104410886,0.00022445640563964844,-0.021404607078433037
1772527260243623700,9.824623779296875,0.03722264619618654,0.0019353519767522811,-0.026401684713363648
1772527260253621800,9.834621826171874,0.040136195555329324,-0.00828793587386608,-0.0031824294283986088
1772527260263619800,9.844619873046875,0.028785072718560695,-0.02510053898692131,0.021421265952289104
1772527260273617000,9.854616943359375,0.019533260248601435,-0.046156186497211454,0.03342851461023092
1772527260283615000,9.864614990234376,0.0000672200173139572,-0.06497019256055354,0.050076574811339376
1772527260293612800,9.87461279296875,-0.0028109657675027848,-0.03713467565178871,0.055818333333730694
1772527260303611000,9.88461083984375,0.019369594119489193,-0.014707739788293837,0.056499593596160406
1772527260313609000,9.89460888671875,0.03443243095576763,-0.025454174730181692,0.03469254319667816
1772527260323606800,9.904606689453125,0.035523148801922796,-0.036975685697793956,0.04253039721548557
1772527260333604900,9.91460498046875,0.01890168434679508,-0.03334346667528152,0.05105711028128862
1772527260343601700,9.9246015625,0.012649053692817687,-0.03287994081676006,0.052853638309240336
1772527260353599700,9.934599853515625,0.024397066892683505,-0.056412207573652264,0.06489741958528757
1772527260363597800,9.944597900390624,0.03753419636338949,-0.05511339993476867,0.08015110281854868
1772527260373595600,9.954595703125,0.0269482126802206,-0.01448328338265419,0.08143938906341791
1772527260383593700,9.96459375,0.026207915706932542,0.027616905722022054,0.08900953205674886
1772527260393591800,9.974591796875,0.02799889077693224,0.051689855226874346,0.0738818132907152
1772527260403588900,9.9845888671875,0.0566088991895318,0.053610009634494776,0.05270458522737026
1772527260413587000,9.9945869140625,0.06637216831296681,0.02717325360774994,0.0393900533631444
1772527260423584800,10.004584716796876,0.07130728662759066,0.009115034347772598,0.05387742839902639
1772527260433582800,10.014582763671875,0.07131342410743235,-0.022364976543188093,0.0676411653354764
1772527260443581000,10.024580810546874,0.07237199324965476,-0.03229132727384567,0.08601941033005714
1772527260453578800,10.034578857421875,0.08159078023284673,-0.02015782188773155,0.09545534719526767
1772527260463575800,10.044575927734375,0.0854486247047782,-0.006755319479107857,0.10004267498552799
1772527260473573600,10.05457373046875,0.0877007875457406,-0.01947860745191574,0.08084317673593759
1772527260483571700,10.06457177734375,0.08430150049626826,-0.035602059257030486,0.05986497837603092
1772527260493569800,10.07456982421875,0.09975304438918828,0.028794132807850835,0.040648821252584455
1772527260503567600,10.084567626953126,0.14783581503480672,-0.015019874477386473,0.06959580653458833
1772527260513565700,10.094565673828125,0.010543021324276923,-0.09004559710621833,0.028845278473198413
1772527260523563800,10.104563720703124,-0.005919453176856041,-0.03534253153800964,-0.009632920742034912
1772527260533560800,10.114560791015625,0.052964989729225635,-0.007943067958950997,0.01956657799631357
1772527260543559000,10.124558837890625,-0.0425704369649291,0.022229367464780807,-0.00016834230422973633
1772527260553556700,10.134556640625,0.010832359659671782,0.04961947869360447,-0.03582096270471811
1772527260563554800,10.144554931640625,0.08001637052297592,0.013653846821188927,-0.0015010522127151488
1772527260573553000,10.154552978515625,0.12491583495736121,0.11369710632860659,0.07444967630654573
1772527260583550700,10.16455078125,0.06527063681185245,0.024753332984447478,0.03190612734854221
1772527260593547800,10.1745478515625,0.022173253363370893,-0.1037719246417284,0.05700929668396711
1772527260603545900,10.1845458984375,-0.08903729684650898,-0.045260698962211604,0.0455745872169733
1772527260613543700,10.194543701171876,-0.0722284931257367,-0.03776829738020897,0.05146422977745533
1772527260623541800,10.204541748046875,0.04476268631219864,-0.018529343903064727,0.03670329849720001
1772527260633539600,10.21453955078125,0.1214922902494669,-0.011458967125415801,-0.027467852640151978
1772527260643538000,10.224537841796876,0.13796703971028326,-0.03840250363051891,-0.05006488437354564
1772527260653535000,10.234534912109375,0.11969810030907392,-0.03348609001636505,-0.06428922455906867
1772527260663533000,10.244532958984376,0.035276772825419904,-0.05443301645517349,-0.03509937043190002
1772527260673531100,10.25453125,0.0005699088424444198,-0.04560673592090606,-0.009109773650765419
1772527260683529000,10.264529052734375,-0.011562427499890327,-0.03763268830180168,0.04383446555137634
1772527260693527000,10.274527099609376,0.0037274960905313488,-0.03404138581156731,0.059146308712661265
1772527260703525000,10.284525146484375,0.0022650223225355146,-0.03065700407028198,0.06101473293304443
1772527260713523000,10.29452294921875,0.05909194817692041,0.054358197653293604,0.05596534058898687
1772527260723520000,10.30452001953125,0.07504676541686058,0.022260347124934195,0.018904606956243512
1772527260733517800,10.314517822265625,0.03087093908190727,-0.210846397960186,-0.019426000481843946
1772527260743516000,10.324515869140624,-0.033681904849410055,-0.09782090728282927,0.0013031915530562401
1772527260753514000,10.334513916015625,-0.07992810771763324,-0.00652034167945385,0.009013327538967133
1772527260763511800,10.34451171875,-0.03325841874033213,-0.01797054097652435,0.01656242774426937
1772527260773510000,10.354510009765624,0.06173018772602081,0.04112696015834808,0.004486205503344535
1772527260783507000,10.3645068359375,0.12605477585941552,0.041619712111353874,-0.005454173752665519
1772527260793505000,10.374505126953125,0.13837941990345715,0.024632336953282354,-0.006038987903296947
1772527260803503000,10.384503173828126,0.13226619772017,-0.002788753935694694,0.01269990709722042
1772527260813501000,10.3945009765625,0.09801379950642586,-0.024478023174405096,0.043643911415338514
1772527260823499000,10.4044990234375,0.022191958063840864,-0.06993102983832358,0.08620528829097747
1772527260833497000,10.4144970703125,-0.02859130371212959,-0.05158697937428951,0.07152823590189218
1772527260843495000,10.424494873046875,-0.0016918986096978188,-0.024440029251575467,0.05793664066195488
1772527260853492000,10.434491943359374,0.01302928518205881,-0.00011105915904045104,0.025533377446234226
1772527260863489800,10.44448974609375,0.04112696015834808,-0.022169161710143086,-0.004098082968592644
1772527260873488000,10.45448779296875,0.05607786105275154,-0.03897767316997051,0.015511749647557735
1772527260883486000,10.46448583984375,0.04720540328919887,-0.032499417066574096,0.03243102800548076
1772527260893483800,10.47448388671875,0.025510873353481293,-0.046124622315168375,0.03939677536487579
1772527260903481900,10.48448193359375,0.0033329438149929044,-0.03274725434780121,0.03428074752539396
1772527260913479000,10.49447900390625,0.020014614024758338,-0.01395604463815689,0.048725160202383995
1772527260923477000,10.50447705078125,0.04640256247371435,-0.015683306822180748,0.044912616176903244
1772527260933475000,10.51447509765625,0.06561959637999534,-0.01602642117142677,0.030808395239710806
1772527260943473000,10.524472900390625,0.05392039075791835,-0.015697335347533224,0.04036123648285866
1772527260953471000,10.534470947265625,0.02800970443189144,-0.012536825489997863,0.07007160735279322
1772527260963469000,10.544468994140624,0.015465572418272495,-0.015018120911717414,0.08815525331497191
1772527260973465900,10.5544658203125,0.05168459452986717,0.006710311293601989,0.07454875276684761
1772527260983464000,10.5644638671875,0.06575988163352012,-0.027210663008689878,0.0642448008954525
1772527260993461800,10.574461669921876,0.07795037790387868,-0.0010264204382896423,0.03788286367058754
1772527261003459800,10.5844599609375,0.11632307091802357,-0.001717325311899185,0.02103022080808878
1772527261013458000,10.5944580078125,0.09047697426080703,-0.002835515686869621,-0.0028580197796225547
1772527261023455700,10.604455810546876,0.04832184009850025,-0.011364274579286574,-0.018587796092033385
1772527261033453800,10.614453857421875,0.04014028720855713,-0.008794131830334662,-0.004573883786797523
1772527261043451100,10.624451171875,0.02415069091618061,-0.01332476099729538,0.0070101710230112075
1772527261053449000,10.634448974609375,0.0562625699698925,-0.017517536512017248,0.013507424087822437
1772527261063447000,10.644447021484375,0.07134498828947544,-0.037038229539990426,0.004680266770720482
1772527261073444900,10.65444482421875,0.052369654184579846,-0.04329904350042343,-0.027680910868942737
1772527261083443000,10.66444287109375,0.037299803085625166,-0.05980418809950351,-0.02369797871261835
1772527261093441000,10.67444091796875,-0.0069791913628578185,-0.054822892555594444,-0.013290858727693557
1772527261103437800,10.684437744140626,-0.037277298992872236,-0.03384907810986042,0.011933891160786152
1772527261113436000,10.694435791015625,-0.02131985140442848,-0.022553192591667173,0.030783553059399126
1772527261123434000,10.70443408203125,0.052320554345846176,0.11043138253092766,0.034353812761604784
1772527261133431800,10.714431884765625,0.06736088708937167,-0.06838146230876445,-0.04870996263325214
1772527261143430000,10.724429931640625,0.05402385113239288,-0.17342530658245087,-0.04570581238120794
1772527261153428000,10.734427978515624,0.09114742086827754,0.18427052572369573,0.03850713304877281
1772527261163425000,10.744425048828125,0.12613807022869586,-0.027484803774952885,-0.0021387655943632127
1772527261173423000,10.754423095703125,0.07936258278936147,-0.13595511536598204,0.03308101634681224
1772527261183421000,10.7644208984375,0.026126374903321266,-0.09813011936247348,0.07352905433028936
1772527261193419000,10.7744189453125,-0.051800329864025114,-0.1312643272012472,0.04350187259614467
1772527261203417000,10.7844169921875,-0.04935001410245895,-0.04069616752564907,0.08664923266619444
1772527261213415000,10.794414794921876,-0.07900982382893562,0.10655775596797466,0.12283230668157338
1772527261223413000,10.8044130859375,-0.055011400865018364,0.13063012095093726,0.09296294585764407
1772527261233409800,10.814409912109374,0.08260492571145296,0.12521627920866013,0.11091799700409173
1772527261243408000,10.824407958984375,0.1703843314513564,0.07411445300281047,0.07342530169487
1772527261253406000,10.834406005859375,0.13534808938354254,0.06405366223752498,0.00587590629607439
1772527261263403800,10.84440380859375,0.11618775410056113,0.018595979398488997,0.0034770284608006477
1772527261273401900,10.85440185546875,0.18163287069648504,-0.05367898321747779,0.02150719067007303
1772527261283400000,10.86439990234375,0.2174623089686036,-0.04193301584422588,0.0027267946153879162
1772527261293397000,10.87439697265625,0.16558949839025736,0.0012438625812530516,-0.07481704831421375
1772527261303395000,10.88439501953125,0.08956015167683362,-0.037136429217457766,-0.12068126612752675
1772527261313393000,10.894392822265624,0.08620031985491514,-0.0472825601786375,-0.09348813877552747
1772527261323391000,10.904390869140625,0.10801438451707362,-0.08734159884452819,-0.0008554477855563164
